PROLIFIC_ID,endwelcomescreen_keys.keys,endwelcomescreen_keys.rt,endinstructionscreen_keys.keys,endinstructionscreen_keys.rt,endpartnermatch_keys.keys,endpartnermatch_keys.rt,sharenextphoto_key.keys,sharenextphoto_key.rt,salience_rating,key_resp.keys,stress_level,stresslevel_keypress.keys,entiretaskloop.thisRepN,entiretaskloop.thisTrialN,entiretaskloop.thisN,entiretaskloop.thisIndex,entiretaskloop.ran,TrialNumber,Partner,Condition,Photos,Feedback,FeedbackWait,choice_keys.keys,playlottery,resumeafterlottery_keys.keys,resumeafterlottery_keys.rt,lotteryloop.thisRepN,lotteryloop.thisTrialN,lotteryloop.thisN,lotteryloop.thisIndex,lotteryloop.ran,choice_keys.rt,lotteryguess_keys.keys,lotteryguess_keys.rt,end_screen_keys.keys,end_screen_keys.rt
641361334c91a0c6ff4c5b79,space,29.2157,,,,,,,,,,,,,,,,,,,,,,,,,,,,,,,,,,,
,,,,,,,,,,,,,,,,,,,,,,,,,,,,,,,,,,,,,
,,,space,22.7749,,,,,,,,,,,,,,,,,,,,,,,,,,,,,,,,,
,,,,,space,2.8958,space,0.8027,NAN,,NAN,,0,0,0,0,1,1,Charlie,Rej,Participant_Images/641361334c91a0c6ff4c5b79/641361334c91a0c6ff4c5b79_Images/641361334c91a0c6ff4c5b79_Image_19.jpeg,did not like,3.613205605,,,,,,,,,,,,,,
,,,,,,,space,0.7618,NAN,,NAN,,0,1,1,1,1,2,Charlie,Rej,Participant_Images/641361334c91a0c6ff4c5b79/641361334c91a0c6ff4c5b79_Images/641361334c91a0c6ff4c5b79_Image_2.jpeg,did not like,4.988446431,,,,,,,,,,,,,,
,,,,,,,space,0.8534,NAN,,NAN,,0,2,2,2,1,3,Charlie,Rej,Participant_Images/641361334c91a0c6ff4c5b79/641361334c91a0c6ff4c5b79_Images/641361334c91a0c6ff4c5b79_Image_26.jpeg,did not like,3.470791822,,,,,,,,,,,,,,
,,,,,,,space,1.6683,NAN,,NAN,,0,3,3,3,1,4,Charlie,Rej,Participant_Images/641361334c91a0c6ff4c5b79/641361334c91a0c6ff4c5b79_Images/641361334c91a0c6ff4c5b79_Image_1.jpeg,liked,3.820572462,,,,,,,,,,,,,,
,,,,,,,,,,,,,,,,,,,,,,,,,999,space,5.2257,0,0,0,0,1,,,,,
,,,,,,,,,NAN,,NAN,,0,4,4,4,1,5,Charlie,Rej,Participant_Images/641361334c91a0c6ff4c5b79/641361334c91a0c6ff4c5b79_Images/641361334c91a0c6ff4c5b79_Image_28.jpeg,did not like,2.455989137,,,,,,,,,,,,,,
,,,,,,,space,0.6115,NAN,,NAN,,0,5,5,5,1,6,Charlie,Rej,Participant_Images/641361334c91a0c6ff4c5b79/641361334c91a0c6ff4c5b79_Images/641361334c91a0c6ff4c5b79_Image_7.jpeg,liked,3.79605092,,,,,,,,,,,,,,
,,,,,,,space,1.3595,NAN,,NAN,,0,6,6,6,1,7,Charlie,Rej,Participant_Images/641361334c91a0c6ff4c5b79/641361334c91a0c6ff4c5b79_Images/641361334c91a0c6ff4c5b79_Image_11.jpeg,did not like,3.562416326,,,,,,,,,,,,,,
,,,,,,,space,0.6118,NAN,,NAN,,0,7,7,7,1,8,Charlie,Rej,Participant_Images/641361334c91a0c6ff4c5b79/641361334c91a0c6ff4c5b79_Images/641361334c91a0c6ff4c5b79_Image_22.jpeg,did not like,2.843822497,,,,,,,,,,,,,,
,,,,,,,space,1.1874,NAN,,NAN,,0,8,8,8,1,9,Charlie,Rej,Participant_Images/641361334c91a0c6ff4c5b79/641361334c91a0c6ff4c5b79_Images/641361334c91a0c6ff4c5b79_Image_17.jpeg,liked,3.546495948,,,,,,,,,,,,,,
,,,,,,,,,,,,,,,,,,,,,,,,s,1,space,1.7651,0,0,0,0,1,0.8051,h,2.8243,,
,,,,,,,,,NAN,,NAN,,0,9,9,9,1,10,Charlie,Rej,Participant_Images/641361334c91a0c6ff4c5b79/641361334c91a0c6ff4c5b79_Images/641361334c91a0c6ff4c5b79_Image_8.jpeg,did not like,1.672012706,,,,,,,,,,,,,,
,,,,,,,space,0.5925,NAN,,NAN,,0,10,10,10,1,11,Charlie,Rej,Participant_Images/641361334c91a0c6ff4c5b79/641361334c91a0c6ff4c5b79_Images/641361334c91a0c6ff4c5b79_Image_18.jpeg,did not like,4.942172136,,,,,,,,,,,,,,
,,,,,,,space,0.6862,NAN,,NAN,,0,11,11,11,1,12,Charlie,Rej,Participant_Images/641361334c91a0c6ff4c5b79/641361334c91a0c6ff4c5b79_Images/641361334c91a0c6ff4c5b79_Image_6.jpeg,liked,2.50187214,,,,,,,,,,,,,,
,,,,,,,space,0.6278,NAN,,NAN,,0,12,12,12,1,13,Charlie,Rej,Participant_Images/641361334c91a0c6ff4c5b79/641361334c91a0c6ff4c5b79_Images/641361334c91a0c6ff4c5b79_Image_27.jpeg,did not like,2.071164779,,,,,,,,,,,,,,
,,,,,,,space,0.5471,NAN,,NAN,,0,13,13,13,1,14,Charlie,Rej,Participant_Images/641361334c91a0c6ff4c5b79/641361334c91a0c6ff4c5b79_Images/641361334c91a0c6ff4c5b79_Image_20.jpeg,liked,5.336503566,,,,,,,,,,,,,,
,,,,,,,,,,,,,,,,,,,,,,,,s,1,space,1.1092,0,0,0,0,1,1.3706,h,1.1663,,
,,,,,,,,,NAN,,NAN,,0,14,14,14,1,15,Charlie,Rej,Participant_Images/641361334c91a0c6ff4c5b79/641361334c91a0c6ff4c5b79_Images/641361334c91a0c6ff4c5b79_Image_29.jpeg,did not like,2.642157193,,,,,,,,,,,,,,
,,,,,,,space,0.378,NAN,,NAN,,0,15,15,15,1,16,Charlie,Rej,Participant_Images/641361334c91a0c6ff4c5b79/641361334c91a0c6ff4c5b79_Images/641361334c91a0c6ff4c5b79_Image_23.jpeg,did not like,4.456234322,,,,,,,,,,,,,,
,,,,,,,space,1.0674,NAN,,NAN,,0,16,16,16,1,17,Charlie,Rej,Participant_Images/641361334c91a0c6ff4c5b79/641361334c91a0c6ff4c5b79_Images/641361334c91a0c6ff4c5b79_Image_14.jpeg,did not like,4.438512181,,,,,,,,,,,,,,
,,,,,,,space,0.693,NAN,,NAN,,0,17,17,17,1,18,Charlie,Rej,Participant_Images/641361334c91a0c6ff4c5b79/641361334c91a0c6ff4c5b79_Images/641361334c91a0c6ff4c5b79_Image_21.jpeg,liked,2.682944783,,,,,,,,,,,,,,
,,,,,,,space,0.5526,NAN,,NAN,,0,18,18,18,1,19,Charlie,Rej,Participant_Images/641361334c91a0c6ff4c5b79/641361334c91a0c6ff4c5b79_Images/641361334c91a0c6ff4c5b79_Image_10.jpeg,liked,4.51984296,,,,,,,,,,,,,,
,,,,,,,,,,,,,,,,,,,,,,,,s,1,space,0.5674,0,0,0,0,1,0.8179,h,1.1563,,
,,,,,,,,,NAN,,NAN,,0,19,19,19,1,20,Charlie,Rej,Participant_Images/641361334c91a0c6ff4c5b79/641361334c91a0c6ff4c5b79_Images/641361334c91a0c6ff4c5b79_Image_24.jpeg,did not like,3.195382774,,,,,,,,,,,,,,
,,,,,,,space,0.6289,NAN,,NAN,,0,20,20,20,1,21,Charlie,Rej,Participant_Images/641361334c91a0c6ff4c5b79/641361334c91a0c6ff4c5b79_Images/641361334c91a0c6ff4c5b79_Image_3.jpeg,did not like,1.779333479,,,,,,,,,,,,,,
,,,,,,,space,0.417,NAN,,NAN,,0,21,21,21,1,22,Charlie,Rej,Participant_Images/641361334c91a0c6ff4c5b79/641361334c91a0c6ff4c5b79_Images/641361334c91a0c6ff4c5b79_Image_16.jpeg,liked,4.312468682,,,,,,,,,,,,,,
,,,,,,,space,0.6124,NAN,,NAN,,0,22,22,22,1,23,Charlie,Rej,Participant_Images/641361334c91a0c6ff4c5b79/641361334c91a0c6ff4c5b79_Images/641361334c91a0c6ff4c5b79_Image_25.jpeg,did not like,4.940433059,,,,,,,,,,,,,,
,,,,,,,space,0.4044,NAN,,NAN,,0,23,23,23,1,24,Charlie,Rej,Participant_Images/641361334c91a0c6ff4c5b79/641361334c91a0c6ff4c5b79_Images/641361334c91a0c6ff4c5b79_Image_9.jpeg,did not like,2.7105123,,,,,,,,,,,,,,
,,,,,,,,,,,,,,,,,,,,,,,,s,1,space,0.7674,0,0,0,0,1,1.2188,h,0.8297,,
,,,,,,,,,NAN,,NAN,,0,24,24,24,1,25,Charlie,Rej,Participant_Images/641361334c91a0c6ff4c5b79/641361334c91a0c6ff4c5b79_Images/641361334c91a0c6ff4c5b79_Image_30.jpeg,did not like,3.602308302,,,,,,,,,,,,,,
,,,,,,,space,0.567,NAN,,NAN,,0,25,25,25,1,26,Charlie,Rej,Participant_Images/641361334c91a0c6ff4c5b79/641361334c91a0c6ff4c5b79_Images/641361334c91a0c6ff4c5b79_Image_15.jpeg,did not like,4.106391878,,,,,,,,,,,,,,
,,,,,,,space,1.1439,NAN,,NAN,,0,26,26,26,1,27,Charlie,Rej,Participant_Images/641361334c91a0c6ff4c5b79/641361334c91a0c6ff4c5b79_Images/641361334c91a0c6ff4c5b79_Image_12.jpeg,did not like,3.799433026,,,,,,,,,,,,,,
,,,,,,,space,0.5069,NAN,,NAN,,0,27,27,27,1,28,Charlie,Rej,Participant_Images/641361334c91a0c6ff4c5b79/641361334c91a0c6ff4c5b79_Images/641361334c91a0c6ff4c5b79_Image_13.jpeg,did not like,5.246980764,,,,,,,,,,,,,,
,,,,,,,space,0.6394,NAN,,NAN,,0,28,28,28,1,29,Charlie,Rej,Participant_Images/641361334c91a0c6ff4c5b79/641361334c91a0c6ff4c5b79_Images/641361334c91a0c6ff4c5b79_Image_4.jpeg,liked,3.30081769,,,,,,,,,,,,,,
,,,,,,,,,,,,,,,,,,,,,,,,s,1,space,0.6568,0,0,0,0,1,0.6977,h,0.6661,,
,,,,,,,,,1,,9,,0,29,29,29,1,30,Charlie,Rej,Participant_Images/641361334c91a0c6ff4c5b79/641361334c91a0c6ff4c5b79_Images/641361334c91a0c6ff4c5b79_Image_5.jpeg,did not like,1.661473164,,,,,,,,,,,,,,
,,,,,space,2.017,space,0.5004,NAN,,NAN,,0,30,30,30,1,31,Taylor,Rej,Participant_Images/641361334c91a0c6ff4c5b79/641361334c91a0c6ff4c5b79_Images/641361334c91a0c6ff4c5b79_Image_30.jpeg,did not like,3.613205605,,,,,,,,,,,,,,
,,,,,,,space,0.751,NAN,,NAN,,0,31,31,31,1,32,Taylor,Rej,Participant_Images/641361334c91a0c6ff4c5b79/641361334c91a0c6ff4c5b79_Images/641361334c91a0c6ff4c5b79_Image_2.jpeg,liked,4.988446431,,,,,,,,,,,,,,
,,,,,,,space,0.8105,NAN,,NAN,,0,32,32,32,1,33,Taylor,Rej,Participant_Images/641361334c91a0c6ff4c5b79/641361334c91a0c6ff4c5b79_Images/641361334c91a0c6ff4c5b79_Image_10.jpeg,did not like,3.470791822,,,,,,,,,,,,,,
,,,,,,,space,0.5274,NAN,,NAN,,0,33,33,33,1,34,Taylor,Rej,Participant_Images/641361334c91a0c6ff4c5b79/641361334c91a0c6ff4c5b79_Images/641361334c91a0c6ff4c5b79_Image_16.jpeg,liked,3.820572462,,,,,,,,,,,,,,
,,,,,,,,,,,,,,,,,,,,,,,,s,1,space,0.7682,0,0,0,0,1,0.8411,h,0.8959,,
,,,,,,,,,NAN,,NAN,,0,34,34,34,1,35,Taylor,Rej,Participant_Images/641361334c91a0c6ff4c5b79/641361334c91a0c6ff4c5b79_Images/641361334c91a0c6ff4c5b79_Image_14.jpeg,did not like,2.455989137,,,,,,,,,,,,,,
,,,,,,,space,1.1594,NAN,,NAN,,0,35,35,35,1,36,Taylor,Rej,Participant_Images/641361334c91a0c6ff4c5b79/641361334c91a0c6ff4c5b79_Images/641361334c91a0c6ff4c5b79_Image_5.jpeg,did not like,3.79605092,,,,,,,,,,,,,,
,,,,,,,space,0.6034,NAN,,NAN,,0,36,36,36,1,37,Taylor,Rej,Participant_Images/641361334c91a0c6ff4c5b79/641361334c91a0c6ff4c5b79_Images/641361334c91a0c6ff4c5b79_Image_17.jpeg,did not like,3.562416326,,,,,,,,,,,,,,
,,,,,,,space,0.9647,NAN,,NAN,,0,37,37,37,1,38,Taylor,Rej,Participant_Images/641361334c91a0c6ff4c5b79/641361334c91a0c6ff4c5b79_Images/641361334c91a0c6ff4c5b79_Image_3.jpeg,liked,2.843822497,,,,,,,,,,,,,,
,,,,,,,space,0.7306,NAN,,NAN,,0,38,38,38,1,39,Taylor,Rej,Participant_Images/641361334c91a0c6ff4c5b79/641361334c91a0c6ff4c5b79_Images/641361334c91a0c6ff4c5b79_Image_21.jpeg,did not like,3.546495948,,,,,,,,,,,,,,
,,,,,,,,,,,,,,,,,,,,,,,,s,1,space,0.6062,0,0,0,0,1,0.9506,h,0.3448,,
,,,,,,,,,NAN,,NAN,,0,39,39,39,1,40,Taylor,Rej,Participant_Images/641361334c91a0c6ff4c5b79/641361334c91a0c6ff4c5b79_Images/641361334c91a0c6ff4c5b79_Image_22.jpeg,liked,1.672012706,,,,,,,,,,,,,,
,,,,,,,space,0.6173,NAN,,NAN,,0,40,40,40,1,41,Taylor,Rej,Participant_Images/641361334c91a0c6ff4c5b79/641361334c91a0c6ff4c5b79_Images/641361334c91a0c6ff4c5b79_Image_4.jpeg,liked,4.942172136,,,,,,,,,,,,,,
,,,,,,,space,0.6463,NAN,,NAN,,0,41,41,41,1,42,Taylor,Rej,Participant_Images/641361334c91a0c6ff4c5b79/641361334c91a0c6ff4c5b79_Images/641361334c91a0c6ff4c5b79_Image_9.jpeg,did not like,2.50187214,,,,,,,,,,,,,,
,,,,,,,space,0.5868,NAN,,NAN,,0,42,42,42,1,43,Taylor,Rej,Participant_Images/641361334c91a0c6ff4c5b79/641361334c91a0c6ff4c5b79_Images/641361334c91a0c6ff4c5b79_Image_11.jpeg,did not like,2.071164779,,,,,,,,,,,,,,
,,,,,,,space,0.6562,NAN,,NAN,,0,43,43,43,1,44,Taylor,Rej,Participant_Images/641361334c91a0c6ff4c5b79/641361334c91a0c6ff4c5b79_Images/641361334c91a0c6ff4c5b79_Image_20.jpeg,did not like,5.336503566,,,,,,,,,,,,,,
,,,,,,,,,,,,,,,,,,,,,,,,s,1,space,0.5903,0,0,0,0,1,0.9816,h,0.7119,,
,,,,,,,,,NAN,,NAN,,0,44,44,44,1,45,Taylor,Rej,Participant_Images/641361334c91a0c6ff4c5b79/641361334c91a0c6ff4c5b79_Images/641361334c91a0c6ff4c5b79_Image_12.jpeg,liked,2.642157193,,,,,,,,,,,,,,
,,,,,,,space,1.3682,NAN,,NAN,,0,45,45,45,1,46,Taylor,Rej,Participant_Images/641361334c91a0c6ff4c5b79/641361334c91a0c6ff4c5b79_Images/641361334c91a0c6ff4c5b79_Image_7.jpeg,liked,4.456234322,,,,,,,,,,,,,,
,,,,,,,space,0.665,NAN,,NAN,,0,46,46,46,1,47,Taylor,Rej,Participant_Images/641361334c91a0c6ff4c5b79/641361334c91a0c6ff4c5b79_Images/641361334c91a0c6ff4c5b79_Image_27.jpeg,did not like,4.438512181,,,,,,,,,,,,,,
,,,,,,,space,0.4753,NAN,,NAN,,0,47,47,47,1,48,Taylor,Rej,Participant_Images/641361334c91a0c6ff4c5b79/641361334c91a0c6ff4c5b79_Images/641361334c91a0c6ff4c5b79_Image_6.jpeg,did not like,2.682944783,,,,,,,,,,,,,,
,,,,,,,space,0.7055,NAN,,NAN,,0,48,48,48,1,49,Taylor,Rej,Participant_Images/641361334c91a0c6ff4c5b79/641361334c91a0c6ff4c5b79_Images/641361334c91a0c6ff4c5b79_Image_25.jpeg,did not like,4.51984296,,,,,,,,,,,,,,
,,,,,,,,,,,,,,,,,,,,,,,,s,1,space,0.5667,0,0,0,0,1,0.768,h,0.6649,,
,,,,,,,,,NAN,,NAN,,0,49,49,49,1,50,Taylor,Rej,Participant_Images/641361334c91a0c6ff4c5b79/641361334c91a0c6ff4c5b79_Images/641361334c91a0c6ff4c5b79_Image_18.jpeg,did not like,3.195382774,,,,,,,,,,,,,,
,,,,,,,space,0.6578,NAN,,NAN,,0,50,50,50,1,51,Taylor,Rej,Participant_Images/641361334c91a0c6ff4c5b79/641361334c91a0c6ff4c5b79_Images/641361334c91a0c6ff4c5b79_Image_28.jpeg,did not like,1.779333479,,,,,,,,,,,,,,
,,,,,,,space,0.7465,NAN,,NAN,,0,51,51,51,1,52,Taylor,Rej,Participant_Images/641361334c91a0c6ff4c5b79/641361334c91a0c6ff4c5b79_Images/641361334c91a0c6ff4c5b79_Image_15.jpeg,did not like,4.312468682,,,,,,,,,,,,,,
,,,,,,,space,1.0293,NAN,,NAN,,0,52,52,52,1,53,Taylor,Rej,Participant_Images/641361334c91a0c6ff4c5b79/641361334c91a0c6ff4c5b79_Images/641361334c91a0c6ff4c5b79_Image_13.jpeg,did not like,4.940433059,,,,,,,,,,,,,,
,,,,,,,space,0.7056,NAN,,NAN,,0,53,53,53,1,54,Taylor,Rej,Participant_Images/641361334c91a0c6ff4c5b79/641361334c91a0c6ff4c5b79_Images/641361334c91a0c6ff4c5b79_Image_23.jpeg,did not like,2.7105123,,,,,,,,,,,,,,
,,,,,,,,,,,,,,,,,,,,,,,,s,1,space,0.5981,0,0,0,0,1,0.7998,h,1.0393,,
,,,,,,,,,NAN,,NAN,,0,54,54,54,1,55,Taylor,Rej,Participant_Images/641361334c91a0c6ff4c5b79/641361334c91a0c6ff4c5b79_Images/641361334c91a0c6ff4c5b79_Image_1.jpeg,did not like,3.602308302,,,,,,,,,,,,,,
,,,,,,,space,0.6113,NAN,,NAN,,0,55,55,55,1,56,Taylor,Rej,Participant_Images/641361334c91a0c6ff4c5b79/641361334c91a0c6ff4c5b79_Images/641361334c91a0c6ff4c5b79_Image_19.jpeg,did not like,4.106391878,,,,,,,,,,,,,,
,,,,,,,space,0.5701,NAN,,NAN,,0,56,56,56,1,57,Taylor,Rej,Participant_Images/641361334c91a0c6ff4c5b79/641361334c91a0c6ff4c5b79_Images/641361334c91a0c6ff4c5b79_Image_29.jpeg,did not like,3.799433026,,,,,,,,,,,,,,
,,,,,,,space,0.6281,NAN,,NAN,,0,57,57,57,1,58,Taylor,Rej,Participant_Images/641361334c91a0c6ff4c5b79/641361334c91a0c6ff4c5b79_Images/641361334c91a0c6ff4c5b79_Image_24.jpeg,liked,5.246980764,,,,,,,,,,,,,,
,,,,,,,space,0.7504,NAN,,NAN,,0,58,58,58,1,59,Taylor,Rej,Participant_Images/641361334c91a0c6ff4c5b79/641361334c91a0c6ff4c5b79_Images/641361334c91a0c6ff4c5b79_Image_8.jpeg,liked,3.30081769,,,,,,,,,,,,,,
,,,,,,,,,,,,,,,,,,,,,,,,s,1,space,0.531,0,0,0,0,1,0.8257,h,0.2629,,
,,,,,,,,,1,,9,,0,59,59,59,1,60,Taylor,Rej,Participant_Images/641361334c91a0c6ff4c5b79/641361334c91a0c6ff4c5b79_Images/641361334c91a0c6ff4c5b79_Image_26.jpeg,did not like,1.661473164,,,,,,,,,,,,,,
,,,,,space,1.8417,space,0.444,NAN,,NAN,,0,60,60,60,1,61,Alex,Acc,Participant_Images/641361334c91a0c6ff4c5b79/641361334c91a0c6ff4c5b79_Images/641361334c91a0c6ff4c5b79_Image_1.jpeg,liked,3.613205605,,,,,,,,,,,,,,
,,,,,,,space,0.31,NAN,,NAN,,0,61,61,61,1,62,Alex,Acc,Participant_Images/641361334c91a0c6ff4c5b79/641361334c91a0c6ff4c5b79_Images/641361334c91a0c6ff4c5b79_Image_14.jpeg,did not like,4.988446431,,,,,,,,,,,,,,
,,,,,,,space,0.6768,NAN,,NAN,,0,62,62,62,1,63,Alex,Acc,Participant_Images/641361334c91a0c6ff4c5b79/641361334c91a0c6ff4c5b79_Images/641361334c91a0c6ff4c5b79_Image_6.jpeg,did not like,3.470791822,,,,,,,,,,,,,,
,,,,,,,space,0.6114,NAN,,NAN,,0,63,63,63,1,64,Alex,Acc,Participant_Images/641361334c91a0c6ff4c5b79/641361334c91a0c6ff4c5b79_Images/641361334c91a0c6ff4c5b79_Image_10.jpeg,liked,3.820572462,,,,,,,,,,,,,,
,,,,,,,,,,,,,,,,,,,,,,,,s,1,space,0.9366,0,0,0,0,1,2.1424,h,0.709,,
,,,,,,,,,NAN,,NAN,,0,64,64,64,1,65,Alex,Acc,Participant_Images/641361334c91a0c6ff4c5b79/641361334c91a0c6ff4c5b79_Images/641361334c91a0c6ff4c5b79_Image_29.jpeg,did not like,2.455989137,,,,,,,,,,,,,,
,,,,,,,space,0.6101,NAN,,NAN,,0,65,65,65,1,66,Alex,Acc,Participant_Images/641361334c91a0c6ff4c5b79/641361334c91a0c6ff4c5b79_Images/641361334c91a0c6ff4c5b79_Image_18.jpeg,liked,3.79605092,,,,,,,,,,,,,,
,,,,,,,space,0.962,NAN,,NAN,,0,66,66,66,1,67,Alex,Acc,Participant_Images/641361334c91a0c6ff4c5b79/641361334c91a0c6ff4c5b79_Images/641361334c91a0c6ff4c5b79_Image_4.jpeg,liked,3.562416326,,,,,,,,,,,,,,
,,,,,,,space,0.5933,NAN,,NAN,,0,67,67,67,1,68,Alex,Acc,Participant_Images/641361334c91a0c6ff4c5b79/641361334c91a0c6ff4c5b79_Images/641361334c91a0c6ff4c5b79_Image_7.jpeg,did not like,2.843822497,,,,,,,,,,,,,,
,,,,,,,space,0.5567,NAN,,NAN,,0,68,68,68,1,69,Alex,Acc,Participant_Images/641361334c91a0c6ff4c5b79/641361334c91a0c6ff4c5b79_Images/641361334c91a0c6ff4c5b79_Image_8.jpeg,liked,3.546495948,,,,,,,,,,,,,,
,,,,,,,,,,,,,,,,,,,,,,,,s,1,space,0.5357,0,0,0,0,1,0.7795,h,0.9771,,
,,,,,,,,,NAN,,NAN,,0,69,69,69,1,70,Alex,Acc,Participant_Images/641361334c91a0c6ff4c5b79/641361334c91a0c6ff4c5b79_Images/641361334c91a0c6ff4c5b79_Image_11.jpeg,liked,1.672012706,,,,,,,,,,,,,,
,,,,,,,space,0.4676,NAN,,NAN,,0,70,70,70,1,71,Alex,Acc,Participant_Images/641361334c91a0c6ff4c5b79/641361334c91a0c6ff4c5b79_Images/641361334c91a0c6ff4c5b79_Image_12.jpeg,liked,4.942172136,,,,,,,,,,,,,,
,,,,,,,space,0.5371,NAN,,NAN,,0,71,71,71,1,72,Alex,Acc,Participant_Images/641361334c91a0c6ff4c5b79/641361334c91a0c6ff4c5b79_Images/641361334c91a0c6ff4c5b79_Image_25.jpeg,did not like,2.50187214,,,,,,,,,,,,,,
,,,,,,,space,0.5224,NAN,,NAN,,0,72,72,72,1,73,Alex,Acc,Participant_Images/641361334c91a0c6ff4c5b79/641361334c91a0c6ff4c5b79_Images/641361334c91a0c6ff4c5b79_Image_20.jpeg,liked,2.071164779,,,,,,,,,,,,,,
,,,,,,,space,0.7536,NAN,,NAN,,0,73,73,73,1,74,Alex,Acc,Participant_Images/641361334c91a0c6ff4c5b79/641361334c91a0c6ff4c5b79_Images/641361334c91a0c6ff4c5b79_Image_23.jpeg,liked,5.336503566,,,,,,,,,,,,,,
,,,,,,,,,,,,,,,,,,,,,,,,s,1,space,0.5754,0,0,0,0,1,0.6691,h,0.4546,,
,,,,,,,,,NAN,,NAN,,0,74,74,74,1,75,Alex,Acc,Participant_Images/641361334c91a0c6ff4c5b79/641361334c91a0c6ff4c5b79_Images/641361334c91a0c6ff4c5b79_Image_16.jpeg,liked,2.642157193,,,,,,,,,,,,,,
,,,,,,,space,0.5855,NAN,,NAN,,0,75,75,75,1,76,Alex,Acc,Participant_Images/641361334c91a0c6ff4c5b79/641361334c91a0c6ff4c5b79_Images/641361334c91a0c6ff4c5b79_Image_22.jpeg,liked,4.456234322,,,,,,,,,,,,,,
,,,,,,,space,1.0924,NAN,,NAN,,0,76,76,76,1,77,Alex,Acc,Participant_Images/641361334c91a0c6ff4c5b79/641361334c91a0c6ff4c5b79_Images/641361334c91a0c6ff4c5b79_Image_3.jpeg,did not like,4.438512181,,,,,,,,,,,,,,
,,,,,,,space,0.7717,NAN,,NAN,,0,77,77,77,1,78,Alex,Acc,Participant_Images/641361334c91a0c6ff4c5b79/641361334c91a0c6ff4c5b79_Images/641361334c91a0c6ff4c5b79_Image_30.jpeg,liked,2.682944783,,,,,,,,,,,,,,
,,,,,,,space,0.6259,NAN,,NAN,,0,78,78,78,1,79,Alex,Acc,Participant_Images/641361334c91a0c6ff4c5b79/641361334c91a0c6ff4c5b79_Images/641361334c91a0c6ff4c5b79_Image_9.jpeg,liked,4.51984296,,,,,,,,,,,,,,
,,,,,,,,,,,,,,,,,,,,,,,,s,1,space,0.5989,0,0,0,0,1,0.7574,h,0.4704,,
,,,,,,,,,NAN,,NAN,,0,79,79,79,1,80,Alex,Acc,Participant_Images/641361334c91a0c6ff4c5b79/641361334c91a0c6ff4c5b79_Images/641361334c91a0c6ff4c5b79_Image_2.jpeg,liked,3.195382774,,,,,,,,,,,,,,
,,,,,,,space,1.2855,NAN,,NAN,,0,80,80,80,1,81,Alex,Acc,Participant_Images/641361334c91a0c6ff4c5b79/641361334c91a0c6ff4c5b79_Images/641361334c91a0c6ff4c5b79_Image_17.jpeg,did not like,1.779333479,,,,,,,,,,,,,,
,,,,,,,space,0.5518,NAN,,NAN,,0,81,81,81,1,82,Alex,Acc,Participant_Images/641361334c91a0c6ff4c5b79/641361334c91a0c6ff4c5b79_Images/641361334c91a0c6ff4c5b79_Image_27.jpeg,did not like,4.312468682,,,,,,,,,,,,,,
,,,,,,,space,0.605,NAN,,NAN,,0,82,82,82,1,83,Alex,Acc,Participant_Images/641361334c91a0c6ff4c5b79/641361334c91a0c6ff4c5b79_Images/641361334c91a0c6ff4c5b79_Image_21.jpeg,liked,4.940433059,,,,,,,,,,,,,,
,,,,,,,space,0.4639,NAN,,NAN,,0,83,83,83,1,84,Alex,Acc,Participant_Images/641361334c91a0c6ff4c5b79/641361334c91a0c6ff4c5b79_Images/641361334c91a0c6ff4c5b79_Image_24.jpeg,did not like,2.7105123,,,,,,,,,,,,,,
,,,,,,,,,,,,,,,,,,,,,,,,s,1,space,0.5366,0,0,0,0,1,0.8519,h,0.5131,,
,,,,,,,,,NAN,,NAN,,0,84,84,84,1,85,Alex,Acc,Participant_Images/641361334c91a0c6ff4c5b79/641361334c91a0c6ff4c5b79_Images/641361334c91a0c6ff4c5b79_Image_19.jpeg,liked,3.602308302,,,,,,,,,,,,,,
,,,,,,,space,0.5452,NAN,,NAN,,0,85,85,85,1,86,Alex,Acc,Participant_Images/641361334c91a0c6ff4c5b79/641361334c91a0c6ff4c5b79_Images/641361334c91a0c6ff4c5b79_Image_15.jpeg,liked,4.106391878,,,,,,,,,,,,,,
,,,,,,,space,0.5528,NAN,,NAN,,0,86,86,86,1,87,Alex,Acc,Participant_Images/641361334c91a0c6ff4c5b79/641361334c91a0c6ff4c5b79_Images/641361334c91a0c6ff4c5b79_Image_13.jpeg,liked,3.799433026,,,,,,,,,,,,,,
,,,,,,,space,0.7353,NAN,,NAN,,0,87,87,87,1,88,Alex,Acc,Participant_Images/641361334c91a0c6ff4c5b79/641361334c91a0c6ff4c5b79_Images/641361334c91a0c6ff4c5b79_Image_26.jpeg,liked,5.246980764,,,,,,,,,,,,,,
,,,,,,,space,0.5077,NAN,,NAN,,0,88,88,88,1,89,Alex,Acc,Participant_Images/641361334c91a0c6ff4c5b79/641361334c91a0c6ff4c5b79_Images/641361334c91a0c6ff4c5b79_Image_5.jpeg,liked,3.30081769,,,,,,,,,,,,,,
,,,,,,,,,,,,,,,,,,,,,,,,s,1,space,0.5853,0,0,0,0,1,0.7454,h,0.4579,,
,,,,,,,,,1,,9,,0,89,89,89,1,90,Alex,Acc,Participant_Images/641361334c91a0c6ff4c5b79/641361334c91a0c6ff4c5b79_Images/641361334c91a0c6ff4c5b79_Image_28.jpeg,liked,1.661473164,,,,,,,,,,,,,,
,,,,,space,1.5867,space,1.5198,NAN,,NAN,,0,90,90,90,1,91,Sam,Neutral,Participant_Images/641361334c91a0c6ff4c5b79/641361334c91a0c6ff4c5b79_Images/641361334c91a0c6ff4c5b79_Image_13.jpeg,did not like,3.613205605,,,,,,,,,,,,,,
,,,,,,,space,1.0182,NAN,,NAN,,0,91,91,91,1,92,Sam,Neutral,Participant_Images/641361334c91a0c6ff4c5b79/641361334c91a0c6ff4c5b79_Images/641361334c91a0c6ff4c5b79_Image_11.jpeg,liked,4.988446431,,,,,,,,,,,,,,
,,,,,,,space,0.8494,NAN,,NAN,,0,92,92,92,1,93,Sam,Neutral,Participant_Images/641361334c91a0c6ff4c5b79/641361334c91a0c6ff4c5b79_Images/641361334c91a0c6ff4c5b79_Image_9.jpeg,liked,3.470791822,,,,,,,,,,,,,,
,,,,,,,space,0.8664,NAN,,NAN,,0,93,93,93,1,94,Sam,Neutral,Participant_Images/641361334c91a0c6ff4c5b79/641361334c91a0c6ff4c5b79_Images/641361334c91a0c6ff4c5b79_Image_22.jpeg,did not like,3.820572462,,,,,,,,,,,,,,
,,,,,,,,,,,,,,,,,,,,,,,,s,1,space,3.2283,0,0,0,0,1,1.1467,h,0.9919,,
,,,,,,,,,NAN,,NAN,,0,94,94,94,1,95,Sam,Neutral,Participant_Images/641361334c91a0c6ff4c5b79/641361334c91a0c6ff4c5b79_Images/641361334c91a0c6ff4c5b79_Image_12.jpeg,did not like,2.455989137,,,,,,,,,,,,,,
,,,,,,,space,0.5398,NAN,,NAN,,0,95,95,95,1,96,Sam,Neutral,Participant_Images/641361334c91a0c6ff4c5b79/641361334c91a0c6ff4c5b79_Images/641361334c91a0c6ff4c5b79_Image_17.jpeg,did not like,3.79605092,,,,,,,,,,,,,,
,,,,,,,space,0.3685,NAN,,NAN,,0,96,96,96,1,97,Sam,Neutral,Participant_Images/641361334c91a0c6ff4c5b79/641361334c91a0c6ff4c5b79_Images/641361334c91a0c6ff4c5b79_Image_20.jpeg,liked,3.562416326,,,,,,,,,,,,,,
,,,,,,,space,0.669,NAN,,NAN,,0,97,97,97,1,98,Sam,Neutral,Participant_Images/641361334c91a0c6ff4c5b79/641361334c91a0c6ff4c5b79_Images/641361334c91a0c6ff4c5b79_Image_10.jpeg,liked,2.843822497,,,,,,,,,,,,,,
,,,,,,,space,1.0241,NAN,,NAN,,0,98,98,98,1,99,Sam,Neutral,Participant_Images/641361334c91a0c6ff4c5b79/641361334c91a0c6ff4c5b79_Images/641361334c91a0c6ff4c5b79_Image_15.jpeg,liked,3.546495948,,,,,,,,,,,,,,
,,,,,,,,,,,,,,,,,,,,,,,,s,1,space,0.4436,0,0,0,0,1,0.773,h,0.4318,,
,,,,,,,,,NAN,,NAN,,0,99,99,99,1,100,Sam,Neutral,Participant_Images/641361334c91a0c6ff4c5b79/641361334c91a0c6ff4c5b79_Images/641361334c91a0c6ff4c5b79_Image_25.jpeg,did not like,1.672012706,,,,,,,,,,,,,,
,,,,,,,space,1.5524,NAN,,NAN,,0,100,100,100,1,101,Sam,Neutral,Participant_Images/641361334c91a0c6ff4c5b79/641361334c91a0c6ff4c5b79_Images/641361334c91a0c6ff4c5b79_Image_27.jpeg,liked,4.942172136,,,,,,,,,,,,,,
,,,,,,,space,0.6267,NAN,,NAN,,0,101,101,101,1,102,Sam,Neutral,Participant_Images/641361334c91a0c6ff4c5b79/641361334c91a0c6ff4c5b79_Images/641361334c91a0c6ff4c5b79_Image_19.jpeg,did not like,2.50187214,,,,,,,,,,,,,,
,,,,,,,space,3.8963,NAN,,NAN,,0,102,102,102,1,103,Sam,Neutral,Participant_Images/641361334c91a0c6ff4c5b79/641361334c91a0c6ff4c5b79_Images/641361334c91a0c6ff4c5b79_Image_16.jpeg,did not like,2.071164779,,,,,,,,,,,,,,
,,,,,,,space,1.332,NAN,,NAN,,0,103,103,103,1,104,Sam,Neutral,Participant_Images/641361334c91a0c6ff4c5b79/641361334c91a0c6ff4c5b79_Images/641361334c91a0c6ff4c5b79_Image_29.jpeg,liked,5.336503566,,,,,,,,,,,,,,
,,,,,,,,,,,,,,,,,,,,,,,,s,1,space,2.1573,0,0,0,0,1,0.5147,h,0.7451,,
,,,,,,,,,NAN,,NAN,,0,104,104,104,1,105,Sam,Neutral,Participant_Images/641361334c91a0c6ff4c5b79/641361334c91a0c6ff4c5b79_Images/641361334c91a0c6ff4c5b79_Image_23.jpeg,liked,2.642157193,,,,,,,,,,,,,,
,,,,,,,space,0.6429,NAN,,NAN,,0,105,105,105,1,106,Sam,Neutral,Participant_Images/641361334c91a0c6ff4c5b79/641361334c91a0c6ff4c5b79_Images/641361334c91a0c6ff4c5b79_Image_8.jpeg,liked,4.456234322,,,,,,,,,,,,,,
,,,,,,,space,0.7137,NAN,,NAN,,0,106,106,106,1,107,Sam,Neutral,Participant_Images/641361334c91a0c6ff4c5b79/641361334c91a0c6ff4c5b79_Images/641361334c91a0c6ff4c5b79_Image_6.jpeg,liked,4.438512181,,,,,,,,,,,,,,
,,,,,,,space,3.1326,NAN,,NAN,,0,107,107,107,1,108,Sam,Neutral,Participant_Images/641361334c91a0c6ff4c5b79/641361334c91a0c6ff4c5b79_Images/641361334c91a0c6ff4c5b79_Image_28.jpeg,did not like,2.682944783,,,,,,,,,,,,,,
,,,,,,,space,0.6609,NAN,,NAN,,0,108,108,108,1,109,Sam,Neutral,Participant_Images/641361334c91a0c6ff4c5b79/641361334c91a0c6ff4c5b79_Images/641361334c91a0c6ff4c5b79_Image_2.jpeg,liked,4.51984296,,,,,,,,,,,,,,
,,,,,,,,,,,,,,,,,,,,,,,,s,1,space,0.8504,0,0,0,0,1,1.1604,h,1.2319,,
,,,,,,,,,NAN,,NAN,,0,109,109,109,1,110,Sam,Neutral,Participant_Images/641361334c91a0c6ff4c5b79/641361334c91a0c6ff4c5b79_Images/641361334c91a0c6ff4c5b79_Image_21.jpeg,did not like,3.195382774,,,,,,,,,,,,,,
,,,,,,,space,1.069,NAN,,NAN,,0,110,110,110,1,111,Sam,Neutral,Participant_Images/641361334c91a0c6ff4c5b79/641361334c91a0c6ff4c5b79_Images/641361334c91a0c6ff4c5b79_Image_3.jpeg,did not like,1.779333479,,,,,,,,,,,,,,
,,,,,,,space,1.3693,NAN,,NAN,,0,111,111,111,1,112,Sam,Neutral,Participant_Images/641361334c91a0c6ff4c5b79/641361334c91a0c6ff4c5b79_Images/641361334c91a0c6ff4c5b79_Image_26.jpeg,did not like,4.312468682,,,,,,,,,,,,,,
,,,,,,,space,0.648,NAN,,NAN,,0,112,112,112,1,113,Sam,Neutral,Participant_Images/641361334c91a0c6ff4c5b79/641361334c91a0c6ff4c5b79_Images/641361334c91a0c6ff4c5b79_Image_14.jpeg,liked,4.940433059,,,,,,,,,,,,,,
,,,,,,,space,0.464,NAN,,NAN,,0,113,113,113,1,114,Sam,Neutral,Participant_Images/641361334c91a0c6ff4c5b79/641361334c91a0c6ff4c5b79_Images/641361334c91a0c6ff4c5b79_Image_30.jpeg,liked,2.7105123,,,,,,,,,,,,,,
,,,,,,,,,,,,,,,,,,,,,,,,s,1,space,0.8836,0,0,0,0,1,0.6473,h,1.1283,,
,,,,,,,,,NAN,,NAN,,0,114,114,114,1,115,Sam,Neutral,Participant_Images/641361334c91a0c6ff4c5b79/641361334c91a0c6ff4c5b79_Images/641361334c91a0c6ff4c5b79_Image_5.jpeg,did not like,3.602308302,,,,,,,,,,,,,,
,,,,,,,space,0.9496,NAN,,NAN,,0,115,115,115,1,116,Sam,Neutral,Participant_Images/641361334c91a0c6ff4c5b79/641361334c91a0c6ff4c5b79_Images/641361334c91a0c6ff4c5b79_Image_1.jpeg,did not like,4.106391878,,,,,,,,,,,,,,
,,,,,,,space,1.7462,NAN,,NAN,,0,116,116,116,1,117,Sam,Neutral,Participant_Images/641361334c91a0c6ff4c5b79/641361334c91a0c6ff4c5b79_Images/641361334c91a0c6ff4c5b79_Image_7.jpeg,liked,3.799433026,,,,,,,,,,,,,,
,,,,,,,space,0.6979,NAN,,NAN,,0,117,117,117,1,118,Sam,Neutral,Participant_Images/641361334c91a0c6ff4c5b79/641361334c91a0c6ff4c5b79_Images/641361334c91a0c6ff4c5b79_Image_18.jpeg,did not like,5.246980764,,,,,,,,,,,,,,
,,,,,,,space,0.7641,NAN,,NAN,,0,118,118,118,1,119,Sam,Neutral,Participant_Images/641361334c91a0c6ff4c5b79/641361334c91a0c6ff4c5b79_Images/641361334c91a0c6ff4c5b79_Image_24.jpeg,did not like,3.30081769,,,,,,,,,,,,,,
,,,,,,,,,,,,,,,,,,,,,,,,s,1,space,1.1138,0,0,0,0,1,1.0522,,,,
,,,,,,,,,1,,9,,0,119,119,119,1,120,Sam,Neutral,Participant_Images/641361334c91a0c6ff4c5b79/641361334c91a0c6ff4c5b79_Images/641361334c91a0c6ff4c5b79_Image_4.jpeg,liked,1.661473164,,,,,,,,,,,,,,
,,,,,space,1.5135,space,2.6878,NAN,,NAN,,0,120,120,120,1,121,Riley,Acc,Participant_Images/641361334c91a0c6ff4c5b79/641361334c91a0c6ff4c5b79_Images/641361334c91a0c6ff4c5b79_Image_30.jpeg,liked,3.613205605,,,,,,,,,,,,,,
,,,,,,,space,0.6427,NAN,,NAN,,0,121,121,121,1,122,Riley,Acc,Participant_Images/641361334c91a0c6ff4c5b79/641361334c91a0c6ff4c5b79_Images/641361334c91a0c6ff4c5b79_Image_9.jpeg,did not like,4.988446431,,,,,,,,,,,,,,
,,,,,,,space,0.7362,NAN,,NAN,,0,122,122,122,1,123,Riley,Acc,Participant_Images/641361334c91a0c6ff4c5b79/641361334c91a0c6ff4c5b79_Images/641361334c91a0c6ff4c5b79_Image_11.jpeg,liked,3.470791822,,,,,,,,,,,,,,
,,,,,,,space,0.6178,NAN,,NAN,,0,123,123,123,1,124,Riley,Acc,Participant_Images/641361334c91a0c6ff4c5b79/641361334c91a0c6ff4c5b79_Images/641361334c91a0c6ff4c5b79_Image_3.jpeg,liked,3.820572462,,,,,,,,,,,,,,
,,,,,,,,,,,,,,,,,,,,,,,,s,1,space,0.617,0,0,0,0,1,0.7757,h,0.4307,,
,,,,,,,,,NAN,,NAN,,0,124,124,124,1,125,Riley,Acc,Participant_Images/641361334c91a0c6ff4c5b79/641361334c91a0c6ff4c5b79_Images/641361334c91a0c6ff4c5b79_Image_20.jpeg,liked,2.455989137,,,,,,,,,,,,,,
,,,,,,,space,0.7527,NAN,,NAN,,0,125,125,125,1,126,Riley,Acc,Participant_Images/641361334c91a0c6ff4c5b79/641361334c91a0c6ff4c5b79_Images/641361334c91a0c6ff4c5b79_Image_28.jpeg,liked,3.79605092,,,,,,,,,,,,,,
,,,,,,,space,0.4832,NAN,,NAN,,0,126,126,126,1,127,Riley,Acc,Participant_Images/641361334c91a0c6ff4c5b79/641361334c91a0c6ff4c5b79_Images/641361334c91a0c6ff4c5b79_Image_16.jpeg,liked,3.562416326,,,,,,,,,,,,,,
,,,,,,,space,5.5145,NAN,,NAN,,0,127,127,127,1,128,Riley,Acc,Participant_Images/641361334c91a0c6ff4c5b79/641361334c91a0c6ff4c5b79_Images/641361334c91a0c6ff4c5b79_Image_27.jpeg,liked,2.843822497,,,,,,,,,,,,,,
,,,,,,,space,0.4945,NAN,,NAN,,0,128,128,128,1,129,Riley,Acc,Participant_Images/641361334c91a0c6ff4c5b79/641361334c91a0c6ff4c5b79_Images/641361334c91a0c6ff4c5b79_Image_18.jpeg,liked,3.546495948,,,,,,,,,,,,,,
,,,,,,,,,,,,,,,,,,,,,,,,s,1,space,1.2522,0,0,0,0,1,0.8234,h,0.3233,,
,,,,,,,,,NAN,,NAN,,0,129,129,129,1,130,Riley,Acc,Participant_Images/641361334c91a0c6ff4c5b79/641361334c91a0c6ff4c5b79_Images/641361334c91a0c6ff4c5b79_Image_25.jpeg,liked,1.672012706,,,,,,,,,,,,,,
,,,,,,,space,11.5439,NAN,,NAN,,0,130,130,130,1,131,Riley,Acc,Participant_Images/641361334c91a0c6ff4c5b79/641361334c91a0c6ff4c5b79_Images/641361334c91a0c6ff4c5b79_Image_22.jpeg,liked,4.942172136,,,,,,,,,,,,,,
,,,,,,,space,6.3624,NAN,,NAN,,0,131,131,131,1,132,Riley,Acc,Participant_Images/641361334c91a0c6ff4c5b79/641361334c91a0c6ff4c5b79_Images/641361334c91a0c6ff4c5b79_Image_5.jpeg,did not like,2.50187214,,,,,,,,,,,,,,
,,,,,,,space,4.9604,NAN,,NAN,,0,132,132,132,1,133,Riley,Acc,Participant_Images/641361334c91a0c6ff4c5b79/641361334c91a0c6ff4c5b79_Images/641361334c91a0c6ff4c5b79_Image_21.jpeg,liked,2.071164779,,,,,,,,,,,,,,
,,,,,,,space,0.3952,NAN,,NAN,,0,133,133,133,1,134,Riley,Acc,Participant_Images/641361334c91a0c6ff4c5b79/641361334c91a0c6ff4c5b79_Images/641361334c91a0c6ff4c5b79_Image_29.jpeg,did not like,5.336503566,,,,,,,,,,,,,,
,,,,,,,,,,,,,,,,,,,,,,,,s,1,space,1.281,0,0,0,0,1,0.5891,h,0.2479,,
,,,,,,,,,NAN,,NAN,,0,134,134,134,1,135,Riley,Acc,Participant_Images/641361334c91a0c6ff4c5b79/641361334c91a0c6ff4c5b79_Images/641361334c91a0c6ff4c5b79_Image_6.jpeg,did not like,2.642157193,,,,,,,,,,,,,,
,,,,,,,space,1.9378,NAN,,NAN,,0,135,135,135,1,136,Riley,Acc,Participant_Images/641361334c91a0c6ff4c5b79/641361334c91a0c6ff4c5b79_Images/641361334c91a0c6ff4c5b79_Image_19.jpeg,liked,4.456234322,,,,,,,,,,,,,,
,,,,,,,space,0.7985,NAN,,NAN,,0,136,136,136,1,137,Riley,Acc,Participant_Images/641361334c91a0c6ff4c5b79/641361334c91a0c6ff4c5b79_Images/641361334c91a0c6ff4c5b79_Image_7.jpeg,liked,4.438512181,,,,,,,,,,,,,,
,,,,,,,space,0.5246,NAN,,NAN,,0,137,137,137,1,138,Riley,Acc,Participant_Images/641361334c91a0c6ff4c5b79/641361334c91a0c6ff4c5b79_Images/641361334c91a0c6ff4c5b79_Image_2.jpeg,liked,2.682944783,,,,,,,,,,,,,,
,,,,,,,space,0.539,NAN,,NAN,,0,138,138,138,1,139,Riley,Acc,Participant_Images/641361334c91a0c6ff4c5b79/641361334c91a0c6ff4c5b79_Images/641361334c91a0c6ff4c5b79_Image_15.jpeg,liked,4.51984296,,,,,,,,,,,,,,
,,,,,,,,,,,,,,,,,,,,,,,,s,1,space,0.6261,0,0,0,0,1,1.1736,h,0.6739,,
,,,,,,,,,NAN,,NAN,,0,139,139,139,1,140,Riley,Acc,Participant_Images/641361334c91a0c6ff4c5b79/641361334c91a0c6ff4c5b79_Images/641361334c91a0c6ff4c5b79_Image_13.jpeg,liked,3.195382774,,,,,,,,,,,,,,
,,,,,,,space,0.234,NAN,,NAN,,0,140,140,140,1,141,Riley,Acc,Participant_Images/641361334c91a0c6ff4c5b79/641361334c91a0c6ff4c5b79_Images/641361334c91a0c6ff4c5b79_Image_26.jpeg,liked,1.779333479,,,,,,,,,,,,,,
,,,,,,,space,0.645,NAN,,NAN,,0,141,141,141,1,142,Riley,Acc,Participant_Images/641361334c91a0c6ff4c5b79/641361334c91a0c6ff4c5b79_Images/641361334c91a0c6ff4c5b79_Image_10.jpeg,liked,4.312468682,,,,,,,,,,,,,,
,,,,,,,space,0.4538,NAN,,NAN,,0,142,142,142,1,143,Riley,Acc,Participant_Images/641361334c91a0c6ff4c5b79/641361334c91a0c6ff4c5b79_Images/641361334c91a0c6ff4c5b79_Image_24.jpeg,liked,4.940433059,,,,,,,,,,,,,,
,,,,,,,space,1.3612,NAN,,NAN,,0,143,143,143,1,144,Riley,Acc,Participant_Images/641361334c91a0c6ff4c5b79/641361334c91a0c6ff4c5b79_Images/641361334c91a0c6ff4c5b79_Image_12.jpeg,liked,2.7105123,,,,,,,,,,,,,,
,,,,,,,,,,,,,,,,,,,,,,,,s,1,space,0.5195,0,0,0,0,1,1.0538,h,0.5451,,
,,,,,,,,,NAN,,NAN,,0,144,144,144,1,145,Riley,Acc,Participant_Images/641361334c91a0c6ff4c5b79/641361334c91a0c6ff4c5b79_Images/641361334c91a0c6ff4c5b79_Image_14.jpeg,did not like,3.602308302,,,,,,,,,,,,,,
,,,,,,,space,0.9505,NAN,,NAN,,0,145,145,145,1,146,Riley,Acc,Participant_Images/641361334c91a0c6ff4c5b79/641361334c91a0c6ff4c5b79_Images/641361334c91a0c6ff4c5b79_Image_1.jpeg,liked,4.106391878,,,,,,,,,,,,,,
,,,,,,,space,0.8212,NAN,,NAN,,0,146,146,146,1,147,Riley,Acc,Participant_Images/641361334c91a0c6ff4c5b79/641361334c91a0c6ff4c5b79_Images/641361334c91a0c6ff4c5b79_Image_4.jpeg,did not like,3.799433026,,,,,,,,,,,,,,
,,,,,,,space,1.4744,NAN,,NAN,,0,147,147,147,1,148,Riley,Acc,Participant_Images/641361334c91a0c6ff4c5b79/641361334c91a0c6ff4c5b79_Images/641361334c91a0c6ff4c5b79_Image_8.jpeg,did not like,5.246980764,,,,,,,,,,,,,,
,,,,,,,space,1.5161,NAN,,NAN,,0,148,148,148,1,149,Riley,Acc,Participant_Images/641361334c91a0c6ff4c5b79/641361334c91a0c6ff4c5b79_Images/641361334c91a0c6ff4c5b79_Image_23.jpeg,did not like,3.30081769,,,,,,,,,,,,,,
,,,,,,,,,,,,,,,,,,,,,,,,s,1,space,0.5743,0,0,0,0,1,1.1336,h,0.391,,
,,,,,,,,,1,,9,,0,149,149,149,1,150,Riley,Acc,Participant_Images/641361334c91a0c6ff4c5b79/641361334c91a0c6ff4c5b79_Images/641361334c91a0c6ff4c5b79_Image_17.jpeg,did not like,1.661473164,,,,,,,,,,,,,,
,,,,,,,,,,,,,,,,,,,,,,,,,,,,,,,,,,,,space,2.6491
