endwelcomescreen_keys.keys,endwelcomescreen_keys.rt,participant,STUDY_ID,SESSION_ID,date,expName,psychopyVersion,OS,frameRate,endinstructionscreen_keys.keys,endinstructionscreen_keys.rt,endpartnermatch_keys.keys,endpartnermatch_keys.rt,sharenextphoto_key.keys,sharenextphoto_key.rt,salience_rating,key_resp.keys,stress_level,subtract_bonus,TOTAL_TASK_BONUS,stresslevel_keypress.keys,entiretaskloop.thisRepN,entiretaskloop.thisTrialN,entiretaskloop.thisN,entiretaskloop.thisIndex,entiretaskloop.ran,TrialNumber,Partner,Condition,Photos,Feedback,FeedbackWait,WTP_ins_keys1.keys,WTP_ins_keys1.rt,WTP_ins_keys2.keys,WTP_ins_keys2.rt,decision_price,responses.keys,responses.rt,WTPTaskLoop.thisRepN,WTPTaskLoop.thisTrialN,WTPTaskLoop.thisN,WTPTaskLoop.thisIndex,WTPTaskLoop.ran,right,left,leftmoney,rightmoney,WTP_ITI,social_left,Resume_keys.keys,Resume_keys.rt,end_screen_keys.keys,end_screen_keys.rt
space,4.339,59d5888d21977e0001d630f3,6685aa9113c938e83b4f1ea0,67074260719bd01ddbfcdfb8,2024-10-09_21h56.57.881,WTP_SM_Choice,2022.2.1,Win32,111.1111111,,,,,,,,,,,,,,,,,,,,,,,,,,,,,,,,,,,,,,,,,,,,,
,,59d5888d21977e0001d630f3,6685aa9113c938e83b4f1ea0,67074260719bd01ddbfcdfb8,2024-10-09_21h56.57.881,WTP_SM_Choice,2022.2.1,Win32,111.1111111,space,31.881,,,,,,,,,,,,,,,,,,,,,,,,,,,,,,,,,,,,,,,,,,,
,,59d5888d21977e0001d630f3,6685aa9113c938e83b4f1ea0,67074260719bd01ddbfcdfb8,2024-10-09_21h56.57.881,WTP_SM_Choice,2022.2.1,Win32,111.1111111,,,space,1.681,space,1.152,NAN,,NAN,0,6,,0,0,0,0,1,1,Riley,Rej,Participant_Images/59d5888d21977e0001d630f3/59d5888d21977e0001d630f3_Images/59d5888d21977e0001d630f3_Image_16.jpeg,did not like,3.613205605,,,,,,,,,,,,,,,,,,,,,,
,,59d5888d21977e0001d630f3,6685aa9113c938e83b4f1ea0,67074260719bd01ddbfcdfb8,2024-10-09_21h56.57.881,WTP_SM_Choice,2022.2.1,Win32,111.1111111,,,,,space,0.859,NAN,,NAN,0,6,,0,1,1,1,1,2,Riley,Rej,Participant_Images/59d5888d21977e0001d630f3/59d5888d21977e0001d630f3_Images/59d5888d21977e0001d630f3_Image_13.jpeg,did not like,4.988446431,,,,,,,,,,,,,,,,,,,,,,
,,59d5888d21977e0001d630f3,6685aa9113c938e83b4f1ea0,67074260719bd01ddbfcdfb8,2024-10-09_21h56.57.881,WTP_SM_Choice,2022.2.1,Win32,111.1111111,,,,,space,0.804,NAN,,NAN,0,6,,0,2,2,2,1,3,Riley,Rej,Participant_Images/59d5888d21977e0001d630f3/59d5888d21977e0001d630f3_Images/59d5888d21977e0001d630f3_Image_14.jpeg,liked,3.470791822,,,,,,,,,,,,,,,,,,,,,,
,,59d5888d21977e0001d630f3,6685aa9113c938e83b4f1ea0,67074260719bd01ddbfcdfb8,2024-10-09_21h56.57.881,WTP_SM_Choice,2022.2.1,Win32,111.1111111,,,,,space,1.065,NAN,,NAN,0,6,,0,3,3,3,1,4,Riley,Rej,Participant_Images/59d5888d21977e0001d630f3/59d5888d21977e0001d630f3_Images/59d5888d21977e0001d630f3_Image_5.jpeg,did not like,3.820572462,,,,,,,,,,,,,,,,,,,,,,
,,59d5888d21977e0001d630f3,6685aa9113c938e83b4f1ea0,67074260719bd01ddbfcdfb8,2024-10-09_21h56.57.881,WTP_SM_Choice,2022.2.1,Win32,111.1111111,,,,,,,,,,,,,,,,,,1,,,,,,space,7.653,space,3.244,0.01,2,4.485,0,0,0,0,1,Eat outside at a Chickfila with my mom and brother as the sun sets,Go out to Target to go get snacks pet snacks and personal care products ,0.01,0.01,4.4,0,,,,
,,59d5888d21977e0001d630f3,6685aa9113c938e83b4f1ea0,67074260719bd01ddbfcdfb8,2024-10-09_21h56.57.881,WTP_SM_Choice,2022.2.1,Win32,111.1111111,,,,,,,,,,,,,,,,,,2,,,,,,,,,,0.02,1,2.148,0,1,1,1,1,Watch Studio Ghibli on a rainy cloudy day,Buy things with my family,0.02,0.01,8.8,1,,,,
,,59d5888d21977e0001d630f3,6685aa9113c938e83b4f1ea0,67074260719bd01ddbfcdfb8,2024-10-09_21h56.57.881,WTP_SM_Choice,2022.2.1,Win32,111.1111111,,,,,,,,,,,,,,,,,,3,,,,,,,,,,0.03,1,1.854,0,2,2,2,1,Go to local coffee shops with my friends,Go out to Target to go get snacks pet snacks and personal care products ,0.03,0.01,3.3,0,,,,
,,59d5888d21977e0001d630f3,6685aa9113c938e83b4f1ea0,67074260719bd01ddbfcdfb8,2024-10-09_21h56.57.881,WTP_SM_Choice,2022.2.1,Win32,111.1111111,,,,,,,,,,,,,,,,,,4,,,,,,,,,,0.04,1,1.509,0,3,3,3,1,Have my cat on my lap as she purs,Watch Steelers games with my family,0.04,0.01,1.1,1,,,,
,,59d5888d21977e0001d630f3,6685aa9113c938e83b4f1ea0,67074260719bd01ddbfcdfb8,2024-10-09_21h56.57.881,WTP_SM_Choice,2022.2.1,Win32,111.1111111,,,,,,,,,,,,,,,,,,5,,,,,,,,,,0.05,1,2.422,0,4,4,4,1,Exercise,Bond with my big brother and making up time we could not hang out,0.05,0.01,1.1,1,,,,
,,59d5888d21977e0001d630f3,6685aa9113c938e83b4f1ea0,67074260719bd01ddbfcdfb8,2024-10-09_21h56.57.881,WTP_SM_Choice,2022.2.1,Win32,111.1111111,,,,,,,NAN,,NAN,0.15,5.85,,0,4,4,4,1,5,Riley,Rej,Participant_Images/59d5888d21977e0001d630f3/59d5888d21977e0001d630f3_Images/59d5888d21977e0001d630f3_Image_24.jpeg,did not like,2.455989137,,,,,,,,,,,,,,,,,,,,,,
,,59d5888d21977e0001d630f3,6685aa9113c938e83b4f1ea0,67074260719bd01ddbfcdfb8,2024-10-09_21h56.57.881,WTP_SM_Choice,2022.2.1,Win32,111.1111111,,,,,space,0.938,NAN,,NAN,0.15,5.85,,0,5,5,5,1,6,Riley,Rej,Participant_Images/59d5888d21977e0001d630f3/59d5888d21977e0001d630f3_Images/59d5888d21977e0001d630f3_Image_2.jpeg,did not like,3.79605092,,,,,,,,,,,,,,,,,,,,,,
,,59d5888d21977e0001d630f3,6685aa9113c938e83b4f1ea0,67074260719bd01ddbfcdfb8,2024-10-09_21h56.57.881,WTP_SM_Choice,2022.2.1,Win32,111.1111111,,,,,space,1.185,NAN,,NAN,0.15,5.85,,0,6,6,6,1,7,Riley,Rej,Participant_Images/59d5888d21977e0001d630f3/59d5888d21977e0001d630f3_Images/59d5888d21977e0001d630f3_Image_4.jpeg,did not like,3.562416326,,,,,,,,,,,,,,,,,,,,,,
,,59d5888d21977e0001d630f3,6685aa9113c938e83b4f1ea0,67074260719bd01ddbfcdfb8,2024-10-09_21h56.57.881,WTP_SM_Choice,2022.2.1,Win32,111.1111111,,,,,space,0.606,NAN,,NAN,0.15,5.85,,0,7,7,7,1,8,Riley,Rej,Participant_Images/59d5888d21977e0001d630f3/59d5888d21977e0001d630f3_Images/59d5888d21977e0001d630f3_Image_15.jpeg,did not like,2.843822497,,,,,,,,,,,,,,,,,,,,,,
,,59d5888d21977e0001d630f3,6685aa9113c938e83b4f1ea0,67074260719bd01ddbfcdfb8,2024-10-09_21h56.57.881,WTP_SM_Choice,2022.2.1,Win32,111.1111111,,,,,space,1.072,NAN,,NAN,0.15,5.85,,0,8,8,8,1,9,Riley,Rej,Participant_Images/59d5888d21977e0001d630f3/59d5888d21977e0001d630f3_Images/59d5888d21977e0001d630f3_Image_21.jpeg,did not like,3.546495948,,,,,,,,,,,,,,,,,,,,,,
,,59d5888d21977e0001d630f3,6685aa9113c938e83b4f1ea0,67074260719bd01ddbfcdfb8,2024-10-09_21h56.57.881,WTP_SM_Choice,2022.2.1,Win32,111.1111111,,,,,,,,,,,,,,,,,,6,,,,,,space,15.309,space,3.531,0.01,1,1.591,0,0,0,0,1,Have my cat on my lap as she purs,Go to local coffee shops with my friends,0.01,0.02,3.3,1,,,,
,,59d5888d21977e0001d630f3,6685aa9113c938e83b4f1ea0,67074260719bd01ddbfcdfb8,2024-10-09_21h56.57.881,WTP_SM_Choice,2022.2.1,Win32,111.1111111,,,,,,,,,,,,,,,,,,7,,,,,,,,,,0.02,2,2.134,0,1,1,1,1,Play video games on my PC,Go to local coffee shops with my friends,0.02,0.02,1.1,1,,,,
,,59d5888d21977e0001d630f3,6685aa9113c938e83b4f1ea0,67074260719bd01ddbfcdfb8,2024-10-09_21h56.57.881,WTP_SM_Choice,2022.2.1,Win32,111.1111111,,,,,,,,,,,,,,,,,,8,,,,,,,,,,0.02,2,1.859,0,2,2,2,1,Watch Steelers games with my family,Sing along to Magic Dance when I feel very happy,0.03,0.02,1.1,0,,,,
,,59d5888d21977e0001d630f3,6685aa9113c938e83b4f1ea0,67074260719bd01ddbfcdfb8,2024-10-09_21h56.57.881,WTP_SM_Choice,2022.2.1,Win32,111.1111111,,,,,,,,,,,,,,,,,,9,,,,,,,,,,0.02,2,1.814,0,3,3,3,1,Have my cat on my lap as she purs,Cook with my family,0.04,0.02,4.4,1,,,,
,,59d5888d21977e0001d630f3,6685aa9113c938e83b4f1ea0,67074260719bd01ddbfcdfb8,2024-10-09_21h56.57.881,WTP_SM_Choice,2022.2.1,Win32,111.1111111,,,,,,,,,,,,,,,,,,10,,,,,,,,,,0.02,2,1.187,0,4,4,4,1,Go to exercise with my little brother,Clean up the house ,0.05,0.02,1.1,0,,,,
,,59d5888d21977e0001d630f3,6685aa9113c938e83b4f1ea0,67074260719bd01ddbfcdfb8,2024-10-09_21h56.57.881,WTP_SM_Choice,2022.2.1,Win32,111.1111111,,,,,,,NAN,,NAN,0.24,5.76,,0,9,9,9,1,10,Riley,Rej,Participant_Images/59d5888d21977e0001d630f3/59d5888d21977e0001d630f3_Images/59d5888d21977e0001d630f3_Image_6.jpeg,liked,1.672012706,,,,,,,,,,,,,,,,,,,,,,
,,59d5888d21977e0001d630f3,6685aa9113c938e83b4f1ea0,67074260719bd01ddbfcdfb8,2024-10-09_21h56.57.881,WTP_SM_Choice,2022.2.1,Win32,111.1111111,,,,,space,0.962,NAN,,NAN,0.24,5.76,,0,10,10,10,1,11,Riley,Rej,Participant_Images/59d5888d21977e0001d630f3/59d5888d21977e0001d630f3_Images/59d5888d21977e0001d630f3_Image_10.jpeg,did not like,4.942172136,,,,,,,,,,,,,,,,,,,,,,
,,59d5888d21977e0001d630f3,6685aa9113c938e83b4f1ea0,67074260719bd01ddbfcdfb8,2024-10-09_21h56.57.881,WTP_SM_Choice,2022.2.1,Win32,111.1111111,,,,,space,0.811,NAN,,NAN,0.24,5.76,,0,11,11,11,1,12,Riley,Rej,Participant_Images/59d5888d21977e0001d630f3/59d5888d21977e0001d630f3_Images/59d5888d21977e0001d630f3_Image_12.jpeg,liked,2.50187214,,,,,,,,,,,,,,,,,,,,,,
,,59d5888d21977e0001d630f3,6685aa9113c938e83b4f1ea0,67074260719bd01ddbfcdfb8,2024-10-09_21h56.57.881,WTP_SM_Choice,2022.2.1,Win32,111.1111111,,,,,space,1.121,NAN,,NAN,0.24,5.76,,0,12,12,12,1,13,Riley,Rej,Participant_Images/59d5888d21977e0001d630f3/59d5888d21977e0001d630f3_Images/59d5888d21977e0001d630f3_Image_7.jpeg,did not like,2.071164779,,,,,,,,,,,,,,,,,,,,,,
,,59d5888d21977e0001d630f3,6685aa9113c938e83b4f1ea0,67074260719bd01ddbfcdfb8,2024-10-09_21h56.57.881,WTP_SM_Choice,2022.2.1,Win32,111.1111111,,,,,space,0.634,NAN,,NAN,0.24,5.76,,0,13,13,13,1,14,Riley,Rej,Participant_Images/59d5888d21977e0001d630f3/59d5888d21977e0001d630f3_Images/59d5888d21977e0001d630f3_Image_23.jpeg,did not like,5.336503566,,,,,,,,,,,,,,,,,,,,,,
,,59d5888d21977e0001d630f3,6685aa9113c938e83b4f1ea0,67074260719bd01ddbfcdfb8,2024-10-09_21h56.57.881,WTP_SM_Choice,2022.2.1,Win32,111.1111111,,,,,,,,,,,,,,,,,,11,,,,,,space,3.219,space,0.759,0.01,1,1.32,0,0,0,0,1,Eat outside at a Chickfila with my mom and brother as the sun sets,Sing along to Magic Dance when I feel very happy,0.01,0.03,3.3,0,,,,
,,59d5888d21977e0001d630f3,6685aa9113c938e83b4f1ea0,67074260719bd01ddbfcdfb8,2024-10-09_21h56.57.881,WTP_SM_Choice,2022.2.1,Win32,111.1111111,,,,,,,,,,,,,,,,,,12,,,,,,,,,,0.02,1,1.164,0,1,1,1,1,Play video games on my PC,Have my little brother hang out in my room as we watch CaseOh,0.02,0.03,4.4,1,,,,
,,59d5888d21977e0001d630f3,6685aa9113c938e83b4f1ea0,67074260719bd01ddbfcdfb8,2024-10-09_21h56.57.881,WTP_SM_Choice,2022.2.1,Win32,111.1111111,,,,,,,,,,,,,,,,,,13,,,,,,,,,,0.03,1,2.1,0,2,2,2,1,Eat wings from my favorite wings restaurant,Buy things with my family,0.03,0.03,1.1,1,,,,
,,59d5888d21977e0001d630f3,6685aa9113c938e83b4f1ea0,67074260719bd01ddbfcdfb8,2024-10-09_21h56.57.881,WTP_SM_Choice,2022.2.1,Win32,111.1111111,,,,,,,,,,,,,,,,,,14,,,,,,,,,,0.03,2,1.326,0,3,3,3,1,Cook with my family,Play video games on my PC,0.04,0.03,3.3,0,,,,
,,59d5888d21977e0001d630f3,6685aa9113c938e83b4f1ea0,67074260719bd01ddbfcdfb8,2024-10-09_21h56.57.881,WTP_SM_Choice,2022.2.1,Win32,111.1111111,,,,,,,,,,,,,,,,,,15,,,,,,,,,,0.03,2,1.165,0,4,4,4,1,Have my cat on my lap as she purs,Go to exercise with my little brother,0.05,0.03,4.4,1,,,,
,,59d5888d21977e0001d630f3,6685aa9113c938e83b4f1ea0,67074260719bd01ddbfcdfb8,2024-10-09_21h56.57.881,WTP_SM_Choice,2022.2.1,Win32,111.1111111,,,,,,,NAN,,NAN,0.36,5.64,,0,14,14,14,1,15,Riley,Rej,Participant_Images/59d5888d21977e0001d630f3/59d5888d21977e0001d630f3_Images/59d5888d21977e0001d630f3_Image_19.jpeg,did not like,2.642157193,,,,,,,,,,,,,,,,,,,,,,
,,59d5888d21977e0001d630f3,6685aa9113c938e83b4f1ea0,67074260719bd01ddbfcdfb8,2024-10-09_21h56.57.881,WTP_SM_Choice,2022.2.1,Win32,111.1111111,,,,,space,0.619,NAN,,NAN,0.36,5.64,,0,15,15,15,1,16,Riley,Rej,Participant_Images/59d5888d21977e0001d630f3/59d5888d21977e0001d630f3_Images/59d5888d21977e0001d630f3_Image_3.jpeg,did not like,4.456234322,,,,,,,,,,,,,,,,,,,,,,
,,59d5888d21977e0001d630f3,6685aa9113c938e83b4f1ea0,67074260719bd01ddbfcdfb8,2024-10-09_21h56.57.881,WTP_SM_Choice,2022.2.1,Win32,111.1111111,,,,,space,0.974,NAN,,NAN,0.36,5.64,,0,16,16,16,1,17,Riley,Rej,Participant_Images/59d5888d21977e0001d630f3/59d5888d21977e0001d630f3_Images/59d5888d21977e0001d630f3_Image_8.jpeg,did not like,4.438512181,,,,,,,,,,,,,,,,,,,,,,
,,59d5888d21977e0001d630f3,6685aa9113c938e83b4f1ea0,67074260719bd01ddbfcdfb8,2024-10-09_21h56.57.881,WTP_SM_Choice,2022.2.1,Win32,111.1111111,,,,,space,0.636,NAN,,NAN,0.36,5.64,,0,17,17,17,1,18,Riley,Rej,Participant_Images/59d5888d21977e0001d630f3/59d5888d21977e0001d630f3_Images/59d5888d21977e0001d630f3_Image_22.jpeg,did not like,2.682944783,,,,,,,,,,,,,,,,,,,,,,
,,59d5888d21977e0001d630f3,6685aa9113c938e83b4f1ea0,67074260719bd01ddbfcdfb8,2024-10-09_21h56.57.881,WTP_SM_Choice,2022.2.1,Win32,111.1111111,,,,,space,0.685,NAN,,NAN,0.36,5.64,,0,18,18,18,1,19,Riley,Rej,Participant_Images/59d5888d21977e0001d630f3/59d5888d21977e0001d630f3_Images/59d5888d21977e0001d630f3_Image_17.jpeg,liked,4.51984296,,,,,,,,,,,,,,,,,,,,,,
,,59d5888d21977e0001d630f3,6685aa9113c938e83b4f1ea0,67074260719bd01ddbfcdfb8,2024-10-09_21h56.57.881,WTP_SM_Choice,2022.2.1,Win32,111.1111111,,,,,,,,,,,,,,,,,,16,,,,,,space,2.267,space,0.757,0.01,1,0.968,0,0,0,0,1,Watch Steelers games with my family,Watch Studio Ghibli on a rainy cloudy day,0.01,0.04,1.1,0,,,,
,,59d5888d21977e0001d630f3,6685aa9113c938e83b4f1ea0,67074260719bd01ddbfcdfb8,2024-10-09_21h56.57.881,WTP_SM_Choice,2022.2.1,Win32,111.1111111,,,,,,,,,,,,,,,,,,17,,,,,,,,,,0.02,1,1.042,0,1,1,1,1,Buy things with my family,Clean up the house ,0.02,0.04,8.8,0,,,,
,,59d5888d21977e0001d630f3,6685aa9113c938e83b4f1ea0,67074260719bd01ddbfcdfb8,2024-10-09_21h56.57.881,WTP_SM_Choice,2022.2.1,Win32,111.1111111,,,,,,,,,,,,,,,,,,18,,,,,,,,,,0.03,1,1.167,0,2,2,2,1,Watch Studio Ghibli on a rainy cloudy day,Hang out with my best friends and getting brew,0.03,0.04,3.3,1,,,,
,,59d5888d21977e0001d630f3,6685aa9113c938e83b4f1ea0,67074260719bd01ddbfcdfb8,2024-10-09_21h56.57.881,WTP_SM_Choice,2022.2.1,Win32,111.1111111,,,,,,,,,,,,,,,,,,19,,,,,,,,,,0.04,1,2.878,0,3,3,3,1,Buy things with my family,Go out to Target to go get snacks pet snacks and personal care products ,0.04,0.04,3.3,0,,,,
,,59d5888d21977e0001d630f3,6685aa9113c938e83b4f1ea0,67074260719bd01ddbfcdfb8,2024-10-09_21h56.57.881,WTP_SM_Choice,2022.2.1,Win32,111.1111111,,,,,,,,,,,,,,,,,,20,,,,,,,,,,0.04,2,1.08,0,4,4,4,1,Go out to Target to go get snacks pet snacks and personal care products ,Go to exercise with my little brother,0.05,0.04,1.1,1,,,,
,,59d5888d21977e0001d630f3,6685aa9113c938e83b4f1ea0,67074260719bd01ddbfcdfb8,2024-10-09_21h56.57.881,WTP_SM_Choice,2022.2.1,Win32,111.1111111,,,,,,,NAN,,NAN,0.5,5.5,,0,19,19,19,1,20,Riley,Rej,Participant_Images/59d5888d21977e0001d630f3/59d5888d21977e0001d630f3_Images/59d5888d21977e0001d630f3_Image_9.jpeg,liked,3.195382774,,,,,,,,,,,,,,,,,,,,,,
,,59d5888d21977e0001d630f3,6685aa9113c938e83b4f1ea0,67074260719bd01ddbfcdfb8,2024-10-09_21h56.57.881,WTP_SM_Choice,2022.2.1,Win32,111.1111111,,,,,space,0.614,NAN,,NAN,0.5,5.5,,0,20,20,20,1,21,Riley,Rej,Participant_Images/59d5888d21977e0001d630f3/59d5888d21977e0001d630f3_Images/59d5888d21977e0001d630f3_Image_1.jpeg,did not like,1.779333479,,,,,,,,,,,,,,,,,,,,,,
,,59d5888d21977e0001d630f3,6685aa9113c938e83b4f1ea0,67074260719bd01ddbfcdfb8,2024-10-09_21h56.57.881,WTP_SM_Choice,2022.2.1,Win32,111.1111111,,,,,space,0.633,NAN,,NAN,0.5,5.5,,0,21,21,21,1,22,Riley,Rej,Participant_Images/59d5888d21977e0001d630f3/59d5888d21977e0001d630f3_Images/59d5888d21977e0001d630f3_Image_25.jpeg,did not like,4.312468682,,,,,,,,,,,,,,,,,,,,,,
,,59d5888d21977e0001d630f3,6685aa9113c938e83b4f1ea0,67074260719bd01ddbfcdfb8,2024-10-09_21h56.57.881,WTP_SM_Choice,2022.2.1,Win32,111.1111111,,,,,space,0.773,NAN,,NAN,0.5,5.5,,0,22,22,22,1,23,Riley,Rej,Participant_Images/59d5888d21977e0001d630f3/59d5888d21977e0001d630f3_Images/59d5888d21977e0001d630f3_Image_18.jpeg,liked,4.940433059,,,,,,,,,,,,,,,,,,,,,,
,,59d5888d21977e0001d630f3,6685aa9113c938e83b4f1ea0,67074260719bd01ddbfcdfb8,2024-10-09_21h56.57.881,WTP_SM_Choice,2022.2.1,Win32,111.1111111,,,,,space,0.499,NAN,,NAN,0.5,5.5,,0,23,23,23,1,24,Riley,Rej,Participant_Images/59d5888d21977e0001d630f3/59d5888d21977e0001d630f3_Images/59d5888d21977e0001d630f3_Image_20.jpeg,liked,2.7105123,,,,,,,,,,,,,,,,,,,,,,
,,59d5888d21977e0001d630f3,6685aa9113c938e83b4f1ea0,67074260719bd01ddbfcdfb8,2024-10-09_21h56.57.881,WTP_SM_Choice,2022.2.1,Win32,111.1111111,,,,,,,,,,,,,,,,,,21,,,,,,space,1.073,space,0.517,0.01,1,1.212,0,0,0,0,1,Have my cat on my lap as she purs,Bond with my big brother and making up time we could not hang out,0.01,0.05,8.8,1,,,,
,,59d5888d21977e0001d630f3,6685aa9113c938e83b4f1ea0,67074260719bd01ddbfcdfb8,2024-10-09_21h56.57.881,WTP_SM_Choice,2022.2.1,Win32,111.1111111,,,,,,,,,,,,,,,,,,22,,,,,,,,,,0.02,1,1.147,0,1,1,1,1,Exercise,Eat outside at a Chickfila with my mom and brother as the sun sets,0.02,0.05,4.4,1,,,,
,,59d5888d21977e0001d630f3,6685aa9113c938e83b4f1ea0,67074260719bd01ddbfcdfb8,2024-10-09_21h56.57.881,WTP_SM_Choice,2022.2.1,Win32,111.1111111,,,,,,,,,,,,,,,,,,23,,,,,,,,,,0.03,1,0.94,0,2,2,2,1,Exercise,Have my little brother hang out in my room as we watch CaseOh,0.03,0.05,1.1,1,,,,
,,59d5888d21977e0001d630f3,6685aa9113c938e83b4f1ea0,67074260719bd01ddbfcdfb8,2024-10-09_21h56.57.881,WTP_SM_Choice,2022.2.1,Win32,111.1111111,,,,,,,,,,,,,,,,,,24,,,,,,,,,,0.04,1,1.193,0,3,3,3,1,Watch Steelers games with my family,Play video games on my PC,0.04,0.05,4.4,0,,,,
,,59d5888d21977e0001d630f3,6685aa9113c938e83b4f1ea0,67074260719bd01ddbfcdfb8,2024-10-09_21h56.57.881,WTP_SM_Choice,2022.2.1,Win32,111.1111111,,,,,,,,,,,,,,,,,,25,,,,,,,,,,0.05,2,2.645,0,4,4,4,1,Have my cat on my lap as she purs,Hang out with my best friends and getting brew,0.05,0.05,3.3,1,,,,
,,59d5888d21977e0001d630f3,6685aa9113c938e83b4f1ea0,67074260719bd01ddbfcdfb8,2024-10-09_21h56.57.881,WTP_SM_Choice,2022.2.1,Win32,111.1111111,,,,,,,3,,9,0.65,5.35,,0,24,24,24,1,25,Riley,Rej,Participant_Images/59d5888d21977e0001d630f3/59d5888d21977e0001d630f3_Images/59d5888d21977e0001d630f3_Image_11.jpeg,did not like,3.602308302,,,,,,,,,,,,,,,,,,,space,1.404,,
,,59d5888d21977e0001d630f3,6685aa9113c938e83b4f1ea0,67074260719bd01ddbfcdfb8,2024-10-09_21h56.57.881,WTP_SM_Choice,2022.2.1,Win32,111.1111111,,,space,1.832,space,1.941,NAN,,NAN,0.65,5.35,,0,25,25,25,1,26,Alex,Acc,Participant_Images/59d5888d21977e0001d630f3/59d5888d21977e0001d630f3_Images/59d5888d21977e0001d630f3_Image_18.jpeg,liked,4.106391878,,,,,,,,,,,,,,,,,,,,,,
,,59d5888d21977e0001d630f3,6685aa9113c938e83b4f1ea0,67074260719bd01ddbfcdfb8,2024-10-09_21h56.57.881,WTP_SM_Choice,2022.2.1,Win32,111.1111111,,,,,space,0.945,NAN,,NAN,0.65,5.35,,0,26,26,26,1,27,Alex,Acc,Participant_Images/59d5888d21977e0001d630f3/59d5888d21977e0001d630f3_Images/59d5888d21977e0001d630f3_Image_19.jpeg,liked,3.799433026,,,,,,,,,,,,,,,,,,,,,,
,,59d5888d21977e0001d630f3,6685aa9113c938e83b4f1ea0,67074260719bd01ddbfcdfb8,2024-10-09_21h56.57.881,WTP_SM_Choice,2022.2.1,Win32,111.1111111,,,,,space,0.585,NAN,,NAN,0.65,5.35,,0,27,27,27,1,28,Alex,Acc,Participant_Images/59d5888d21977e0001d630f3/59d5888d21977e0001d630f3_Images/59d5888d21977e0001d630f3_Image_5.jpeg,liked,5.246980764,,,,,,,,,,,,,,,,,,,,,,
,,59d5888d21977e0001d630f3,6685aa9113c938e83b4f1ea0,67074260719bd01ddbfcdfb8,2024-10-09_21h56.57.881,WTP_SM_Choice,2022.2.1,Win32,111.1111111,,,,,space,0.686,NAN,,NAN,0.65,5.35,,0,28,28,28,1,29,Alex,Acc,Participant_Images/59d5888d21977e0001d630f3/59d5888d21977e0001d630f3_Images/59d5888d21977e0001d630f3_Image_9.jpeg,did not like,3.30081769,,,,,,,,,,,,,,,,,,,,,,
,,59d5888d21977e0001d630f3,6685aa9113c938e83b4f1ea0,67074260719bd01ddbfcdfb8,2024-10-09_21h56.57.881,WTP_SM_Choice,2022.2.1,Win32,111.1111111,,,,,,,,,,,,,,,,,,26,,,,,,space,1.441,space,0.721,0.01,1,2.716,0,0,0,0,1,Spend time in the backyard cleaning with my dogs and family,HomeGoods spree and buy whatever I want without worrying about the amount,0.01,0.01,4.4,0,,,,
,,59d5888d21977e0001d630f3,6685aa9113c938e83b4f1ea0,67074260719bd01ddbfcdfb8,2024-10-09_21h56.57.881,WTP_SM_Choice,2022.2.1,Win32,111.1111111,,,,,,,,,,,,,,,,,,27,,,,,,,,,,0.01,2,1.454,0,1,1,1,1,Have my little brother hang out in my room as we watch CaseOh,Have my cat on my lap as she purs,0.02,0.01,3.3,0,,,,
,,59d5888d21977e0001d630f3,6685aa9113c938e83b4f1ea0,67074260719bd01ddbfcdfb8,2024-10-09_21h56.57.881,WTP_SM_Choice,2022.2.1,Win32,111.1111111,,,,,,,,,,,,,,,,,,28,,,,,,,,,,0.01,2,1.198,0,2,2,2,1,Go to exercise with my little brother,Eat wings from my favorite wings restaurant,0.03,0.01,3.3,0,,,,
,,59d5888d21977e0001d630f3,6685aa9113c938e83b4f1ea0,67074260719bd01ddbfcdfb8,2024-10-09_21h56.57.881,WTP_SM_Choice,2022.2.1,Win32,111.1111111,,,,,,,,,,,,,,,,,,29,,,,,,,,,,0.01,2,0.988,0,3,3,3,1,Watch Studio Ghibli on a rainy cloudy day,Spend time in the backyard cleaning with my dogs and family,0.04,0.01,4.4,1,,,,
,,59d5888d21977e0001d630f3,6685aa9113c938e83b4f1ea0,67074260719bd01ddbfcdfb8,2024-10-09_21h56.57.881,WTP_SM_Choice,2022.2.1,Win32,111.1111111,,,,,,,,,,,,,,,,,,30,,,,,,,,,,0.01,2,1.109,0,4,4,4,1,HomeGoods spree and buy whatever I want without worrying about the amount,Watch Steelers games with my family,0.05,0.01,8.8,1,,,,
,,59d5888d21977e0001d630f3,6685aa9113c938e83b4f1ea0,67074260719bd01ddbfcdfb8,2024-10-09_21h56.57.881,WTP_SM_Choice,2022.2.1,Win32,111.1111111,,,,,,,NAN,,NAN,0.7,5.3,,0,29,29,29,1,30,Alex,Acc,Participant_Images/59d5888d21977e0001d630f3/59d5888d21977e0001d630f3_Images/59d5888d21977e0001d630f3_Image_17.jpeg,liked,1.661473164,,,,,,,,,,,,,,,,,,,,,,
,,59d5888d21977e0001d630f3,6685aa9113c938e83b4f1ea0,67074260719bd01ddbfcdfb8,2024-10-09_21h56.57.881,WTP_SM_Choice,2022.2.1,Win32,111.1111111,,,,,space,1.12,NAN,,NAN,0.7,5.3,,0,30,30,30,1,31,Alex,Acc,Participant_Images/59d5888d21977e0001d630f3/59d5888d21977e0001d630f3_Images/59d5888d21977e0001d630f3_Image_13.jpeg,liked,3.613205605,,,,,,,,,,,,,,,,,,,,,,
,,59d5888d21977e0001d630f3,6685aa9113c938e83b4f1ea0,67074260719bd01ddbfcdfb8,2024-10-09_21h56.57.881,WTP_SM_Choice,2022.2.1,Win32,111.1111111,,,,,space,0.884,NAN,,NAN,0.7,5.3,,0,31,31,31,1,32,Alex,Acc,Participant_Images/59d5888d21977e0001d630f3/59d5888d21977e0001d630f3_Images/59d5888d21977e0001d630f3_Image_1.jpeg,liked,4.988446431,,,,,,,,,,,,,,,,,,,,,,
,,59d5888d21977e0001d630f3,6685aa9113c938e83b4f1ea0,67074260719bd01ddbfcdfb8,2024-10-09_21h56.57.881,WTP_SM_Choice,2022.2.1,Win32,111.1111111,,,,,space,0.777,NAN,,NAN,0.7,5.3,,0,32,32,32,1,33,Alex,Acc,Participant_Images/59d5888d21977e0001d630f3/59d5888d21977e0001d630f3_Images/59d5888d21977e0001d630f3_Image_24.jpeg,did not like,3.470791822,,,,,,,,,,,,,,,,,,,,,,
,,59d5888d21977e0001d630f3,6685aa9113c938e83b4f1ea0,67074260719bd01ddbfcdfb8,2024-10-09_21h56.57.881,WTP_SM_Choice,2022.2.1,Win32,111.1111111,,,,,space,0.757,NAN,,NAN,0.7,5.3,,0,33,33,33,1,34,Alex,Acc,Participant_Images/59d5888d21977e0001d630f3/59d5888d21977e0001d630f3_Images/59d5888d21977e0001d630f3_Image_3.jpeg,liked,3.820572462,,,,,,,,,,,,,,,,,,,,,,
,,59d5888d21977e0001d630f3,6685aa9113c938e83b4f1ea0,67074260719bd01ddbfcdfb8,2024-10-09_21h56.57.881,WTP_SM_Choice,2022.2.1,Win32,111.1111111,,,,,,,,,,,,,,,,,,31,,,,,,space,4.087,space,0.51,0.01,1,1.002,0,0,0,0,1,Sing along to Magic Dance when I feel very happy,Have my little brother hang out in my room as we watch CaseOh,0.01,0.02,8.8,1,,,,
,,59d5888d21977e0001d630f3,6685aa9113c938e83b4f1ea0,67074260719bd01ddbfcdfb8,2024-10-09_21h56.57.881,WTP_SM_Choice,2022.2.1,Win32,111.1111111,,,,,,,,,,,,,,,,,,32,,,,,,,,,,0.02,1,0.963,0,1,1,1,1,Bond with my big brother and making up time we could not hang out,Lay around in bed listening to music,0.02,0.02,1.1,0,,,,
,,59d5888d21977e0001d630f3,6685aa9113c938e83b4f1ea0,67074260719bd01ddbfcdfb8,2024-10-09_21h56.57.881,WTP_SM_Choice,2022.2.1,Win32,111.1111111,,,,,,,,,,,,,,,,,,33,,,,,,,,,,0.02,2,1.359,0,2,2,2,1,Go to local coffee shops with my friends,Lay around in bed listening to music,0.03,0.02,4.4,0,,,,
,,59d5888d21977e0001d630f3,6685aa9113c938e83b4f1ea0,67074260719bd01ddbfcdfb8,2024-10-09_21h56.57.881,WTP_SM_Choice,2022.2.1,Win32,111.1111111,,,,,,,,,,,,,,,,,,34,,,,,,,,,,0.02,2,0.962,0,3,3,3,1,Sing along to Magic Dance when I feel very happy,Buy things with my family,0.04,0.02,3.3,1,,,,
,,59d5888d21977e0001d630f3,6685aa9113c938e83b4f1ea0,67074260719bd01ddbfcdfb8,2024-10-09_21h56.57.881,WTP_SM_Choice,2022.2.1,Win32,111.1111111,,,,,,,,,,,,,,,,,,35,,,,,,,,,,0.02,2,0.99,0,4,4,4,1,Watch Steelers games with my family,Eat wings from my favorite wings restaurant,0.05,0.02,1.1,0,,,,
,,59d5888d21977e0001d630f3,6685aa9113c938e83b4f1ea0,67074260719bd01ddbfcdfb8,2024-10-09_21h56.57.881,WTP_SM_Choice,2022.2.1,Win32,111.1111111,,,,,,,NAN,,NAN,0.79,5.21,,0,34,34,34,1,35,Alex,Acc,Participant_Images/59d5888d21977e0001d630f3/59d5888d21977e0001d630f3_Images/59d5888d21977e0001d630f3_Image_12.jpeg,did not like,2.455989137,,,,,,,,,,,,,,,,,,,,,,
,,59d5888d21977e0001d630f3,6685aa9113c938e83b4f1ea0,67074260719bd01ddbfcdfb8,2024-10-09_21h56.57.881,WTP_SM_Choice,2022.2.1,Win32,111.1111111,,,,,space,0.874,NAN,,NAN,0.79,5.21,,0,35,35,35,1,36,Alex,Acc,Participant_Images/59d5888d21977e0001d630f3/59d5888d21977e0001d630f3_Images/59d5888d21977e0001d630f3_Image_10.jpeg,liked,3.79605092,,,,,,,,,,,,,,,,,,,,,,
,,59d5888d21977e0001d630f3,6685aa9113c938e83b4f1ea0,67074260719bd01ddbfcdfb8,2024-10-09_21h56.57.881,WTP_SM_Choice,2022.2.1,Win32,111.1111111,,,,,space,0.93,NAN,,NAN,0.79,5.21,,0,36,36,36,1,37,Alex,Acc,Participant_Images/59d5888d21977e0001d630f3/59d5888d21977e0001d630f3_Images/59d5888d21977e0001d630f3_Image_15.jpeg,did not like,3.562416326,,,,,,,,,,,,,,,,,,,,,,
,,59d5888d21977e0001d630f3,6685aa9113c938e83b4f1ea0,67074260719bd01ddbfcdfb8,2024-10-09_21h56.57.881,WTP_SM_Choice,2022.2.1,Win32,111.1111111,,,,,space,0.86,NAN,,NAN,0.79,5.21,,0,37,37,37,1,38,Alex,Acc,Participant_Images/59d5888d21977e0001d630f3/59d5888d21977e0001d630f3_Images/59d5888d21977e0001d630f3_Image_23.jpeg,liked,2.843822497,,,,,,,,,,,,,,,,,,,,,,
,,59d5888d21977e0001d630f3,6685aa9113c938e83b4f1ea0,67074260719bd01ddbfcdfb8,2024-10-09_21h56.57.881,WTP_SM_Choice,2022.2.1,Win32,111.1111111,,,,,space,0.702,NAN,,NAN,0.79,5.21,,0,38,38,38,1,39,Alex,Acc,Participant_Images/59d5888d21977e0001d630f3/59d5888d21977e0001d630f3_Images/59d5888d21977e0001d630f3_Image_25.jpeg,liked,3.546495948,,,,,,,,,,,,,,,,,,,,,,
,,59d5888d21977e0001d630f3,6685aa9113c938e83b4f1ea0,67074260719bd01ddbfcdfb8,2024-10-09_21h56.57.881,WTP_SM_Choice,2022.2.1,Win32,111.1111111,,,,,,,,,,,,,,,,,,36,,,,,,space,1.928,space,2.078,0.01,1,1.46,0,0,0,0,1,Hang out with my best friends and getting brew,Eat wings from my favorite wings restaurant,0.01,0.03,3.3,0,,,,
,,59d5888d21977e0001d630f3,6685aa9113c938e83b4f1ea0,67074260719bd01ddbfcdfb8,2024-10-09_21h56.57.881,WTP_SM_Choice,2022.2.1,Win32,111.1111111,,,,,,,,,,,,,,,,,,37,,,,,,,,,,0.02,1,1.144,0,1,1,1,1,Hang out with my best friends and getting brew,Clean up the house ,0.02,0.03,1.1,0,,,,
,,59d5888d21977e0001d630f3,6685aa9113c938e83b4f1ea0,67074260719bd01ddbfcdfb8,2024-10-09_21h56.57.881,WTP_SM_Choice,2022.2.1,Win32,111.1111111,,,,,,,,,,,,,,,,,,38,,,,,,,,,,0.03,1,1.869,0,2,2,2,1,Have my cat on my lap as she purs,Eat outside at a Chickfila with my mom and brother as the sun sets,0.03,0.03,1.1,1,,,,
,,59d5888d21977e0001d630f3,6685aa9113c938e83b4f1ea0,67074260719bd01ddbfcdfb8,2024-10-09_21h56.57.881,WTP_SM_Choice,2022.2.1,Win32,111.1111111,,,,,,,,,,,,,,,,,,39,,,,,,,,,,0.03,2,1.437,0,3,3,3,1,Sing along to Magic Dance when I feel very happy,Cook with my family,0.04,0.03,3.3,1,,,,
,,59d5888d21977e0001d630f3,6685aa9113c938e83b4f1ea0,67074260719bd01ddbfcdfb8,2024-10-09_21h56.57.881,WTP_SM_Choice,2022.2.1,Win32,111.1111111,,,,,,,,,,,,,,,,,,40,,,,,,,,,,0.03,2,1.255,0,4,4,4,1,Sing along to Magic Dance when I feel very happy,Go to exercise with my little brother,0.05,0.03,4.4,1,,,,
,,59d5888d21977e0001d630f3,6685aa9113c938e83b4f1ea0,67074260719bd01ddbfcdfb8,2024-10-09_21h56.57.881,WTP_SM_Choice,2022.2.1,Win32,111.1111111,,,,,,,NAN,,NAN,0.91,5.09,,0,39,39,39,1,40,Alex,Acc,Participant_Images/59d5888d21977e0001d630f3/59d5888d21977e0001d630f3_Images/59d5888d21977e0001d630f3_Image_6.jpeg,did not like,1.672012706,,,,,,,,,,,,,,,,,,,,,,
,,59d5888d21977e0001d630f3,6685aa9113c938e83b4f1ea0,67074260719bd01ddbfcdfb8,2024-10-09_21h56.57.881,WTP_SM_Choice,2022.2.1,Win32,111.1111111,,,,,space,0.797,NAN,,NAN,0.91,5.09,,0,40,40,40,1,41,Alex,Acc,Participant_Images/59d5888d21977e0001d630f3/59d5888d21977e0001d630f3_Images/59d5888d21977e0001d630f3_Image_8.jpeg,liked,4.942172136,,,,,,,,,,,,,,,,,,,,,,
,,59d5888d21977e0001d630f3,6685aa9113c938e83b4f1ea0,67074260719bd01ddbfcdfb8,2024-10-09_21h56.57.881,WTP_SM_Choice,2022.2.1,Win32,111.1111111,,,,,space,0.656,NAN,,NAN,0.91,5.09,,0,41,41,41,1,42,Alex,Acc,Participant_Images/59d5888d21977e0001d630f3/59d5888d21977e0001d630f3_Images/59d5888d21977e0001d630f3_Image_14.jpeg,did not like,2.50187214,,,,,,,,,,,,,,,,,,,,,,
,,59d5888d21977e0001d630f3,6685aa9113c938e83b4f1ea0,67074260719bd01ddbfcdfb8,2024-10-09_21h56.57.881,WTP_SM_Choice,2022.2.1,Win32,111.1111111,,,,,space,0.593,NAN,,NAN,0.91,5.09,,0,42,42,42,1,43,Alex,Acc,Participant_Images/59d5888d21977e0001d630f3/59d5888d21977e0001d630f3_Images/59d5888d21977e0001d630f3_Image_16.jpeg,liked,2.071164779,,,,,,,,,,,,,,,,,,,,,,
,,59d5888d21977e0001d630f3,6685aa9113c938e83b4f1ea0,67074260719bd01ddbfcdfb8,2024-10-09_21h56.57.881,WTP_SM_Choice,2022.2.1,Win32,111.1111111,,,,,space,0.602,NAN,,NAN,0.91,5.09,,0,43,43,43,1,44,Alex,Acc,Participant_Images/59d5888d21977e0001d630f3/59d5888d21977e0001d630f3_Images/59d5888d21977e0001d630f3_Image_11.jpeg,liked,5.336503566,,,,,,,,,,,,,,,,,,,,,,
,,59d5888d21977e0001d630f3,6685aa9113c938e83b4f1ea0,67074260719bd01ddbfcdfb8,2024-10-09_21h56.57.881,WTP_SM_Choice,2022.2.1,Win32,111.1111111,,,,,,,,,,,,,,,,,,41,,,,,,space,2.681,space,0.585,0.01,1,1.235,0,0,0,0,1,Lay around in bed listening to music,Cook with my family,0.01,0.04,1.1,1,,,,
,,59d5888d21977e0001d630f3,6685aa9113c938e83b4f1ea0,67074260719bd01ddbfcdfb8,2024-10-09_21h56.57.881,WTP_SM_Choice,2022.2.1,Win32,111.1111111,,,,,,,,,,,,,,,,,,42,,,,,,,,,,0.02,1,1.323,0,1,1,1,1,Have my cat on my lap as she purs,Buy things with my family,0.02,0.04,3.3,1,,,,
,,59d5888d21977e0001d630f3,6685aa9113c938e83b4f1ea0,67074260719bd01ddbfcdfb8,2024-10-09_21h56.57.881,WTP_SM_Choice,2022.2.1,Win32,111.1111111,,,,,,,,,,,,,,,,,,43,,,,,,,,,,0.03,1,1.027,0,2,2,2,1,Go to local coffee shops with my friends,Watch Studio Ghibli on a rainy cloudy day,0.03,0.04,1.1,0,,,,
,,59d5888d21977e0001d630f3,6685aa9113c938e83b4f1ea0,67074260719bd01ddbfcdfb8,2024-10-09_21h56.57.881,WTP_SM_Choice,2022.2.1,Win32,111.1111111,,,,,,,,,,,,,,,,,,44,,,,,,,,,,0.04,1,2.166,0,3,3,3,1,Exercise,Cook with my family,0.04,0.04,1.1,1,,,,
,,59d5888d21977e0001d630f3,6685aa9113c938e83b4f1ea0,67074260719bd01ddbfcdfb8,2024-10-09_21h56.57.881,WTP_SM_Choice,2022.2.1,Win32,111.1111111,,,,,,,,,,,,,,,,,,45,,,,,,,,,,0.04,2,1.108,0,4,4,4,1,Eat wings from my favorite wings restaurant,Eat outside at a Chickfila with my mom and brother as the sun sets,0.05,0.04,4.4,1,,,,
,,59d5888d21977e0001d630f3,6685aa9113c938e83b4f1ea0,67074260719bd01ddbfcdfb8,2024-10-09_21h56.57.881,WTP_SM_Choice,2022.2.1,Win32,111.1111111,,,,,,,NAN,,NAN,1.05,4.95,,0,44,44,44,1,45,Alex,Acc,Participant_Images/59d5888d21977e0001d630f3/59d5888d21977e0001d630f3_Images/59d5888d21977e0001d630f3_Image_20.jpeg,liked,2.642157193,,,,,,,,,,,,,,,,,,,,,,
,,59d5888d21977e0001d630f3,6685aa9113c938e83b4f1ea0,67074260719bd01ddbfcdfb8,2024-10-09_21h56.57.881,WTP_SM_Choice,2022.2.1,Win32,111.1111111,,,,,space,0.902,NAN,,NAN,1.05,4.95,,0,45,45,45,1,46,Alex,Acc,Participant_Images/59d5888d21977e0001d630f3/59d5888d21977e0001d630f3_Images/59d5888d21977e0001d630f3_Image_7.jpeg,liked,4.456234322,,,,,,,,,,,,,,,,,,,,,,
,,59d5888d21977e0001d630f3,6685aa9113c938e83b4f1ea0,67074260719bd01ddbfcdfb8,2024-10-09_21h56.57.881,WTP_SM_Choice,2022.2.1,Win32,111.1111111,,,,,space,0.786,NAN,,NAN,1.05,4.95,,0,46,46,46,1,47,Alex,Acc,Participant_Images/59d5888d21977e0001d630f3/59d5888d21977e0001d630f3_Images/59d5888d21977e0001d630f3_Image_21.jpeg,liked,4.438512181,,,,,,,,,,,,,,,,,,,,,,
,,59d5888d21977e0001d630f3,6685aa9113c938e83b4f1ea0,67074260719bd01ddbfcdfb8,2024-10-09_21h56.57.881,WTP_SM_Choice,2022.2.1,Win32,111.1111111,,,,,space,1.364,NAN,,NAN,1.05,4.95,,0,47,47,47,1,48,Alex,Acc,Participant_Images/59d5888d21977e0001d630f3/59d5888d21977e0001d630f3_Images/59d5888d21977e0001d630f3_Image_4.jpeg,did not like,2.682944783,,,,,,,,,,,,,,,,,,,,,,
,,59d5888d21977e0001d630f3,6685aa9113c938e83b4f1ea0,67074260719bd01ddbfcdfb8,2024-10-09_21h56.57.881,WTP_SM_Choice,2022.2.1,Win32,111.1111111,,,,,space,1.06,NAN,,NAN,1.05,4.95,,0,48,48,48,1,49,Alex,Acc,Participant_Images/59d5888d21977e0001d630f3/59d5888d21977e0001d630f3_Images/59d5888d21977e0001d630f3_Image_22.jpeg,liked,4.51984296,,,,,,,,,,,,,,,,,,,,,,
,,59d5888d21977e0001d630f3,6685aa9113c938e83b4f1ea0,67074260719bd01ddbfcdfb8,2024-10-09_21h56.57.881,WTP_SM_Choice,2022.2.1,Win32,111.1111111,,,,,,,,,,,,,,,,,,46,,,,,,space,1.31,space,1.013,0.01,1,1.325,0,0,0,0,1,Spend time in the backyard cleaning with my dogs and family,Exercise,0.01,0.05,8.8,0,,,,
,,59d5888d21977e0001d630f3,6685aa9113c938e83b4f1ea0,67074260719bd01ddbfcdfb8,2024-10-09_21h56.57.881,WTP_SM_Choice,2022.2.1,Win32,111.1111111,,,,,,,,,,,,,,,,,,47,,,,,,,,,,0.02,1,1.251,0,1,1,1,1,Go out to Target to go get snacks pet snacks and personal care products ,Spend time in the backyard cleaning with my dogs and family,0.02,0.05,1.1,1,,,,
,,59d5888d21977e0001d630f3,6685aa9113c938e83b4f1ea0,67074260719bd01ddbfcdfb8,2024-10-09_21h56.57.881,WTP_SM_Choice,2022.2.1,Win32,111.1111111,,,,,,,,,,,,,,,,,,48,,,,,,,,,,0.03,1,1.36,0,2,2,2,1,HomeGoods spree and buy whatever I want without worrying about the amount,Eat outside at a Chickfila with my mom and brother as the sun sets,0.03,0.05,4.4,1,,,,
,,59d5888d21977e0001d630f3,6685aa9113c938e83b4f1ea0,67074260719bd01ddbfcdfb8,2024-10-09_21h56.57.881,WTP_SM_Choice,2022.2.1,Win32,111.1111111,,,,,,,,,,,,,,,,,,49,,,,,,,,,,0.04,1,1.363,0,3,3,3,1,Go out to Target to go get snacks pet snacks and personal care products ,Hang out with my best friends and getting brew,0.04,0.05,3.3,1,,,,
,,59d5888d21977e0001d630f3,6685aa9113c938e83b4f1ea0,67074260719bd01ddbfcdfb8,2024-10-09_21h56.57.881,WTP_SM_Choice,2022.2.1,Win32,111.1111111,,,,,,,,,,,,,,,,,,50,,,,,,,,,,0.05,1,1.185,0,4,4,4,1,Go to exercise with my little brother,Play video games on my PC,0.05,0.05,1.1,0,,,,
,,59d5888d21977e0001d630f3,6685aa9113c938e83b4f1ea0,67074260719bd01ddbfcdfb8,2024-10-09_21h56.57.881,WTP_SM_Choice,2022.2.1,Win32,111.1111111,,,,,,,4,,9,1.2,4.8,,0,49,49,49,1,50,Alex,Acc,Participant_Images/59d5888d21977e0001d630f3/59d5888d21977e0001d630f3_Images/59d5888d21977e0001d630f3_Image_2.jpeg,liked,3.195382774,,,,,,,,,,,,,,,,,,,space,4.816,,
,,59d5888d21977e0001d630f3,6685aa9113c938e83b4f1ea0,67074260719bd01ddbfcdfb8,2024-10-09_21h56.57.881,WTP_SM_Choice,2022.2.1,Win32,111.1111111,,,space,1.501,space,2.491,NAN,,NAN,1.2,4.8,,0,50,50,50,1,51,Sam,Rej,Participant_Images/59d5888d21977e0001d630f3/59d5888d21977e0001d630f3_Images/59d5888d21977e0001d630f3_Image_10.jpeg,liked,1.779333479,,,,,,,,,,,,,,,,,,,,,,
,,59d5888d21977e0001d630f3,6685aa9113c938e83b4f1ea0,67074260719bd01ddbfcdfb8,2024-10-09_21h56.57.881,WTP_SM_Choice,2022.2.1,Win32,111.1111111,,,,,space,1.219,NAN,,NAN,1.2,4.8,,0,51,51,51,1,52,Sam,Rej,Participant_Images/59d5888d21977e0001d630f3/59d5888d21977e0001d630f3_Images/59d5888d21977e0001d630f3_Image_22.jpeg,did not like,4.312468682,,,,,,,,,,,,,,,,,,,,,,
,,59d5888d21977e0001d630f3,6685aa9113c938e83b4f1ea0,67074260719bd01ddbfcdfb8,2024-10-09_21h56.57.881,WTP_SM_Choice,2022.2.1,Win32,111.1111111,,,,,space,0.591,NAN,,NAN,1.2,4.8,,0,52,52,52,1,53,Sam,Rej,Participant_Images/59d5888d21977e0001d630f3/59d5888d21977e0001d630f3_Images/59d5888d21977e0001d630f3_Image_11.jpeg,did not like,4.940433059,,,,,,,,,,,,,,,,,,,,,,
,,59d5888d21977e0001d630f3,6685aa9113c938e83b4f1ea0,67074260719bd01ddbfcdfb8,2024-10-09_21h56.57.881,WTP_SM_Choice,2022.2.1,Win32,111.1111111,,,,,space,0.694,NAN,,NAN,1.2,4.8,,0,53,53,53,1,54,Sam,Rej,Participant_Images/59d5888d21977e0001d630f3/59d5888d21977e0001d630f3_Images/59d5888d21977e0001d630f3_Image_13.jpeg,did not like,2.7105123,,,,,,,,,,,,,,,,,,,,,,
,,59d5888d21977e0001d630f3,6685aa9113c938e83b4f1ea0,67074260719bd01ddbfcdfb8,2024-10-09_21h56.57.881,WTP_SM_Choice,2022.2.1,Win32,111.1111111,,,,,,,,,,,,,,,,,,51,,,,,,space,2.003,space,1.592,0.01,1,2.396,0,0,0,0,1,Exercise,Hang out with my best friends and getting brew,0.01,0.01,1.1,1,,,,
,,59d5888d21977e0001d630f3,6685aa9113c938e83b4f1ea0,67074260719bd01ddbfcdfb8,2024-10-09_21h56.57.881,WTP_SM_Choice,2022.2.1,Win32,111.1111111,,,,,,,,,,,,,,,,,,52,,,,,,,,,,0.01,2,1.676,0,1,1,1,1,Bond with my big brother and making up time we could not hang out,Play video games on my PC,0.02,0.01,3.3,0,,,,
,,59d5888d21977e0001d630f3,6685aa9113c938e83b4f1ea0,67074260719bd01ddbfcdfb8,2024-10-09_21h56.57.881,WTP_SM_Choice,2022.2.1,Win32,111.1111111,,,,,,,,,,,,,,,,,,53,,,,,,,,,,0.01,2,1.423,0,2,2,2,1,Hang out with my best friends and getting brew,Lay around in bed listening to music,0.03,0.01,1.1,0,,,,
,,59d5888d21977e0001d630f3,6685aa9113c938e83b4f1ea0,67074260719bd01ddbfcdfb8,2024-10-09_21h56.57.881,WTP_SM_Choice,2022.2.1,Win32,111.1111111,,,,,,,,,,,,,,,,,,54,,,,,,,,,,0.01,2,1.936,0,3,3,3,1,Lay around in bed listening to music,Eat outside at a Chickfila with my mom and brother as the sun sets,0.04,0.01,4.4,1,,,,
,,59d5888d21977e0001d630f3,6685aa9113c938e83b4f1ea0,67074260719bd01ddbfcdfb8,2024-10-09_21h56.57.881,WTP_SM_Choice,2022.2.1,Win32,111.1111111,,,,,,,,,,,,,,,,,,55,,,,,,,,,,0.01,2,1.498,0,4,4,4,1,Clean up the house ,Have my little brother hang out in my room as we watch CaseOh,0.05,0.01,1.1,1,,,,
,,59d5888d21977e0001d630f3,6685aa9113c938e83b4f1ea0,67074260719bd01ddbfcdfb8,2024-10-09_21h56.57.881,WTP_SM_Choice,2022.2.1,Win32,111.1111111,,,,,,,NAN,,NAN,1.25,4.75,,0,54,54,54,1,55,Sam,Rej,Participant_Images/59d5888d21977e0001d630f3/59d5888d21977e0001d630f3_Images/59d5888d21977e0001d630f3_Image_4.jpeg,did not like,3.602308302,,,,,,,,,,,,,,,,,,,,,,
,,59d5888d21977e0001d630f3,6685aa9113c938e83b4f1ea0,67074260719bd01ddbfcdfb8,2024-10-09_21h56.57.881,WTP_SM_Choice,2022.2.1,Win32,111.1111111,,,,,space,1.5,NAN,,NAN,1.25,4.75,,0,55,55,55,1,56,Sam,Rej,Participant_Images/59d5888d21977e0001d630f3/59d5888d21977e0001d630f3_Images/59d5888d21977e0001d630f3_Image_6.jpeg,did not like,4.106391878,,,,,,,,,,,,,,,,,,,,,,
,,59d5888d21977e0001d630f3,6685aa9113c938e83b4f1ea0,67074260719bd01ddbfcdfb8,2024-10-09_21h56.57.881,WTP_SM_Choice,2022.2.1,Win32,111.1111111,,,,,space,1.595,NAN,,NAN,1.25,4.75,,0,56,56,56,1,57,Sam,Rej,Participant_Images/59d5888d21977e0001d630f3/59d5888d21977e0001d630f3_Images/59d5888d21977e0001d630f3_Image_3.jpeg,did not like,3.799433026,,,,,,,,,,,,,,,,,,,,,,
,,59d5888d21977e0001d630f3,6685aa9113c938e83b4f1ea0,67074260719bd01ddbfcdfb8,2024-10-09_21h56.57.881,WTP_SM_Choice,2022.2.1,Win32,111.1111111,,,,,space,0.734,NAN,,NAN,1.25,4.75,,0,57,57,57,1,58,Sam,Rej,Participant_Images/59d5888d21977e0001d630f3/59d5888d21977e0001d630f3_Images/59d5888d21977e0001d630f3_Image_14.jpeg,did not like,5.246980764,,,,,,,,,,,,,,,,,,,,,,
,,59d5888d21977e0001d630f3,6685aa9113c938e83b4f1ea0,67074260719bd01ddbfcdfb8,2024-10-09_21h56.57.881,WTP_SM_Choice,2022.2.1,Win32,111.1111111,,,,,space,1.085,NAN,,NAN,1.25,4.75,,0,58,58,58,1,59,Sam,Rej,Participant_Images/59d5888d21977e0001d630f3/59d5888d21977e0001d630f3_Images/59d5888d21977e0001d630f3_Image_1.jpeg,liked,3.30081769,,,,,,,,,,,,,,,,,,,,,,
,,59d5888d21977e0001d630f3,6685aa9113c938e83b4f1ea0,67074260719bd01ddbfcdfb8,2024-10-09_21h56.57.881,WTP_SM_Choice,2022.2.1,Win32,111.1111111,,,,,,,,,,,,,,,,,,56,,,,,,space,3.732,space,1.182,0.01,1,1.637,0,0,0,0,1,Buy things with my family,HomeGoods spree and buy whatever I want without worrying about the amount,0.01,0.02,8.8,0,,,,
,,59d5888d21977e0001d630f3,6685aa9113c938e83b4f1ea0,67074260719bd01ddbfcdfb8,2024-10-09_21h56.57.881,WTP_SM_Choice,2022.2.1,Win32,111.1111111,,,,,,,,,,,,,,,,,,57,,,,,,,,,,0.02,1,1.616,0,1,1,1,1,Bond with my big brother and making up time we could not hang out,Eat wings from my favorite wings restaurant,0.02,0.02,4.4,0,,,,
,,59d5888d21977e0001d630f3,6685aa9113c938e83b4f1ea0,67074260719bd01ddbfcdfb8,2024-10-09_21h56.57.881,WTP_SM_Choice,2022.2.1,Win32,111.1111111,,,,,,,,,,,,,,,,,,58,,,,,,,,,,0.02,2,1.677,0,2,2,2,1,Buy things with my family,Play video games on my PC,0.03,0.02,4.4,0,,,,
,,59d5888d21977e0001d630f3,6685aa9113c938e83b4f1ea0,67074260719bd01ddbfcdfb8,2024-10-09_21h56.57.881,WTP_SM_Choice,2022.2.1,Win32,111.1111111,,,,,,,,,,,,,,,,,,59,,,,,,,,,,0.02,2,1.5,0,3,3,3,1,Watch Steelers games with my family,Lay around in bed listening to music,0.04,0.02,4.4,0,,,,
,,59d5888d21977e0001d630f3,6685aa9113c938e83b4f1ea0,67074260719bd01ddbfcdfb8,2024-10-09_21h56.57.881,WTP_SM_Choice,2022.2.1,Win32,111.1111111,,,,,,,,,,,,,,,,,,60,,,,,,,,,,0.02,2,1.173,0,4,4,4,1,Go to exercise with my little brother,Watch Studio Ghibli on a rainy cloudy day,0.05,0.02,1.1,0,,,,
,,59d5888d21977e0001d630f3,6685aa9113c938e83b4f1ea0,67074260719bd01ddbfcdfb8,2024-10-09_21h56.57.881,WTP_SM_Choice,2022.2.1,Win32,111.1111111,,,,,,,NAN,,NAN,1.34,4.66,,0,59,59,59,1,60,Sam,Rej,Participant_Images/59d5888d21977e0001d630f3/59d5888d21977e0001d630f3_Images/59d5888d21977e0001d630f3_Image_21.jpeg,liked,1.661473164,,,,,,,,,,,,,,,,,,,,,,
,,59d5888d21977e0001d630f3,6685aa9113c938e83b4f1ea0,67074260719bd01ddbfcdfb8,2024-10-09_21h56.57.881,WTP_SM_Choice,2022.2.1,Win32,111.1111111,,,,,space,1.196,NAN,,NAN,1.34,4.66,,0,60,60,60,1,61,Sam,Rej,Participant_Images/59d5888d21977e0001d630f3/59d5888d21977e0001d630f3_Images/59d5888d21977e0001d630f3_Image_5.jpeg,did not like,3.613205605,,,,,,,,,,,,,,,,,,,,,,
,,59d5888d21977e0001d630f3,6685aa9113c938e83b4f1ea0,67074260719bd01ddbfcdfb8,2024-10-09_21h56.57.881,WTP_SM_Choice,2022.2.1,Win32,111.1111111,,,,,space,1.843,NAN,,NAN,1.34,4.66,,0,61,61,61,1,62,Sam,Rej,Participant_Images/59d5888d21977e0001d630f3/59d5888d21977e0001d630f3_Images/59d5888d21977e0001d630f3_Image_25.jpeg,did not like,4.988446431,,,,,,,,,,,,,,,,,,,,,,
,,59d5888d21977e0001d630f3,6685aa9113c938e83b4f1ea0,67074260719bd01ddbfcdfb8,2024-10-09_21h56.57.881,WTP_SM_Choice,2022.2.1,Win32,111.1111111,,,,,space,3.469,NAN,,NAN,1.34,4.66,,0,62,62,62,1,63,Sam,Rej,Participant_Images/59d5888d21977e0001d630f3/59d5888d21977e0001d630f3_Images/59d5888d21977e0001d630f3_Image_23.jpeg,did not like,3.470791822,,,,,,,,,,,,,,,,,,,,,,
,,59d5888d21977e0001d630f3,6685aa9113c938e83b4f1ea0,67074260719bd01ddbfcdfb8,2024-10-09_21h56.57.881,WTP_SM_Choice,2022.2.1,Win32,111.1111111,,,,,space,3.254,NAN,,NAN,1.34,4.66,,0,63,63,63,1,64,Sam,Rej,Participant_Images/59d5888d21977e0001d630f3/59d5888d21977e0001d630f3_Images/59d5888d21977e0001d630f3_Image_8.jpeg,liked,3.820572462,,,,,,,,,,,,,,,,,,,,,,
,,59d5888d21977e0001d630f3,6685aa9113c938e83b4f1ea0,67074260719bd01ddbfcdfb8,2024-10-09_21h56.57.881,WTP_SM_Choice,2022.2.1,Win32,111.1111111,,,,,,,,,,,,,,,,,,61,,,,,,space,3.743,space,0.708,0.01,1,1.66,0,0,0,0,1,Bond with my big brother and making up time we could not hang out,Clean up the house ,0.01,0.03,3.3,0,,,,
,,59d5888d21977e0001d630f3,6685aa9113c938e83b4f1ea0,67074260719bd01ddbfcdfb8,2024-10-09_21h56.57.881,WTP_SM_Choice,2022.2.1,Win32,111.1111111,,,,,,,,,,,,,,,,,,62,,,,,,,,,,0.02,1,1.282,0,1,1,1,1,Eat wings from my favorite wings restaurant,Cook with my family,0.02,0.03,3.3,1,,,,
,,59d5888d21977e0001d630f3,6685aa9113c938e83b4f1ea0,67074260719bd01ddbfcdfb8,2024-10-09_21h56.57.881,WTP_SM_Choice,2022.2.1,Win32,111.1111111,,,,,,,,,,,,,,,,,,63,,,,,,,,,,0.03,1,1.91,0,2,2,2,1,Watch Steelers games with my family,Go out to Target to go get snacks pet snacks and personal care products ,0.03,0.03,3.3,0,,,,
,,59d5888d21977e0001d630f3,6685aa9113c938e83b4f1ea0,67074260719bd01ddbfcdfb8,2024-10-09_21h56.57.881,WTP_SM_Choice,2022.2.1,Win32,111.1111111,,,,,,,,,,,,,,,,,,64,,,,,,,,,,0.03,2,2.174,0,3,3,3,1,HomeGoods spree and buy whatever I want without worrying about the amount,Go to local coffee shops with my friends,0.04,0.03,1.1,1,,,,
,,59d5888d21977e0001d630f3,6685aa9113c938e83b4f1ea0,67074260719bd01ddbfcdfb8,2024-10-09_21h56.57.881,WTP_SM_Choice,2022.2.1,Win32,111.1111111,,,,,,,,,,,,,,,,,,65,,,,,,,,,,0.03,2,2.518,0,4,4,4,1,HomeGoods spree and buy whatever I want without worrying about the amount,Go to exercise with my little brother,0.05,0.03,1.1,1,,,,
,,59d5888d21977e0001d630f3,6685aa9113c938e83b4f1ea0,67074260719bd01ddbfcdfb8,2024-10-09_21h56.57.881,WTP_SM_Choice,2022.2.1,Win32,111.1111111,,,,,,,NAN,,NAN,1.46,4.54,,0,64,64,64,1,65,Sam,Rej,Participant_Images/59d5888d21977e0001d630f3/59d5888d21977e0001d630f3_Images/59d5888d21977e0001d630f3_Image_19.jpeg,did not like,2.455989137,,,,,,,,,,,,,,,,,,,,,,
,,59d5888d21977e0001d630f3,6685aa9113c938e83b4f1ea0,67074260719bd01ddbfcdfb8,2024-10-09_21h56.57.881,WTP_SM_Choice,2022.2.1,Win32,111.1111111,,,,,space,35.601,NAN,,NAN,1.46,4.54,,0,65,65,65,1,66,Sam,Rej,Participant_Images/59d5888d21977e0001d630f3/59d5888d21977e0001d630f3_Images/59d5888d21977e0001d630f3_Image_15.jpeg,did not like,3.79605092,,,,,,,,,,,,,,,,,,,,,,
,,59d5888d21977e0001d630f3,6685aa9113c938e83b4f1ea0,67074260719bd01ddbfcdfb8,2024-10-09_21h56.57.881,WTP_SM_Choice,2022.2.1,Win32,111.1111111,,,,,space,14.819,NAN,,NAN,1.46,4.54,,0,66,66,66,1,67,Sam,Rej,Participant_Images/59d5888d21977e0001d630f3/59d5888d21977e0001d630f3_Images/59d5888d21977e0001d630f3_Image_16.jpeg,did not like,3.562416326,,,,,,,,,,,,,,,,,,,,,,
,,59d5888d21977e0001d630f3,6685aa9113c938e83b4f1ea0,67074260719bd01ddbfcdfb8,2024-10-09_21h56.57.881,WTP_SM_Choice,2022.2.1,Win32,111.1111111,,,,,space,1.119,NAN,,NAN,1.46,4.54,,0,67,67,67,1,68,Sam,Rej,Participant_Images/59d5888d21977e0001d630f3/59d5888d21977e0001d630f3_Images/59d5888d21977e0001d630f3_Image_18.jpeg,did not like,2.843822497,,,,,,,,,,,,,,,,,,,,,,
,,59d5888d21977e0001d630f3,6685aa9113c938e83b4f1ea0,67074260719bd01ddbfcdfb8,2024-10-09_21h56.57.881,WTP_SM_Choice,2022.2.1,Win32,111.1111111,,,,,space,1.253,NAN,,NAN,1.46,4.54,,0,68,68,68,1,69,Sam,Rej,Participant_Images/59d5888d21977e0001d630f3/59d5888d21977e0001d630f3_Images/59d5888d21977e0001d630f3_Image_20.jpeg,did not like,3.546495948,,,,,,,,,,,,,,,,,,,,,,
,,59d5888d21977e0001d630f3,6685aa9113c938e83b4f1ea0,67074260719bd01ddbfcdfb8,2024-10-09_21h56.57.881,WTP_SM_Choice,2022.2.1,Win32,111.1111111,,,,,,,,,,,,,,,,,,66,,,,,,space,1.466,space,0.326,0.01,1,1.018,0,0,0,0,1,Eat outside at a Chickfila with my mom and brother as the sun sets,Watch Studio Ghibli on a rainy cloudy day,0.01,0.04,1.1,0,,,,
,,59d5888d21977e0001d630f3,6685aa9113c938e83b4f1ea0,67074260719bd01ddbfcdfb8,2024-10-09_21h56.57.881,WTP_SM_Choice,2022.2.1,Win32,111.1111111,,,,,,,,,,,,,,,,,,67,,,,,,,,,,0.02,1,1.695,0,1,1,1,1,Go out to Target to go get snacks pet snacks and personal care products ,Have my little brother hang out in my room as we watch CaseOh,0.02,0.04,8.8,1,,,,
,,59d5888d21977e0001d630f3,6685aa9113c938e83b4f1ea0,67074260719bd01ddbfcdfb8,2024-10-09_21h56.57.881,WTP_SM_Choice,2022.2.1,Win32,111.1111111,,,,,,,,,,,,,,,,,,68,,,,,,,,,,0.03,1,1.086,0,2,2,2,1,Hang out with my best friends and getting brew,HomeGoods spree and buy whatever I want without worrying about the amount,0.03,0.04,4.4,0,,,,
,,59d5888d21977e0001d630f3,6685aa9113c938e83b4f1ea0,67074260719bd01ddbfcdfb8,2024-10-09_21h56.57.881,WTP_SM_Choice,2022.2.1,Win32,111.1111111,,,,,,,,,,,,,,,,,,69,,,,,,,,,,0.04,1,2.741,0,3,3,3,1,HomeGoods spree and buy whatever I want without worrying about the amount,Cook with my family,0.04,0.04,1.1,1,,,,
,,59d5888d21977e0001d630f3,6685aa9113c938e83b4f1ea0,67074260719bd01ddbfcdfb8,2024-10-09_21h56.57.881,WTP_SM_Choice,2022.2.1,Win32,111.1111111,,,,,,,,,,,,,,,,,,70,,,,,,,,,,0.04,2,1.483,0,4,4,4,1,Have my little brother hang out in my room as we watch CaseOh,HomeGoods spree and buy whatever I want without worrying about the amount,0.05,0.04,1.1,0,,,,
,,59d5888d21977e0001d630f3,6685aa9113c938e83b4f1ea0,67074260719bd01ddbfcdfb8,2024-10-09_21h56.57.881,WTP_SM_Choice,2022.2.1,Win32,111.1111111,,,,,,,NAN,,NAN,1.6,4.4,,0,69,69,69,1,70,Sam,Rej,Participant_Images/59d5888d21977e0001d630f3/59d5888d21977e0001d630f3_Images/59d5888d21977e0001d630f3_Image_17.jpeg,liked,1.672012706,,,,,,,,,,,,,,,,,,,,,,
,,59d5888d21977e0001d630f3,6685aa9113c938e83b4f1ea0,67074260719bd01ddbfcdfb8,2024-10-09_21h56.57.881,WTP_SM_Choice,2022.2.1,Win32,111.1111111,,,,,space,0.536,NAN,,NAN,1.6,4.4,,0,70,70,70,1,71,Sam,Rej,Participant_Images/59d5888d21977e0001d630f3/59d5888d21977e0001d630f3_Images/59d5888d21977e0001d630f3_Image_24.jpeg,did not like,4.942172136,,,,,,,,,,,,,,,,,,,,,,
,,59d5888d21977e0001d630f3,6685aa9113c938e83b4f1ea0,67074260719bd01ddbfcdfb8,2024-10-09_21h56.57.881,WTP_SM_Choice,2022.2.1,Win32,111.1111111,,,,,space,2.837,NAN,,NAN,1.6,4.4,,0,71,71,71,1,72,Sam,Rej,Participant_Images/59d5888d21977e0001d630f3/59d5888d21977e0001d630f3_Images/59d5888d21977e0001d630f3_Image_12.jpeg,did not like,2.50187214,,,,,,,,,,,,,,,,,,,,,,
,,59d5888d21977e0001d630f3,6685aa9113c938e83b4f1ea0,67074260719bd01ddbfcdfb8,2024-10-09_21h56.57.881,WTP_SM_Choice,2022.2.1,Win32,111.1111111,,,,,space,2.593,NAN,,NAN,1.6,4.4,,0,72,72,72,1,73,Sam,Rej,Participant_Images/59d5888d21977e0001d630f3/59d5888d21977e0001d630f3_Images/59d5888d21977e0001d630f3_Image_9.jpeg,did not like,2.071164779,,,,,,,,,,,,,,,,,,,,,,
,,59d5888d21977e0001d630f3,6685aa9113c938e83b4f1ea0,67074260719bd01ddbfcdfb8,2024-10-09_21h56.57.881,WTP_SM_Choice,2022.2.1,Win32,111.1111111,,,,,space,3.852,NAN,,NAN,1.6,4.4,,0,73,73,73,1,74,Sam,Rej,Participant_Images/59d5888d21977e0001d630f3/59d5888d21977e0001d630f3_Images/59d5888d21977e0001d630f3_Image_2.jpeg,liked,5.336503566,,,,,,,,,,,,,,,,,,,,,,
,,59d5888d21977e0001d630f3,6685aa9113c938e83b4f1ea0,67074260719bd01ddbfcdfb8,2024-10-09_21h56.57.881,WTP_SM_Choice,2022.2.1,Win32,111.1111111,,,,,,,,,,,,,,,,,,71,,,,,,space,2.639,space,0.36,0.01,1,0.806,0,0,0,0,1,Lay around in bed listening to music,Spend time in the backyard cleaning with my dogs and family,0.01,0.05,3.3,1,,,,
,,59d5888d21977e0001d630f3,6685aa9113c938e83b4f1ea0,67074260719bd01ddbfcdfb8,2024-10-09_21h56.57.881,WTP_SM_Choice,2022.2.1,Win32,111.1111111,,,,,,,,,,,,,,,,,,72,,,,,,,,,,0.02,1,1.136,0,1,1,1,1,Have my little brother hang out in my room as we watch CaseOh,Watch Studio Ghibli on a rainy cloudy day,0.02,0.05,8.8,0,,,,
,,59d5888d21977e0001d630f3,6685aa9113c938e83b4f1ea0,67074260719bd01ddbfcdfb8,2024-10-09_21h56.57.881,WTP_SM_Choice,2022.2.1,Win32,111.1111111,,,,,,,,,,,,,,,,,,73,,,,,,,,,,0.03,1,1.164,0,2,2,2,1,Have my little brother hang out in my room as we watch CaseOh,Eat wings from my favorite wings restaurant,0.03,0.05,3.3,0,,,,
,,59d5888d21977e0001d630f3,6685aa9113c938e83b4f1ea0,67074260719bd01ddbfcdfb8,2024-10-09_21h56.57.881,WTP_SM_Choice,2022.2.1,Win32,111.1111111,,,,,,,,,,,,,,,,,,74,,,,,,,,,,0.04,1,2.292,0,3,3,3,1,Clean up the house ,Go to local coffee shops with my friends,0.04,0.05,4.4,1,,,,
,,59d5888d21977e0001d630f3,6685aa9113c938e83b4f1ea0,67074260719bd01ddbfcdfb8,2024-10-09_21h56.57.881,WTP_SM_Choice,2022.2.1,Win32,111.1111111,,,,,,,,,,,,,,,,,,75,,,,,,,,,,0.05,1,2.136,0,4,4,4,1,Spend time in the backyard cleaning with my dogs and family,Sing along to Magic Dance when I feel very happy,0.05,0.05,3.3,0,,,,
,,59d5888d21977e0001d630f3,6685aa9113c938e83b4f1ea0,67074260719bd01ddbfcdfb8,2024-10-09_21h56.57.881,WTP_SM_Choice,2022.2.1,Win32,111.1111111,,,,,,,1,,5,1.75,4.25,,0,74,74,74,1,75,Sam,Rej,Participant_Images/59d5888d21977e0001d630f3/59d5888d21977e0001d630f3_Images/59d5888d21977e0001d630f3_Image_7.jpeg,liked,2.642157193,,,,,,,,,,,,,,,,,,,space,2.412,,
,,59d5888d21977e0001d630f3,6685aa9113c938e83b4f1ea0,67074260719bd01ddbfcdfb8,2024-10-09_21h56.57.881,WTP_SM_Choice,2022.2.1,Win32,111.1111111,,,space,5.235,space,1.735,NAN,,NAN,1.75,4.25,,0,75,75,75,1,76,Charlie,Acc,Participant_Images/59d5888d21977e0001d630f3/59d5888d21977e0001d630f3_Images/59d5888d21977e0001d630f3_Image_14.jpeg,liked,4.456234322,,,,,,,,,,,,,,,,,,,,,,
,,59d5888d21977e0001d630f3,6685aa9113c938e83b4f1ea0,67074260719bd01ddbfcdfb8,2024-10-09_21h56.57.881,WTP_SM_Choice,2022.2.1,Win32,111.1111111,,,,,space,2.498,NAN,,NAN,1.75,4.25,,0,76,76,76,1,77,Charlie,Acc,Participant_Images/59d5888d21977e0001d630f3/59d5888d21977e0001d630f3_Images/59d5888d21977e0001d630f3_Image_19.jpeg,liked,4.438512181,,,,,,,,,,,,,,,,,,,,,,
,,59d5888d21977e0001d630f3,6685aa9113c938e83b4f1ea0,67074260719bd01ddbfcdfb8,2024-10-09_21h56.57.881,WTP_SM_Choice,2022.2.1,Win32,111.1111111,,,,,space,8.469,NAN,,NAN,1.75,4.25,,0,77,77,77,1,78,Charlie,Acc,Participant_Images/59d5888d21977e0001d630f3/59d5888d21977e0001d630f3_Images/59d5888d21977e0001d630f3_Image_17.jpeg,liked,2.682944783,,,,,,,,,,,,,,,,,,,,,,
,,59d5888d21977e0001d630f3,6685aa9113c938e83b4f1ea0,67074260719bd01ddbfcdfb8,2024-10-09_21h56.57.881,WTP_SM_Choice,2022.2.1,Win32,111.1111111,,,,,space,1.205,NAN,,NAN,1.75,4.25,,0,78,78,78,1,79,Charlie,Acc,Participant_Images/59d5888d21977e0001d630f3/59d5888d21977e0001d630f3_Images/59d5888d21977e0001d630f3_Image_22.jpeg,liked,4.51984296,,,,,,,,,,,,,,,,,,,,,,
,,59d5888d21977e0001d630f3,6685aa9113c938e83b4f1ea0,67074260719bd01ddbfcdfb8,2024-10-09_21h56.57.881,WTP_SM_Choice,2022.2.1,Win32,111.1111111,,,,,,,,,,,,,,,,,,76,,,,,,space,18.185,space,0.559,0.01,1,0.731,0,0,0,0,1,Spend time in the backyard cleaning with my dogs and family,Clean up the house ,0.01,0.01,1.1,0,,,,
,,59d5888d21977e0001d630f3,6685aa9113c938e83b4f1ea0,67074260719bd01ddbfcdfb8,2024-10-09_21h56.57.881,WTP_SM_Choice,2022.2.1,Win32,111.1111111,,,,,,,,,,,,,,,,,,77,,,,,,,,,,0.01,2,1.715,0,1,1,1,1,Buy things with my family,Lay around in bed listening to music,0.02,0.01,8.8,0,,,,
,,59d5888d21977e0001d630f3,6685aa9113c938e83b4f1ea0,67074260719bd01ddbfcdfb8,2024-10-09_21h56.57.881,WTP_SM_Choice,2022.2.1,Win32,111.1111111,,,,,,,,,,,,,,,,,,78,,,,,,,,,,0.01,2,0.938,0,2,2,2,1,Exercise,Go to exercise with my little brother,0.03,0.01,1.1,1,,,,
,,59d5888d21977e0001d630f3,6685aa9113c938e83b4f1ea0,67074260719bd01ddbfcdfb8,2024-10-09_21h56.57.881,WTP_SM_Choice,2022.2.1,Win32,111.1111111,,,,,,,,,,,,,,,,,,79,,,,,,,,,,0.01,2,4.122,0,3,3,3,1,Clean up the house ,Cook with my family,0.04,0.01,1.1,1,,,,
,,59d5888d21977e0001d630f3,6685aa9113c938e83b4f1ea0,67074260719bd01ddbfcdfb8,2024-10-09_21h56.57.881,WTP_SM_Choice,2022.2.1,Win32,111.1111111,,,,,,,,,,,,,,,,,,80,,,,,,,,,,0.01,2,2.348,0,4,4,4,1,Cook with my family,Go out to Target to go get snacks pet snacks and personal care products ,0.05,0.01,4.4,0,,,,
,,59d5888d21977e0001d630f3,6685aa9113c938e83b4f1ea0,67074260719bd01ddbfcdfb8,2024-10-09_21h56.57.881,WTP_SM_Choice,2022.2.1,Win32,111.1111111,,,,,,,NAN,,NAN,1.8,4.2,,0,79,79,79,1,80,Charlie,Acc,Participant_Images/59d5888d21977e0001d630f3/59d5888d21977e0001d630f3_Images/59d5888d21977e0001d630f3_Image_12.jpeg,liked,3.195382774,,,,,,,,,,,,,,,,,,,,,,
,,59d5888d21977e0001d630f3,6685aa9113c938e83b4f1ea0,67074260719bd01ddbfcdfb8,2024-10-09_21h56.57.881,WTP_SM_Choice,2022.2.1,Win32,111.1111111,,,,,space,1.631,NAN,,NAN,1.8,4.2,,0,80,80,80,1,81,Charlie,Acc,Participant_Images/59d5888d21977e0001d630f3/59d5888d21977e0001d630f3_Images/59d5888d21977e0001d630f3_Image_9.jpeg,did not like,1.779333479,,,,,,,,,,,,,,,,,,,,,,
,,59d5888d21977e0001d630f3,6685aa9113c938e83b4f1ea0,67074260719bd01ddbfcdfb8,2024-10-09_21h56.57.881,WTP_SM_Choice,2022.2.1,Win32,111.1111111,,,,,space,1.908,NAN,,NAN,1.8,4.2,,0,81,81,81,1,82,Charlie,Acc,Participant_Images/59d5888d21977e0001d630f3/59d5888d21977e0001d630f3_Images/59d5888d21977e0001d630f3_Image_10.jpeg,did not like,4.312468682,,,,,,,,,,,,,,,,,,,,,,
,,59d5888d21977e0001d630f3,6685aa9113c938e83b4f1ea0,67074260719bd01ddbfcdfb8,2024-10-09_21h56.57.881,WTP_SM_Choice,2022.2.1,Win32,111.1111111,,,,,space,1.069,NAN,,NAN,1.8,4.2,,0,82,82,82,1,83,Charlie,Acc,Participant_Images/59d5888d21977e0001d630f3/59d5888d21977e0001d630f3_Images/59d5888d21977e0001d630f3_Image_8.jpeg,liked,4.940433059,,,,,,,,,,,,,,,,,,,,,,
,,59d5888d21977e0001d630f3,6685aa9113c938e83b4f1ea0,67074260719bd01ddbfcdfb8,2024-10-09_21h56.57.881,WTP_SM_Choice,2022.2.1,Win32,111.1111111,,,,,space,8.42,NAN,,NAN,1.8,4.2,,0,83,83,83,1,84,Charlie,Acc,Participant_Images/59d5888d21977e0001d630f3/59d5888d21977e0001d630f3_Images/59d5888d21977e0001d630f3_Image_21.jpeg,liked,2.7105123,,,,,,,,,,,,,,,,,,,,,,
,,59d5888d21977e0001d630f3,6685aa9113c938e83b4f1ea0,67074260719bd01ddbfcdfb8,2024-10-09_21h56.57.881,WTP_SM_Choice,2022.2.1,Win32,111.1111111,,,,,,,,,,,,,,,,,,81,,,,,,space,4.294,space,0.501,0.01,1,0.888,0,0,0,0,1,Watch Steelers games with my family,Clean up the house ,0.01,0.02,3.3,0,,,,
,,59d5888d21977e0001d630f3,6685aa9113c938e83b4f1ea0,67074260719bd01ddbfcdfb8,2024-10-09_21h56.57.881,WTP_SM_Choice,2022.2.1,Win32,111.1111111,,,,,,,,,,,,,,,,,,82,,,,,,,,,,0.02,1,1.843,0,1,1,1,1,Lay around in bed listening to music,Go to exercise with my little brother,0.02,0.02,4.4,1,,,,
,,59d5888d21977e0001d630f3,6685aa9113c938e83b4f1ea0,67074260719bd01ddbfcdfb8,2024-10-09_21h56.57.881,WTP_SM_Choice,2022.2.1,Win32,111.1111111,,,,,,,,,,,,,,,,,,83,,,,,,,,,,0.02,2,1.782,0,2,2,2,1,Watch Steelers games with my family,Exercise,0.03,0.02,1.1,0,,,,
,,59d5888d21977e0001d630f3,6685aa9113c938e83b4f1ea0,67074260719bd01ddbfcdfb8,2024-10-09_21h56.57.881,WTP_SM_Choice,2022.2.1,Win32,111.1111111,,,,,,,,,,,,,,,,,,84,,,,,,,,,,0.02,2,2.343,0,3,3,3,1,Watch Studio Ghibli on a rainy cloudy day,Bond with my big brother and making up time we could not hang out,0.04,0.02,3.3,1,,,,
,,59d5888d21977e0001d630f3,6685aa9113c938e83b4f1ea0,67074260719bd01ddbfcdfb8,2024-10-09_21h56.57.881,WTP_SM_Choice,2022.2.1,Win32,111.1111111,,,,,,,,,,,,,,,,,,85,,,,,,,,,,0.02,2,1.222,0,4,4,4,1,Bond with my big brother and making up time we could not hang out,Go out to Target to go get snacks pet snacks and personal care products ,0.05,0.02,3.3,0,,,,
,,59d5888d21977e0001d630f3,6685aa9113c938e83b4f1ea0,67074260719bd01ddbfcdfb8,2024-10-09_21h56.57.881,WTP_SM_Choice,2022.2.1,Win32,111.1111111,,,,,,,NAN,,NAN,1.89,4.11,,0,84,84,84,1,85,Charlie,Acc,Participant_Images/59d5888d21977e0001d630f3/59d5888d21977e0001d630f3_Images/59d5888d21977e0001d630f3_Image_25.jpeg,liked,3.602308302,,,,,,,,,,,,,,,,,,,,,,
,,59d5888d21977e0001d630f3,6685aa9113c938e83b4f1ea0,67074260719bd01ddbfcdfb8,2024-10-09_21h56.57.881,WTP_SM_Choice,2022.2.1,Win32,111.1111111,,,,,space,4.545,NAN,,NAN,1.89,4.11,,0,85,85,85,1,86,Charlie,Acc,Participant_Images/59d5888d21977e0001d630f3/59d5888d21977e0001d630f3_Images/59d5888d21977e0001d630f3_Image_11.jpeg,liked,4.106391878,,,,,,,,,,,,,,,,,,,,,,
,,59d5888d21977e0001d630f3,6685aa9113c938e83b4f1ea0,67074260719bd01ddbfcdfb8,2024-10-09_21h56.57.881,WTP_SM_Choice,2022.2.1,Win32,111.1111111,,,,,space,1.004,NAN,,NAN,1.89,4.11,,0,86,86,86,1,87,Charlie,Acc,Participant_Images/59d5888d21977e0001d630f3/59d5888d21977e0001d630f3_Images/59d5888d21977e0001d630f3_Image_16.jpeg,liked,3.799433026,,,,,,,,,,,,,,,,,,,,,,
,,59d5888d21977e0001d630f3,6685aa9113c938e83b4f1ea0,67074260719bd01ddbfcdfb8,2024-10-09_21h56.57.881,WTP_SM_Choice,2022.2.1,Win32,111.1111111,,,,,space,3.175,NAN,,NAN,1.89,4.11,,0,87,87,87,1,88,Charlie,Acc,Participant_Images/59d5888d21977e0001d630f3/59d5888d21977e0001d630f3_Images/59d5888d21977e0001d630f3_Image_13.jpeg,did not like,5.246980764,,,,,,,,,,,,,,,,,,,,,,
,,59d5888d21977e0001d630f3,6685aa9113c938e83b4f1ea0,67074260719bd01ddbfcdfb8,2024-10-09_21h56.57.881,WTP_SM_Choice,2022.2.1,Win32,111.1111111,,,,,space,2.317,NAN,,NAN,1.89,4.11,,0,88,88,88,1,89,Charlie,Acc,Participant_Images/59d5888d21977e0001d630f3/59d5888d21977e0001d630f3_Images/59d5888d21977e0001d630f3_Image_18.jpeg,liked,3.30081769,,,,,,,,,,,,,,,,,,,,,,
,,59d5888d21977e0001d630f3,6685aa9113c938e83b4f1ea0,67074260719bd01ddbfcdfb8,2024-10-09_21h56.57.881,WTP_SM_Choice,2022.2.1,Win32,111.1111111,,,,,,,,,,,,,,,,,,86,,,,,,space,1.067,space,0.304,0.01,1,0.903,0,0,0,0,1,Exercise,Buy things with my family,0.01,0.03,1.1,1,,,,
,,59d5888d21977e0001d630f3,6685aa9113c938e83b4f1ea0,67074260719bd01ddbfcdfb8,2024-10-09_21h56.57.881,WTP_SM_Choice,2022.2.1,Win32,111.1111111,,,,,,,,,,,,,,,,,,87,,,,,,,,,,0.02,1,1.074,0,1,1,1,1,Cook with my family,Watch Studio Ghibli on a rainy cloudy day,0.02,0.03,4.4,0,,,,
,,59d5888d21977e0001d630f3,6685aa9113c938e83b4f1ea0,67074260719bd01ddbfcdfb8,2024-10-09_21h56.57.881,WTP_SM_Choice,2022.2.1,Win32,111.1111111,,,,,,,,,,,,,,,,,,88,,,,,,,,,,0.03,1,1.296,0,2,2,2,1,Go to local coffee shops with my friends,Eat wings from my favorite wings restaurant,0.03,0.03,1.1,0,,,,
,,59d5888d21977e0001d630f3,6685aa9113c938e83b4f1ea0,67074260719bd01ddbfcdfb8,2024-10-09_21h56.57.881,WTP_SM_Choice,2022.2.1,Win32,111.1111111,,,,,,,,,,,,,,,,,,89,,,,,,,,,,0.03,2,1.875,0,3,3,3,1,Hang out with my best friends and getting brew,Sing along to Magic Dance when I feel very happy,0.04,0.03,3.3,0,,,,
,,59d5888d21977e0001d630f3,6685aa9113c938e83b4f1ea0,67074260719bd01ddbfcdfb8,2024-10-09_21h56.57.881,WTP_SM_Choice,2022.2.1,Win32,111.1111111,,,,,,,,,,,,,,,,,,90,,,,,,,,,,0.03,2,1.138,0,4,4,4,1,Bond with my big brother and making up time we could not hang out,HomeGoods spree and buy whatever I want without worrying about the amount,0.05,0.03,8.8,0,,,,
,,59d5888d21977e0001d630f3,6685aa9113c938e83b4f1ea0,67074260719bd01ddbfcdfb8,2024-10-09_21h56.57.881,WTP_SM_Choice,2022.2.1,Win32,111.1111111,,,,,,,NAN,,NAN,2.01,3.99,,0,89,89,89,1,90,Charlie,Acc,Participant_Images/59d5888d21977e0001d630f3/59d5888d21977e0001d630f3_Images/59d5888d21977e0001d630f3_Image_5.jpeg,liked,1.661473164,,,,,,,,,,,,,,,,,,,,,,
,,59d5888d21977e0001d630f3,6685aa9113c938e83b4f1ea0,67074260719bd01ddbfcdfb8,2024-10-09_21h56.57.881,WTP_SM_Choice,2022.2.1,Win32,111.1111111,,,,,space,1.343,NAN,,NAN,2.01,3.99,,0,90,90,90,1,91,Charlie,Acc,Participant_Images/59d5888d21977e0001d630f3/59d5888d21977e0001d630f3_Images/59d5888d21977e0001d630f3_Image_24.jpeg,did not like,3.613205605,,,,,,,,,,,,,,,,,,,,,,
,,59d5888d21977e0001d630f3,6685aa9113c938e83b4f1ea0,67074260719bd01ddbfcdfb8,2024-10-09_21h56.57.881,WTP_SM_Choice,2022.2.1,Win32,111.1111111,,,,,space,3.769,NAN,,NAN,2.01,3.99,,0,91,91,91,1,92,Charlie,Acc,Participant_Images/59d5888d21977e0001d630f3/59d5888d21977e0001d630f3_Images/59d5888d21977e0001d630f3_Image_1.jpeg,did not like,4.988446431,,,,,,,,,,,,,,,,,,,,,,
,,59d5888d21977e0001d630f3,6685aa9113c938e83b4f1ea0,67074260719bd01ddbfcdfb8,2024-10-09_21h56.57.881,WTP_SM_Choice,2022.2.1,Win32,111.1111111,,,,,space,1.373,NAN,,NAN,2.01,3.99,,0,92,92,92,1,93,Charlie,Acc,Participant_Images/59d5888d21977e0001d630f3/59d5888d21977e0001d630f3_Images/59d5888d21977e0001d630f3_Image_4.jpeg,liked,3.470791822,,,,,,,,,,,,,,,,,,,,,,
,,59d5888d21977e0001d630f3,6685aa9113c938e83b4f1ea0,67074260719bd01ddbfcdfb8,2024-10-09_21h56.57.881,WTP_SM_Choice,2022.2.1,Win32,111.1111111,,,,,space,1.277,NAN,,NAN,2.01,3.99,,0,93,93,93,1,94,Charlie,Acc,Participant_Images/59d5888d21977e0001d630f3/59d5888d21977e0001d630f3_Images/59d5888d21977e0001d630f3_Image_20.jpeg,liked,3.820572462,,,,,,,,,,,,,,,,,,,,,,
,,59d5888d21977e0001d630f3,6685aa9113c938e83b4f1ea0,67074260719bd01ddbfcdfb8,2024-10-09_21h56.57.881,WTP_SM_Choice,2022.2.1,Win32,111.1111111,,,,,,,,,,,,,,,,,,91,,,,,,space,1.133,space,0.307,0.01,1,0.742,0,0,0,0,1,Spend time in the backyard cleaning with my dogs and family,Play video games on my PC,0.01,0.04,3.3,0,,,,
,,59d5888d21977e0001d630f3,6685aa9113c938e83b4f1ea0,67074260719bd01ddbfcdfb8,2024-10-09_21h56.57.881,WTP_SM_Choice,2022.2.1,Win32,111.1111111,,,,,,,,,,,,,,,,,,92,,,,,,,,,,0.02,1,1.324,0,1,1,1,1,Clean up the house ,Eat outside at a Chickfila with my mom and brother as the sun sets,0.02,0.04,8.8,1,,,,
,,59d5888d21977e0001d630f3,6685aa9113c938e83b4f1ea0,67074260719bd01ddbfcdfb8,2024-10-09_21h56.57.881,WTP_SM_Choice,2022.2.1,Win32,111.1111111,,,,,,,,,,,,,,,,,,93,,,,,,,,,,0.03,1,0.871,0,2,2,2,1,Go to local coffee shops with my friends,Exercise,0.03,0.04,1.1,0,,,,
,,59d5888d21977e0001d630f3,6685aa9113c938e83b4f1ea0,67074260719bd01ddbfcdfb8,2024-10-09_21h56.57.881,WTP_SM_Choice,2022.2.1,Win32,111.1111111,,,,,,,,,,,,,,,,,,94,,,,,,,,,,0.04,1,1.489,0,3,3,3,1,Play video games on my PC,Hang out with my best friends and getting brew,0.04,0.04,4.4,1,,,,
,,59d5888d21977e0001d630f3,6685aa9113c938e83b4f1ea0,67074260719bd01ddbfcdfb8,2024-10-09_21h56.57.881,WTP_SM_Choice,2022.2.1,Win32,111.1111111,,,,,,,,,,,,,,,,,,95,,,,,,,,,,0.04,2,0.83,0,4,4,4,1,Eat wings from my favorite wings restaurant,Spend time in the backyard cleaning with my dogs and family,0.05,0.04,4.4,1,,,,
,,59d5888d21977e0001d630f3,6685aa9113c938e83b4f1ea0,67074260719bd01ddbfcdfb8,2024-10-09_21h56.57.881,WTP_SM_Choice,2022.2.1,Win32,111.1111111,,,,,,,NAN,,NAN,2.15,3.85,,0,94,94,94,1,95,Charlie,Acc,Participant_Images/59d5888d21977e0001d630f3/59d5888d21977e0001d630f3_Images/59d5888d21977e0001d630f3_Image_6.jpeg,did not like,2.455989137,,,,,,,,,,,,,,,,,,,,,,
,,59d5888d21977e0001d630f3,6685aa9113c938e83b4f1ea0,67074260719bd01ddbfcdfb8,2024-10-09_21h56.57.881,WTP_SM_Choice,2022.2.1,Win32,111.1111111,,,,,space,1.159,NAN,,NAN,2.15,3.85,,0,95,95,95,1,96,Charlie,Acc,Participant_Images/59d5888d21977e0001d630f3/59d5888d21977e0001d630f3_Images/59d5888d21977e0001d630f3_Image_23.jpeg,did not like,3.79605092,,,,,,,,,,,,,,,,,,,,,,
,,59d5888d21977e0001d630f3,6685aa9113c938e83b4f1ea0,67074260719bd01ddbfcdfb8,2024-10-09_21h56.57.881,WTP_SM_Choice,2022.2.1,Win32,111.1111111,,,,,space,1.053,NAN,,NAN,2.15,3.85,,0,96,96,96,1,97,Charlie,Acc,Participant_Images/59d5888d21977e0001d630f3/59d5888d21977e0001d630f3_Images/59d5888d21977e0001d630f3_Image_15.jpeg,liked,3.562416326,,,,,,,,,,,,,,,,,,,,,,
,,59d5888d21977e0001d630f3,6685aa9113c938e83b4f1ea0,67074260719bd01ddbfcdfb8,2024-10-09_21h56.57.881,WTP_SM_Choice,2022.2.1,Win32,111.1111111,,,,,space,0.696,NAN,,NAN,2.15,3.85,,0,97,97,97,1,98,Charlie,Acc,Participant_Images/59d5888d21977e0001d630f3/59d5888d21977e0001d630f3_Images/59d5888d21977e0001d630f3_Image_2.jpeg,liked,2.843822497,,,,,,,,,,,,,,,,,,,,,,
,,59d5888d21977e0001d630f3,6685aa9113c938e83b4f1ea0,67074260719bd01ddbfcdfb8,2024-10-09_21h56.57.881,WTP_SM_Choice,2022.2.1,Win32,111.1111111,,,,,space,0.976,NAN,,NAN,2.15,3.85,,0,98,98,98,1,99,Charlie,Acc,Participant_Images/59d5888d21977e0001d630f3/59d5888d21977e0001d630f3_Images/59d5888d21977e0001d630f3_Image_7.jpeg,liked,3.546495948,,,,,,,,,,,,,,,,,,,,,,
,,59d5888d21977e0001d630f3,6685aa9113c938e83b4f1ea0,67074260719bd01ddbfcdfb8,2024-10-09_21h56.57.881,WTP_SM_Choice,2022.2.1,Win32,111.1111111,,,,,,,,,,,,,,,,,,96,,,,,,space,0.843,space,0.244,0.01,1,0.874,0,0,0,0,1,Lay around in bed listening to music,Have my little brother hang out in my room as we watch CaseOh,0.01,0.05,3.3,1,,,,
,,59d5888d21977e0001d630f3,6685aa9113c938e83b4f1ea0,67074260719bd01ddbfcdfb8,2024-10-09_21h56.57.881,WTP_SM_Choice,2022.2.1,Win32,111.1111111,,,,,,,,,,,,,,,,,,97,,,,,,,,,,0.02,1,0.948,0,1,1,1,1,Spend time in the backyard cleaning with my dogs and family,Have my cat on my lap as she purs,0.02,0.05,1.1,0,,,,
,,59d5888d21977e0001d630f3,6685aa9113c938e83b4f1ea0,67074260719bd01ddbfcdfb8,2024-10-09_21h56.57.881,WTP_SM_Choice,2022.2.1,Win32,111.1111111,,,,,,,,,,,,,,,,,,98,,,,,,,,,,0.03,1,1.279,0,2,2,2,1,Play video games on my PC,Eat outside at a Chickfila with my mom and brother as the sun sets,0.03,0.05,1.1,1,,,,
,,59d5888d21977e0001d630f3,6685aa9113c938e83b4f1ea0,67074260719bd01ddbfcdfb8,2024-10-09_21h56.57.881,WTP_SM_Choice,2022.2.1,Win32,111.1111111,,,,,,,,,,,,,,,,,,99,,,,,,,,,,0.04,1,0.943,0,3,3,3,1,Sing along to Magic Dance when I feel very happy,Bond with my big brother and making up time we could not hang out,0.04,0.05,3.3,1,,,,
,,59d5888d21977e0001d630f3,6685aa9113c938e83b4f1ea0,67074260719bd01ddbfcdfb8,2024-10-09_21h56.57.881,WTP_SM_Choice,2022.2.1,Win32,111.1111111,,,,,,,,,,,,,,,,,,100,,,,,,,,,,0.05,2,2.019,0,4,4,4,1,Go to local coffee shops with my friends,Sing along to Magic Dance when I feel very happy,0.05,0.05,4.4,0,,,,
,,59d5888d21977e0001d630f3,6685aa9113c938e83b4f1ea0,67074260719bd01ddbfcdfb8,2024-10-09_21h56.57.881,WTP_SM_Choice,2022.2.1,Win32,111.1111111,,,,,,,3,,7,2.3,3.7,,0,99,99,99,1,100,Charlie,Acc,Participant_Images/59d5888d21977e0001d630f3/59d5888d21977e0001d630f3_Images/59d5888d21977e0001d630f3_Image_3.jpeg,liked,1.672012706,,,,,,,,,,,,,,,,,,,space,0.663,,
,,59d5888d21977e0001d630f3,6685aa9113c938e83b4f1ea0,67074260719bd01ddbfcdfb8,2024-10-09_21h56.57.881,WTP_SM_Choice,2022.2.1,Win32,111.1111111,,,,,,,,,,,,,,,,,,,,,,,,,,,,,,,,,,,,,,,,,,,,space,2.35