endwelcomescreen_keys.keys,endwelcomescreen_keys.rt,participant,STUDY_ID,SESSION_ID,date,expName,psychopyVersion,OS,frameRate,endinstructionscreen_keys.keys,endinstructionscreen_keys.rt,endpartnermatch_keys.keys,endpartnermatch_keys.rt,sharenextphoto_key.keys,sharenextphoto_key.rt,salience_rating,key_resp.keys,stress_level,subtract_bonus,TOTAL_TASK_BONUS,stresslevel_keypress.keys,entiretaskloop.thisRepN,entiretaskloop.thisTrialN,entiretaskloop.thisN,entiretaskloop.thisIndex,entiretaskloop.ran,TrialNumber,Partner,Condition,Photos,Feedback,FeedbackWait,WTP_ins_keys1.keys,WTP_ins_keys1.rt,WTP_ins_keys2.keys,WTP_ins_keys2.rt,decision_price,responses.keys,responses.rt,WTPTaskLoop.thisRepN,WTPTaskLoop.thisTrialN,WTPTaskLoop.thisN,WTPTaskLoop.thisIndex,WTPTaskLoop.ran,right,left,leftmoney,rightmoney,WTP_ITI,social_left,Resume_keys.keys,Resume_keys.rt,end_screen_keys.keys,end_screen_keys.rt
space,9.0764,5a09ebdf087f2e0001eae39f,6685aa9113c938e83b4f1ea0,671c326af490d8aa041eedf3,2024-10-25_20h06.37.837,WTP_SM_Choice,2022.2.1,Win32,59.88023952,,,,,,,,,,,,,,,,,,,,,,,,,,,,,,,,,,,,,,,,,,,,,
,,5a09ebdf087f2e0001eae39f,6685aa9113c938e83b4f1ea0,671c326af490d8aa041eedf3,2024-10-25_20h06.37.837,WTP_SM_Choice,2022.2.1,Win32,59.88023952,space,8.5057,,,,,,,,,,,,,,,,,,,,,,,,,,,,,,,,,,,,,,,,,,,
,,5a09ebdf087f2e0001eae39f,6685aa9113c938e83b4f1ea0,671c326af490d8aa041eedf3,2024-10-25_20h06.37.837,WTP_SM_Choice,2022.2.1,Win32,59.88023952,,,space,2.1149,space,1.7342,NAN,,NAN,0,6,,0,0,0,0,1,1,Sam,Rej,Participant_Images/5a09ebdf087f2e0001eae39f/5a09ebdf087f2e0001eae39f_Images/5a09ebdf087f2e0001eae39f_Image_25.jpeg,did not like,3.613205605,,,,,,,,,,,,,,,,,,,,,,
,,5a09ebdf087f2e0001eae39f,6685aa9113c938e83b4f1ea0,671c326af490d8aa041eedf3,2024-10-25_20h06.37.837,WTP_SM_Choice,2022.2.1,Win32,59.88023952,,,,,space,1.4513,NAN,,NAN,0,6,,0,1,1,1,1,2,Sam,Rej,Participant_Images/5a09ebdf087f2e0001eae39f/5a09ebdf087f2e0001eae39f_Images/5a09ebdf087f2e0001eae39f_Image_5.jpeg,did not like,4.988446431,,,,,,,,,,,,,,,,,,,,,,
,,5a09ebdf087f2e0001eae39f,6685aa9113c938e83b4f1ea0,671c326af490d8aa041eedf3,2024-10-25_20h06.37.837,WTP_SM_Choice,2022.2.1,Win32,59.88023952,,,,,space,0.6496,NAN,,NAN,0,6,,0,2,2,2,1,3,Sam,Rej,Participant_Images/5a09ebdf087f2e0001eae39f/5a09ebdf087f2e0001eae39f_Images/5a09ebdf087f2e0001eae39f_Image_24.jpeg,liked,3.470791822,,,,,,,,,,,,,,,,,,,,,,
,,5a09ebdf087f2e0001eae39f,6685aa9113c938e83b4f1ea0,671c326af490d8aa041eedf3,2024-10-25_20h06.37.837,WTP_SM_Choice,2022.2.1,Win32,59.88023952,,,,,space,0.6512,NAN,,NAN,0,6,,0,3,3,3,1,4,Sam,Rej,Participant_Images/5a09ebdf087f2e0001eae39f/5a09ebdf087f2e0001eae39f_Images/5a09ebdf087f2e0001eae39f_Image_21.jpeg,did not like,3.820572462,,,,,,,,,,,,,,,,,,,,,,
,,5a09ebdf087f2e0001eae39f,6685aa9113c938e83b4f1ea0,671c326af490d8aa041eedf3,2024-10-25_20h06.37.837,WTP_SM_Choice,2022.2.1,Win32,59.88023952,,,,,,,,,,,,,,,,,,1,,,,,,space,8.5167,space,3.5626,0.01,1,3.3663,0,0,0,0,1,color in adult coloring books,do paint activities with my children,0.01,0.01,4.4,1,,,,
,,5a09ebdf087f2e0001eae39f,6685aa9113c938e83b4f1ea0,671c326af490d8aa041eedf3,2024-10-25_20h06.37.837,WTP_SM_Choice,2022.2.1,Win32,59.88023952,,,,,,,,,,,,,,,,,,2,,,,,,,,,,0.02,1,2.7014,0,1,1,1,1,edit pictures on my computer,yard sell with my best friend,0.02,0.01,8.8,1,,,,
,,5a09ebdf087f2e0001eae39f,6685aa9113c938e83b4f1ea0,671c326af490d8aa041eedf3,2024-10-25_20h06.37.837,WTP_SM_Choice,2022.2.1,Win32,59.88023952,,,,,,,,,,,,,,,,,,3,,,,,,,,,,0.01,2,3.358,0,2,2,2,1,thrift in the big city with my husband,read my kindle on my porch,0.03,0.01,3.3,0,,,,
,,5a09ebdf087f2e0001eae39f,6685aa9113c938e83b4f1ea0,671c326af490d8aa041eedf3,2024-10-25_20h06.37.837,WTP_SM_Choice,2022.2.1,Win32,59.88023952,,,,,,,,,,,,,,,,,,4,,,,,,,,,,0.04,1,3.6482,0,3,3,3,1,go on hikes in the badlands,yard sell with my best friend,0.04,0.01,1.1,1,,,,
,,5a09ebdf087f2e0001eae39f,6685aa9113c938e83b4f1ea0,671c326af490d8aa041eedf3,2024-10-25_20h06.37.837,WTP_SM_Choice,2022.2.1,Win32,59.88023952,,,,,,,,,,,,,,,,,,5,,,,,,,,,,0.01,2,6.1149,0,4,4,4,1,go on hikes in the badlands,talk to other moms and dads while watch my kids play sports,0.05,0.01,1.1,1,,,,
,,5a09ebdf087f2e0001eae39f,6685aa9113c938e83b4f1ea0,671c326af490d8aa041eedf3,2024-10-25_20h06.37.837,WTP_SM_Choice,2022.2.1,Win32,59.88023952,,,,,,,NAN,,NAN,0.09,5.91,,0,4,4,4,1,5,Sam,Rej,Participant_Images/5a09ebdf087f2e0001eae39f/5a09ebdf087f2e0001eae39f_Images/5a09ebdf087f2e0001eae39f_Image_14.jpeg,did not like,2.455989137,,,,,,,,,,,,,,,,,,,,,,
,,5a09ebdf087f2e0001eae39f,6685aa9113c938e83b4f1ea0,671c326af490d8aa041eedf3,2024-10-25_20h06.37.837,WTP_SM_Choice,2022.2.1,Win32,59.88023952,,,,,space,1.3868,NAN,,NAN,0.09,5.91,,0,5,5,5,1,6,Sam,Rej,Participant_Images/5a09ebdf087f2e0001eae39f/5a09ebdf087f2e0001eae39f_Images/5a09ebdf087f2e0001eae39f_Image_8.jpeg,did not like,3.79605092,,,,,,,,,,,,,,,,,,,,,,
,,5a09ebdf087f2e0001eae39f,6685aa9113c938e83b4f1ea0,671c326af490d8aa041eedf3,2024-10-25_20h06.37.837,WTP_SM_Choice,2022.2.1,Win32,59.88023952,,,,,space,0.8345,NAN,,NAN,0.09,5.91,,0,6,6,6,1,7,Sam,Rej,Participant_Images/5a09ebdf087f2e0001eae39f/5a09ebdf087f2e0001eae39f_Images/5a09ebdf087f2e0001eae39f_Image_18.jpeg,did not like,3.562416326,,,,,,,,,,,,,,,,,,,,,,
,,5a09ebdf087f2e0001eae39f,6685aa9113c938e83b4f1ea0,671c326af490d8aa041eedf3,2024-10-25_20h06.37.837,WTP_SM_Choice,2022.2.1,Win32,59.88023952,,,,,space,1.418,NAN,,NAN,0.09,5.91,,0,7,7,7,1,8,Sam,Rej,Participant_Images/5a09ebdf087f2e0001eae39f/5a09ebdf087f2e0001eae39f_Images/5a09ebdf087f2e0001eae39f_Image_15.jpeg,liked,2.843822497,,,,,,,,,,,,,,,,,,,,,,
,,5a09ebdf087f2e0001eae39f,6685aa9113c938e83b4f1ea0,671c326af490d8aa041eedf3,2024-10-25_20h06.37.837,WTP_SM_Choice,2022.2.1,Win32,59.88023952,,,,,space,3.7707,NAN,,NAN,0.09,5.91,,0,8,8,8,1,9,Sam,Rej,Participant_Images/5a09ebdf087f2e0001eae39f/5a09ebdf087f2e0001eae39f_Images/5a09ebdf087f2e0001eae39f_Image_2.jpeg,did not like,3.546495948,,,,,,,,,,,,,,,,,,,,,,
,,5a09ebdf087f2e0001eae39f,6685aa9113c938e83b4f1ea0,671c326af490d8aa041eedf3,2024-10-25_20h06.37.837,WTP_SM_Choice,2022.2.1,Win32,59.88023952,,,,,,,,,,,,,,,,,,6,,,,,,space,1.8835,space,1.5021,0.02,2,2.6137,0,0,0,0,1,go on hikes in the badlands,have photoshoots with different families,0.01,0.02,3.3,1,,,,
,,5a09ebdf087f2e0001eae39f,6685aa9113c938e83b4f1ea0,671c326af490d8aa041eedf3,2024-10-25_20h06.37.837,WTP_SM_Choice,2022.2.1,Win32,59.88023952,,,,,,,,,,,,,,,,,,7,,,,,,,,,,0.02,1,1.7609,0,1,1,1,1,draw cartoon figures with colored pencils,go to indoor museums with my children,0.02,0.02,1.1,1,,,,
,,5a09ebdf087f2e0001eae39f,6685aa9113c938e83b4f1ea0,671c326af490d8aa041eedf3,2024-10-25_20h06.37.837,WTP_SM_Choice,2022.2.1,Win32,59.88023952,,,,,,,,,,,,,,,,,,8,,,,,,,,,,0.02,2,3.8383,0,2,2,2,1,read my kindle on my porch,hik in the national parks with my husband and children,0.03,0.02,1.1,1,,,,
,,5a09ebdf087f2e0001eae39f,6685aa9113c938e83b4f1ea0,671c326af490d8aa041eedf3,2024-10-25_20h06.37.837,WTP_SM_Choice,2022.2.1,Win32,59.88023952,,,,,,,,,,,,,,,,,,9,,,,,,,,,,0.04,1,3.2474,0,3,3,3,1,thrift in the big city with my husband,bake baked goods,0.04,0.02,4.4,0,,,,
,,5a09ebdf087f2e0001eae39f,6685aa9113c938e83b4f1ea0,671c326af490d8aa041eedf3,2024-10-25_20h06.37.837,WTP_SM_Choice,2022.2.1,Win32,59.88023952,,,,,,,,,,,,,,,,,,10,,,,,,,,,,0.02,2,2.0511,0,4,4,4,1,spend the day shopping with my best friend ,stargaze late at night with binoculars ,0.05,0.02,1.1,0,,,,
,,5a09ebdf087f2e0001eae39f,6685aa9113c938e83b4f1ea0,671c326af490d8aa041eedf3,2024-10-25_20h06.37.837,WTP_SM_Choice,2022.2.1,Win32,59.88023952,,,,,,,NAN,,NAN,0.21,5.79,,0,9,9,9,1,10,Sam,Rej,Participant_Images/5a09ebdf087f2e0001eae39f/5a09ebdf087f2e0001eae39f_Images/5a09ebdf087f2e0001eae39f_Image_20.jpeg,did not like,1.672012706,,,,,,,,,,,,,,,,,,,,,,
,,5a09ebdf087f2e0001eae39f,6685aa9113c938e83b4f1ea0,671c326af490d8aa041eedf3,2024-10-25_20h06.37.837,WTP_SM_Choice,2022.2.1,Win32,59.88023952,,,,,space,4.9589,NAN,,NAN,0.21,5.79,,0,10,10,10,1,11,Sam,Rej,Participant_Images/5a09ebdf087f2e0001eae39f/5a09ebdf087f2e0001eae39f_Images/5a09ebdf087f2e0001eae39f_Image_1.jpeg,liked,4.942172136,,,,,,,,,,,,,,,,,,,,,,
,,5a09ebdf087f2e0001eae39f,6685aa9113c938e83b4f1ea0,671c326af490d8aa041eedf3,2024-10-25_20h06.37.837,WTP_SM_Choice,2022.2.1,Win32,59.88023952,,,,,space,0.6675,NAN,,NAN,0.21,5.79,,0,11,11,11,1,12,Sam,Rej,Participant_Images/5a09ebdf087f2e0001eae39f/5a09ebdf087f2e0001eae39f_Images/5a09ebdf087f2e0001eae39f_Image_17.jpeg,did not like,2.50187214,,,,,,,,,,,,,,,,,,,,,,
,,5a09ebdf087f2e0001eae39f,6685aa9113c938e83b4f1ea0,671c326af490d8aa041eedf3,2024-10-25_20h06.37.837,WTP_SM_Choice,2022.2.1,Win32,59.88023952,,,,,space,2.2499,NAN,,NAN,0.21,5.79,,0,12,12,12,1,13,Sam,Rej,Participant_Images/5a09ebdf087f2e0001eae39f/5a09ebdf087f2e0001eae39f_Images/5a09ebdf087f2e0001eae39f_Image_6.jpeg,did not like,2.071164779,,,,,,,,,,,,,,,,,,,,,,
,,5a09ebdf087f2e0001eae39f,6685aa9113c938e83b4f1ea0,671c326af490d8aa041eedf3,2024-10-25_20h06.37.837,WTP_SM_Choice,2022.2.1,Win32,59.88023952,,,,,space,0.5475,NAN,,NAN,0.21,5.79,,0,13,13,13,1,14,Sam,Rej,Participant_Images/5a09ebdf087f2e0001eae39f/5a09ebdf087f2e0001eae39f_Images/5a09ebdf087f2e0001eae39f_Image_7.jpeg,did not like,5.336503566,,,,,,,,,,,,,,,,,,,,,,
,,5a09ebdf087f2e0001eae39f,6685aa9113c938e83b4f1ea0,671c326af490d8aa041eedf3,2024-10-25_20h06.37.837,WTP_SM_Choice,2022.2.1,Win32,59.88023952,,,,,,,,,,,,,,,,,,11,,,,,,space,1.1332,space,1.1833,0.03,2,1.9803,0,0,0,0,1,bake baked goods,talk to other moms and dads while watch my kids play sports,0.01,0.03,3.3,1,,,,
,,5a09ebdf087f2e0001eae39f,6685aa9113c938e83b4f1ea0,671c326af490d8aa041eedf3,2024-10-25_20h06.37.837,WTP_SM_Choice,2022.2.1,Win32,59.88023952,,,,,,,,,,,,,,,,,,12,,,,,,,,,,0.03,2,2.2623,0,1,1,1,1,spend the day shopping with my best friend ,edit pictures on my computer,0.02,0.03,4.4,0,,,,
,,5a09ebdf087f2e0001eae39f,6685aa9113c938e83b4f1ea0,671c326af490d8aa041eedf3,2024-10-25_20h06.37.837,WTP_SM_Choice,2022.2.1,Win32,59.88023952,,,,,,,,,,,,,,,,,,13,,,,,,,,,,0.03,2,3.5464,0,2,2,2,1,stargaze late at night with binoculars ,do paint activities with my children,0.03,0.03,1.1,1,,,,
,,5a09ebdf087f2e0001eae39f,6685aa9113c938e83b4f1ea0,671c326af490d8aa041eedf3,2024-10-25_20h06.37.837,WTP_SM_Choice,2022.2.1,Win32,59.88023952,,,,,,,,,,,,,,,,,,14,,,,,,,,,,0.03,2,3.6477,0,3,3,3,1,have dinner parties with my family best friend and her family,draw cartoon figures with colored pencils,0.04,0.03,3.3,0,,,,
,,5a09ebdf087f2e0001eae39f,6685aa9113c938e83b4f1ea0,671c326af490d8aa041eedf3,2024-10-25_20h06.37.837,WTP_SM_Choice,2022.2.1,Win32,59.88023952,,,,,,,,,,,,,,,,,,15,,,,,,,,,,0.05,1,3.297,0,4,4,4,1,have photoshoots with different families,take photos of nature and animals,0.05,0.03,4.4,0,,,,
,,5a09ebdf087f2e0001eae39f,6685aa9113c938e83b4f1ea0,671c326af490d8aa041eedf3,2024-10-25_20h06.37.837,WTP_SM_Choice,2022.2.1,Win32,59.88023952,,,,,,,NAN,,NAN,0.38,5.62,,0,14,14,14,1,15,Sam,Rej,Participant_Images/5a09ebdf087f2e0001eae39f/5a09ebdf087f2e0001eae39f_Images/5a09ebdf087f2e0001eae39f_Image_22.jpeg,did not like,2.642157193,,,,,,,,,,,,,,,,,,,,,,
,,5a09ebdf087f2e0001eae39f,6685aa9113c938e83b4f1ea0,671c326af490d8aa041eedf3,2024-10-25_20h06.37.837,WTP_SM_Choice,2022.2.1,Win32,59.88023952,,,,,space,0.3676,NAN,,NAN,0.38,5.62,,0,15,15,15,1,16,Sam,Rej,Participant_Images/5a09ebdf087f2e0001eae39f/5a09ebdf087f2e0001eae39f_Images/5a09ebdf087f2e0001eae39f_Image_13.jpeg,did not like,4.456234322,,,,,,,,,,,,,,,,,,,,,,
,,5a09ebdf087f2e0001eae39f,6685aa9113c938e83b4f1ea0,671c326af490d8aa041eedf3,2024-10-25_20h06.37.837,WTP_SM_Choice,2022.2.1,Win32,59.88023952,,,,,space,0.8463,NAN,,NAN,0.38,5.62,,0,16,16,16,1,17,Sam,Rej,Participant_Images/5a09ebdf087f2e0001eae39f/5a09ebdf087f2e0001eae39f_Images/5a09ebdf087f2e0001eae39f_Image_23.jpeg,liked,4.438512181,,,,,,,,,,,,,,,,,,,,,,
,,5a09ebdf087f2e0001eae39f,6685aa9113c938e83b4f1ea0,671c326af490d8aa041eedf3,2024-10-25_20h06.37.837,WTP_SM_Choice,2022.2.1,Win32,59.88023952,,,,,space,0.7679,NAN,,NAN,0.38,5.62,,0,17,17,17,1,18,Sam,Rej,Participant_Images/5a09ebdf087f2e0001eae39f/5a09ebdf087f2e0001eae39f_Images/5a09ebdf087f2e0001eae39f_Image_12.jpeg,liked,2.682944783,,,,,,,,,,,,,,,,,,,,,,
,,5a09ebdf087f2e0001eae39f,6685aa9113c938e83b4f1ea0,671c326af490d8aa041eedf3,2024-10-25_20h06.37.837,WTP_SM_Choice,2022.2.1,Win32,59.88023952,,,,,space,0.5697,NAN,,NAN,0.38,5.62,,0,18,18,18,1,19,Sam,Rej,Participant_Images/5a09ebdf087f2e0001eae39f/5a09ebdf087f2e0001eae39f_Images/5a09ebdf087f2e0001eae39f_Image_11.jpeg,did not like,4.51984296,,,,,,,,,,,,,,,,,,,,,,
,,5a09ebdf087f2e0001eae39f,6685aa9113c938e83b4f1ea0,671c326af490d8aa041eedf3,2024-10-25_20h06.37.837,WTP_SM_Choice,2022.2.1,Win32,59.88023952,,,,,,,,,,,,,,,,,,16,,,,,,space,0.9603,space,0.6354,0.01,1,1.7875,0,0,0,0,1,go on hikes in the badlands,hik in the national parks with my husband and children,0.01,0.04,1.1,1,,,,
,,5a09ebdf087f2e0001eae39f,6685aa9113c938e83b4f1ea0,671c326af490d8aa041eedf3,2024-10-25_20h06.37.837,WTP_SM_Choice,2022.2.1,Win32,59.88023952,,,,,,,,,,,,,,,,,,17,,,,,,,,,,0.04,2,1.5647,0,1,1,1,1,thrift in the big city with my husband,listen to music while i crochet,0.02,0.04,8.8,0,,,,
,,5a09ebdf087f2e0001eae39f,6685aa9113c938e83b4f1ea0,671c326af490d8aa041eedf3,2024-10-25_20h06.37.837,WTP_SM_Choice,2022.2.1,Win32,59.88023952,,,,,,,,,,,,,,,,,,18,,,,,,,,,,0.04,2,1.5697,0,2,2,2,1,yard sell with my best friend,draw cartoon figures with colored pencils,0.03,0.04,3.3,0,,,,
,,5a09ebdf087f2e0001eae39f,6685aa9113c938e83b4f1ea0,671c326af490d8aa041eedf3,2024-10-25_20h06.37.837,WTP_SM_Choice,2022.2.1,Win32,59.88023952,,,,,,,,,,,,,,,,,,19,,,,,,,,,,0.04,2,2.2331,0,3,3,3,1,edit pictures on my computer,hik in the national parks with my husband and children,0.04,0.04,3.3,1,,,,
,,5a09ebdf087f2e0001eae39f,6685aa9113c938e83b4f1ea0,671c326af490d8aa041eedf3,2024-10-25_20h06.37.837,WTP_SM_Choice,2022.2.1,Win32,59.88023952,,,,,,,,,,,,,,,,,,20,,,,,,,,,,0.04,2,2.2149,0,4,4,4,1,take photos of nature and animals,do paint activities with my children,0.05,0.04,1.1,1,,,,
,,5a09ebdf087f2e0001eae39f,6685aa9113c938e83b4f1ea0,671c326af490d8aa041eedf3,2024-10-25_20h06.37.837,WTP_SM_Choice,2022.2.1,Win32,59.88023952,,,,,,,NAN,,NAN,0.55,5.45,,0,19,19,19,1,20,Sam,Rej,Participant_Images/5a09ebdf087f2e0001eae39f/5a09ebdf087f2e0001eae39f_Images/5a09ebdf087f2e0001eae39f_Image_19.jpeg,did not like,3.195382774,,,,,,,,,,,,,,,,,,,,,,
,,5a09ebdf087f2e0001eae39f,6685aa9113c938e83b4f1ea0,671c326af490d8aa041eedf3,2024-10-25_20h06.37.837,WTP_SM_Choice,2022.2.1,Win32,59.88023952,,,,,space,0.718,NAN,,NAN,0.55,5.45,,0,20,20,20,1,21,Sam,Rej,Participant_Images/5a09ebdf087f2e0001eae39f/5a09ebdf087f2e0001eae39f_Images/5a09ebdf087f2e0001eae39f_Image_16.jpeg,did not like,1.779333479,,,,,,,,,,,,,,,,,,,,,,
,,5a09ebdf087f2e0001eae39f,6685aa9113c938e83b4f1ea0,671c326af490d8aa041eedf3,2024-10-25_20h06.37.837,WTP_SM_Choice,2022.2.1,Win32,59.88023952,,,,,space,0.8914,NAN,,NAN,0.55,5.45,,0,21,21,21,1,22,Sam,Rej,Participant_Images/5a09ebdf087f2e0001eae39f/5a09ebdf087f2e0001eae39f_Images/5a09ebdf087f2e0001eae39f_Image_9.jpeg,did not like,4.312468682,,,,,,,,,,,,,,,,,,,,,,
,,5a09ebdf087f2e0001eae39f,6685aa9113c938e83b4f1ea0,671c326af490d8aa041eedf3,2024-10-25_20h06.37.837,WTP_SM_Choice,2022.2.1,Win32,59.88023952,,,,,space,0.4515,NAN,,NAN,0.55,5.45,,0,22,22,22,1,23,Sam,Rej,Participant_Images/5a09ebdf087f2e0001eae39f/5a09ebdf087f2e0001eae39f_Images/5a09ebdf087f2e0001eae39f_Image_4.jpeg,liked,4.940433059,,,,,,,,,,,,,,,,,,,,,,
,,5a09ebdf087f2e0001eae39f,6685aa9113c938e83b4f1ea0,671c326af490d8aa041eedf3,2024-10-25_20h06.37.837,WTP_SM_Choice,2022.2.1,Win32,59.88023952,,,,,space,0.7005,NAN,,NAN,0.55,5.45,,0,23,23,23,1,24,Sam,Rej,Participant_Images/5a09ebdf087f2e0001eae39f/5a09ebdf087f2e0001eae39f_Images/5a09ebdf087f2e0001eae39f_Image_10.jpeg,liked,2.7105123,,,,,,,,,,,,,,,,,,,,,,
,,5a09ebdf087f2e0001eae39f,6685aa9113c938e83b4f1ea0,671c326af490d8aa041eedf3,2024-10-25_20h06.37.837,WTP_SM_Choice,2022.2.1,Win32,59.88023952,,,,,,,,,,,,,,,,,,21,,,,,,space,0.6835,space,0.7572,0.05,2,1.2534,0,0,0,0,1,go bird hunt with my husband,draw cartoon figures with colored pencils,0.01,0.05,8.8,0,,,,
,,5a09ebdf087f2e0001eae39f,6685aa9113c938e83b4f1ea0,671c326af490d8aa041eedf3,2024-10-25_20h06.37.837,WTP_SM_Choice,2022.2.1,Win32,59.88023952,,,,,,,,,,,,,,,,,,22,,,,,,,,,,0.05,2,1.5509,0,1,1,1,1,take photos of nature and animals,go to indoor museums with my children,0.02,0.05,4.4,1,,,,
,,5a09ebdf087f2e0001eae39f,6685aa9113c938e83b4f1ea0,671c326af490d8aa041eedf3,2024-10-25_20h06.37.837,WTP_SM_Choice,2022.2.1,Win32,59.88023952,,,,,,,,,,,,,,,,,,23,,,,,,,,,,0.05,2,2.0821,0,2,2,2,1,pheasant hunt on the prairies,do paint activities with my children,0.03,0.05,1.1,1,,,,
,,5a09ebdf087f2e0001eae39f,6685aa9113c938e83b4f1ea0,671c326af490d8aa041eedf3,2024-10-25_20h06.37.837,WTP_SM_Choice,2022.2.1,Win32,59.88023952,,,,,,,,,,,,,,,,,,24,,,,,,,,,,0.04,1,2.0049,0,3,3,3,1,talk to other moms and dads while watch my kids play sports,color in adult coloring books,0.04,0.05,4.4,0,,,,
,,5a09ebdf087f2e0001eae39f,6685aa9113c938e83b4f1ea0,671c326af490d8aa041eedf3,2024-10-25_20h06.37.837,WTP_SM_Choice,2022.2.1,Win32,59.88023952,,,,,,,,,,,,,,,,,,25,,,,,,,,,,0.05,1,3.0008,0,4,4,4,1,spend the day shopping with my best friend ,read my kindle on my porch,0.05,0.05,3.3,0,,,,
,,5a09ebdf087f2e0001eae39f,6685aa9113c938e83b4f1ea0,671c326af490d8aa041eedf3,2024-10-25_20h06.37.837,WTP_SM_Choice,2022.2.1,Win32,59.88023952,,,,,,,2,,2,0.79,5.21,,0,24,24,24,1,25,Sam,Rej,Participant_Images/5a09ebdf087f2e0001eae39f/5a09ebdf087f2e0001eae39f_Images/5a09ebdf087f2e0001eae39f_Image_3.jpeg,did not like,3.602308302,,,,,,,,,,,,,,,,,,,space,1.0185,,
,,5a09ebdf087f2e0001eae39f,6685aa9113c938e83b4f1ea0,671c326af490d8aa041eedf3,2024-10-25_20h06.37.837,WTP_SM_Choice,2022.2.1,Win32,59.88023952,,,space,4.8517,space,1.1604,NAN,,NAN,0.79,5.21,,0,25,25,25,1,26,Riley,Rej,Participant_Images/5a09ebdf087f2e0001eae39f/5a09ebdf087f2e0001eae39f_Images/5a09ebdf087f2e0001eae39f_Image_14.jpeg,did not like,4.106391878,,,,,,,,,,,,,,,,,,,,,,
,,5a09ebdf087f2e0001eae39f,6685aa9113c938e83b4f1ea0,671c326af490d8aa041eedf3,2024-10-25_20h06.37.837,WTP_SM_Choice,2022.2.1,Win32,59.88023952,,,,,space,1.7344,NAN,,NAN,0.79,5.21,,0,26,26,26,1,27,Riley,Rej,Participant_Images/5a09ebdf087f2e0001eae39f/5a09ebdf087f2e0001eae39f_Images/5a09ebdf087f2e0001eae39f_Image_6.jpeg,liked,3.799433026,,,,,,,,,,,,,,,,,,,,,,
,,5a09ebdf087f2e0001eae39f,6685aa9113c938e83b4f1ea0,671c326af490d8aa041eedf3,2024-10-25_20h06.37.837,WTP_SM_Choice,2022.2.1,Win32,59.88023952,,,,,space,1.3767,NAN,,NAN,0.79,5.21,,0,27,27,27,1,28,Riley,Rej,Participant_Images/5a09ebdf087f2e0001eae39f/5a09ebdf087f2e0001eae39f_Images/5a09ebdf087f2e0001eae39f_Image_22.jpeg,did not like,5.246980764,,,,,,,,,,,,,,,,,,,,,,
,,5a09ebdf087f2e0001eae39f,6685aa9113c938e83b4f1ea0,671c326af490d8aa041eedf3,2024-10-25_20h06.37.837,WTP_SM_Choice,2022.2.1,Win32,59.88023952,,,,,space,0.7179,NAN,,NAN,0.79,5.21,,0,28,28,28,1,29,Riley,Rej,Participant_Images/5a09ebdf087f2e0001eae39f/5a09ebdf087f2e0001eae39f_Images/5a09ebdf087f2e0001eae39f_Image_18.jpeg,did not like,3.30081769,,,,,,,,,,,,,,,,,,,,,,
,,5a09ebdf087f2e0001eae39f,6685aa9113c938e83b4f1ea0,671c326af490d8aa041eedf3,2024-10-25_20h06.37.837,WTP_SM_Choice,2022.2.1,Win32,59.88023952,,,,,,,,,,,,,,,,,,26,,,,,,space,1.2501,space,1.4005,0.01,1,2.2119,0,0,0,0,1,listen to music while i crochet,have dinner parties with my family best friend and her family,0.01,0.01,4.4,1,,,,
,,5a09ebdf087f2e0001eae39f,6685aa9113c938e83b4f1ea0,671c326af490d8aa041eedf3,2024-10-25_20h06.37.837,WTP_SM_Choice,2022.2.1,Win32,59.88023952,,,,,,,,,,,,,,,,,,27,,,,,,,,,,0.01,2,1.6983,0,1,1,1,1,pheasant hunt on the prairies,talk to other moms and dads while watch my kids play sports,0.02,0.01,3.3,1,,,,
,,5a09ebdf087f2e0001eae39f,6685aa9113c938e83b4f1ea0,671c326af490d8aa041eedf3,2024-10-25_20h06.37.837,WTP_SM_Choice,2022.2.1,Win32,59.88023952,,,,,,,,,,,,,,,,,,28,,,,,,,,,,0.03,1,1.0807,0,2,2,2,1,take photos of nature and animals,yard sell with my best friend,0.03,0.01,3.3,1,,,,
,,5a09ebdf087f2e0001eae39f,6685aa9113c938e83b4f1ea0,671c326af490d8aa041eedf3,2024-10-25_20h06.37.837,WTP_SM_Choice,2022.2.1,Win32,59.88023952,,,,,,,,,,,,,,,,,,29,,,,,,,,,,0.01,2,1.2246,0,3,3,3,1,yard sell with my best friend,stargaze late at night with binoculars ,0.04,0.01,4.4,0,,,,
,,5a09ebdf087f2e0001eae39f,6685aa9113c938e83b4f1ea0,671c326af490d8aa041eedf3,2024-10-25_20h06.37.837,WTP_SM_Choice,2022.2.1,Win32,59.88023952,,,,,,,,,,,,,,,,,,30,,,,,,,,,,0.05,1,1.967,0,4,4,4,1,have photoshoots with different families,edit pictures on my computer,0.05,0.01,8.8,0,,,,
,,5a09ebdf087f2e0001eae39f,6685aa9113c938e83b4f1ea0,671c326af490d8aa041eedf3,2024-10-25_20h06.37.837,WTP_SM_Choice,2022.2.1,Win32,59.88023952,,,,,,,NAN,,NAN,0.9,5.1,,0,29,29,29,1,30,Riley,Rej,Participant_Images/5a09ebdf087f2e0001eae39f/5a09ebdf087f2e0001eae39f_Images/5a09ebdf087f2e0001eae39f_Image_7.jpeg,liked,1.661473164,,,,,,,,,,,,,,,,,,,,,,
,,5a09ebdf087f2e0001eae39f,6685aa9113c938e83b4f1ea0,671c326af490d8aa041eedf3,2024-10-25_20h06.37.837,WTP_SM_Choice,2022.2.1,Win32,59.88023952,,,,,space,0.6351,NAN,,NAN,0.9,5.1,,0,30,30,30,1,31,Riley,Rej,Participant_Images/5a09ebdf087f2e0001eae39f/5a09ebdf087f2e0001eae39f_Images/5a09ebdf087f2e0001eae39f_Image_13.jpeg,did not like,3.613205605,,,,,,,,,,,,,,,,,,,,,,
,,5a09ebdf087f2e0001eae39f,6685aa9113c938e83b4f1ea0,671c326af490d8aa041eedf3,2024-10-25_20h06.37.837,WTP_SM_Choice,2022.2.1,Win32,59.88023952,,,,,space,1.001,NAN,,NAN,0.9,5.1,,0,31,31,31,1,32,Riley,Rej,Participant_Images/5a09ebdf087f2e0001eae39f/5a09ebdf087f2e0001eae39f_Images/5a09ebdf087f2e0001eae39f_Image_15.jpeg,liked,4.988446431,,,,,,,,,,,,,,,,,,,,,,
,,5a09ebdf087f2e0001eae39f,6685aa9113c938e83b4f1ea0,671c326af490d8aa041eedf3,2024-10-25_20h06.37.837,WTP_SM_Choice,2022.2.1,Win32,59.88023952,,,,,space,0.6229,NAN,,NAN,0.9,5.1,,0,32,32,32,1,33,Riley,Rej,Participant_Images/5a09ebdf087f2e0001eae39f/5a09ebdf087f2e0001eae39f_Images/5a09ebdf087f2e0001eae39f_Image_23.jpeg,liked,3.470791822,,,,,,,,,,,,,,,,,,,,,,
,,5a09ebdf087f2e0001eae39f,6685aa9113c938e83b4f1ea0,671c326af490d8aa041eedf3,2024-10-25_20h06.37.837,WTP_SM_Choice,2022.2.1,Win32,59.88023952,,,,,space,0.7681,NAN,,NAN,0.9,5.1,,0,33,33,33,1,34,Riley,Rej,Participant_Images/5a09ebdf087f2e0001eae39f/5a09ebdf087f2e0001eae39f_Images/5a09ebdf087f2e0001eae39f_Image_4.jpeg,did not like,3.820572462,,,,,,,,,,,,,,,,,,,,,,
,,5a09ebdf087f2e0001eae39f,6685aa9113c938e83b4f1ea0,671c326af490d8aa041eedf3,2024-10-25_20h06.37.837,WTP_SM_Choice,2022.2.1,Win32,59.88023952,,,,,,,,,,,,,,,,,,31,,,,,,space,0.8177,space,0.5675,0.01,1,1.2201,0,0,0,0,1,do paint activities with my children,go on hikes in the badlands,0.01,0.02,8.8,0,,,,
,,5a09ebdf087f2e0001eae39f,6685aa9113c938e83b4f1ea0,671c326af490d8aa041eedf3,2024-10-25_20h06.37.837,WTP_SM_Choice,2022.2.1,Win32,59.88023952,,,,,,,,,,,,,,,,,,32,,,,,,,,,,0.02,2,2.4403,0,1,1,1,1,hik in the national parks with my husband and children,listen to music while i crochet,0.02,0.02,1.1,0,,,,
,,5a09ebdf087f2e0001eae39f,6685aa9113c938e83b4f1ea0,671c326af490d8aa041eedf3,2024-10-25_20h06.37.837,WTP_SM_Choice,2022.2.1,Win32,59.88023952,,,,,,,,,,,,,,,,,,33,,,,,,,,,,0.02,2,1.4704,0,2,2,2,1,have dinner parties with my family best friend and her family,go on hikes in the badlands,0.03,0.02,4.4,0,,,,
,,5a09ebdf087f2e0001eae39f,6685aa9113c938e83b4f1ea0,671c326af490d8aa041eedf3,2024-10-25_20h06.37.837,WTP_SM_Choice,2022.2.1,Win32,59.88023952,,,,,,,,,,,,,,,,,,34,,,,,,,,,,0.02,2,1.3317,0,3,3,3,1,pheasant hunt on the prairies,go bird hunt with my husband,0.04,0.02,3.3,1,,,,
,,5a09ebdf087f2e0001eae39f,6685aa9113c938e83b4f1ea0,671c326af490d8aa041eedf3,2024-10-25_20h06.37.837,WTP_SM_Choice,2022.2.1,Win32,59.88023952,,,,,,,,,,,,,,,,,,35,,,,,,,,,,0.05,1,1.6815,0,4,4,4,1,stargaze late at night with binoculars ,have dinner parties with my family best friend and her family,0.05,0.02,1.1,1,,,,
,,5a09ebdf087f2e0001eae39f,6685aa9113c938e83b4f1ea0,671c326af490d8aa041eedf3,2024-10-25_20h06.37.837,WTP_SM_Choice,2022.2.1,Win32,59.88023952,,,,,,,NAN,,NAN,1.02,4.98,,0,34,34,34,1,35,Riley,Rej,Participant_Images/5a09ebdf087f2e0001eae39f/5a09ebdf087f2e0001eae39f_Images/5a09ebdf087f2e0001eae39f_Image_24.jpeg,did not like,2.455989137,,,,,,,,,,,,,,,,,,,,,,
,,5a09ebdf087f2e0001eae39f,6685aa9113c938e83b4f1ea0,671c326af490d8aa041eedf3,2024-10-25_20h06.37.837,WTP_SM_Choice,2022.2.1,Win32,59.88023952,,,,,space,1.2072,NAN,,NAN,1.02,4.98,,0,35,35,35,1,36,Riley,Rej,Participant_Images/5a09ebdf087f2e0001eae39f/5a09ebdf087f2e0001eae39f_Images/5a09ebdf087f2e0001eae39f_Image_2.jpeg,did not like,3.79605092,,,,,,,,,,,,,,,,,,,,,,
,,5a09ebdf087f2e0001eae39f,6685aa9113c938e83b4f1ea0,671c326af490d8aa041eedf3,2024-10-25_20h06.37.837,WTP_SM_Choice,2022.2.1,Win32,59.88023952,,,,,space,0.7749,NAN,,NAN,1.02,4.98,,0,36,36,36,1,37,Riley,Rej,Participant_Images/5a09ebdf087f2e0001eae39f/5a09ebdf087f2e0001eae39f_Images/5a09ebdf087f2e0001eae39f_Image_12.jpeg,did not like,3.562416326,,,,,,,,,,,,,,,,,,,,,,
,,5a09ebdf087f2e0001eae39f,6685aa9113c938e83b4f1ea0,671c326af490d8aa041eedf3,2024-10-25_20h06.37.837,WTP_SM_Choice,2022.2.1,Win32,59.88023952,,,,,space,0.9085,NAN,,NAN,1.02,4.98,,0,37,37,37,1,38,Riley,Rej,Participant_Images/5a09ebdf087f2e0001eae39f/5a09ebdf087f2e0001eae39f_Images/5a09ebdf087f2e0001eae39f_Image_10.jpeg,liked,2.843822497,,,,,,,,,,,,,,,,,,,,,,
,,5a09ebdf087f2e0001eae39f,6685aa9113c938e83b4f1ea0,671c326af490d8aa041eedf3,2024-10-25_20h06.37.837,WTP_SM_Choice,2022.2.1,Win32,59.88023952,,,,,space,4.0504,NAN,,NAN,1.02,4.98,,0,38,38,38,1,39,Riley,Rej,Participant_Images/5a09ebdf087f2e0001eae39f/5a09ebdf087f2e0001eae39f_Images/5a09ebdf087f2e0001eae39f_Image_5.jpeg,did not like,3.546495948,,,,,,,,,,,,,,,,,,,,,,
,,5a09ebdf087f2e0001eae39f,6685aa9113c938e83b4f1ea0,671c326af490d8aa041eedf3,2024-10-25_20h06.37.837,WTP_SM_Choice,2022.2.1,Win32,59.88023952,,,,,,,,,,,,,,,,,,36,,,,,,space,0.6337,space,0.4622,0.03,2,1.3814,0,0,0,0,1,thrift in the big city with my husband,edit pictures on my computer,0.01,0.03,3.3,0,,,,
,,5a09ebdf087f2e0001eae39f,6685aa9113c938e83b4f1ea0,671c326af490d8aa041eedf3,2024-10-25_20h06.37.837,WTP_SM_Choice,2022.2.1,Win32,59.88023952,,,,,,,,,,,,,,,,,,37,,,,,,,,,,0.03,2,1.5504,0,1,1,1,1,have photoshoots with different families,color in adult coloring books,0.02,0.03,1.1,0,,,,
,,5a09ebdf087f2e0001eae39f,6685aa9113c938e83b4f1ea0,671c326af490d8aa041eedf3,2024-10-25_20h06.37.837,WTP_SM_Choice,2022.2.1,Win32,59.88023952,,,,,,,,,,,,,,,,,,38,,,,,,,,,,0.03,1,2.8514,0,2,2,2,1,go on hikes in the badlands,spend the day shopping with my best friend ,0.03,0.03,1.1,1,,,,
,,5a09ebdf087f2e0001eae39f,6685aa9113c938e83b4f1ea0,671c326af490d8aa041eedf3,2024-10-25_20h06.37.837,WTP_SM_Choice,2022.2.1,Win32,59.88023952,,,,,,,,,,,,,,,,,,39,,,,,,,,,,0.03,2,4.195,0,3,3,3,1,edit pictures on my computer,do paint activities with my children,0.04,0.03,3.3,1,,,,
,,5a09ebdf087f2e0001eae39f,6685aa9113c938e83b4f1ea0,671c326af490d8aa041eedf3,2024-10-25_20h06.37.837,WTP_SM_Choice,2022.2.1,Win32,59.88023952,,,,,,,,,,,,,,,,,,40,,,,,,,,,,0.05,1,1.5653,0,4,4,4,1,draw cartoon figures with colored pencils,thrift in the big city with my husband,0.05,0.03,4.4,1,,,,
,,5a09ebdf087f2e0001eae39f,6685aa9113c938e83b4f1ea0,671c326af490d8aa041eedf3,2024-10-25_20h06.37.837,WTP_SM_Choice,2022.2.1,Win32,59.88023952,,,,,,,NAN,,NAN,1.19,4.81,,0,39,39,39,1,40,Riley,Rej,Participant_Images/5a09ebdf087f2e0001eae39f/5a09ebdf087f2e0001eae39f_Images/5a09ebdf087f2e0001eae39f_Image_1.jpeg,did not like,1.672012706,,,,,,,,,,,,,,,,,,,,,,
,,5a09ebdf087f2e0001eae39f,6685aa9113c938e83b4f1ea0,671c326af490d8aa041eedf3,2024-10-25_20h06.37.837,WTP_SM_Choice,2022.2.1,Win32,59.88023952,,,,,space,0.555,NAN,,NAN,1.19,4.81,,0,40,40,40,1,41,Riley,Rej,Participant_Images/5a09ebdf087f2e0001eae39f/5a09ebdf087f2e0001eae39f_Images/5a09ebdf087f2e0001eae39f_Image_20.jpeg,did not like,4.942172136,,,,,,,,,,,,,,,,,,,,,,
,,5a09ebdf087f2e0001eae39f,6685aa9113c938e83b4f1ea0,671c326af490d8aa041eedf3,2024-10-25_20h06.37.837,WTP_SM_Choice,2022.2.1,Win32,59.88023952,,,,,space,2.6677,NAN,,NAN,1.19,4.81,,0,41,41,41,1,42,Riley,Rej,Participant_Images/5a09ebdf087f2e0001eae39f/5a09ebdf087f2e0001eae39f_Images/5a09ebdf087f2e0001eae39f_Image_16.jpeg,did not like,2.50187214,,,,,,,,,,,,,,,,,,,,,,
,,5a09ebdf087f2e0001eae39f,6685aa9113c938e83b4f1ea0,671c326af490d8aa041eedf3,2024-10-25_20h06.37.837,WTP_SM_Choice,2022.2.1,Win32,59.88023952,,,,,space,1.013,NAN,,NAN,1.19,4.81,,0,42,42,42,1,43,Riley,Rej,Participant_Images/5a09ebdf087f2e0001eae39f/5a09ebdf087f2e0001eae39f_Images/5a09ebdf087f2e0001eae39f_Image_21.jpeg,did not like,2.071164779,,,,,,,,,,,,,,,,,,,,,,
,,5a09ebdf087f2e0001eae39f,6685aa9113c938e83b4f1ea0,671c326af490d8aa041eedf3,2024-10-25_20h06.37.837,WTP_SM_Choice,2022.2.1,Win32,59.88023952,,,,,space,1.1353,NAN,,NAN,1.19,4.81,,0,43,43,43,1,44,Riley,Rej,Participant_Images/5a09ebdf087f2e0001eae39f/5a09ebdf087f2e0001eae39f_Images/5a09ebdf087f2e0001eae39f_Image_17.jpeg,did not like,5.336503566,,,,,,,,,,,,,,,,,,,,,,
,,5a09ebdf087f2e0001eae39f,6685aa9113c938e83b4f1ea0,671c326af490d8aa041eedf3,2024-10-25_20h06.37.837,WTP_SM_Choice,2022.2.1,Win32,59.88023952,,,,,,,,,,,,,,,,,,41,,,,,,space,0.8337,space,0.5172,0.04,2,2.2716,0,0,0,0,1,have photoshoots with different families,listen to music while i crochet,0.01,0.04,1.1,0,,,,
,,5a09ebdf087f2e0001eae39f,6685aa9113c938e83b4f1ea0,671c326af490d8aa041eedf3,2024-10-25_20h06.37.837,WTP_SM_Choice,2022.2.1,Win32,59.88023952,,,,,,,,,,,,,,,,,,42,,,,,,,,,,0.02,1,6.8462,0,1,1,1,1,go bird hunt with my husband,take photos of nature and animals,0.02,0.04,3.3,0,,,,
,,5a09ebdf087f2e0001eae39f,6685aa9113c938e83b4f1ea0,671c326af490d8aa041eedf3,2024-10-25_20h06.37.837,WTP_SM_Choice,2022.2.1,Win32,59.88023952,,,,,,,,,,,,,,,,,,43,,,,,,,,,,0.03,1,1.6168,0,2,2,2,1,bake baked goods,go bird hunt with my husband,0.03,0.04,1.1,1,,,,
,,5a09ebdf087f2e0001eae39f,6685aa9113c938e83b4f1ea0,671c326af490d8aa041eedf3,2024-10-25_20h06.37.837,WTP_SM_Choice,2022.2.1,Win32,59.88023952,,,,,,,,,,,,,,,,,,44,,,,,,,,,,0.04,2,2.5861,0,3,3,3,1,spend the day shopping with my best friend ,draw cartoon figures with colored pencils,0.04,0.04,1.1,0,,,,
,,5a09ebdf087f2e0001eae39f,6685aa9113c938e83b4f1ea0,671c326af490d8aa041eedf3,2024-10-25_20h06.37.837,WTP_SM_Choice,2022.2.1,Win32,59.88023952,,,,,,,,,,,,,,,,,,45,,,,,,,,,,0.04,2,2.748,0,4,4,4,1,listen to music while i crochet,go to indoor museums with my children,0.05,0.04,4.4,1,,,,
,,5a09ebdf087f2e0001eae39f,6685aa9113c938e83b4f1ea0,671c326af490d8aa041eedf3,2024-10-25_20h06.37.837,WTP_SM_Choice,2022.2.1,Win32,59.88023952,,,,,,,NAN,,NAN,1.36,4.64,,0,44,44,44,1,45,Riley,Rej,Participant_Images/5a09ebdf087f2e0001eae39f/5a09ebdf087f2e0001eae39f_Images/5a09ebdf087f2e0001eae39f_Image_9.jpeg,did not like,2.642157193,,,,,,,,,,,,,,,,,,,,,,
,,5a09ebdf087f2e0001eae39f,6685aa9113c938e83b4f1ea0,671c326af490d8aa041eedf3,2024-10-25_20h06.37.837,WTP_SM_Choice,2022.2.1,Win32,59.88023952,,,,,space,0.7016,NAN,,NAN,1.36,4.64,,0,45,45,45,1,46,Riley,Rej,Participant_Images/5a09ebdf087f2e0001eae39f/5a09ebdf087f2e0001eae39f_Images/5a09ebdf087f2e0001eae39f_Image_3.jpeg,liked,4.456234322,,,,,,,,,,,,,,,,,,,,,,
,,5a09ebdf087f2e0001eae39f,6685aa9113c938e83b4f1ea0,671c326af490d8aa041eedf3,2024-10-25_20h06.37.837,WTP_SM_Choice,2022.2.1,Win32,59.88023952,,,,,space,1.101,NAN,,NAN,1.36,4.64,,0,46,46,46,1,47,Riley,Rej,Participant_Images/5a09ebdf087f2e0001eae39f/5a09ebdf087f2e0001eae39f_Images/5a09ebdf087f2e0001eae39f_Image_11.jpeg,did not like,4.438512181,,,,,,,,,,,,,,,,,,,,,,
,,5a09ebdf087f2e0001eae39f,6685aa9113c938e83b4f1ea0,671c326af490d8aa041eedf3,2024-10-25_20h06.37.837,WTP_SM_Choice,2022.2.1,Win32,59.88023952,,,,,space,1.1179,NAN,,NAN,1.36,4.64,,0,47,47,47,1,48,Riley,Rej,Participant_Images/5a09ebdf087f2e0001eae39f/5a09ebdf087f2e0001eae39f_Images/5a09ebdf087f2e0001eae39f_Image_8.jpeg,did not like,2.682944783,,,,,,,,,,,,,,,,,,,,,,
,,5a09ebdf087f2e0001eae39f,6685aa9113c938e83b4f1ea0,671c326af490d8aa041eedf3,2024-10-25_20h06.37.837,WTP_SM_Choice,2022.2.1,Win32,59.88023952,,,,,space,1.0849,NAN,,NAN,1.36,4.64,,0,48,48,48,1,49,Riley,Rej,Participant_Images/5a09ebdf087f2e0001eae39f/5a09ebdf087f2e0001eae39f_Images/5a09ebdf087f2e0001eae39f_Image_19.jpeg,did not like,4.51984296,,,,,,,,,,,,,,,,,,,,,,
,,5a09ebdf087f2e0001eae39f,6685aa9113c938e83b4f1ea0,671c326af490d8aa041eedf3,2024-10-25_20h06.37.837,WTP_SM_Choice,2022.2.1,Win32,59.88023952,,,,,,,,,,,,,,,,,,46,,,,,,space,0.3673,space,0.5789,0.01,1,1.1425,0,0,0,0,1,stargaze late at night with binoculars ,thrift in the big city with my husband,0.01,0.05,8.8,1,,,,
,,5a09ebdf087f2e0001eae39f,6685aa9113c938e83b4f1ea0,671c326af490d8aa041eedf3,2024-10-25_20h06.37.837,WTP_SM_Choice,2022.2.1,Win32,59.88023952,,,,,,,,,,,,,,,,,,47,,,,,,,,,,0.02,1,1.9416,0,1,1,1,1,do paint activities with my children,bake baked goods,0.02,0.05,1.1,0,,,,
,,5a09ebdf087f2e0001eae39f,6685aa9113c938e83b4f1ea0,671c326af490d8aa041eedf3,2024-10-25_20h06.37.837,WTP_SM_Choice,2022.2.1,Win32,59.88023952,,,,,,,,,,,,,,,,,,48,,,,,,,,,,0.03,1,3.7837,0,2,2,2,1,go on hikes in the badlands,go bird hunt with my husband,0.03,0.05,4.4,1,,,,
,,5a09ebdf087f2e0001eae39f,6685aa9113c938e83b4f1ea0,671c326af490d8aa041eedf3,2024-10-25_20h06.37.837,WTP_SM_Choice,2022.2.1,Win32,59.88023952,,,,,,,,,,,,,,,,,,49,,,,,,,,,,0.05,2,2.674,0,3,3,3,1,go to indoor museums with my children,stargaze late at night with binoculars ,0.04,0.05,3.3,0,,,,
,,5a09ebdf087f2e0001eae39f,6685aa9113c938e83b4f1ea0,671c326af490d8aa041eedf3,2024-10-25_20h06.37.837,WTP_SM_Choice,2022.2.1,Win32,59.88023952,,,,,,,,,,,,,,,,,,50,,,,,,,,,,0.05,2,2.8318,0,4,4,4,1,go bird hunt with my husband,listen to music while i crochet,0.05,0.05,1.1,0,,,,
,,5a09ebdf087f2e0001eae39f,6685aa9113c938e83b4f1ea0,671c326af490d8aa041eedf3,2024-10-25_20h06.37.837,WTP_SM_Choice,2022.2.1,Win32,59.88023952,,,,,,,3,,2,1.52,4.48,,0,49,49,49,1,50,Riley,Rej,Participant_Images/5a09ebdf087f2e0001eae39f/5a09ebdf087f2e0001eae39f_Images/5a09ebdf087f2e0001eae39f_Image_25.jpeg,liked,3.195382774,,,,,,,,,,,,,,,,,,,space,4.7837,,
,,5a09ebdf087f2e0001eae39f,6685aa9113c938e83b4f1ea0,671c326af490d8aa041eedf3,2024-10-25_20h06.37.837,WTP_SM_Choice,2022.2.1,Win32,59.88023952,,,space,1.142,space,5.2331,NAN,,NAN,1.52,4.48,,0,50,50,50,1,51,Charlie,Acc,Participant_Images/5a09ebdf087f2e0001eae39f/5a09ebdf087f2e0001eae39f_Images/5a09ebdf087f2e0001eae39f_Image_23.jpeg,did not like,1.779333479,,,,,,,,,,,,,,,,,,,,,,
,,5a09ebdf087f2e0001eae39f,6685aa9113c938e83b4f1ea0,671c326af490d8aa041eedf3,2024-10-25_20h06.37.837,WTP_SM_Choice,2022.2.1,Win32,59.88023952,,,,,space,1.3913,NAN,,NAN,1.52,4.48,,0,51,51,51,1,52,Charlie,Acc,Participant_Images/5a09ebdf087f2e0001eae39f/5a09ebdf087f2e0001eae39f_Images/5a09ebdf087f2e0001eae39f_Image_6.jpeg,liked,4.312468682,,,,,,,,,,,,,,,,,,,,,,
,,5a09ebdf087f2e0001eae39f,6685aa9113c938e83b4f1ea0,671c326af490d8aa041eedf3,2024-10-25_20h06.37.837,WTP_SM_Choice,2022.2.1,Win32,59.88023952,,,,,space,0.5674,NAN,,NAN,1.52,4.48,,0,52,52,52,1,53,Charlie,Acc,Participant_Images/5a09ebdf087f2e0001eae39f/5a09ebdf087f2e0001eae39f_Images/5a09ebdf087f2e0001eae39f_Image_25.jpeg,liked,4.940433059,,,,,,,,,,,,,,,,,,,,,,
,,5a09ebdf087f2e0001eae39f,6685aa9113c938e83b4f1ea0,671c326af490d8aa041eedf3,2024-10-25_20h06.37.837,WTP_SM_Choice,2022.2.1,Win32,59.88023952,,,,,space,0.6679,NAN,,NAN,1.52,4.48,,0,53,53,53,1,54,Charlie,Acc,Participant_Images/5a09ebdf087f2e0001eae39f/5a09ebdf087f2e0001eae39f_Images/5a09ebdf087f2e0001eae39f_Image_4.jpeg,liked,2.7105123,,,,,,,,,,,,,,,,,,,,,,
,,5a09ebdf087f2e0001eae39f,6685aa9113c938e83b4f1ea0,671c326af490d8aa041eedf3,2024-10-25_20h06.37.837,WTP_SM_Choice,2022.2.1,Win32,59.88023952,,,,,,,,,,,,,,,,,,51,,,,,,space,4.0943,space,1.7676,0.01,1,1.3733,0,0,0,0,1,read my kindle on my porch,yard sell with my best friend,0.01,0.01,1.1,1,,,,
,,5a09ebdf087f2e0001eae39f,6685aa9113c938e83b4f1ea0,671c326af490d8aa041eedf3,2024-10-25_20h06.37.837,WTP_SM_Choice,2022.2.1,Win32,59.88023952,,,,,,,,,,,,,,,,,,52,,,,,,,,,,0.01,2,2.1749,0,1,1,1,1,have dinner parties with my family best friend and her family,color in adult coloring books,0.02,0.01,3.3,0,,,,
,,5a09ebdf087f2e0001eae39f,6685aa9113c938e83b4f1ea0,671c326af490d8aa041eedf3,2024-10-25_20h06.37.837,WTP_SM_Choice,2022.2.1,Win32,59.88023952,,,,,,,,,,,,,,,,,,53,,,,,,,,,,0.03,1,1.5164,0,2,2,2,1,draw cartoon figures with colored pencils,talk to other moms and dads while watch my kids play sports,0.03,0.01,1.1,1,,,,
,,5a09ebdf087f2e0001eae39f,6685aa9113c938e83b4f1ea0,671c326af490d8aa041eedf3,2024-10-25_20h06.37.837,WTP_SM_Choice,2022.2.1,Win32,59.88023952,,,,,,,,,,,,,,,,,,54,,,,,,,,,,0.04,1,1.3847,0,3,3,3,1,stargaze late at night with binoculars ,have photoshoots with different families,0.04,0.01,4.4,1,,,,
,,5a09ebdf087f2e0001eae39f,6685aa9113c938e83b4f1ea0,671c326af490d8aa041eedf3,2024-10-25_20h06.37.837,WTP_SM_Choice,2022.2.1,Win32,59.88023952,,,,,,,,,,,,,,,,,,55,,,,,,,,,,0.05,1,1.6498,0,4,4,4,1,bake baked goods,have dinner parties with my family best friend and her family,0.05,0.01,1.1,1,,,,
,,5a09ebdf087f2e0001eae39f,6685aa9113c938e83b4f1ea0,671c326af490d8aa041eedf3,2024-10-25_20h06.37.837,WTP_SM_Choice,2022.2.1,Win32,59.88023952,,,,,,,NAN,,NAN,1.66,4.34,,0,54,54,54,1,55,Charlie,Acc,Participant_Images/5a09ebdf087f2e0001eae39f/5a09ebdf087f2e0001eae39f_Images/5a09ebdf087f2e0001eae39f_Image_18.jpeg,liked,3.602308302,,,,,,,,,,,,,,,,,,,,,,
,,5a09ebdf087f2e0001eae39f,6685aa9113c938e83b4f1ea0,671c326af490d8aa041eedf3,2024-10-25_20h06.37.837,WTP_SM_Choice,2022.2.1,Win32,59.88023952,,,,,space,1.751,NAN,,NAN,1.66,4.34,,0,55,55,55,1,56,Charlie,Acc,Participant_Images/5a09ebdf087f2e0001eae39f/5a09ebdf087f2e0001eae39f_Images/5a09ebdf087f2e0001eae39f_Image_2.jpeg,did not like,4.106391878,,,,,,,,,,,,,,,,,,,,,,
,,5a09ebdf087f2e0001eae39f,6685aa9113c938e83b4f1ea0,671c326af490d8aa041eedf3,2024-10-25_20h06.37.837,WTP_SM_Choice,2022.2.1,Win32,59.88023952,,,,,space,1.0322,NAN,,NAN,1.66,4.34,,0,56,56,56,1,57,Charlie,Acc,Participant_Images/5a09ebdf087f2e0001eae39f/5a09ebdf087f2e0001eae39f_Images/5a09ebdf087f2e0001eae39f_Image_14.jpeg,liked,3.799433026,,,,,,,,,,,,,,,,,,,,,,
,,5a09ebdf087f2e0001eae39f,6685aa9113c938e83b4f1ea0,671c326af490d8aa041eedf3,2024-10-25_20h06.37.837,WTP_SM_Choice,2022.2.1,Win32,59.88023952,,,,,space,0.5861,NAN,,NAN,1.66,4.34,,0,57,57,57,1,58,Charlie,Acc,Participant_Images/5a09ebdf087f2e0001eae39f/5a09ebdf087f2e0001eae39f_Images/5a09ebdf087f2e0001eae39f_Image_24.jpeg,liked,5.246980764,,,,,,,,,,,,,,,,,,,,,,
,,5a09ebdf087f2e0001eae39f,6685aa9113c938e83b4f1ea0,671c326af490d8aa041eedf3,2024-10-25_20h06.37.837,WTP_SM_Choice,2022.2.1,Win32,59.88023952,,,,,space,0.9006,NAN,,NAN,1.66,4.34,,0,58,58,58,1,59,Charlie,Acc,Participant_Images/5a09ebdf087f2e0001eae39f/5a09ebdf087f2e0001eae39f_Images/5a09ebdf087f2e0001eae39f_Image_5.jpeg,liked,3.30081769,,,,,,,,,,,,,,,,,,,,,,
,,5a09ebdf087f2e0001eae39f,6685aa9113c938e83b4f1ea0,671c326af490d8aa041eedf3,2024-10-25_20h06.37.837,WTP_SM_Choice,2022.2.1,Win32,59.88023952,,,,,,,,,,,,,,,,,,56,,,,,,space,0.9512,space,0.3406,0.02,2,1.4841,0,0,0,0,1,go bird hunt with my husband,color in adult coloring books,0.01,0.02,8.8,0,,,,
,,5a09ebdf087f2e0001eae39f,6685aa9113c938e83b4f1ea0,671c326af490d8aa041eedf3,2024-10-25_20h06.37.837,WTP_SM_Choice,2022.2.1,Win32,59.88023952,,,,,,,,,,,,,,,,,,57,,,,,,,,,,0.02,1,2.1589,0,1,1,1,1,pheasant hunt on the prairies,spend the day shopping with my best friend ,0.02,0.02,4.4,1,,,,
,,5a09ebdf087f2e0001eae39f,6685aa9113c938e83b4f1ea0,671c326af490d8aa041eedf3,2024-10-25_20h06.37.837,WTP_SM_Choice,2022.2.1,Win32,59.88023952,,,,,,,,,,,,,,,,,,58,,,,,,,,,,0.02,2,2.4115,0,2,2,2,1,read my kindle on my porch,do paint activities with my children,0.03,0.02,4.4,1,,,,
,,5a09ebdf087f2e0001eae39f,6685aa9113c938e83b4f1ea0,671c326af490d8aa041eedf3,2024-10-25_20h06.37.837,WTP_SM_Choice,2022.2.1,Win32,59.88023952,,,,,,,,,,,,,,,,,,59,,,,,,,,,,0.02,2,1.5503,0,3,3,3,1,go bird hunt with my husband,stargaze late at night with binoculars ,0.04,0.02,4.4,0,,,,
,,5a09ebdf087f2e0001eae39f,6685aa9113c938e83b4f1ea0,671c326af490d8aa041eedf3,2024-10-25_20h06.37.837,WTP_SM_Choice,2022.2.1,Win32,59.88023952,,,,,,,,,,,,,,,,,,60,,,,,,,,,,0.05,1,1.513,0,4,4,4,1,have dinner parties with my family best friend and her family,pheasant hunt on the prairies,0.05,0.02,1.1,0,,,,
,,5a09ebdf087f2e0001eae39f,6685aa9113c938e83b4f1ea0,671c326af490d8aa041eedf3,2024-10-25_20h06.37.837,WTP_SM_Choice,2022.2.1,Win32,59.88023952,,,,,,,NAN,,NAN,1.79,4.21,,0,59,59,59,1,60,Charlie,Acc,Participant_Images/5a09ebdf087f2e0001eae39f/5a09ebdf087f2e0001eae39f_Images/5a09ebdf087f2e0001eae39f_Image_17.jpeg,liked,1.661473164,,,,,,,,,,,,,,,,,,,,,,
,,5a09ebdf087f2e0001eae39f,6685aa9113c938e83b4f1ea0,671c326af490d8aa041eedf3,2024-10-25_20h06.37.837,WTP_SM_Choice,2022.2.1,Win32,59.88023952,,,,,space,1.001,NAN,,NAN,1.79,4.21,,0,60,60,60,1,61,Charlie,Acc,Participant_Images/5a09ebdf087f2e0001eae39f/5a09ebdf087f2e0001eae39f_Images/5a09ebdf087f2e0001eae39f_Image_20.jpeg,liked,3.613205605,,,,,,,,,,,,,,,,,,,,,,
,,5a09ebdf087f2e0001eae39f,6685aa9113c938e83b4f1ea0,671c326af490d8aa041eedf3,2024-10-25_20h06.37.837,WTP_SM_Choice,2022.2.1,Win32,59.88023952,,,,,space,3.334,NAN,,NAN,1.79,4.21,,0,61,61,61,1,62,Charlie,Acc,Participant_Images/5a09ebdf087f2e0001eae39f/5a09ebdf087f2e0001eae39f_Images/5a09ebdf087f2e0001eae39f_Image_8.jpeg,did not like,4.988446431,,,,,,,,,,,,,,,,,,,,,,
,,5a09ebdf087f2e0001eae39f,6685aa9113c938e83b4f1ea0,671c326af490d8aa041eedf3,2024-10-25_20h06.37.837,WTP_SM_Choice,2022.2.1,Win32,59.88023952,,,,,space,0.8754,NAN,,NAN,1.79,4.21,,0,62,62,62,1,63,Charlie,Acc,Participant_Images/5a09ebdf087f2e0001eae39f/5a09ebdf087f2e0001eae39f_Images/5a09ebdf087f2e0001eae39f_Image_13.jpeg,liked,3.470791822,,,,,,,,,,,,,,,,,,,,,,
,,5a09ebdf087f2e0001eae39f,6685aa9113c938e83b4f1ea0,671c326af490d8aa041eedf3,2024-10-25_20h06.37.837,WTP_SM_Choice,2022.2.1,Win32,59.88023952,,,,,space,0.7845,NAN,,NAN,1.79,4.21,,0,63,63,63,1,64,Charlie,Acc,Participant_Images/5a09ebdf087f2e0001eae39f/5a09ebdf087f2e0001eae39f_Images/5a09ebdf087f2e0001eae39f_Image_15.jpeg,liked,3.820572462,,,,,,,,,,,,,,,,,,,,,,
,,5a09ebdf087f2e0001eae39f,6685aa9113c938e83b4f1ea0,671c326af490d8aa041eedf3,2024-10-25_20h06.37.837,WTP_SM_Choice,2022.2.1,Win32,59.88023952,,,,,,,,,,,,,,,,,,61,,,,,,space,0.5511,space,0.3848,0.01,1,2.4857,0,0,0,0,1,talk to other moms and dads while watch my kids play sports,edit pictures on my computer,0.01,0.03,3.3,0,,,,
,,5a09ebdf087f2e0001eae39f,6685aa9113c938e83b4f1ea0,671c326af490d8aa041eedf3,2024-10-25_20h06.37.837,WTP_SM_Choice,2022.2.1,Win32,59.88023952,,,,,,,,,,,,,,,,,,62,,,,,,,,,,0.02,1,1.8481,0,1,1,1,1,stargaze late at night with binoculars ,hik in the national parks with my husband and children,0.02,0.03,3.3,1,,,,
,,5a09ebdf087f2e0001eae39f,6685aa9113c938e83b4f1ea0,671c326af490d8aa041eedf3,2024-10-25_20h06.37.837,WTP_SM_Choice,2022.2.1,Win32,59.88023952,,,,,,,,,,,,,,,,,,63,,,,,,,,,,0.03,2,1.4674,0,2,2,2,1,pheasant hunt on the prairies,go to indoor museums with my children,0.03,0.03,3.3,1,,,,
,,5a09ebdf087f2e0001eae39f,6685aa9113c938e83b4f1ea0,671c326af490d8aa041eedf3,2024-10-25_20h06.37.837,WTP_SM_Choice,2022.2.1,Win32,59.88023952,,,,,,,,,,,,,,,,,,64,,,,,,,,,,0.03,2,1.417,0,3,3,3,1,spend the day shopping with my best friend ,bake baked goods,0.04,0.03,1.1,0,,,,
,,5a09ebdf087f2e0001eae39f,6685aa9113c938e83b4f1ea0,671c326af490d8aa041eedf3,2024-10-25_20h06.37.837,WTP_SM_Choice,2022.2.1,Win32,59.88023952,,,,,,,,,,,,,,,,,,65,,,,,,,,,,0.05,1,1.6671,0,4,4,4,1,hik in the national parks with my husband and children,bake baked goods,0.05,0.03,1.1,0,,,,
,,5a09ebdf087f2e0001eae39f,6685aa9113c938e83b4f1ea0,671c326af490d8aa041eedf3,2024-10-25_20h06.37.837,WTP_SM_Choice,2022.2.1,Win32,59.88023952,,,,,,,NAN,,NAN,1.93,4.07,,0,64,64,64,1,65,Charlie,Acc,Participant_Images/5a09ebdf087f2e0001eae39f/5a09ebdf087f2e0001eae39f_Images/5a09ebdf087f2e0001eae39f_Image_3.jpeg,did not like,2.455989137,,,,,,,,,,,,,,,,,,,,,,
,,5a09ebdf087f2e0001eae39f,6685aa9113c938e83b4f1ea0,671c326af490d8aa041eedf3,2024-10-25_20h06.37.837,WTP_SM_Choice,2022.2.1,Win32,59.88023952,,,,,space,0.9272,NAN,,NAN,1.93,4.07,,0,65,65,65,1,66,Charlie,Acc,Participant_Images/5a09ebdf087f2e0001eae39f/5a09ebdf087f2e0001eae39f_Images/5a09ebdf087f2e0001eae39f_Image_22.jpeg,did not like,3.79605092,,,,,,,,,,,,,,,,,,,,,,
,,5a09ebdf087f2e0001eae39f,6685aa9113c938e83b4f1ea0,671c326af490d8aa041eedf3,2024-10-25_20h06.37.837,WTP_SM_Choice,2022.2.1,Win32,59.88023952,,,,,space,0.7177,NAN,,NAN,1.93,4.07,,0,66,66,66,1,67,Charlie,Acc,Participant_Images/5a09ebdf087f2e0001eae39f/5a09ebdf087f2e0001eae39f_Images/5a09ebdf087f2e0001eae39f_Image_9.jpeg,did not like,3.562416326,,,,,,,,,,,,,,,,,,,,,,
,,5a09ebdf087f2e0001eae39f,6685aa9113c938e83b4f1ea0,671c326af490d8aa041eedf3,2024-10-25_20h06.37.837,WTP_SM_Choice,2022.2.1,Win32,59.88023952,,,,,space,0.7847,NAN,,NAN,1.93,4.07,,0,67,67,67,1,68,Charlie,Acc,Participant_Images/5a09ebdf087f2e0001eae39f/5a09ebdf087f2e0001eae39f_Images/5a09ebdf087f2e0001eae39f_Image_19.jpeg,liked,2.843822497,,,,,,,,,,,,,,,,,,,,,,
,,5a09ebdf087f2e0001eae39f,6685aa9113c938e83b4f1ea0,671c326af490d8aa041eedf3,2024-10-25_20h06.37.837,WTP_SM_Choice,2022.2.1,Win32,59.88023952,,,,,space,0.9677,NAN,,NAN,1.93,4.07,,0,68,68,68,1,69,Charlie,Acc,Participant_Images/5a09ebdf087f2e0001eae39f/5a09ebdf087f2e0001eae39f_Images/5a09ebdf087f2e0001eae39f_Image_7.jpeg,liked,3.546495948,,,,,,,,,,,,,,,,,,,,,,
,,5a09ebdf087f2e0001eae39f,6685aa9113c938e83b4f1ea0,671c326af490d8aa041eedf3,2024-10-25_20h06.37.837,WTP_SM_Choice,2022.2.1,Win32,59.88023952,,,,,,,,,,,,,,,,,,66,,,,,,space,0.5838,space,0.3338,0.04,2,1.6571,0,0,0,0,1,spend the day shopping with my best friend ,listen to music while i crochet,0.01,0.04,1.1,0,,,,
,,5a09ebdf087f2e0001eae39f,6685aa9113c938e83b4f1ea0,671c326af490d8aa041eedf3,2024-10-25_20h06.37.837,WTP_SM_Choice,2022.2.1,Win32,59.88023952,,,,,,,,,,,,,,,,,,67,,,,,,,,,,0.02,1,1.7314,0,1,1,1,1,stargaze late at night with binoculars ,talk to other moms and dads while watch my kids play sports,0.02,0.04,8.8,1,,,,
,,5a09ebdf087f2e0001eae39f,6685aa9113c938e83b4f1ea0,671c326af490d8aa041eedf3,2024-10-25_20h06.37.837,WTP_SM_Choice,2022.2.1,Win32,59.88023952,,,,,,,,,,,,,,,,,,68,,,,,,,,,,0.04,2,1.283,0,2,2,2,1,thrift in the big city with my husband,color in adult coloring books,0.03,0.04,4.4,0,,,,
,,5a09ebdf087f2e0001eae39f,6685aa9113c938e83b4f1ea0,671c326af490d8aa041eedf3,2024-10-25_20h06.37.837,WTP_SM_Choice,2022.2.1,Win32,59.88023952,,,,,,,,,,,,,,,,,,69,,,,,,,,,,0.04,2,1.6142,0,3,3,3,1,edit pictures on my computer,go to indoor museums with my children,0.04,0.04,1.1,1,,,,
,,5a09ebdf087f2e0001eae39f,6685aa9113c938e83b4f1ea0,671c326af490d8aa041eedf3,2024-10-25_20h06.37.837,WTP_SM_Choice,2022.2.1,Win32,59.88023952,,,,,,,,,,,,,,,,,,70,,,,,,,,,,0.04,2,1.5774,0,4,4,4,1,read my kindle on my porch,talk to other moms and dads while watch my kids play sports,0.05,0.04,1.1,1,,,,
,,5a09ebdf087f2e0001eae39f,6685aa9113c938e83b4f1ea0,671c326af490d8aa041eedf3,2024-10-25_20h06.37.837,WTP_SM_Choice,2022.2.1,Win32,59.88023952,,,,,,,NAN,,NAN,2.11,3.89,,0,69,69,69,1,70,Charlie,Acc,Participant_Images/5a09ebdf087f2e0001eae39f/5a09ebdf087f2e0001eae39f_Images/5a09ebdf087f2e0001eae39f_Image_21.jpeg,liked,1.672012706,,,,,,,,,,,,,,,,,,,,,,
,,5a09ebdf087f2e0001eae39f,6685aa9113c938e83b4f1ea0,671c326af490d8aa041eedf3,2024-10-25_20h06.37.837,WTP_SM_Choice,2022.2.1,Win32,59.88023952,,,,,space,0.7267,NAN,,NAN,2.11,3.89,,0,70,70,70,1,71,Charlie,Acc,Participant_Images/5a09ebdf087f2e0001eae39f/5a09ebdf087f2e0001eae39f_Images/5a09ebdf087f2e0001eae39f_Image_11.jpeg,liked,4.942172136,,,,,,,,,,,,,,,,,,,,,,
,,5a09ebdf087f2e0001eae39f,6685aa9113c938e83b4f1ea0,671c326af490d8aa041eedf3,2024-10-25_20h06.37.837,WTP_SM_Choice,2022.2.1,Win32,59.88023952,,,,,space,1.4677,NAN,,NAN,2.11,3.89,,0,71,71,71,1,72,Charlie,Acc,Participant_Images/5a09ebdf087f2e0001eae39f/5a09ebdf087f2e0001eae39f_Images/5a09ebdf087f2e0001eae39f_Image_12.jpeg,did not like,2.50187214,,,,,,,,,,,,,,,,,,,,,,
,,5a09ebdf087f2e0001eae39f,6685aa9113c938e83b4f1ea0,671c326af490d8aa041eedf3,2024-10-25_20h06.37.837,WTP_SM_Choice,2022.2.1,Win32,59.88023952,,,,,space,0.4189,NAN,,NAN,2.11,3.89,,0,72,72,72,1,73,Charlie,Acc,Participant_Images/5a09ebdf087f2e0001eae39f/5a09ebdf087f2e0001eae39f_Images/5a09ebdf087f2e0001eae39f_Image_16.jpeg,liked,2.071164779,,,,,,,,,,,,,,,,,,,,,,
,,5a09ebdf087f2e0001eae39f,6685aa9113c938e83b4f1ea0,671c326af490d8aa041eedf3,2024-10-25_20h06.37.837,WTP_SM_Choice,2022.2.1,Win32,59.88023952,,,,,space,0.6844,NAN,,NAN,2.11,3.89,,0,73,73,73,1,74,Charlie,Acc,Participant_Images/5a09ebdf087f2e0001eae39f/5a09ebdf087f2e0001eae39f_Images/5a09ebdf087f2e0001eae39f_Image_1.jpeg,liked,5.336503566,,,,,,,,,,,,,,,,,,,,,,
,,5a09ebdf087f2e0001eae39f,6685aa9113c938e83b4f1ea0,671c326af490d8aa041eedf3,2024-10-25_20h06.37.837,WTP_SM_Choice,2022.2.1,Win32,59.88023952,,,,,,,,,,,,,,,,,,71,,,,,,space,0.9343,space,0.4005,0.01,1,2.1861,0,0,0,0,1,pheasant hunt on the prairies,hik in the national parks with my husband and children,0.01,0.05,3.3,1,,,,
,,5a09ebdf087f2e0001eae39f,6685aa9113c938e83b4f1ea0,671c326af490d8aa041eedf3,2024-10-25_20h06.37.837,WTP_SM_Choice,2022.2.1,Win32,59.88023952,,,,,,,,,,,,,,,,,,72,,,,,,,,,,0.05,2,2.0923,0,1,1,1,1,have photoshoots with different families,read my kindle on my porch,0.02,0.05,8.8,0,,,,
,,5a09ebdf087f2e0001eae39f,6685aa9113c938e83b4f1ea0,671c326af490d8aa041eedf3,2024-10-25_20h06.37.837,WTP_SM_Choice,2022.2.1,Win32,59.88023952,,,,,,,,,,,,,,,,,,73,,,,,,,,,,0.05,2,1.3253,0,2,2,2,1,listen to music while i crochet,do paint activities with my children,0.03,0.05,3.3,1,,,,
,,5a09ebdf087f2e0001eae39f,6685aa9113c938e83b4f1ea0,671c326af490d8aa041eedf3,2024-10-25_20h06.37.837,WTP_SM_Choice,2022.2.1,Win32,59.88023952,,,,,,,,,,,,,,,,,,74,,,,,,,,,,0.04,1,3.0668,0,3,3,3,1,color in adult coloring books,hik in the national parks with my husband and children,0.04,0.05,4.4,1,,,,
,,5a09ebdf087f2e0001eae39f,6685aa9113c938e83b4f1ea0,671c326af490d8aa041eedf3,2024-10-25_20h06.37.837,WTP_SM_Choice,2022.2.1,Win32,59.88023952,,,,,,,,,,,,,,,,,,75,,,,,,,,,,0.05,1,1.4144,0,4,4,4,1,go on hikes in the badlands,thrift in the big city with my husband,0.05,0.05,3.3,1,,,,
,,5a09ebdf087f2e0001eae39f,6685aa9113c938e83b4f1ea0,671c326af490d8aa041eedf3,2024-10-25_20h06.37.837,WTP_SM_Choice,2022.2.1,Win32,59.88023952,,,,,,,3,,2,2.31,3.69,,0,74,74,74,1,75,Charlie,Acc,Participant_Images/5a09ebdf087f2e0001eae39f/5a09ebdf087f2e0001eae39f_Images/5a09ebdf087f2e0001eae39f_Image_10.jpeg,liked,2.642157193,,,,,,,,,,,,,,,,,,,space,1.1916,,
,,5a09ebdf087f2e0001eae39f,6685aa9113c938e83b4f1ea0,671c326af490d8aa041eedf3,2024-10-25_20h06.37.837,WTP_SM_Choice,2022.2.1,Win32,59.88023952,,,space,1.6673,space,1.1398,NAN,,NAN,2.31,3.69,,0,75,75,75,1,76,Alex,Acc,Participant_Images/5a09ebdf087f2e0001eae39f/5a09ebdf087f2e0001eae39f_Images/5a09ebdf087f2e0001eae39f_Image_18.jpeg,liked,4.456234322,,,,,,,,,,,,,,,,,,,,,,
,,5a09ebdf087f2e0001eae39f,6685aa9113c938e83b4f1ea0,671c326af490d8aa041eedf3,2024-10-25_20h06.37.837,WTP_SM_Choice,2022.2.1,Win32,59.88023952,,,,,space,1.1181,NAN,,NAN,2.31,3.69,,0,76,76,76,1,77,Alex,Acc,Participant_Images/5a09ebdf087f2e0001eae39f/5a09ebdf087f2e0001eae39f_Images/5a09ebdf087f2e0001eae39f_Image_14.jpeg,did not like,4.438512181,,,,,,,,,,,,,,,,,,,,,,
,,5a09ebdf087f2e0001eae39f,6685aa9113c938e83b4f1ea0,671c326af490d8aa041eedf3,2024-10-25_20h06.37.837,WTP_SM_Choice,2022.2.1,Win32,59.88023952,,,,,space,1.0177,NAN,,NAN,2.31,3.69,,0,77,77,77,1,78,Alex,Acc,Participant_Images/5a09ebdf087f2e0001eae39f/5a09ebdf087f2e0001eae39f_Images/5a09ebdf087f2e0001eae39f_Image_10.jpeg,did not like,2.682944783,,,,,,,,,,,,,,,,,,,,,,
,,5a09ebdf087f2e0001eae39f,6685aa9113c938e83b4f1ea0,671c326af490d8aa041eedf3,2024-10-25_20h06.37.837,WTP_SM_Choice,2022.2.1,Win32,59.88023952,,,,,space,1.1368,NAN,,NAN,2.31,3.69,,0,78,78,78,1,79,Alex,Acc,Participant_Images/5a09ebdf087f2e0001eae39f/5a09ebdf087f2e0001eae39f_Images/5a09ebdf087f2e0001eae39f_Image_23.jpeg,liked,4.51984296,,,,,,,,,,,,,,,,,,,,,,
,,5a09ebdf087f2e0001eae39f,6685aa9113c938e83b4f1ea0,671c326af490d8aa041eedf3,2024-10-25_20h06.37.837,WTP_SM_Choice,2022.2.1,Win32,59.88023952,,,,,,,,,,,,,,,,,,76,,,,,,space,22.0511,space,0.5843,0.01,1,1.3077,0,0,0,0,1,edit pictures on my computer,have dinner parties with my family best friend and her family,0.01,0.01,1.1,1,,,,
,,5a09ebdf087f2e0001eae39f,6685aa9113c938e83b4f1ea0,671c326af490d8aa041eedf3,2024-10-25_20h06.37.837,WTP_SM_Choice,2022.2.1,Win32,59.88023952,,,,,,,,,,,,,,,,,,77,,,,,,,,,,0.01,2,1.2328,0,1,1,1,1,hik in the national parks with my husband and children,draw cartoon figures with colored pencils,0.02,0.01,8.8,0,,,,
,,5a09ebdf087f2e0001eae39f,6685aa9113c938e83b4f1ea0,671c326af490d8aa041eedf3,2024-10-25_20h06.37.837,WTP_SM_Choice,2022.2.1,Win32,59.88023952,,,,,,,,,,,,,,,,,,78,,,,,,,,,,0.01,2,1.818,0,2,2,2,1,thrift in the big city with my husband,pheasant hunt on the prairies,0.03,0.01,1.1,0,,,,
,,5a09ebdf087f2e0001eae39f,6685aa9113c938e83b4f1ea0,671c326af490d8aa041eedf3,2024-10-25_20h06.37.837,WTP_SM_Choice,2022.2.1,Win32,59.88023952,,,,,,,,,,,,,,,,,,79,,,,,,,,,,0.01,2,1.6479,0,3,3,3,1,take photos of nature and animals,talk to other moms and dads while watch my kids play sports,0.04,0.01,1.1,1,,,,
,,5a09ebdf087f2e0001eae39f,6685aa9113c938e83b4f1ea0,671c326af490d8aa041eedf3,2024-10-25_20h06.37.837,WTP_SM_Choice,2022.2.1,Win32,59.88023952,,,,,,,,,,,,,,,,,,80,,,,,,,,,,0.01,2,1.4385,0,4,4,4,1,yard sell with my best friend,pheasant hunt on the prairies,0.05,0.01,4.4,0,,,,
,,5a09ebdf087f2e0001eae39f,6685aa9113c938e83b4f1ea0,671c326af490d8aa041eedf3,2024-10-25_20h06.37.837,WTP_SM_Choice,2022.2.1,Win32,59.88023952,,,,,,,NAN,,NAN,2.36,3.64,,0,79,79,79,1,80,Alex,Acc,Participant_Images/5a09ebdf087f2e0001eae39f/5a09ebdf087f2e0001eae39f_Images/5a09ebdf087f2e0001eae39f_Image_6.jpeg,did not like,3.195382774,,,,,,,,,,,,,,,,,,,,,,
,,5a09ebdf087f2e0001eae39f,6685aa9113c938e83b4f1ea0,671c326af490d8aa041eedf3,2024-10-25_20h06.37.837,WTP_SM_Choice,2022.2.1,Win32,59.88023952,,,,,space,0.4431,NAN,,NAN,2.36,3.64,,0,80,80,80,1,81,Alex,Acc,Participant_Images/5a09ebdf087f2e0001eae39f/5a09ebdf087f2e0001eae39f_Images/5a09ebdf087f2e0001eae39f_Image_8.jpeg,liked,1.779333479,,,,,,,,,,,,,,,,,,,,,,
,,5a09ebdf087f2e0001eae39f,6685aa9113c938e83b4f1ea0,671c326af490d8aa041eedf3,2024-10-25_20h06.37.837,WTP_SM_Choice,2022.2.1,Win32,59.88023952,,,,,space,0.7011,NAN,,NAN,2.36,3.64,,0,81,81,81,1,82,Alex,Acc,Participant_Images/5a09ebdf087f2e0001eae39f/5a09ebdf087f2e0001eae39f_Images/5a09ebdf087f2e0001eae39f_Image_4.jpeg,liked,4.312468682,,,,,,,,,,,,,,,,,,,,,,
,,5a09ebdf087f2e0001eae39f,6685aa9113c938e83b4f1ea0,671c326af490d8aa041eedf3,2024-10-25_20h06.37.837,WTP_SM_Choice,2022.2.1,Win32,59.88023952,,,,,space,0.5952,NAN,,NAN,2.36,3.64,,0,82,82,82,1,83,Alex,Acc,Participant_Images/5a09ebdf087f2e0001eae39f/5a09ebdf087f2e0001eae39f_Images/5a09ebdf087f2e0001eae39f_Image_9.jpeg,did not like,4.940433059,,,,,,,,,,,,,,,,,,,,,,
,,5a09ebdf087f2e0001eae39f,6685aa9113c938e83b4f1ea0,671c326af490d8aa041eedf3,2024-10-25_20h06.37.837,WTP_SM_Choice,2022.2.1,Win32,59.88023952,,,,,space,2.084,NAN,,NAN,2.36,3.64,,0,83,83,83,1,84,Alex,Acc,Participant_Images/5a09ebdf087f2e0001eae39f/5a09ebdf087f2e0001eae39f_Images/5a09ebdf087f2e0001eae39f_Image_20.jpeg,did not like,2.7105123,,,,,,,,,,,,,,,,,,,,,,
,,5a09ebdf087f2e0001eae39f,6685aa9113c938e83b4f1ea0,671c326af490d8aa041eedf3,2024-10-25_20h06.37.837,WTP_SM_Choice,2022.2.1,Win32,59.88023952,,,,,,,,,,,,,,,,,,81,,,,,,space,1.9165,space,0.3356,0.01,1,1.0203,0,0,0,0,1,have photoshoots with different families,pheasant hunt on the prairies,0.01,0.02,3.3,0,,,,
,,5a09ebdf087f2e0001eae39f,6685aa9113c938e83b4f1ea0,671c326af490d8aa041eedf3,2024-10-25_20h06.37.837,WTP_SM_Choice,2022.2.1,Win32,59.88023952,,,,,,,,,,,,,,,,,,82,,,,,,,,,,0.02,2,2.1151,0,1,1,1,1,listen to music while i crochet,talk to other moms and dads while watch my kids play sports,0.02,0.02,4.4,1,,,,
,,5a09ebdf087f2e0001eae39f,6685aa9113c938e83b4f1ea0,671c326af490d8aa041eedf3,2024-10-25_20h06.37.837,WTP_SM_Choice,2022.2.1,Win32,59.88023952,,,,,,,,,,,,,,,,,,83,,,,,,,,,,0.03,1,2.466,0,2,2,2,1,do paint activities with my children,draw cartoon figures with colored pencils,0.03,0.02,1.1,0,,,,
,,5a09ebdf087f2e0001eae39f,6685aa9113c938e83b4f1ea0,671c326af490d8aa041eedf3,2024-10-25_20h06.37.837,WTP_SM_Choice,2022.2.1,Win32,59.88023952,,,,,,,,,,,,,,,,,,84,,,,,,,,,,0.02,2,1.5846,0,3,3,3,1,yard sell with my best friend,bake baked goods,0.04,0.02,3.3,0,,,,
,,5a09ebdf087f2e0001eae39f,6685aa9113c938e83b4f1ea0,671c326af490d8aa041eedf3,2024-10-25_20h06.37.837,WTP_SM_Choice,2022.2.1,Win32,59.88023952,,,,,,,,,,,,,,,,,,85,,,,,,,,,,0.05,1,1.736,0,4,4,4,1,go to indoor museums with my children,go on hikes in the badlands,0.05,0.02,3.3,0,,,,
,,5a09ebdf087f2e0001eae39f,6685aa9113c938e83b4f1ea0,671c326af490d8aa041eedf3,2024-10-25_20h06.37.837,WTP_SM_Choice,2022.2.1,Win32,59.88023952,,,,,,,NAN,,NAN,2.49,3.51,,0,84,84,84,1,85,Alex,Acc,Participant_Images/5a09ebdf087f2e0001eae39f/5a09ebdf087f2e0001eae39f_Images/5a09ebdf087f2e0001eae39f_Image_12.jpeg,did not like,3.602308302,,,,,,,,,,,,,,,,,,,,,,
,,5a09ebdf087f2e0001eae39f,6685aa9113c938e83b4f1ea0,671c326af490d8aa041eedf3,2024-10-25_20h06.37.837,WTP_SM_Choice,2022.2.1,Win32,59.88023952,,,,,space,1.5823,NAN,,NAN,2.49,3.51,,0,85,85,85,1,86,Alex,Acc,Participant_Images/5a09ebdf087f2e0001eae39f/5a09ebdf087f2e0001eae39f_Images/5a09ebdf087f2e0001eae39f_Image_3.jpeg,liked,4.106391878,,,,,,,,,,,,,,,,,,,,,,
,,5a09ebdf087f2e0001eae39f,6685aa9113c938e83b4f1ea0,671c326af490d8aa041eedf3,2024-10-25_20h06.37.837,WTP_SM_Choice,2022.2.1,Win32,59.88023952,,,,,space,0.8004,NAN,,NAN,2.49,3.51,,0,86,86,86,1,87,Alex,Acc,Participant_Images/5a09ebdf087f2e0001eae39f/5a09ebdf087f2e0001eae39f_Images/5a09ebdf087f2e0001eae39f_Image_17.jpeg,liked,3.799433026,,,,,,,,,,,,,,,,,,,,,,
,,5a09ebdf087f2e0001eae39f,6685aa9113c938e83b4f1ea0,671c326af490d8aa041eedf3,2024-10-25_20h06.37.837,WTP_SM_Choice,2022.2.1,Win32,59.88023952,,,,,space,0.7425,NAN,,NAN,2.49,3.51,,0,87,87,87,1,88,Alex,Acc,Participant_Images/5a09ebdf087f2e0001eae39f/5a09ebdf087f2e0001eae39f_Images/5a09ebdf087f2e0001eae39f_Image_1.jpeg,liked,5.246980764,,,,,,,,,,,,,,,,,,,,,,
,,5a09ebdf087f2e0001eae39f,6685aa9113c938e83b4f1ea0,671c326af490d8aa041eedf3,2024-10-25_20h06.37.837,WTP_SM_Choice,2022.2.1,Win32,59.88023952,,,,,space,0.6062,NAN,,NAN,2.49,3.51,,0,88,88,88,1,89,Alex,Acc,Participant_Images/5a09ebdf087f2e0001eae39f/5a09ebdf087f2e0001eae39f_Images/5a09ebdf087f2e0001eae39f_Image_19.jpeg,liked,3.30081769,,,,,,,,,,,,,,,,,,,,,,
,,5a09ebdf087f2e0001eae39f,6685aa9113c938e83b4f1ea0,671c326af490d8aa041eedf3,2024-10-25_20h06.37.837,WTP_SM_Choice,2022.2.1,Win32,59.88023952,,,,,,,,,,,,,,,,,,86,,,,,,space,0.6993,space,0.3335,0.01,1,1.326,0,0,0,0,1,color in adult coloring books,yard sell with my best friend,0.01,0.03,1.1,1,,,,
,,5a09ebdf087f2e0001eae39f,6685aa9113c938e83b4f1ea0,671c326af490d8aa041eedf3,2024-10-25_20h06.37.837,WTP_SM_Choice,2022.2.1,Win32,59.88023952,,,,,,,,,,,,,,,,,,87,,,,,,,,,,0.02,1,1.4682,0,1,1,1,1,go to indoor museums with my children,bake baked goods,0.02,0.03,4.4,0,,,,
,,5a09ebdf087f2e0001eae39f,6685aa9113c938e83b4f1ea0,671c326af490d8aa041eedf3,2024-10-25_20h06.37.837,WTP_SM_Choice,2022.2.1,Win32,59.88023952,,,,,,,,,,,,,,,,,,88,,,,,,,,,,0.03,2,2.1162,0,2,2,2,1,have dinner parties with my family best friend and her family,read my kindle on my porch,0.03,0.03,1.1,0,,,,
,,5a09ebdf087f2e0001eae39f,6685aa9113c938e83b4f1ea0,671c326af490d8aa041eedf3,2024-10-25_20h06.37.837,WTP_SM_Choice,2022.2.1,Win32,59.88023952,,,,,,,,,,,,,,,,,,89,,,,,,,,,,0.03,2,1.3167,0,3,3,3,1,go to indoor museums with my children,color in adult coloring books,0.04,0.03,3.3,0,,,,
,,5a09ebdf087f2e0001eae39f,6685aa9113c938e83b4f1ea0,671c326af490d8aa041eedf3,2024-10-25_20h06.37.837,WTP_SM_Choice,2022.2.1,Win32,59.88023952,,,,,,,,,,,,,,,,,,90,,,,,,,,,,0.05,1,1.1493,0,4,4,4,1,take photos of nature and animals,thrift in the big city with my husband,0.05,0.03,8.8,1,,,,
,,5a09ebdf087f2e0001eae39f,6685aa9113c938e83b4f1ea0,671c326af490d8aa041eedf3,2024-10-25_20h06.37.837,WTP_SM_Choice,2022.2.1,Win32,59.88023952,,,,,,,NAN,,NAN,2.63,3.37,,0,89,89,89,1,90,Alex,Acc,Participant_Images/5a09ebdf087f2e0001eae39f/5a09ebdf087f2e0001eae39f_Images/5a09ebdf087f2e0001eae39f_Image_11.jpeg,did not like,1.661473164,,,,,,,,,,,,,,,,,,,,,,
,,5a09ebdf087f2e0001eae39f,6685aa9113c938e83b4f1ea0,671c326af490d8aa041eedf3,2024-10-25_20h06.37.837,WTP_SM_Choice,2022.2.1,Win32,59.88023952,,,,,space,3.4394,NAN,,NAN,2.63,3.37,,0,90,90,90,1,91,Alex,Acc,Participant_Images/5a09ebdf087f2e0001eae39f/5a09ebdf087f2e0001eae39f_Images/5a09ebdf087f2e0001eae39f_Image_22.jpeg,liked,3.613205605,,,,,,,,,,,,,,,,,,,,,,
,,5a09ebdf087f2e0001eae39f,6685aa9113c938e83b4f1ea0,671c326af490d8aa041eedf3,2024-10-25_20h06.37.837,WTP_SM_Choice,2022.2.1,Win32,59.88023952,,,,,space,2.1539,NAN,,NAN,2.63,3.37,,0,91,91,91,1,92,Alex,Acc,Participant_Images/5a09ebdf087f2e0001eae39f/5a09ebdf087f2e0001eae39f_Images/5a09ebdf087f2e0001eae39f_Image_16.jpeg,liked,4.988446431,,,,,,,,,,,,,,,,,,,,,,
,,5a09ebdf087f2e0001eae39f,6685aa9113c938e83b4f1ea0,671c326af490d8aa041eedf3,2024-10-25_20h06.37.837,WTP_SM_Choice,2022.2.1,Win32,59.88023952,,,,,space,0.9076,NAN,,NAN,2.63,3.37,,0,92,92,92,1,93,Alex,Acc,Participant_Images/5a09ebdf087f2e0001eae39f/5a09ebdf087f2e0001eae39f_Images/5a09ebdf087f2e0001eae39f_Image_24.jpeg,liked,3.470791822,,,,,,,,,,,,,,,,,,,,,,
,,5a09ebdf087f2e0001eae39f,6685aa9113c938e83b4f1ea0,671c326af490d8aa041eedf3,2024-10-25_20h06.37.837,WTP_SM_Choice,2022.2.1,Win32,59.88023952,,,,,space,0.54,NAN,,NAN,2.63,3.37,,0,93,93,93,1,94,Alex,Acc,Participant_Images/5a09ebdf087f2e0001eae39f/5a09ebdf087f2e0001eae39f_Images/5a09ebdf087f2e0001eae39f_Image_7.jpeg,liked,3.820572462,,,,,,,,,,,,,,,,,,,,,,
,,5a09ebdf087f2e0001eae39f,6685aa9113c938e83b4f1ea0,671c326af490d8aa041eedf3,2024-10-25_20h06.37.837,WTP_SM_Choice,2022.2.1,Win32,59.88023952,,,,,,,,,,,,,,,,,,91,,,,,,space,0.6997,space,0.4522,0.04,2,1.4539,0,0,0,0,1,go bird hunt with my husband,edit pictures on my computer,0.01,0.04,3.3,0,,,,
,,5a09ebdf087f2e0001eae39f,6685aa9113c938e83b4f1ea0,671c326af490d8aa041eedf3,2024-10-25_20h06.37.837,WTP_SM_Choice,2022.2.1,Win32,59.88023952,,,,,,,,,,,,,,,,,,92,,,,,,,,,,0.04,2,1.5497,0,1,1,1,1,have dinner parties with my family best friend and her family,take photos of nature and animals,0.02,0.04,8.8,0,,,,
,,5a09ebdf087f2e0001eae39f,6685aa9113c938e83b4f1ea0,671c326af490d8aa041eedf3,2024-10-25_20h06.37.837,WTP_SM_Choice,2022.2.1,Win32,59.88023952,,,,,,,,,,,,,,,,,,93,,,,,,,,,,0.04,2,1.7494,0,2,2,2,1,yard sell with my best friend,listen to music while i crochet,0.03,0.04,1.1,0,,,,
,,5a09ebdf087f2e0001eae39f,6685aa9113c938e83b4f1ea0,671c326af490d8aa041eedf3,2024-10-25_20h06.37.837,WTP_SM_Choice,2022.2.1,Win32,59.88023952,,,,,,,,,,,,,,,,,,94,,,,,,,,,,0.04,1,1.7832,0,3,3,3,1,take photos of nature and animals,spend the day shopping with my best friend ,0.04,0.04,4.4,1,,,,
,,5a09ebdf087f2e0001eae39f,6685aa9113c938e83b4f1ea0,671c326af490d8aa041eedf3,2024-10-25_20h06.37.837,WTP_SM_Choice,2022.2.1,Win32,59.88023952,,,,,,,,,,,,,,,,,,95,,,,,,,,,,0.04,2,1.6838,0,4,4,4,1,have photoshoots with different families,draw cartoon figures with colored pencils,0.05,0.04,4.4,0,,,,
,,5a09ebdf087f2e0001eae39f,6685aa9113c938e83b4f1ea0,671c326af490d8aa041eedf3,2024-10-25_20h06.37.837,WTP_SM_Choice,2022.2.1,Win32,59.88023952,,,,,,,NAN,,NAN,2.83,3.17,,0,94,94,94,1,95,Alex,Acc,Participant_Images/5a09ebdf087f2e0001eae39f/5a09ebdf087f2e0001eae39f_Images/5a09ebdf087f2e0001eae39f_Image_25.jpeg,liked,2.455989137,,,,,,,,,,,,,,,,,,,,,,
,,5a09ebdf087f2e0001eae39f,6685aa9113c938e83b4f1ea0,671c326af490d8aa041eedf3,2024-10-25_20h06.37.837,WTP_SM_Choice,2022.2.1,Win32,59.88023952,,,,,space,1.134,NAN,,NAN,2.83,3.17,,0,95,95,95,1,96,Alex,Acc,Participant_Images/5a09ebdf087f2e0001eae39f/5a09ebdf087f2e0001eae39f_Images/5a09ebdf087f2e0001eae39f_Image_13.jpeg,liked,3.79605092,,,,,,,,,,,,,,,,,,,,,,
,,5a09ebdf087f2e0001eae39f,6685aa9113c938e83b4f1ea0,671c326af490d8aa041eedf3,2024-10-25_20h06.37.837,WTP_SM_Choice,2022.2.1,Win32,59.88023952,,,,,space,0.7783,NAN,,NAN,2.83,3.17,,0,96,96,96,1,97,Alex,Acc,Participant_Images/5a09ebdf087f2e0001eae39f/5a09ebdf087f2e0001eae39f_Images/5a09ebdf087f2e0001eae39f_Image_5.jpeg,liked,3.562416326,,,,,,,,,,,,,,,,,,,,,,
,,5a09ebdf087f2e0001eae39f,6685aa9113c938e83b4f1ea0,671c326af490d8aa041eedf3,2024-10-25_20h06.37.837,WTP_SM_Choice,2022.2.1,Win32,59.88023952,,,,,space,2.918,NAN,,NAN,2.83,3.17,,0,97,97,97,1,98,Alex,Acc,Participant_Images/5a09ebdf087f2e0001eae39f/5a09ebdf087f2e0001eae39f_Images/5a09ebdf087f2e0001eae39f_Image_15.jpeg,liked,2.843822497,,,,,,,,,,,,,,,,,,,,,,
,,5a09ebdf087f2e0001eae39f,6685aa9113c938e83b4f1ea0,671c326af490d8aa041eedf3,2024-10-25_20h06.37.837,WTP_SM_Choice,2022.2.1,Win32,59.88023952,,,,,space,0.7192,NAN,,NAN,2.83,3.17,,0,98,98,98,1,99,Alex,Acc,Participant_Images/5a09ebdf087f2e0001eae39f/5a09ebdf087f2e0001eae39f_Images/5a09ebdf087f2e0001eae39f_Image_2.jpeg,liked,3.546495948,,,,,,,,,,,,,,,,,,,,,,
,,5a09ebdf087f2e0001eae39f,6685aa9113c938e83b4f1ea0,671c326af490d8aa041eedf3,2024-10-25_20h06.37.837,WTP_SM_Choice,2022.2.1,Win32,59.88023952,,,,,,,,,,,,,,,,,,96,,,,,,space,0.6829,space,0.3165,0.01,1,1.0666,0,0,0,0,1,read my kindle on my porch,go bird hunt with my husband,0.01,0.05,3.3,1,,,,
,,5a09ebdf087f2e0001eae39f,6685aa9113c938e83b4f1ea0,671c326af490d8aa041eedf3,2024-10-25_20h06.37.837,WTP_SM_Choice,2022.2.1,Win32,59.88023952,,,,,,,,,,,,,,,,,,97,,,,,,,,,,0.05,2,2.8928,0,1,1,1,1,read my kindle on my porch,go to indoor museums with my children,0.02,0.05,1.1,1,,,,
,,5a09ebdf087f2e0001eae39f,6685aa9113c938e83b4f1ea0,671c326af490d8aa041eedf3,2024-10-25_20h06.37.837,WTP_SM_Choice,2022.2.1,Win32,59.88023952,,,,,,,,,,,,,,,,,,98,,,,,,,,,,0.05,2,1.1498,0,2,2,2,1,spend the day shopping with my best friend ,color in adult coloring books,0.03,0.05,1.1,0,,,,
,,5a09ebdf087f2e0001eae39f,6685aa9113c938e83b4f1ea0,671c326af490d8aa041eedf3,2024-10-25_20h06.37.837,WTP_SM_Choice,2022.2.1,Win32,59.88023952,,,,,,,,,,,,,,,,,,99,,,,,,,,,,0.04,1,1.1461,0,3,3,3,1,have photoshoots with different families,bake baked goods,0.04,0.05,3.3,0,,,,
,,5a09ebdf087f2e0001eae39f,6685aa9113c938e83b4f1ea0,671c326af490d8aa041eedf3,2024-10-25_20h06.37.837,WTP_SM_Choice,2022.2.1,Win32,59.88023952,,,,,,,,,,,,,,,,,,100,,,,,,,,,,0.05,1,2.3418,0,4,4,4,1,take photos of nature and animals,hik in the national parks with my husband and children,0.05,0.05,4.4,1,,,,
,,5a09ebdf087f2e0001eae39f,6685aa9113c938e83b4f1ea0,671c326af490d8aa041eedf3,2024-10-25_20h06.37.837,WTP_SM_Choice,2022.2.1,Win32,59.88023952,,,,,,,4,,4,3.03,2.97,,0,99,99,99,1,100,Alex,Acc,Participant_Images/5a09ebdf087f2e0001eae39f/5a09ebdf087f2e0001eae39f_Images/5a09ebdf087f2e0001eae39f_Image_21.jpeg,liked,1.672012706,,,,,,,,,,,,,,,,,,,space,1.3004,,
,,5a09ebdf087f2e0001eae39f,6685aa9113c938e83b4f1ea0,671c326af490d8aa041eedf3,2024-10-25_20h06.37.837,WTP_SM_Choice,2022.2.1,Win32,59.88023952,,,,,,,,,,,,,,,,,,,,,,,,,,,,,,,,,,,,,,,,,,,,space,4.8995
