endwelcomescreen_keys.keys,endwelcomescreen_keys.rt,participant,date,expName,psychopyVersion,OS,frameRate,endinstructionscreen_keys.keys,endinstructionscreen_keys.rt,endpartnermatch_keys.keys,endpartnermatch_keys.rt,sharenextphoto_key.keys,sharenextphoto_key.rt,salience_rating,key_resp.keys,stress_level,subtract_bonus,TOTAL_TASK_BONUS,stresslevel_keypress.keys,entiretaskloop.thisRepN,entiretaskloop.thisTrialN,entiretaskloop.thisN,entiretaskloop.thisIndex,entiretaskloop.ran,TrialNumber,Partner,Condition,Photos,Feedback,FeedbackWait,WTP_ins_keys1.keys,WTP_ins_keys1.rt,WTP_ins_keys2.keys,WTP_ins_keys2.rt,decision_price,responses.keys,responses.rt,WTPTaskLoop.thisRepN,WTPTaskLoop.thisTrialN,WTPTaskLoop.thisN,WTPTaskLoop.thisIndex,WTPTaskLoop.ran,right,left,leftmoney,rightmoney,WTP_ITI,Resume_keys.keys,Resume_keys.rt
space,449.1408,5c5c451500b69200011bb8bf,2024-04-15_13h39.50.249,WTP_SM_Choice,2022.2.1,Win32,59.88023952,,,,,,,,,,,,,,,,,,,,,,,,,,,,,,,,,,,,,,,,,,
,,5c5c451500b69200011bb8bf,2024-04-15_13h39.50.249,WTP_SM_Choice,2022.2.1,Win32,59.88023952,space,2.9946,,,,,,,,,,,,,,,,,,,,,,,,,,,,,,,,,,,,,,,,
,,5c5c451500b69200011bb8bf,2024-04-15_13h39.50.249,WTP_SM_Choice,2022.2.1,Win32,59.88023952,,,space,3.7687,space,1.868,NAN,,NAN,0,6,,0,0,0,0,1,1,Riley,Acc,Participant_Images/5c5c451500b69200011bb8bf/5c5c451500b69200011bb8bf_Images/5c5c451500b69200011bb8bf_Image_18.jpeg,liked,3.613205605,,,,,,,,,,,,,,,,,,,
,,5c5c451500b69200011bb8bf,2024-04-15_13h39.50.249,WTP_SM_Choice,2022.2.1,Win32,59.88023952,,,,,space,0.6051,NAN,,NAN,0,6,,0,1,1,1,1,2,Riley,Acc,Participant_Images/5c5c451500b69200011bb8bf/5c5c451500b69200011bb8bf_Images/5c5c451500b69200011bb8bf_Image_11.jpeg,liked,4.988446431,,,,,,,,,,,,,,,,,,,
,,5c5c451500b69200011bb8bf,2024-04-15_13h39.50.249,WTP_SM_Choice,2022.2.1,Win32,59.88023952,,,,,space,371.8818,NAN,,NAN,0,6,,0,2,2,2,1,3,Riley,Acc,Participant_Images/5c5c451500b69200011bb8bf/5c5c451500b69200011bb8bf_Images/5c5c451500b69200011bb8bf_Image_16.jpeg,liked,3.470791822,,,,,,,,,,,,,,,,,,,
,,5c5c451500b69200011bb8bf,2024-04-15_13h39.50.249,WTP_SM_Choice,2022.2.1,Win32,59.88023952,,,,,space,1.5882,NAN,,NAN,0,6,,0,3,3,3,1,4,Riley,Acc,Participant_Images/5c5c451500b69200011bb8bf/5c5c451500b69200011bb8bf_Images/5c5c451500b69200011bb8bf_Image_15.jpeg,liked,3.820572462,,,,,,,,,,,,,,,,,,,
,,5c5c451500b69200011bb8bf,2024-04-15_13h39.50.249,WTP_SM_Choice,2022.2.1,Win32,59.88023952,,,,,,,,,,,,,,,,,,1,,,,,,space,880.7987,space,3.4302,0.01,2,2.5429,0,0,0,0,1,Relaxing beside the pool,Going to the museum with my family,0.01,0.01,4.4,,
,,5c5c451500b69200011bb8bf,2024-04-15_13h39.50.249,WTP_SM_Choice,2022.2.1,Win32,59.88023952,,,,,,,,,,,,,,,,,,2,,,,,,,,,,0.02,1,2.2916,0,1,1,1,1,Getting chores done,Going out and try new restaurants with friends.,0.02,0.01,8.8,,
,,5c5c451500b69200011bb8bf,2024-04-15_13h39.50.249,WTP_SM_Choice,2022.2.1,Win32,59.88023952,,,,,,,,,,,,,,,,,,3,,,,,,,,,,0.03,1,2.6215,0,2,2,2,1,Doing the laundry,Going to the pet store with my dog and walk her around the store,0.03,0.01,3.3,,
,,5c5c451500b69200011bb8bf,2024-04-15_13h39.50.249,WTP_SM_Choice,2022.2.1,Win32,59.88023952,,,,,,,,,,,,,,,,,,4,,,,,,,,,,0.01,2,3.0978,0,3,3,3,1,Taking naps in my spare time,Drawing with my younger siblings,0.04,0.01,1.1,,
,,5c5c451500b69200011bb8bf,2024-04-15_13h39.50.249,WTP_SM_Choice,2022.2.1,Win32,59.88023952,,,,,,,,,,,,,,,,,,5,,,,,,,,,,0.01,2,2.2663,0,4,4,4,1,Taking naps in my spare time,Going to the pet store with my dog and walk her around the store,0.05,0.01,1.1,,
,,5c5c451500b69200011bb8bf,2024-04-15_13h39.50.249,WTP_SM_Choice,2022.2.1,Win32,59.88023952,,,,,,,NAN,,NAN,0.08,5.92,,0,4,4,4,1,5,Riley,Acc,Participant_Images/5c5c451500b69200011bb8bf/5c5c451500b69200011bb8bf_Images/5c5c451500b69200011bb8bf_Image_4.jpeg,liked,2.455989137,,,,,,,,,,,,,,,,,,,
,,5c5c451500b69200011bb8bf,2024-04-15_13h39.50.249,WTP_SM_Choice,2022.2.1,Win32,59.88023952,,,,,space,1.601,NAN,,NAN,0.08,5.92,,0,5,5,5,1,6,Riley,Acc,Participant_Images/5c5c451500b69200011bb8bf/5c5c451500b69200011bb8bf_Images/5c5c451500b69200011bb8bf_Image_24.jpeg,liked,3.79605092,,,,,,,,,,,,,,,,,,,
,,5c5c451500b69200011bb8bf,2024-04-15_13h39.50.249,WTP_SM_Choice,2022.2.1,Win32,59.88023952,,,,,space,4.5897,NAN,,NAN,0.08,5.92,,0,6,6,6,1,7,Riley,Acc,Participant_Images/5c5c451500b69200011bb8bf/5c5c451500b69200011bb8bf_Images/5c5c451500b69200011bb8bf_Image_1.jpeg,liked,3.562416326,,,,,,,,,,,,,,,,,,,
,,5c5c451500b69200011bb8bf,2024-04-15_13h39.50.249,WTP_SM_Choice,2022.2.1,Win32,59.88023952,,,,,space,1.3527,NAN,,NAN,0.08,5.92,,0,7,7,7,1,8,Riley,Acc,Participant_Images/5c5c451500b69200011bb8bf/5c5c451500b69200011bb8bf_Images/5c5c451500b69200011bb8bf_Image_17.jpeg,liked,2.843822497,,,,,,,,,,,,,,,,,,,
,,5c5c451500b69200011bb8bf,2024-04-15_13h39.50.249,WTP_SM_Choice,2022.2.1,Win32,59.88023952,,,,,space,1.7833,NAN,,NAN,0.08,5.92,,0,8,8,8,1,9,Riley,Acc,Participant_Images/5c5c451500b69200011bb8bf/5c5c451500b69200011bb8bf_Images/5c5c451500b69200011bb8bf_Image_13.jpeg,liked,3.546495948,,,,,,,,,,,,,,,,,,,
,,5c5c451500b69200011bb8bf,2024-04-15_13h39.50.249,WTP_SM_Choice,2022.2.1,Win32,59.88023952,,,,,,,,,,,,,,,,,,6,,,,,,space,245.9045,space,1.1197,0.01,1,1.0651,0,0,0,0,1,Cooking for myself,Going to the pet store with my dog and walk her around the store,0.01,0.02,3.3,,
,,5c5c451500b69200011bb8bf,2024-04-15_13h39.50.249,WTP_SM_Choice,2022.2.1,Win32,59.88023952,,,,,,,,,,,,,,,,,,7,,,,,,,,,,0.02,2,2.2514,0,1,1,1,1,Going to the local parks for walks,Playing disc golf at the local park with my friends,0.02,0.02,1.1,,
,,5c5c451500b69200011bb8bf,2024-04-15_13h39.50.249,WTP_SM_Choice,2022.2.1,Win32,59.88023952,,,,,,,,,,,,,,,,,,8,,,,,,,,,,0.03,1,2.6309,0,2,2,2,1,Relaxing beside the pool,Watching soccer games at the nearby professional soccer stadium,0.03,0.02,1.1,,
,,5c5c451500b69200011bb8bf,2024-04-15_13h39.50.249,WTP_SM_Choice,2022.2.1,Win32,59.88023952,,,,,,,,,,,,,,,,,,9,,,,,,,,,,0.04,1,3.667,0,3,3,3,1,Going to the local parks for walks,Cooking new meals that my friends haven't tried before,0.04,0.02,4.4,,
,,5c5c451500b69200011bb8bf,2024-04-15_13h39.50.249,WTP_SM_Choice,2022.2.1,Win32,59.88023952,,,,,,,,,,,,,,,,,,10,,,,,,,,,,0.05,1,2.58,0,4,4,4,1,Driving around town when the weather is nice,Going out and try new restaurants with friends.,0.05,0.02,1.1,,
,,5c5c451500b69200011bb8bf,2024-04-15_13h39.50.249,WTP_SM_Choice,2022.2.1,Win32,59.88023952,,,,,,,NAN,,NAN,0.23,5.77,,0,9,9,9,1,10,Riley,Acc,Participant_Images/5c5c451500b69200011bb8bf/5c5c451500b69200011bb8bf_Images/5c5c451500b69200011bb8bf_Image_21.jpeg,liked,1.672012706,,,,,,,,,,,,,,,,,,,
,,5c5c451500b69200011bb8bf,2024-04-15_13h39.50.249,WTP_SM_Choice,2022.2.1,Win32,59.88023952,,,,,space,1.0024,NAN,,NAN,0.23,5.77,,0,10,10,10,1,11,Riley,Acc,Participant_Images/5c5c451500b69200011bb8bf/5c5c451500b69200011bb8bf_Images/5c5c451500b69200011bb8bf_Image_20.jpeg,liked,4.942172136,,,,,,,,,,,,,,,,,,,
,,5c5c451500b69200011bb8bf,2024-04-15_13h39.50.249,WTP_SM_Choice,2022.2.1,Win32,59.88023952,,,,,space,3.9651,NAN,,NAN,0.23,5.77,,0,11,11,11,1,12,Riley,Acc,Participant_Images/5c5c451500b69200011bb8bf/5c5c451500b69200011bb8bf_Images/5c5c451500b69200011bb8bf_Image_7.jpeg,did not like,2.50187214,,,,,,,,,,,,,,,,,,,
,,5c5c451500b69200011bb8bf,2024-04-15_13h39.50.249,WTP_SM_Choice,2022.2.1,Win32,59.88023952,,,,,space,1.0628,NAN,,NAN,0.23,5.77,,0,12,12,12,1,13,Riley,Acc,Participant_Images/5c5c451500b69200011bb8bf/5c5c451500b69200011bb8bf_Images/5c5c451500b69200011bb8bf_Image_5.jpeg,liked,2.071164779,,,,,,,,,,,,,,,,,,,
,,5c5c451500b69200011bb8bf,2024-04-15_13h39.50.249,WTP_SM_Choice,2022.2.1,Win32,59.88023952,,,,,space,1.4092,NAN,,NAN,0.23,5.77,,0,13,13,13,1,14,Riley,Acc,Participant_Images/5c5c451500b69200011bb8bf/5c5c451500b69200011bb8bf_Images/5c5c451500b69200011bb8bf_Image_8.jpeg,liked,5.336503566,,,,,,,,,,,,,,,,,,,
,,5c5c451500b69200011bb8bf,2024-04-15_13h39.50.249,WTP_SM_Choice,2022.2.1,Win32,59.88023952,,,,,,,,,,,,,,,,,,11,,,,,,space,1.3585,space,1.3492,0.01,1,1.3852,0,0,0,0,1,Taking naps in my spare time,Cooking new meals that my friends haven't tried before,0.01,0.03,3.3,,
,,5c5c451500b69200011bb8bf,2024-04-15_13h39.50.249,WTP_SM_Choice,2022.2.1,Win32,59.88023952,,,,,,,,,,,,,,,,,,12,,,,,,,,,,0.03,2,2.1274,0,1,1,1,1,Cooking for myself,Watching soccer games at the nearby professional soccer stadium,0.02,0.03,4.4,,
,,5c5c451500b69200011bb8bf,2024-04-15_13h39.50.249,WTP_SM_Choice,2022.2.1,Win32,59.88023952,,,,,,,,,,,,,,,,,,13,,,,,,,,,,0.03,1,3.7242,0,2,2,2,1,Getting chores done,Drawing with my younger siblings,0.03,0.03,1.1,,
,,5c5c451500b69200011bb8bf,2024-04-15_13h39.50.249,WTP_SM_Choice,2022.2.1,Win32,59.88023952,,,,,,,,,,,,,,,,,,14,,,,,,,,,,0.03,2,2.8651,0,3,3,3,1,Relaxing beside the pool,Going to concerts with other people,0.04,0.03,3.3,,
,,5c5c451500b69200011bb8bf,2024-04-15_13h39.50.249,WTP_SM_Choice,2022.2.1,Win32,59.88023952,,,,,,,,,,,,,,,,,,15,,,,,,,,,,0.05,1,4.7016,0,4,4,4,1,Eating dinner on my own listening to podcasts,Watching soccer games at the nearby professional soccer stadium,0.05,0.03,4.4,,
,,5c5c451500b69200011bb8bf,2024-04-15_13h39.50.249,WTP_SM_Choice,2022.2.1,Win32,59.88023952,,,,,,,NAN,,NAN,0.38,5.62,,0,14,14,14,1,15,Riley,Acc,Participant_Images/5c5c451500b69200011bb8bf/5c5c451500b69200011bb8bf_Images/5c5c451500b69200011bb8bf_Image_14.jpeg,did not like,2.642157193,,,,,,,,,,,,,,,,,,,
,,5c5c451500b69200011bb8bf,2024-04-15_13h39.50.249,WTP_SM_Choice,2022.2.1,Win32,59.88023952,,,,,space,4.6471,NAN,,NAN,0.38,5.62,,0,15,15,15,1,16,Riley,Acc,Participant_Images/5c5c451500b69200011bb8bf/5c5c451500b69200011bb8bf_Images/5c5c451500b69200011bb8bf_Image_12.jpeg,liked,4.456234322,,,,,,,,,,,,,,,,,,,
,,5c5c451500b69200011bb8bf,2024-04-15_13h39.50.249,WTP_SM_Choice,2022.2.1,Win32,59.88023952,,,,,space,9.543,NAN,,NAN,0.38,5.62,,0,16,16,16,1,17,Riley,Acc,Participant_Images/5c5c451500b69200011bb8bf/5c5c451500b69200011bb8bf_Images/5c5c451500b69200011bb8bf_Image_25.jpeg,liked,4.438512181,,,,,,,,,,,,,,,,,,,
,,5c5c451500b69200011bb8bf,2024-04-15_13h39.50.249,WTP_SM_Choice,2022.2.1,Win32,59.88023952,,,,,space,1.1759,NAN,,NAN,0.38,5.62,,0,17,17,17,1,18,Riley,Acc,Participant_Images/5c5c451500b69200011bb8bf/5c5c451500b69200011bb8bf_Images/5c5c451500b69200011bb8bf_Image_3.jpeg,liked,2.682944783,,,,,,,,,,,,,,,,,,,
,,5c5c451500b69200011bb8bf,2024-04-15_13h39.50.249,WTP_SM_Choice,2022.2.1,Win32,59.88023952,,,,,space,6.4148,NAN,,NAN,0.38,5.62,,0,18,18,18,1,19,Riley,Acc,Participant_Images/5c5c451500b69200011bb8bf/5c5c451500b69200011bb8bf_Images/5c5c451500b69200011bb8bf_Image_10.jpeg,did not like,4.51984296,,,,,,,,,,,,,,,,,,,
,,5c5c451500b69200011bb8bf,2024-04-15_13h39.50.249,WTP_SM_Choice,2022.2.1,Win32,59.88023952,,,,,,,,,,,,,,,,,,16,,,,,,space,5.4823,space,2.1697,0.04,2,1.2538,0,0,0,0,1,Eating dinner on my own listening to podcasts,Going to the museum with my family,0.01,0.04,1.1,,
,,5c5c451500b69200011bb8bf,2024-04-15_13h39.50.249,WTP_SM_Choice,2022.2.1,Win32,59.88023952,,,,,,,,,,,,,,,,,,17,,,,,,,,,,0.02,1,9.3598,0,1,1,1,1,Going to the local parks for walks,Going to NFL games with my significant other,0.02,0.04,8.8,,
,,5c5c451500b69200011bb8bf,2024-04-15_13h39.50.249,WTP_SM_Choice,2022.2.1,Win32,59.88023952,,,,,,,,,,,,,,,,,,18,,,,,,,,,,0.03,1,1.4878,0,2,2,2,1,Driving around town when the weather is nice,Cooking new meals that my friends haven't tried before,0.03,0.04,3.3,,
,,5c5c451500b69200011bb8bf,2024-04-15_13h39.50.249,WTP_SM_Choice,2022.2.1,Win32,59.88023952,,,,,,,,,,,,,,,,,,19,,,,,,,,,,0.04,1,2.1369,0,3,3,3,1,Watching movies at the cinema alone,Watching soccer games at the nearby professional soccer stadium,0.04,0.04,3.3,,
,,5c5c451500b69200011bb8bf,2024-04-15_13h39.50.249,WTP_SM_Choice,2022.2.1,Win32,59.88023952,,,,,,,,,,,,,,,,,,20,,,,,,,,,,0.04,2,1.3215,0,4,4,4,1,Taking naps in my spare time,Watching soccer games at the nearby professional soccer stadium,0.05,0.04,1.1,,
,,5c5c451500b69200011bb8bf,2024-04-15_13h39.50.249,WTP_SM_Choice,2022.2.1,Win32,59.88023952,,,,,,,NAN,,NAN,0.55,5.45,,0,19,19,19,1,20,Riley,Acc,Participant_Images/5c5c451500b69200011bb8bf/5c5c451500b69200011bb8bf_Images/5c5c451500b69200011bb8bf_Image_23.jpeg,did not like,3.195382774,,,,,,,,,,,,,,,,,,,
,,5c5c451500b69200011bb8bf,2024-04-15_13h39.50.249,WTP_SM_Choice,2022.2.1,Win32,59.88023952,,,,,space,1.0669,NAN,,NAN,0.55,5.45,,0,20,20,20,1,21,Riley,Acc,Participant_Images/5c5c451500b69200011bb8bf/5c5c451500b69200011bb8bf_Images/5c5c451500b69200011bb8bf_Image_2.jpeg,liked,1.779333479,,,,,,,,,,,,,,,,,,,
,,5c5c451500b69200011bb8bf,2024-04-15_13h39.50.249,WTP_SM_Choice,2022.2.1,Win32,59.88023952,,,,,space,11.1735,NAN,,NAN,0.55,5.45,,0,21,21,21,1,22,Riley,Acc,Participant_Images/5c5c451500b69200011bb8bf/5c5c451500b69200011bb8bf_Images/5c5c451500b69200011bb8bf_Image_22.jpeg,did not like,4.312468682,,,,,,,,,,,,,,,,,,,
,,5c5c451500b69200011bb8bf,2024-04-15_13h39.50.249,WTP_SM_Choice,2022.2.1,Win32,59.88023952,,,,,space,1.0312,NAN,,NAN,0.55,5.45,,0,22,22,22,1,23,Riley,Acc,Participant_Images/5c5c451500b69200011bb8bf/5c5c451500b69200011bb8bf_Images/5c5c451500b69200011bb8bf_Image_19.jpeg,liked,4.940433059,,,,,,,,,,,,,,,,,,,
,,5c5c451500b69200011bb8bf,2024-04-15_13h39.50.249,WTP_SM_Choice,2022.2.1,Win32,59.88023952,,,,,space,4.1058,NAN,,NAN,0.55,5.45,,0,23,23,23,1,24,Riley,Acc,Participant_Images/5c5c451500b69200011bb8bf/5c5c451500b69200011bb8bf_Images/5c5c451500b69200011bb8bf_Image_6.jpeg,did not like,2.7105123,,,,,,,,,,,,,,,,,,,
,,5c5c451500b69200011bb8bf,2024-04-15_13h39.50.249,WTP_SM_Choice,2022.2.1,Win32,59.88023952,,,,,,,,,,,,,,,,,,21,,,,,,space,19.6763,space,0.862,0.01,1,1.7095,0,0,0,0,1,Cooking for myself,Going out and try new restaurants with friends.,0.01,0.05,8.8,,
,,5c5c451500b69200011bb8bf,2024-04-15_13h39.50.249,WTP_SM_Choice,2022.2.1,Win32,59.88023952,,,,,,,,,,,,,,,,,,22,,,,,,,,,,0.05,2,1.849,0,1,1,1,1,Eating dinner on my own listening to podcasts,Drawing with my younger siblings,0.02,0.05,4.4,,
,,5c5c451500b69200011bb8bf,2024-04-15_13h39.50.249,WTP_SM_Choice,2022.2.1,Win32,59.88023952,,,,,,,,,,,,,,,,,,23,,,,,,,,,,0.03,1,1.9721,0,2,2,2,1,Cooking for myself,Going to the lake to relax with my good friends,0.03,0.05,1.1,,
,,5c5c451500b69200011bb8bf,2024-04-15_13h39.50.249,WTP_SM_Choice,2022.2.1,Win32,59.88023952,,,,,,,,,,,,,,,,,,24,,,,,,,,,,0.04,1,2.6228,0,3,3,3,1,Taking naps in my spare time,Going to NFL games with my significant other,0.04,0.05,4.4,,
,,5c5c451500b69200011bb8bf,2024-04-15_13h39.50.249,WTP_SM_Choice,2022.2.1,Win32,59.88023952,,,,,,,,,,,,,,,,,,25,,,,,,,,,,0.05,1,3.591,0,4,4,4,1,Eating dinner on my own listening to podcasts,Playing disc golf at the local park with my friends,0.05,0.05,3.3,,
,,5c5c451500b69200011bb8bf,2024-04-15_13h39.50.249,WTP_SM_Choice,2022.2.1,Win32,59.88023952,,,,,,,4,,3,0.73,5.27,,0,24,24,24,1,25,Riley,Acc,Participant_Images/5c5c451500b69200011bb8bf/5c5c451500b69200011bb8bf_Images/5c5c451500b69200011bb8bf_Image_9.jpeg,did not like,3.602308302,,,,,,,,,,,,,,,,,,space,6.53
,,5c5c451500b69200011bb8bf,2024-04-15_13h39.50.249,WTP_SM_Choice,2022.2.1,Win32,59.88023952,,,space,5.8042,space,1.1324,NAN,,NAN,0.73,5.27,,0,25,25,25,1,26,Charlie,Rej,Participant_Images/5c5c451500b69200011bb8bf/5c5c451500b69200011bb8bf_Images/5c5c451500b69200011bb8bf_Image_20.jpeg,did not like,4.106391878,,,,,,,,,,,,,,,,,,,
,,5c5c451500b69200011bb8bf,2024-04-15_13h39.50.249,WTP_SM_Choice,2022.2.1,Win32,59.88023952,,,,,space,13.8588,NAN,,NAN,0.73,5.27,,0,26,26,26,1,27,Charlie,Rej,Participant_Images/5c5c451500b69200011bb8bf/5c5c451500b69200011bb8bf_Images/5c5c451500b69200011bb8bf_Image_24.jpeg,liked,3.799433026,,,,,,,,,,,,,,,,,,,
,,5c5c451500b69200011bb8bf,2024-04-15_13h39.50.249,WTP_SM_Choice,2022.2.1,Win32,59.88023952,,,,,space,1.6374,NAN,,NAN,0.73,5.27,,0,27,27,27,1,28,Charlie,Rej,Participant_Images/5c5c451500b69200011bb8bf/5c5c451500b69200011bb8bf_Images/5c5c451500b69200011bb8bf_Image_16.jpeg,did not like,5.246980764,,,,,,,,,,,,,,,,,,,
,,5c5c451500b69200011bb8bf,2024-04-15_13h39.50.249,WTP_SM_Choice,2022.2.1,Win32,59.88023952,,,,,space,2.0938,NAN,,NAN,0.73,5.27,,0,28,28,28,1,29,Charlie,Rej,Participant_Images/5c5c451500b69200011bb8bf/5c5c451500b69200011bb8bf_Images/5c5c451500b69200011bb8bf_Image_10.jpeg,did not like,3.30081769,,,,,,,,,,,,,,,,,,,
,,5c5c451500b69200011bb8bf,2024-04-15_13h39.50.249,WTP_SM_Choice,2022.2.1,Win32,59.88023952,,,,,,,,,,,,,,,,,,26,,,,,,space,108.3035,space,0.7828,0.01,1,0.9862,0,0,0,0,1,Eating dinner on my own listening to podcasts,Going to the lake to relax with my good friends,0.01,0.01,4.4,,
,,5c5c451500b69200011bb8bf,2024-04-15_13h39.50.249,WTP_SM_Choice,2022.2.1,Win32,59.88023952,,,,,,,,,,,,,,,,,,27,,,,,,,,,,0.01,2,2.4993,0,1,1,1,1,Taking naps in my spare time,Going to the lake to relax with my good friends,0.02,0.01,3.3,,
,,5c5c451500b69200011bb8bf,2024-04-15_13h39.50.249,WTP_SM_Choice,2022.2.1,Win32,59.88023952,,,,,,,,,,,,,,,,,,28,,,,,,,,,,0.03,1,1.2075,0,2,2,2,1,Getting chores done,Going to the pet store with my dog and walk her around the store,0.03,0.01,3.3,,
,,5c5c451500b69200011bb8bf,2024-04-15_13h39.50.249,WTP_SM_Choice,2022.2.1,Win32,59.88023952,,,,,,,,,,,,,,,,,,29,,,,,,,,,,0.04,1,1.4667,0,3,3,3,1,Cooking for myself,Going to NFL games with my significant other,0.04,0.01,4.4,,
,,5c5c451500b69200011bb8bf,2024-04-15_13h39.50.249,WTP_SM_Choice,2022.2.1,Win32,59.88023952,,,,,,,,,,,,,,,,,,30,,,,,,,,,,0.05,1,2.1773,0,4,4,4,1,Relaxing beside the pool,Cooking new meals that my friends haven't tried before,0.05,0.01,8.8,,
,,5c5c451500b69200011bb8bf,2024-04-15_13h39.50.249,WTP_SM_Choice,2022.2.1,Win32,59.88023952,,,,,,,NAN,,NAN,0.87,5.13,,0,29,29,29,1,30,Charlie,Rej,Participant_Images/5c5c451500b69200011bb8bf/5c5c451500b69200011bb8bf_Images/5c5c451500b69200011bb8bf_Image_5.jpeg,did not like,1.661473164,,,,,,,,,,,,,,,,,,,
,,5c5c451500b69200011bb8bf,2024-04-15_13h39.50.249,WTP_SM_Choice,2022.2.1,Win32,59.88023952,,,,,space,4.7978,NAN,,NAN,0.87,5.13,,0,30,30,30,1,31,Charlie,Rej,Participant_Images/5c5c451500b69200011bb8bf/5c5c451500b69200011bb8bf_Images/5c5c451500b69200011bb8bf_Image_22.jpeg,did not like,3.613205605,,,,,,,,,,,,,,,,,,,
,,5c5c451500b69200011bb8bf,2024-04-15_13h39.50.249,WTP_SM_Choice,2022.2.1,Win32,59.88023952,,,,,space,2.8611,NAN,,NAN,0.87,5.13,,0,31,31,31,1,32,Charlie,Rej,Participant_Images/5c5c451500b69200011bb8bf/5c5c451500b69200011bb8bf_Images/5c5c451500b69200011bb8bf_Image_23.jpeg,liked,4.988446431,,,,,,,,,,,,,,,,,,,
,,5c5c451500b69200011bb8bf,2024-04-15_13h39.50.249,WTP_SM_Choice,2022.2.1,Win32,59.88023952,,,,,space,1.8266,NAN,,NAN,0.87,5.13,,0,32,32,32,1,33,Charlie,Rej,Participant_Images/5c5c451500b69200011bb8bf/5c5c451500b69200011bb8bf_Images/5c5c451500b69200011bb8bf_Image_17.jpeg,did not like,3.470791822,,,,,,,,,,,,,,,,,,,
,,5c5c451500b69200011bb8bf,2024-04-15_13h39.50.249,WTP_SM_Choice,2022.2.1,Win32,59.88023952,,,,,space,5.4243,NAN,,NAN,0.87,5.13,,0,33,33,33,1,34,Charlie,Rej,Participant_Images/5c5c451500b69200011bb8bf/5c5c451500b69200011bb8bf_Images/5c5c451500b69200011bb8bf_Image_21.jpeg,liked,3.820572462,,,,,,,,,,,,,,,,,,,
,,5c5c451500b69200011bb8bf,2024-04-15_13h39.50.249,WTP_SM_Choice,2022.2.1,Win32,59.88023952,,,,,,,,,,,,,,,,,,31,,,,,,space,7.7983,space,0.9816,0.01,1,1.221,0,0,0,0,1,Driving around town when the weather is nice,Going to concerts with other people,0.01,0.02,8.8,,
,,5c5c451500b69200011bb8bf,2024-04-15_13h39.50.249,WTP_SM_Choice,2022.2.1,Win32,59.88023952,,,,,,,,,,,,,,,,,,32,,,,,,,,,,0.02,2,1.7575,0,1,1,1,1,Watching movies at the cinema alone,Going to concerts with other people,0.02,0.02,1.1,,
,,5c5c451500b69200011bb8bf,2024-04-15_13h39.50.249,WTP_SM_Choice,2022.2.1,Win32,59.88023952,,,,,,,,,,,,,,,,,,33,,,,,,,,,,0.02,2,6.2887,0,2,2,2,1,Eating dinner on my own listening to podcasts,Going to NFL games with my significant other,0.03,0.02,4.4,,
,,5c5c451500b69200011bb8bf,2024-04-15_13h39.50.249,WTP_SM_Choice,2022.2.1,Win32,59.88023952,,,,,,,,,,,,,,,,,,34,,,,,,,,,,0.04,1,1.5243,0,3,3,3,1,Practicing music in the house,Drawing with my younger siblings,0.04,0.02,3.3,,
,,5c5c451500b69200011bb8bf,2024-04-15_13h39.50.249,WTP_SM_Choice,2022.2.1,Win32,59.88023952,,,,,,,,,,,,,,,,,,35,,,,,,,,,,0.05,1,2.6543,0,4,4,4,1,Cooking for myself,Going to concerts with other people,0.05,0.02,1.1,,
,,5c5c451500b69200011bb8bf,2024-04-15_13h39.50.249,WTP_SM_Choice,2022.2.1,Win32,59.88023952,,,,,,,NAN,,NAN,1.01,4.99,,0,34,34,34,1,35,Charlie,Rej,Participant_Images/5c5c451500b69200011bb8bf/5c5c451500b69200011bb8bf_Images/5c5c451500b69200011bb8bf_Image_3.jpeg,did not like,2.455989137,,,,,,,,,,,,,,,,,,,
,,5c5c451500b69200011bb8bf,2024-04-15_13h39.50.249,WTP_SM_Choice,2022.2.1,Win32,59.88023952,,,,,space,17.8085,NAN,,NAN,1.01,4.99,,0,35,35,35,1,36,Charlie,Rej,Participant_Images/5c5c451500b69200011bb8bf/5c5c451500b69200011bb8bf_Images/5c5c451500b69200011bb8bf_Image_1.jpeg,did not like,3.79605092,,,,,,,,,,,,,,,,,,,
,,5c5c451500b69200011bb8bf,2024-04-15_13h39.50.249,WTP_SM_Choice,2022.2.1,Win32,59.88023952,,,,,space,1.1576,NAN,,NAN,1.01,4.99,,0,36,36,36,1,37,Charlie,Rej,Participant_Images/5c5c451500b69200011bb8bf/5c5c451500b69200011bb8bf_Images/5c5c451500b69200011bb8bf_Image_25.jpeg,did not like,3.562416326,,,,,,,,,,,,,,,,,,,
,,5c5c451500b69200011bb8bf,2024-04-15_13h39.50.249,WTP_SM_Choice,2022.2.1,Win32,59.88023952,,,,,space,2.1295,NAN,,NAN,1.01,4.99,,0,37,37,37,1,38,Charlie,Rej,Participant_Images/5c5c451500b69200011bb8bf/5c5c451500b69200011bb8bf_Images/5c5c451500b69200011bb8bf_Image_2.jpeg,did not like,2.843822497,,,,,,,,,,,,,,,,,,,
,,5c5c451500b69200011bb8bf,2024-04-15_13h39.50.249,WTP_SM_Choice,2022.2.1,Win32,59.88023952,,,,,space,0.696,NAN,,NAN,1.01,4.99,,0,38,38,38,1,39,Charlie,Rej,Participant_Images/5c5c451500b69200011bb8bf/5c5c451500b69200011bb8bf_Images/5c5c451500b69200011bb8bf_Image_11.jpeg,did not like,3.546495948,,,,,,,,,,,,,,,,,,,
,,5c5c451500b69200011bb8bf,2024-04-15_13h39.50.249,WTP_SM_Choice,2022.2.1,Win32,59.88023952,,,,,,,,,,,,,,,,,,36,,,,,,space,2.3417,space,1.493,0.01,1,0.9827,0,0,0,0,1,Driving around town when the weather is nice,Watching soccer games at the nearby professional soccer stadium,0.01,0.03,3.3,,
,,5c5c451500b69200011bb8bf,2024-04-15_13h39.50.249,WTP_SM_Choice,2022.2.1,Win32,59.88023952,,,,,,,,,,,,,,,,,,37,,,,,,,,,,0.02,1,3.5641,0,1,1,1,1,Relaxing beside the pool,Going to the lake to relax with my good friends,0.02,0.03,1.1,,
,,5c5c451500b69200011bb8bf,2024-04-15_13h39.50.249,WTP_SM_Choice,2022.2.1,Win32,59.88023952,,,,,,,,,,,,,,,,,,38,,,,,,,,,,0.03,2,2.1637,0,2,2,2,1,Cooking for myself,Going to the museum with my family,0.03,0.03,1.1,,
,,5c5c451500b69200011bb8bf,2024-04-15_13h39.50.249,WTP_SM_Choice,2022.2.1,Win32,59.88023952,,,,,,,,,,,,,,,,,,39,,,,,,,,,,0.04,1,0.9986,0,3,3,3,1,Driving around town when the weather is nice,Playing disc golf at the local park with my friends,0.04,0.03,3.3,,
,,5c5c451500b69200011bb8bf,2024-04-15_13h39.50.249,WTP_SM_Choice,2022.2.1,Win32,59.88023952,,,,,,,,,,,,,,,,,,40,,,,,,,,,,0.05,1,1.6222,0,4,4,4,1,Eating dinner on my own listening to podcasts,Going out and try new restaurants with friends.,0.05,0.03,4.4,,
,,5c5c451500b69200011bb8bf,2024-04-15_13h39.50.249,WTP_SM_Choice,2022.2.1,Win32,59.88023952,,,,,,,NAN,,NAN,1.16,4.84,,0,39,39,39,1,40,Charlie,Rej,Participant_Images/5c5c451500b69200011bb8bf/5c5c451500b69200011bb8bf_Images/5c5c451500b69200011bb8bf_Image_12.jpeg,did not like,1.672012706,,,,,,,,,,,,,,,,,,,
,,5c5c451500b69200011bb8bf,2024-04-15_13h39.50.249,WTP_SM_Choice,2022.2.1,Win32,59.88023952,,,,,space,4.3002,NAN,,NAN,1.16,4.84,,0,40,40,40,1,41,Charlie,Rej,Participant_Images/5c5c451500b69200011bb8bf/5c5c451500b69200011bb8bf_Images/5c5c451500b69200011bb8bf_Image_18.jpeg,liked,4.942172136,,,,,,,,,,,,,,,,,,,
,,5c5c451500b69200011bb8bf,2024-04-15_13h39.50.249,WTP_SM_Choice,2022.2.1,Win32,59.88023952,,,,,space,1.2174,NAN,,NAN,1.16,4.84,,0,41,41,41,1,42,Charlie,Rej,Participant_Images/5c5c451500b69200011bb8bf/5c5c451500b69200011bb8bf_Images/5c5c451500b69200011bb8bf_Image_9.jpeg,liked,2.50187214,,,,,,,,,,,,,,,,,,,
,,5c5c451500b69200011bb8bf,2024-04-15_13h39.50.249,WTP_SM_Choice,2022.2.1,Win32,59.88023952,,,,,space,1.5052,NAN,,NAN,1.16,4.84,,0,42,42,42,1,43,Charlie,Rej,Participant_Images/5c5c451500b69200011bb8bf/5c5c451500b69200011bb8bf_Images/5c5c451500b69200011bb8bf_Image_6.jpeg,liked,2.071164779,,,,,,,,,,,,,,,,,,,
,,5c5c451500b69200011bb8bf,2024-04-15_13h39.50.249,WTP_SM_Choice,2022.2.1,Win32,59.88023952,,,,,space,1.019,NAN,,NAN,1.16,4.84,,0,43,43,43,1,44,Charlie,Rej,Participant_Images/5c5c451500b69200011bb8bf/5c5c451500b69200011bb8bf_Images/5c5c451500b69200011bb8bf_Image_7.jpeg,did not like,5.336503566,,,,,,,,,,,,,,,,,,,
,,5c5c451500b69200011bb8bf,2024-04-15_13h39.50.249,WTP_SM_Choice,2022.2.1,Win32,59.88023952,,,,,,,,,,,,,,,,,,41,,,,,,space,1.5259,space,0.6838,0.04,2,1.4525,0,0,0,0,1,Eating dinner on my own listening to podcasts,Going to the pet store with my dog and walk her around the store,0.01,0.04,1.1,,
,,5c5c451500b69200011bb8bf,2024-04-15_13h39.50.249,WTP_SM_Choice,2022.2.1,Win32,59.88023952,,,,,,,,,,,,,,,,,,42,,,,,,,,,,0.02,1,1.4969,0,1,1,1,1,Doing the laundry,Cooking new meals that my friends haven't tried before,0.02,0.04,3.3,,
,,5c5c451500b69200011bb8bf,2024-04-15_13h39.50.249,WTP_SM_Choice,2022.2.1,Win32,59.88023952,,,,,,,,,,,,,,,,,,43,,,,,,,,,,0.03,1,1.6781,0,2,2,2,1,Doing the laundry,Going out and try new restaurants with friends.,0.03,0.04,1.1,,
,,5c5c451500b69200011bb8bf,2024-04-15_13h39.50.249,WTP_SM_Choice,2022.2.1,Win32,59.88023952,,,,,,,,,,,,,,,,,,44,,,,,,,,,,0.04,2,1.5625,0,3,3,3,1,Driving around town when the weather is nice,Drawing with my younger siblings,0.04,0.04,1.1,,
,,5c5c451500b69200011bb8bf,2024-04-15_13h39.50.249,WTP_SM_Choice,2022.2.1,Win32,59.88023952,,,,,,,,,,,,,,,,,,45,,,,,,,,,,0.05,1,1.9928,0,4,4,4,1,Getting chores done,Cooking new meals that my friends haven't tried before,0.05,0.04,4.4,,
,,5c5c451500b69200011bb8bf,2024-04-15_13h39.50.249,WTP_SM_Choice,2022.2.1,Win32,59.88023952,,,,,,,NAN,,NAN,1.34,4.66,,0,44,44,44,1,45,Charlie,Rej,Participant_Images/5c5c451500b69200011bb8bf/5c5c451500b69200011bb8bf_Images/5c5c451500b69200011bb8bf_Image_8.jpeg,did not like,2.642157193,,,,,,,,,,,,,,,,,,,
,,5c5c451500b69200011bb8bf,2024-04-15_13h39.50.249,WTP_SM_Choice,2022.2.1,Win32,59.88023952,,,,,space,2.8221,NAN,,NAN,1.34,4.66,,0,45,45,45,1,46,Charlie,Rej,Participant_Images/5c5c451500b69200011bb8bf/5c5c451500b69200011bb8bf_Images/5c5c451500b69200011bb8bf_Image_19.jpeg,did not like,4.456234322,,,,,,,,,,,,,,,,,,,
,,5c5c451500b69200011bb8bf,2024-04-15_13h39.50.249,WTP_SM_Choice,2022.2.1,Win32,59.88023952,,,,,space,0.4654,NAN,,NAN,1.34,4.66,,0,46,46,46,1,47,Charlie,Rej,Participant_Images/5c5c451500b69200011bb8bf/5c5c451500b69200011bb8bf_Images/5c5c451500b69200011bb8bf_Image_4.jpeg,did not like,4.438512181,,,,,,,,,,,,,,,,,,,
,,5c5c451500b69200011bb8bf,2024-04-15_13h39.50.249,WTP_SM_Choice,2022.2.1,Win32,59.88023952,,,,,space,1.4248,NAN,,NAN,1.34,4.66,,0,47,47,47,1,48,Charlie,Rej,Participant_Images/5c5c451500b69200011bb8bf/5c5c451500b69200011bb8bf_Images/5c5c451500b69200011bb8bf_Image_13.jpeg,liked,2.682944783,,,,,,,,,,,,,,,,,,,
,,5c5c451500b69200011bb8bf,2024-04-15_13h39.50.249,WTP_SM_Choice,2022.2.1,Win32,59.88023952,,,,,space,1.4889,NAN,,NAN,1.34,4.66,,0,48,48,48,1,49,Charlie,Rej,Participant_Images/5c5c451500b69200011bb8bf/5c5c451500b69200011bb8bf_Images/5c5c451500b69200011bb8bf_Image_15.jpeg,did not like,4.51984296,,,,,,,,,,,,,,,,,,,
,,5c5c451500b69200011bb8bf,2024-04-15_13h39.50.249,WTP_SM_Choice,2022.2.1,Win32,59.88023952,,,,,,,,,,,,,,,,,,46,,,,,,space,1.181,space,0.6748,0.05,2,0.9625,0,0,0,0,1,Driving around town when the weather is nice,Going to NFL games with my significant other,0.01,0.05,8.8,,
,,5c5c451500b69200011bb8bf,2024-04-15_13h39.50.249,WTP_SM_Choice,2022.2.1,Win32,59.88023952,,,,,,,,,,,,,,,,,,47,,,,,,,,,,0.02,1,0.504,0,1,1,1,1,Eating dinner on my own listening to podcasts,Going to concerts with other people,0.02,0.05,1.1,,
,,5c5c451500b69200011bb8bf,2024-04-15_13h39.50.249,WTP_SM_Choice,2022.2.1,Win32,59.88023952,,,,,,,,,,,,,,,,,,48,,,,,,,,,,0.05,2,1.0601,0,2,2,2,1,Getting chores done,Playing disc golf at the local park with my friends,0.03,0.05,4.4,,
,,5c5c451500b69200011bb8bf,2024-04-15_13h39.50.249,WTP_SM_Choice,2022.2.1,Win32,59.88023952,,,,,,,,,,,,,,,,,,49,,,,,,,,,,0.04,1,0.6915,0,3,3,3,1,Relaxing beside the pool,Going to NFL games with my significant other,0.04,0.05,3.3,,
,,5c5c451500b69200011bb8bf,2024-04-15_13h39.50.249,WTP_SM_Choice,2022.2.1,Win32,59.88023952,,,,,,,,,,,,,,,,,,50,,,,,,,,,,0.05,2,0.7044,0,4,4,4,1,Taking naps in my spare time,Playing disc golf at the local park with my friends,0.05,0.05,1.1,,
,,5c5c451500b69200011bb8bf,2024-04-15_13h39.50.249,WTP_SM_Choice,2022.2.1,Win32,59.88023952,,,,,,,1,,6,1.55,4.45,,0,49,49,49,1,50,Charlie,Rej,Participant_Images/5c5c451500b69200011bb8bf/5c5c451500b69200011bb8bf_Images/5c5c451500b69200011bb8bf_Image_14.jpeg,did not like,3.195382774,,,,,,,,,,,,,,,,,,space,0.9742
,,5c5c451500b69200011bb8bf,2024-04-15_13h39.50.249,WTP_SM_Choice,2022.2.1,Win32,59.88023952,,,space,1.0474,space,1.0706,NAN,,NAN,1.55,4.45,,0,50,50,50,1,51,Sam,Acc,Participant_Images/5c5c451500b69200011bb8bf/5c5c451500b69200011bb8bf_Images/5c5c451500b69200011bb8bf_Image_23.jpeg,liked,1.779333479,,,,,,,,,,,,,,,,,,,
,,5c5c451500b69200011bb8bf,2024-04-15_13h39.50.249,WTP_SM_Choice,2022.2.1,Win32,59.88023952,,,,,space,2.7861,NAN,,NAN,1.55,4.45,,0,51,51,51,1,52,Sam,Acc,Participant_Images/5c5c451500b69200011bb8bf/5c5c451500b69200011bb8bf_Images/5c5c451500b69200011bb8bf_Image_8.jpeg,liked,4.312468682,,,,,,,,,,,,,,,,,,,
,,5c5c451500b69200011bb8bf,2024-04-15_13h39.50.249,WTP_SM_Choice,2022.2.1,Win32,59.88023952,,,,,space,1.0567,NAN,,NAN,1.55,4.45,,0,52,52,52,1,53,Sam,Acc,Participant_Images/5c5c451500b69200011bb8bf/5c5c451500b69200011bb8bf_Images/5c5c451500b69200011bb8bf_Image_14.jpeg,did not like,4.940433059,,,,,,,,,,,,,,,,,,,
,,5c5c451500b69200011bb8bf,2024-04-15_13h39.50.249,WTP_SM_Choice,2022.2.1,Win32,59.88023952,,,,,space,1.1607,NAN,,NAN,1.55,4.45,,0,53,53,53,1,54,Sam,Acc,Participant_Images/5c5c451500b69200011bb8bf/5c5c451500b69200011bb8bf_Images/5c5c451500b69200011bb8bf_Image_7.jpeg,liked,2.7105123,,,,,,,,,,,,,,,,,,,
,,5c5c451500b69200011bb8bf,2024-04-15_13h39.50.249,WTP_SM_Choice,2022.2.1,Win32,59.88023952,,,,,,,,,,,,,,,,,,51,,,,,,space,1.684,space,1.0585,0.01,1,0.8276,0,0,0,0,1,Practicing music in the house,Watching soccer games at the nearby professional soccer stadium,0.01,0.01,1.1,,
,,5c5c451500b69200011bb8bf,2024-04-15_13h39.50.249,WTP_SM_Choice,2022.2.1,Win32,59.88023952,,,,,,,,,,,,,,,,,,52,,,,,,,,,,0.02,1,2.6649,0,1,1,1,1,Practicing music in the house,Going out and try new restaurants with friends.,0.02,0.01,3.3,,
,,5c5c451500b69200011bb8bf,2024-04-15_13h39.50.249,WTP_SM_Choice,2022.2.1,Win32,59.88023952,,,,,,,,,,,,,,,,,,53,,,,,,,,,,0.03,1,1.0397,0,2,2,2,1,Getting chores done,Going to the lake to relax with my good friends,0.03,0.01,1.1,,
,,5c5c451500b69200011bb8bf,2024-04-15_13h39.50.249,WTP_SM_Choice,2022.2.1,Win32,59.88023952,,,,,,,,,,,,,,,,,,54,,,,,,,,,,0.01,2,0.8674,0,3,3,3,1,Taking naps in my spare time,Going out and try new restaurants with friends.,0.04,0.01,4.4,,
,,5c5c451500b69200011bb8bf,2024-04-15_13h39.50.249,WTP_SM_Choice,2022.2.1,Win32,59.88023952,,,,,,,,,,,,,,,,,,55,,,,,,,,,,0.05,1,1.3583,0,4,4,4,1,Doing the laundry,Going to the museum with my family,0.05,0.01,1.1,,
,,5c5c451500b69200011bb8bf,2024-04-15_13h39.50.249,WTP_SM_Choice,2022.2.1,Win32,59.88023952,,,,,,,NAN,,NAN,1.67,4.33,,0,54,54,54,1,55,Sam,Acc,Participant_Images/5c5c451500b69200011bb8bf/5c5c451500b69200011bb8bf_Images/5c5c451500b69200011bb8bf_Image_20.jpeg,liked,3.602308302,,,,,,,,,,,,,,,,,,,
,,5c5c451500b69200011bb8bf,2024-04-15_13h39.50.249,WTP_SM_Choice,2022.2.1,Win32,59.88023952,,,,,space,209.6564,NAN,,NAN,1.67,4.33,,0,55,55,55,1,56,Sam,Acc,Participant_Images/5c5c451500b69200011bb8bf/5c5c451500b69200011bb8bf_Images/5c5c451500b69200011bb8bf_Image_1.jpeg,liked,4.106391878,,,,,,,,,,,,,,,,,,,
,,5c5c451500b69200011bb8bf,2024-04-15_13h39.50.249,WTP_SM_Choice,2022.2.1,Win32,59.88023952,,,,,space,33.5689,NAN,,NAN,1.67,4.33,,0,56,56,56,1,57,Sam,Acc,Participant_Images/5c5c451500b69200011bb8bf/5c5c451500b69200011bb8bf_Images/5c5c451500b69200011bb8bf_Image_3.jpeg,liked,3.799433026,,,,,,,,,,,,,,,,,,,
,,5c5c451500b69200011bb8bf,2024-04-15_13h39.50.249,WTP_SM_Choice,2022.2.1,Win32,59.88023952,,,,,space,1.4338,NAN,,NAN,1.67,4.33,,0,57,57,57,1,58,Sam,Acc,Participant_Images/5c5c451500b69200011bb8bf/5c5c451500b69200011bb8bf_Images/5c5c451500b69200011bb8bf_Image_10.jpeg,liked,5.246980764,,,,,,,,,,,,,,,,,,,
,,5c5c451500b69200011bb8bf,2024-04-15_13h39.50.249,WTP_SM_Choice,2022.2.1,Win32,59.88023952,,,,,space,0.8739,NAN,,NAN,1.67,4.33,,0,58,58,58,1,59,Sam,Acc,Participant_Images/5c5c451500b69200011bb8bf/5c5c451500b69200011bb8bf_Images/5c5c451500b69200011bb8bf_Image_6.jpeg,did not like,3.30081769,,,,,,,,,,,,,,,,,,,
,,5c5c451500b69200011bb8bf,2024-04-15_13h39.50.249,WTP_SM_Choice,2022.2.1,Win32,59.88023952,,,,,,,,,,,,,,,,,,56,,,,,,space,1.4555,space,1.4173,0.02,2,0.7573,0,0,0,0,1,Relaxing beside the pool,Going to the pet store with my dog and walk her around the store,0.01,0.02,8.8,,
,,5c5c451500b69200011bb8bf,2024-04-15_13h39.50.249,WTP_SM_Choice,2022.2.1,Win32,59.88023952,,,,,,,,,,,,,,,,,,57,,,,,,,,,,0.02,1,0.9168,0,1,1,1,1,Watching movies at the cinema alone,Going to NFL games with my significant other,0.02,0.02,4.4,,
,,5c5c451500b69200011bb8bf,2024-04-15_13h39.50.249,WTP_SM_Choice,2022.2.1,Win32,59.88023952,,,,,,,,,,,,,,,,,,58,,,,,,,,,,0.02,2,0.8878,0,2,2,2,1,Relaxing beside the pool,Going out and try new restaurants with friends.,0.03,0.02,4.4,,
,,5c5c451500b69200011bb8bf,2024-04-15_13h39.50.249,WTP_SM_Choice,2022.2.1,Win32,59.88023952,,,,,,,,,,,,,,,,,,59,,,,,,,,,,0.02,2,1.947,0,3,3,3,1,Driving around town when the weather is nice,Going to the museum with my family,0.04,0.02,4.4,,
,,5c5c451500b69200011bb8bf,2024-04-15_13h39.50.249,WTP_SM_Choice,2022.2.1,Win32,59.88023952,,,,,,,,,,,,,,,,,,60,,,,,,,,,,0.05,1,1.0525,0,4,4,4,1,Doing the laundry,Going to the lake to relax with my good friends,0.05,0.02,1.1,,
,,5c5c451500b69200011bb8bf,2024-04-15_13h39.50.249,WTP_SM_Choice,2022.2.1,Win32,59.88023952,,,,,,,NAN,,NAN,1.8,4.2,,0,59,59,59,1,60,Sam,Acc,Participant_Images/5c5c451500b69200011bb8bf/5c5c451500b69200011bb8bf_Images/5c5c451500b69200011bb8bf_Image_2.jpeg,did not like,1.661473164,,,,,,,,,,,,,,,,,,,
,,5c5c451500b69200011bb8bf,2024-04-15_13h39.50.249,WTP_SM_Choice,2022.2.1,Win32,59.88023952,,,,,space,1.0227,NAN,,NAN,1.8,4.2,,0,60,60,60,1,61,Sam,Acc,Participant_Images/5c5c451500b69200011bb8bf/5c5c451500b69200011bb8bf_Images/5c5c451500b69200011bb8bf_Image_16.jpeg,liked,3.613205605,,,,,,,,,,,,,,,,,,,
,,5c5c451500b69200011bb8bf,2024-04-15_13h39.50.249,WTP_SM_Choice,2022.2.1,Win32,59.88023952,,,,,space,0.6216,NAN,,NAN,1.8,4.2,,0,61,61,61,1,62,Sam,Acc,Participant_Images/5c5c451500b69200011bb8bf/5c5c451500b69200011bb8bf_Images/5c5c451500b69200011bb8bf_Image_11.jpeg,liked,4.988446431,,,,,,,,,,,,,,,,,,,
,,5c5c451500b69200011bb8bf,2024-04-15_13h39.50.249,WTP_SM_Choice,2022.2.1,Win32,59.88023952,,,,,space,3.4673,NAN,,NAN,1.8,4.2,,0,62,62,62,1,63,Sam,Acc,Participant_Images/5c5c451500b69200011bb8bf/5c5c451500b69200011bb8bf_Images/5c5c451500b69200011bb8bf_Image_19.jpeg,liked,3.470791822,,,,,,,,,,,,,,,,,,,
,,5c5c451500b69200011bb8bf,2024-04-15_13h39.50.249,WTP_SM_Choice,2022.2.1,Win32,59.88023952,,,,,space,1.0202,NAN,,NAN,1.8,4.2,,0,63,63,63,1,64,Sam,Acc,Participant_Images/5c5c451500b69200011bb8bf/5c5c451500b69200011bb8bf_Images/5c5c451500b69200011bb8bf_Image_12.jpeg,liked,3.820572462,,,,,,,,,,,,,,,,,,,
,,5c5c451500b69200011bb8bf,2024-04-15_13h39.50.249,WTP_SM_Choice,2022.2.1,Win32,59.88023952,,,,,,,,,,,,,,,,,,61,,,,,,space,30.4316,space,1.01,0.01,1,1.0387,0,0,0,0,1,Practicing music in the house,Cooking new meals that my friends haven't tried before,0.01,0.03,3.3,,
,,5c5c451500b69200011bb8bf,2024-04-15_13h39.50.249,WTP_SM_Choice,2022.2.1,Win32,59.88023952,,,,,,,,,,,,,,,,,,62,,,,,,,,,,0.03,2,1.7306,0,1,1,1,1,Relaxing beside the pool,Drawing with my younger siblings,0.02,0.03,3.3,,
,,5c5c451500b69200011bb8bf,2024-04-15_13h39.50.249,WTP_SM_Choice,2022.2.1,Win32,59.88023952,,,,,,,,,,,,,,,,,,63,,,,,,,,,,0.03,1,1.4276,0,2,2,2,1,Watching movies at the cinema alone,Playing disc golf at the local park with my friends,0.03,0.03,3.3,,
,,5c5c451500b69200011bb8bf,2024-04-15_13h39.50.249,WTP_SM_Choice,2022.2.1,Win32,59.88023952,,,,,,,,,,,,,,,,,,64,,,,,,,,,,0.03,2,0.6971,0,3,3,3,1,Watching movies at the cinema alone,Cooking new meals that my friends haven't tried before,0.04,0.03,1.1,,
,,5c5c451500b69200011bb8bf,2024-04-15_13h39.50.249,WTP_SM_Choice,2022.2.1,Win32,59.88023952,,,,,,,,,,,,,,,,,,65,,,,,,,,,,0.05,1,5.369,0,4,4,4,1,Watching movies at the cinema alone,Going to the museum with my family,0.05,0.03,1.1,,
,,5c5c451500b69200011bb8bf,2024-04-15_13h39.50.249,WTP_SM_Choice,2022.2.1,Win32,59.88023952,,,,,,,NAN,,NAN,1.95,4.05,,0,64,64,64,1,65,Sam,Acc,Participant_Images/5c5c451500b69200011bb8bf/5c5c451500b69200011bb8bf_Images/5c5c451500b69200011bb8bf_Image_17.jpeg,liked,2.455989137,,,,,,,,,,,,,,,,,,,
,,5c5c451500b69200011bb8bf,2024-04-15_13h39.50.249,WTP_SM_Choice,2022.2.1,Win32,59.88023952,,,,,space,2.3202,NAN,,NAN,1.95,4.05,,0,65,65,65,1,66,Sam,Acc,Participant_Images/5c5c451500b69200011bb8bf/5c5c451500b69200011bb8bf_Images/5c5c451500b69200011bb8bf_Image_15.jpeg,liked,3.79605092,,,,,,,,,,,,,,,,,,,
,,5c5c451500b69200011bb8bf,2024-04-15_13h39.50.249,WTP_SM_Choice,2022.2.1,Win32,59.88023952,,,,,space,2.5785,NAN,,NAN,1.95,4.05,,0,66,66,66,1,67,Sam,Acc,Participant_Images/5c5c451500b69200011bb8bf/5c5c451500b69200011bb8bf_Images/5c5c451500b69200011bb8bf_Image_24.jpeg,did not like,3.562416326,,,,,,,,,,,,,,,,,,,
,,5c5c451500b69200011bb8bf,2024-04-15_13h39.50.249,WTP_SM_Choice,2022.2.1,Win32,59.88023952,,,,,space,32.0148,NAN,,NAN,1.95,4.05,,0,67,67,67,1,68,Sam,Acc,Participant_Images/5c5c451500b69200011bb8bf/5c5c451500b69200011bb8bf_Images/5c5c451500b69200011bb8bf_Image_13.jpeg,did not like,2.843822497,,,,,,,,,,,,,,,,,,,
,,5c5c451500b69200011bb8bf,2024-04-15_13h39.50.249,WTP_SM_Choice,2022.2.1,Win32,59.88023952,,,,,space,1.8833,NAN,,NAN,1.95,4.05,,0,68,68,68,1,69,Sam,Acc,Participant_Images/5c5c451500b69200011bb8bf/5c5c451500b69200011bb8bf_Images/5c5c451500b69200011bb8bf_Image_4.jpeg,did not like,3.546495948,,,,,,,,,,,,,,,,,,,
,,5c5c451500b69200011bb8bf,2024-04-15_13h39.50.249,WTP_SM_Choice,2022.2.1,Win32,59.88023952,,,,,,,,,,,,,,,,,,66,,,,,,space,1.9911,space,0.8263,0.04,2,1.1438,0,0,0,0,1,Practicing music in the house,Going to concerts with other people,0.01,0.04,1.1,,
,,5c5c451500b69200011bb8bf,2024-04-15_13h39.50.249,WTP_SM_Choice,2022.2.1,Win32,59.88023952,,,,,,,,,,,,,,,,,,67,,,,,,,,,,0.02,1,0.7548,0,1,1,1,1,Going to the local parks for walks,Going to the museum with my family,0.02,0.04,8.8,,
,,5c5c451500b69200011bb8bf,2024-04-15_13h39.50.249,WTP_SM_Choice,2022.2.1,Win32,59.88023952,,,,,,,,,,,,,,,,,,68,,,,,,,,,,0.03,1,0.7763,0,2,2,2,1,Doing the laundry,Playing disc golf at the local park with my friends,0.03,0.04,4.4,,
,,5c5c451500b69200011bb8bf,2024-04-15_13h39.50.249,WTP_SM_Choice,2022.2.1,Win32,59.88023952,,,,,,,,,,,,,,,,,,69,,,,,,,,,,0.04,1,1.4592,0,3,3,3,1,Going to the local parks for walks,Drawing with my younger siblings,0.04,0.04,1.1,,
,,5c5c451500b69200011bb8bf,2024-04-15_13h39.50.249,WTP_SM_Choice,2022.2.1,Win32,59.88023952,,,,,,,,,,,,,,,,,,70,,,,,,,,,,0.04,2,1.6903,0,4,4,4,1,Cooking for myself,Cooking new meals that my friends haven't tried before,0.05,0.04,1.1,,
,,5c5c451500b69200011bb8bf,2024-04-15_13h39.50.249,WTP_SM_Choice,2022.2.1,Win32,59.88023952,,,,,,,NAN,,NAN,2.12,3.88,,0,69,69,69,1,70,Sam,Acc,Participant_Images/5c5c451500b69200011bb8bf/5c5c451500b69200011bb8bf_Images/5c5c451500b69200011bb8bf_Image_5.jpeg,liked,1.672012706,,,,,,,,,,,,,,,,,,,
,,5c5c451500b69200011bb8bf,2024-04-15_13h39.50.249,WTP_SM_Choice,2022.2.1,Win32,59.88023952,,,,,space,6.2064,NAN,,NAN,2.12,3.88,,0,70,70,70,1,71,Sam,Acc,Participant_Images/5c5c451500b69200011bb8bf/5c5c451500b69200011bb8bf_Images/5c5c451500b69200011bb8bf_Image_22.jpeg,liked,4.942172136,,,,,,,,,,,,,,,,,,,
,,5c5c451500b69200011bb8bf,2024-04-15_13h39.50.249,WTP_SM_Choice,2022.2.1,Win32,59.88023952,,,,,space,1.4486,NAN,,NAN,2.12,3.88,,0,71,71,71,1,72,Sam,Acc,Participant_Images/5c5c451500b69200011bb8bf/5c5c451500b69200011bb8bf_Images/5c5c451500b69200011bb8bf_Image_9.jpeg,liked,2.50187214,,,,,,,,,,,,,,,,,,,
,,5c5c451500b69200011bb8bf,2024-04-15_13h39.50.249,WTP_SM_Choice,2022.2.1,Win32,59.88023952,,,,,space,1.3465,NAN,,NAN,2.12,3.88,,0,72,72,72,1,73,Sam,Acc,Participant_Images/5c5c451500b69200011bb8bf/5c5c451500b69200011bb8bf_Images/5c5c451500b69200011bb8bf_Image_21.jpeg,did not like,2.071164779,,,,,,,,,,,,,,,,,,,
,,5c5c451500b69200011bb8bf,2024-04-15_13h39.50.249,WTP_SM_Choice,2022.2.1,Win32,59.88023952,,,,,space,0.9841,NAN,,NAN,2.12,3.88,,0,73,73,73,1,74,Sam,Acc,Participant_Images/5c5c451500b69200011bb8bf/5c5c451500b69200011bb8bf_Images/5c5c451500b69200011bb8bf_Image_18.jpeg,liked,5.336503566,,,,,,,,,,,,,,,,,,,
,,5c5c451500b69200011bb8bf,2024-04-15_13h39.50.249,WTP_SM_Choice,2022.2.1,Win32,59.88023952,,,,,,,,,,,,,,,,,,71,,,,,,space,0.9975,space,6.174,0.05,2,0.8866,0,0,0,0,1,Watching movies at the cinema alone,Going out and try new restaurants with friends.,0.01,0.05,3.3,,
,,5c5c451500b69200011bb8bf,2024-04-15_13h39.50.249,WTP_SM_Choice,2022.2.1,Win32,59.88023952,,,,,,,,,,,,,,,,,,72,,,,,,,,,,0.02,1,1.8423,0,1,1,1,1,Practicing music in the house,Going to the museum with my family,0.02,0.05,8.8,,
,,5c5c451500b69200011bb8bf,2024-04-15_13h39.50.249,WTP_SM_Choice,2022.2.1,Win32,59.88023952,,,,,,,,,,,,,,,,,,73,,,,,,,,,,0.03,1,1.5596,0,2,2,2,1,Practicing music in the house,Going to the pet store with my dog and walk her around the store,0.03,0.05,3.3,,
,,5c5c451500b69200011bb8bf,2024-04-15_13h39.50.249,WTP_SM_Choice,2022.2.1,Win32,59.88023952,,,,,,,,,,,,,,,,,,74,,,,,,,,,,0.05,2,2.5126,0,3,3,3,1,Doing the laundry,Drawing with my younger siblings,0.04,0.05,4.4,,
,,5c5c451500b69200011bb8bf,2024-04-15_13h39.50.249,WTP_SM_Choice,2022.2.1,Win32,59.88023952,,,,,,,,,,,,,,,,,,75,,,,,,,,,,0.05,1,1.5874,0,4,4,4,1,Driving around town when the weather is nice,Going to the pet store with my dog and walk her around the store,0.05,0.05,3.3,,
,,5c5c451500b69200011bb8bf,2024-04-15_13h39.50.249,WTP_SM_Choice,2022.2.1,Win32,59.88023952,,,,,,,2,,4,2.32,3.68,,0,74,74,74,1,75,Sam,Acc,Participant_Images/5c5c451500b69200011bb8bf/5c5c451500b69200011bb8bf_Images/5c5c451500b69200011bb8bf_Image_25.jpeg,liked,2.642157193,,,,,,,,,,,,,,,,,,space,4.4274
,,5c5c451500b69200011bb8bf,2024-04-15_13h39.50.249,WTP_SM_Choice,2022.2.1,Win32,59.88023952,,,space,1.4086,space,1.4614,NAN,,NAN,2.32,3.68,,0,75,75,75,1,76,Alex,Rej,Participant_Images/5c5c451500b69200011bb8bf/5c5c451500b69200011bb8bf_Images/5c5c451500b69200011bb8bf_Image_15.jpeg,did not like,4.456234322,,,,,,,,,,,,,,,,,,,
,,5c5c451500b69200011bb8bf,2024-04-15_13h39.50.249,WTP_SM_Choice,2022.2.1,Win32,59.88023952,,,,,space,2.2517,NAN,,NAN,2.32,3.68,,0,76,76,76,1,77,Alex,Rej,Participant_Images/5c5c451500b69200011bb8bf/5c5c451500b69200011bb8bf_Images/5c5c451500b69200011bb8bf_Image_21.jpeg,did not like,4.438512181,,,,,,,,,,,,,,,,,,,
,,5c5c451500b69200011bb8bf,2024-04-15_13h39.50.249,WTP_SM_Choice,2022.2.1,Win32,59.88023952,,,,,space,1.1035,NAN,,NAN,2.32,3.68,,0,77,77,77,1,78,Alex,Rej,Participant_Images/5c5c451500b69200011bb8bf/5c5c451500b69200011bb8bf_Images/5c5c451500b69200011bb8bf_Image_23.jpeg,did not like,2.682944783,,,,,,,,,,,,,,,,,,,
,,5c5c451500b69200011bb8bf,2024-04-15_13h39.50.249,WTP_SM_Choice,2022.2.1,Win32,59.88023952,,,,,space,1.4741,NAN,,NAN,2.32,3.68,,0,78,78,78,1,79,Alex,Rej,Participant_Images/5c5c451500b69200011bb8bf/5c5c451500b69200011bb8bf_Images/5c5c451500b69200011bb8bf_Image_19.jpeg,did not like,4.51984296,,,,,,,,,,,,,,,,,,,
,,5c5c451500b69200011bb8bf,2024-04-15_13h39.50.249,WTP_SM_Choice,2022.2.1,Win32,59.88023952,,,,,,,,,,,,,,,,,,76,,,,,,space,1.6689,space,0.8878,0.01,1,1.122,0,0,0,0,1,Eating dinner on my own listening to podcasts,Cooking new meals that my friends haven't tried before,0.01,0.01,1.1,,
,,5c5c451500b69200011bb8bf,2024-04-15_13h39.50.249,WTP_SM_Choice,2022.2.1,Win32,59.88023952,,,,,,,,,,,,,,,,,,77,,,,,,,,,,0.02,1,4.7138,0,1,1,1,1,Taking naps in my spare time,Going to the museum with my family,0.02,0.01,8.8,,
,,5c5c451500b69200011bb8bf,2024-04-15_13h39.50.249,WTP_SM_Choice,2022.2.1,Win32,59.88023952,,,,,,,,,,,,,,,,,,78,,,,,,,,,,0.03,1,2.0444,0,2,2,2,1,Getting chores done,Going to concerts with other people,0.03,0.01,1.1,,
,,5c5c451500b69200011bb8bf,2024-04-15_13h39.50.249,WTP_SM_Choice,2022.2.1,Win32,59.88023952,,,,,,,,,,,,,,,,,,79,,,,,,,,,,0.04,1,4.6,0,3,3,3,1,Going to the local parks for walks,Going to the pet store with my dog and walk her around the store,0.04,0.01,1.1,,
,,5c5c451500b69200011bb8bf,2024-04-15_13h39.50.249,WTP_SM_Choice,2022.2.1,Win32,59.88023952,,,,,,,,,,,,,,,,,,80,,,,,,,,,,0.05,1,2.3072,0,4,4,4,1,Doing the laundry,Going to concerts with other people,0.05,0.01,4.4,,
,,5c5c451500b69200011bb8bf,2024-04-15_13h39.50.249,WTP_SM_Choice,2022.2.1,Win32,59.88023952,,,,,,,NAN,,NAN,2.47,3.53,,0,79,79,79,1,80,Alex,Rej,Participant_Images/5c5c451500b69200011bb8bf/5c5c451500b69200011bb8bf_Images/5c5c451500b69200011bb8bf_Image_20.jpeg,did not like,3.195382774,,,,,,,,,,,,,,,,,,,
,,5c5c451500b69200011bb8bf,2024-04-15_13h39.50.249,WTP_SM_Choice,2022.2.1,Win32,59.88023952,,,,,space,2.4189,NAN,,NAN,2.47,3.53,,0,80,80,80,1,81,Alex,Rej,Participant_Images/5c5c451500b69200011bb8bf/5c5c451500b69200011bb8bf_Images/5c5c451500b69200011bb8bf_Image_13.jpeg,did not like,1.779333479,,,,,,,,,,,,,,,,,,,
,,5c5c451500b69200011bb8bf,2024-04-15_13h39.50.249,WTP_SM_Choice,2022.2.1,Win32,59.88023952,,,,,space,9.7141,NAN,,NAN,2.47,3.53,,0,81,81,81,1,82,Alex,Rej,Participant_Images/5c5c451500b69200011bb8bf/5c5c451500b69200011bb8bf_Images/5c5c451500b69200011bb8bf_Image_17.jpeg,liked,4.312468682,,,,,,,,,,,,,,,,,,,
,,5c5c451500b69200011bb8bf,2024-04-15_13h39.50.249,WTP_SM_Choice,2022.2.1,Win32,59.88023952,,,,,space,0.7738,NAN,,NAN,2.47,3.53,,0,82,82,82,1,83,Alex,Rej,Participant_Images/5c5c451500b69200011bb8bf/5c5c451500b69200011bb8bf_Images/5c5c451500b69200011bb8bf_Image_24.jpeg,liked,4.940433059,,,,,,,,,,,,,,,,,,,
,,5c5c451500b69200011bb8bf,2024-04-15_13h39.50.249,WTP_SM_Choice,2022.2.1,Win32,59.88023952,,,,,space,7.8944,NAN,,NAN,2.47,3.53,,0,83,83,83,1,84,Alex,Rej,Participant_Images/5c5c451500b69200011bb8bf/5c5c451500b69200011bb8bf_Images/5c5c451500b69200011bb8bf_Image_11.jpeg,liked,2.7105123,,,,,,,,,,,,,,,,,,,
,,5c5c451500b69200011bb8bf,2024-04-15_13h39.50.249,WTP_SM_Choice,2022.2.1,Win32,59.88023952,,,,,,,,,,,,,,,,,,81,,,,,,space,12.8318,space,0.7258,0.01,1,0.9611,0,0,0,0,1,Getting chores done,Watching soccer games at the nearby professional soccer stadium,0.01,0.02,3.3,,
,,5c5c451500b69200011bb8bf,2024-04-15_13h39.50.249,WTP_SM_Choice,2022.2.1,Win32,59.88023952,,,,,,,,,,,,,,,,,,82,,,,,,,,,,0.02,1,1.2072,0,1,1,1,1,Practicing music in the house,Going to NFL games with my significant other,0.02,0.02,4.4,,
,,5c5c451500b69200011bb8bf,2024-04-15_13h39.50.249,WTP_SM_Choice,2022.2.1,Win32,59.88023952,,,,,,,,,,,,,,,,,,83,,,,,,,,,,0.02,2,1.5009,0,2,2,2,1,Relaxing beside the pool,Playing disc golf at the local park with my friends,0.03,0.02,1.1,,
,,5c5c451500b69200011bb8bf,2024-04-15_13h39.50.249,WTP_SM_Choice,2022.2.1,Win32,59.88023952,,,,,,,,,,,,,,,,,,84,,,,,,,,,,0.04,1,3.0162,0,3,3,3,1,Cooking for myself,Playing disc golf at the local park with my friends,0.04,0.02,3.3,,
,,5c5c451500b69200011bb8bf,2024-04-15_13h39.50.249,WTP_SM_Choice,2022.2.1,Win32,59.88023952,,,,,,,,,,,,,,,,,,85,,,,,,,,,,0.05,1,2.1681,0,4,4,4,1,Driving around town when the weather is nice,Going to the lake to relax with my good friends,0.05,0.02,3.3,,
,,5c5c451500b69200011bb8bf,2024-04-15_13h39.50.249,WTP_SM_Choice,2022.2.1,Win32,59.88023952,,,,,,,NAN,,NAN,2.61,3.39,,0,84,84,84,1,85,Alex,Rej,Participant_Images/5c5c451500b69200011bb8bf/5c5c451500b69200011bb8bf_Images/5c5c451500b69200011bb8bf_Image_8.jpeg,liked,3.602308302,,,,,,,,,,,,,,,,,,,
,,5c5c451500b69200011bb8bf,2024-04-15_13h39.50.249,WTP_SM_Choice,2022.2.1,Win32,59.88023952,,,,,space,1.2204,NAN,,NAN,2.61,3.39,,0,85,85,85,1,86,Alex,Rej,Participant_Images/5c5c451500b69200011bb8bf/5c5c451500b69200011bb8bf_Images/5c5c451500b69200011bb8bf_Image_12.jpeg,did not like,4.106391878,,,,,,,,,,,,,,,,,,,
,,5c5c451500b69200011bb8bf,2024-04-15_13h39.50.249,WTP_SM_Choice,2022.2.1,Win32,59.88023952,,,,,space,2.2413,NAN,,NAN,2.61,3.39,,0,86,86,86,1,87,Alex,Rej,Participant_Images/5c5c451500b69200011bb8bf/5c5c451500b69200011bb8bf_Images/5c5c451500b69200011bb8bf_Image_6.jpeg,did not like,3.799433026,,,,,,,,,,,,,,,,,,,
,,5c5c451500b69200011bb8bf,2024-04-15_13h39.50.249,WTP_SM_Choice,2022.2.1,Win32,59.88023952,,,,,space,2.6237,NAN,,NAN,2.61,3.39,,0,87,87,87,1,88,Alex,Rej,Participant_Images/5c5c451500b69200011bb8bf/5c5c451500b69200011bb8bf_Images/5c5c451500b69200011bb8bf_Image_22.jpeg,liked,5.246980764,,,,,,,,,,,,,,,,,,,
,,5c5c451500b69200011bb8bf,2024-04-15_13h39.50.249,WTP_SM_Choice,2022.2.1,Win32,59.88023952,,,,,space,4.542,NAN,,NAN,2.61,3.39,,0,88,88,88,1,89,Alex,Rej,Participant_Images/5c5c451500b69200011bb8bf/5c5c451500b69200011bb8bf_Images/5c5c451500b69200011bb8bf_Image_7.jpeg,did not like,3.30081769,,,,,,,,,,,,,,,,,,,
,,5c5c451500b69200011bb8bf,2024-04-15_13h39.50.249,WTP_SM_Choice,2022.2.1,Win32,59.88023952,,,,,,,,,,,,,,,,,,86,,,,,,space,0.9098,space,0.6608,0.01,1,0.9279,0,0,0,0,1,Doing the laundry,Going to NFL games with my significant other,0.01,0.03,1.1,,
,,5c5c451500b69200011bb8bf,2024-04-15_13h39.50.249,WTP_SM_Choice,2022.2.1,Win32,59.88023952,,,,,,,,,,,,,,,,,,87,,,,,,,,,,0.02,1,0.7941,0,1,1,1,1,Doing the laundry,Watching soccer games at the nearby professional soccer stadium,0.02,0.03,4.4,,
,,5c5c451500b69200011bb8bf,2024-04-15_13h39.50.249,WTP_SM_Choice,2022.2.1,Win32,59.88023952,,,,,,,,,,,,,,,,,,88,,,,,,,,,,0.03,2,0.3546,0,2,2,2,1,Practicing music in the house,Going to the lake to relax with my good friends,0.03,0.03,1.1,,
,,5c5c451500b69200011bb8bf,2024-04-15_13h39.50.249,WTP_SM_Choice,2022.2.1,Win32,59.88023952,,,,,,,,,,,,,,,,,,89,,,,,,,,,,0.04,1,0.6643,0,3,3,3,1,Getting chores done,Going to the museum with my family,0.04,0.03,3.3,,
,,5c5c451500b69200011bb8bf,2024-04-15_13h39.50.249,WTP_SM_Choice,2022.2.1,Win32,59.88023952,,,,,,,,,,,,,,,,,,90,,,,,,,,,,0.03,2,0.7935,0,4,4,4,1,Watching movies at the cinema alone,Going to the pet store with my dog and walk her around the store,0.05,0.03,8.8,,
,,5c5c451500b69200011bb8bf,2024-04-15_13h39.50.249,WTP_SM_Choice,2022.2.1,Win32,59.88023952,,,,,,,NAN,,NAN,2.74,3.26,,0,89,89,89,1,90,Alex,Rej,Participant_Images/5c5c451500b69200011bb8bf/5c5c451500b69200011bb8bf_Images/5c5c451500b69200011bb8bf_Image_10.jpeg,did not like,1.661473164,,,,,,,,,,,,,,,,,,,
,,5c5c451500b69200011bb8bf,2024-04-15_13h39.50.249,WTP_SM_Choice,2022.2.1,Win32,59.88023952,,,,,space,1.5598,NAN,,NAN,2.74,3.26,,0,90,90,90,1,91,Alex,Rej,Participant_Images/5c5c451500b69200011bb8bf/5c5c451500b69200011bb8bf_Images/5c5c451500b69200011bb8bf_Image_16.jpeg,did not like,3.613205605,,,,,,,,,,,,,,,,,,,
,,5c5c451500b69200011bb8bf,2024-04-15_13h39.50.249,WTP_SM_Choice,2022.2.1,Win32,59.88023952,,,,,space,1.5777,NAN,,NAN,2.74,3.26,,0,91,91,91,1,92,Alex,Rej,Participant_Images/5c5c451500b69200011bb8bf/5c5c451500b69200011bb8bf_Images/5c5c451500b69200011bb8bf_Image_3.jpeg,did not like,4.988446431,,,,,,,,,,,,,,,,,,,
,,5c5c451500b69200011bb8bf,2024-04-15_13h39.50.249,WTP_SM_Choice,2022.2.1,Win32,59.88023952,,,,,space,2.3264,NAN,,NAN,2.74,3.26,,0,92,92,92,1,93,Alex,Rej,Participant_Images/5c5c451500b69200011bb8bf/5c5c451500b69200011bb8bf_Images/5c5c451500b69200011bb8bf_Image_18.jpeg,did not like,3.470791822,,,,,,,,,,,,,,,,,,,
,,5c5c451500b69200011bb8bf,2024-04-15_13h39.50.249,WTP_SM_Choice,2022.2.1,Win32,59.88023952,,,,,space,0.8712,NAN,,NAN,2.74,3.26,,0,93,93,93,1,94,Alex,Rej,Participant_Images/5c5c451500b69200011bb8bf/5c5c451500b69200011bb8bf_Images/5c5c451500b69200011bb8bf_Image_5.jpeg,did not like,3.820572462,,,,,,,,,,,,,,,,,,,
,,5c5c451500b69200011bb8bf,2024-04-15_13h39.50.249,WTP_SM_Choice,2022.2.1,Win32,59.88023952,,,,,,,,,,,,,,,,,,91,,,,,,space,7.6408,space,0.8586,0.01,1,0.9435,0,0,0,0,1,Taking naps in my spare time,Going to concerts with other people,0.01,0.04,3.3,,
,,5c5c451500b69200011bb8bf,2024-04-15_13h39.50.249,WTP_SM_Choice,2022.2.1,Win32,59.88023952,,,,,,,,,,,,,,,,,,92,,,,,,,,,,0.04,2,1.1424,0,1,1,1,1,Cooking for myself,Drawing with my younger siblings,0.02,0.04,8.8,,
,,5c5c451500b69200011bb8bf,2024-04-15_13h39.50.249,WTP_SM_Choice,2022.2.1,Win32,59.88023952,,,,,,,,,,,,,,,,,,93,,,,,,,,,,0.03,1,0.9054,0,2,2,2,1,Going to the local parks for walks,Going out and try new restaurants with friends.,0.03,0.04,1.1,,
,,5c5c451500b69200011bb8bf,2024-04-15_13h39.50.249,WTP_SM_Choice,2022.2.1,Win32,59.88023952,,,,,,,,,,,,,,,,,,94,,,,,,,,,,0.04,1,2.0529,0,3,3,3,1,Going to the local parks for walks,Going to the lake to relax with my good friends,0.04,0.04,4.4,,
,,5c5c451500b69200011bb8bf,2024-04-15_13h39.50.249,WTP_SM_Choice,2022.2.1,Win32,59.88023952,,,,,,,,,,,,,,,,,,95,,,,,,,,,,0.04,2,1.431,0,4,4,4,1,Watching movies at the cinema alone,Going to the lake to relax with my good friends,0.05,0.04,4.4,,
,,5c5c451500b69200011bb8bf,2024-04-15_13h39.50.249,WTP_SM_Choice,2022.2.1,Win32,59.88023952,,,,,,,NAN,,NAN,2.9,3.1,,0,94,94,94,1,95,Alex,Rej,Participant_Images/5c5c451500b69200011bb8bf/5c5c451500b69200011bb8bf_Images/5c5c451500b69200011bb8bf_Image_4.jpeg,did not like,2.455989137,,,,,,,,,,,,,,,,,,,
,,5c5c451500b69200011bb8bf,2024-04-15_13h39.50.249,WTP_SM_Choice,2022.2.1,Win32,59.88023952,,,,,space,13.9033,NAN,,NAN,2.9,3.1,,0,95,95,95,1,96,Alex,Rej,Participant_Images/5c5c451500b69200011bb8bf/5c5c451500b69200011bb8bf_Images/5c5c451500b69200011bb8bf_Image_1.jpeg,liked,3.79605092,,,,,,,,,,,,,,,,,,,
,,5c5c451500b69200011bb8bf,2024-04-15_13h39.50.249,WTP_SM_Choice,2022.2.1,Win32,59.88023952,,,,,space,2.3594,NAN,,NAN,2.9,3.1,,0,96,96,96,1,97,Alex,Rej,Participant_Images/5c5c451500b69200011bb8bf/5c5c451500b69200011bb8bf_Images/5c5c451500b69200011bb8bf_Image_14.jpeg,did not like,3.562416326,,,,,,,,,,,,,,,,,,,
,,5c5c451500b69200011bb8bf,2024-04-15_13h39.50.249,WTP_SM_Choice,2022.2.1,Win32,59.88023952,,,,,space,2.5338,NAN,,NAN,2.9,3.1,,0,97,97,97,1,98,Alex,Rej,Participant_Images/5c5c451500b69200011bb8bf/5c5c451500b69200011bb8bf_Images/5c5c451500b69200011bb8bf_Image_25.jpeg,liked,2.843822497,,,,,,,,,,,,,,,,,,,
,,5c5c451500b69200011bb8bf,2024-04-15_13h39.50.249,WTP_SM_Choice,2022.2.1,Win32,59.88023952,,,,,space,13.2851,NAN,,NAN,2.9,3.1,,0,98,98,98,1,99,Alex,Rej,Participant_Images/5c5c451500b69200011bb8bf/5c5c451500b69200011bb8bf_Images/5c5c451500b69200011bb8bf_Image_2.jpeg,did not like,3.546495948,,,,,,,,,,,,,,,,,,,
,,5c5c451500b69200011bb8bf,2024-04-15_13h39.50.249,WTP_SM_Choice,2022.2.1,Win32,59.88023952,,,,,,,,,,,,,,,,,,96,,,,,,space,9.0658,space,0.7856,0.05,2,1.0347,0,0,0,0,1,Watching movies at the cinema alone,Drawing with my younger siblings,0.01,0.05,3.3,,
,,5c5c451500b69200011bb8bf,2024-04-15_13h39.50.249,WTP_SM_Choice,2022.2.1,Win32,59.88023952,,,,,,,,,,,,,,,,,,97,,,,,,,,,,0.02,1,1.2306,0,1,1,1,1,Going to the local parks for walks,Watching soccer games at the nearby professional soccer stadium,0.02,0.05,1.1,,
,,5c5c451500b69200011bb8bf,2024-04-15_13h39.50.249,WTP_SM_Choice,2022.2.1,Win32,59.88023952,,,,,,,,,,,,,,,,,,98,,,,,,,,,,0.05,2,0.643,0,2,2,2,1,Practicing music in the house,Playing disc golf at the local park with my friends,0.03,0.05,1.1,,
,,5c5c451500b69200011bb8bf,2024-04-15_13h39.50.249,WTP_SM_Choice,2022.2.1,Win32,59.88023952,,,,,,,,,,,,,,,,,,99,,,,,,,,,,0.04,1,2.435,0,3,3,3,1,Going to the local parks for walks,Going to concerts with other people,0.04,0.05,3.3,,
,,5c5c451500b69200011bb8bf,2024-04-15_13h39.50.249,WTP_SM_Choice,2022.2.1,Win32,59.88023952,,,,,,,,,,,,,,,,,,100,,,,,,,,,,0.05,2,4.1004,0,4,4,4,1,Getting chores done,Going to NFL games with my significant other,0.05,0.05,4.4,,
,,5c5c451500b69200011bb8bf,2024-04-15_13h39.50.249,WTP_SM_Choice,2022.2.1,Win32,59.88023952,,,,,,,2,,4,3.11,2.89,,0,99,99,99,1,100,Alex,Rej,Participant_Images/5c5c451500b69200011bb8bf/5c5c451500b69200011bb8bf_Images/5c5c451500b69200011bb8bf_Image_9.jpeg,did not like,1.672012706,,,,,,,,,,,,,,,,,,space,0.5221
