endwelcomescreen_keys.keys,endwelcomescreen_keys.rt,participant,STUDY_ID,SESSION_ID,date,expName,psychopyVersion,OS,frameRate,endinstructionscreen_keys.keys,endinstructionscreen_keys.rt,endpartnermatch_keys.keys,endpartnermatch_keys.rt,sharenextphoto_key.keys,sharenextphoto_key.rt,salience_rating,key_resp.keys,stress_level,subtract_bonus,TOTAL_TASK_BONUS,stresslevel_keypress.keys,entiretaskloop.thisRepN,entiretaskloop.thisTrialN,entiretaskloop.thisN,entiretaskloop.thisIndex,entiretaskloop.ran,TrialNumber,Partner,Condition,Photos,Feedback,FeedbackWait,WTP_ins_keys1.keys,WTP_ins_keys1.rt,WTP_ins_keys2.keys,WTP_ins_keys2.rt,decision_price,responses.keys,responses.rt,WTPTaskLoop.thisRepN,WTPTaskLoop.thisTrialN,WTPTaskLoop.thisN,WTPTaskLoop.thisIndex,WTPTaskLoop.ran,right,left,leftmoney,rightmoney,WTP_ITI,social_left,Resume_keys.keys,Resume_keys.rt,end_screen_keys.keys,end_screen_keys.rt
space,4.3475,5c9d004ee3b6c40015254526,6685aa9113c938e83b4f1ea0,67093dd0f2b575e8f6e10bf1,2024-10-11_10h02.16.809,WTP_SM_Choice,2022.2.1,MacIntel,64.1025641,,,,,,,,,,,,,,,,,,,,,,,,,,,,,,,,,,,,,,,,,,,,,
,,5c9d004ee3b6c40015254526,6685aa9113c938e83b4f1ea0,67093dd0f2b575e8f6e10bf1,2024-10-11_10h02.16.809,WTP_SM_Choice,2022.2.1,MacIntel,64.1025641,space,13.2795,,,,,,,,,,,,,,,,,,,,,,,,,,,,,,,,,,,,,,,,,,,
,,5c9d004ee3b6c40015254526,6685aa9113c938e83b4f1ea0,67093dd0f2b575e8f6e10bf1,2024-10-11_10h02.16.809,WTP_SM_Choice,2022.2.1,MacIntel,64.1025641,,,space,1.4586,space,1.1162,NAN,,NAN,0,6,,0,0,0,0,1,1,Alex,Rej,Participant_Images/5c9d004ee3b6c40015254526/5c9d004ee3b6c40015254526_Images/5c9d004ee3b6c40015254526_Image_1.jpeg,did not like,3.613205605,,,,,,,,,,,,,,,,,,,,,,
,,5c9d004ee3b6c40015254526,6685aa9113c938e83b4f1ea0,67093dd0f2b575e8f6e10bf1,2024-10-11_10h02.16.809,WTP_SM_Choice,2022.2.1,MacIntel,64.1025641,,,,,space,1.1856,NAN,,NAN,0,6,,0,1,1,1,1,2,Alex,Rej,Participant_Images/5c9d004ee3b6c40015254526/5c9d004ee3b6c40015254526_Images/5c9d004ee3b6c40015254526_Image_19.jpeg,did not like,4.988446431,,,,,,,,,,,,,,,,,,,,,,
,,5c9d004ee3b6c40015254526,6685aa9113c938e83b4f1ea0,67093dd0f2b575e8f6e10bf1,2024-10-11_10h02.16.809,WTP_SM_Choice,2022.2.1,MacIntel,64.1025641,,,,,space,0.718,NAN,,NAN,0,6,,0,2,2,2,1,3,Alex,Rej,Participant_Images/5c9d004ee3b6c40015254526/5c9d004ee3b6c40015254526_Images/5c9d004ee3b6c40015254526_Image_15.jpeg,did not like,3.470791822,,,,,,,,,,,,,,,,,,,,,,
,,5c9d004ee3b6c40015254526,6685aa9113c938e83b4f1ea0,67093dd0f2b575e8f6e10bf1,2024-10-11_10h02.16.809,WTP_SM_Choice,2022.2.1,MacIntel,64.1025641,,,,,space,0.5679,NAN,,NAN,0,6,,0,3,3,3,1,4,Alex,Rej,Participant_Images/5c9d004ee3b6c40015254526/5c9d004ee3b6c40015254526_Images/5c9d004ee3b6c40015254526_Image_4.jpeg,did not like,3.820572462,,,,,,,,,,,,,,,,,,,,,,
,,5c9d004ee3b6c40015254526,6685aa9113c938e83b4f1ea0,67093dd0f2b575e8f6e10bf1,2024-10-11_10h02.16.809,WTP_SM_Choice,2022.2.1,MacIntel,64.1025641,,,,,,,,,,,,,,,,,,1,,,,,,space,16.1631,space,5.8154,0.01,1,3.4384,0,0,0,0,1,Run duos on fortnite with my girlfriend,Learn new techniques for music production,0.01,0.01,4.4,0,,,,
,,5c9d004ee3b6c40015254526,6685aa9113c938e83b4f1ea0,67093dd0f2b575e8f6e10bf1,2024-10-11_10h02.16.809,WTP_SM_Choice,2022.2.1,MacIntel,64.1025641,,,,,,,,,,,,,,,,,,2,,,,,,,,,,0.02,1,3.7043,0,1,1,1,1,Learn new chords on my guitar from my mentor,Make beats in the studio,0.02,0.01,8.8,0,,,,
,,5c9d004ee3b6c40015254526,6685aa9113c938e83b4f1ea0,67093dd0f2b575e8f6e10bf1,2024-10-11_10h02.16.809,WTP_SM_Choice,2022.2.1,MacIntel,64.1025641,,,,,,,,,,,,,,,,,,3,,,,,,,,,,0.01,2,3.5991,0,2,2,2,1,Go to the studio with my rappers,Go to the lake or beach whenever I am out of town,0.03,0.01,3.3,0,,,,
,,5c9d004ee3b6c40015254526,6685aa9113c938e83b4f1ea0,67093dd0f2b575e8f6e10bf1,2024-10-11_10h02.16.809,WTP_SM_Choice,2022.2.1,MacIntel,64.1025641,,,,,,,,,,,,,,,,,,4,,,,,,,,,,0.01,2,3.5351,0,3,3,3,1,Go to the lake or beach whenever I am out of town,Make pasta with my girlfriend,0.04,0.01,1.1,1,,,,
,,5c9d004ee3b6c40015254526,6685aa9113c938e83b4f1ea0,67093dd0f2b575e8f6e10bf1,2024-10-11_10h02.16.809,WTP_SM_Choice,2022.2.1,MacIntel,64.1025641,,,,,,,,,,,,,,,,,,5,,,,,,,,,,0.01,2,3.0835,0,4,4,4,1,Jam out with my brother's band,Watch reality television before bed,0.05,0.01,1.1,0,,,,
,,5c9d004ee3b6c40015254526,6685aa9113c938e83b4f1ea0,67093dd0f2b575e8f6e10bf1,2024-10-11_10h02.16.809,WTP_SM_Choice,2022.2.1,MacIntel,64.1025641,,,,,,,NAN,,NAN,0.06,5.94,,0,4,4,4,1,5,Alex,Rej,Participant_Images/5c9d004ee3b6c40015254526/5c9d004ee3b6c40015254526_Images/5c9d004ee3b6c40015254526_Image_12.jpeg,did not like,2.455989137,,,,,,,,,,,,,,,,,,,,,,
,,5c9d004ee3b6c40015254526,6685aa9113c938e83b4f1ea0,67093dd0f2b575e8f6e10bf1,2024-10-11_10h02.16.809,WTP_SM_Choice,2022.2.1,MacIntel,64.1025641,,,,,space,1.0844,NAN,,NAN,0.06,5.94,,0,5,5,5,1,6,Alex,Rej,Participant_Images/5c9d004ee3b6c40015254526/5c9d004ee3b6c40015254526_Images/5c9d004ee3b6c40015254526_Image_13.jpeg,did not like,3.79605092,,,,,,,,,,,,,,,,,,,,,,
,,5c9d004ee3b6c40015254526,6685aa9113c938e83b4f1ea0,67093dd0f2b575e8f6e10bf1,2024-10-11_10h02.16.809,WTP_SM_Choice,2022.2.1,MacIntel,64.1025641,,,,,space,1.1833,NAN,,NAN,0.06,5.94,,0,6,6,6,1,7,Alex,Rej,Participant_Images/5c9d004ee3b6c40015254526/5c9d004ee3b6c40015254526_Images/5c9d004ee3b6c40015254526_Image_8.jpeg,did not like,3.562416326,,,,,,,,,,,,,,,,,,,,,,
,,5c9d004ee3b6c40015254526,6685aa9113c938e83b4f1ea0,67093dd0f2b575e8f6e10bf1,2024-10-11_10h02.16.809,WTP_SM_Choice,2022.2.1,MacIntel,64.1025641,,,,,space,1.1829,NAN,,NAN,0.06,5.94,,0,7,7,7,1,8,Alex,Rej,Participant_Images/5c9d004ee3b6c40015254526/5c9d004ee3b6c40015254526_Images/5c9d004ee3b6c40015254526_Image_7.jpeg,liked,2.843822497,,,,,,,,,,,,,,,,,,,,,,
,,5c9d004ee3b6c40015254526,6685aa9113c938e83b4f1ea0,67093dd0f2b575e8f6e10bf1,2024-10-11_10h02.16.809,WTP_SM_Choice,2022.2.1,MacIntel,64.1025641,,,,,space,1.2151,NAN,,NAN,0.06,5.94,,0,8,8,8,1,9,Alex,Rej,Participant_Images/5c9d004ee3b6c40015254526/5c9d004ee3b6c40015254526_Images/5c9d004ee3b6c40015254526_Image_9.jpeg,liked,3.546495948,,,,,,,,,,,,,,,,,,,,,,
,,5c9d004ee3b6c40015254526,6685aa9113c938e83b4f1ea0,67093dd0f2b575e8f6e10bf1,2024-10-11_10h02.16.809,WTP_SM_Choice,2022.2.1,MacIntel,64.1025641,,,,,,,,,,,,,,,,,,6,,,,,,space,12.7336,space,6.0335,0.01,1,1.3165,0,0,0,0,1,Study for class with my study group,Go to the gym to work out,0.01,0.02,3.3,0,,,,
,,5c9d004ee3b6c40015254526,6685aa9113c938e83b4f1ea0,67093dd0f2b575e8f6e10bf1,2024-10-11_10h02.16.809,WTP_SM_Choice,2022.2.1,MacIntel,64.1025641,,,,,,,,,,,,,,,,,,7,,,,,,,,,,0.02,2,2.5344,0,1,1,1,1,Go to the studio with my rappers,Go to the gym to work out,0.02,0.02,1.1,0,,,,
,,5c9d004ee3b6c40015254526,6685aa9113c938e83b4f1ea0,67093dd0f2b575e8f6e10bf1,2024-10-11_10h02.16.809,WTP_SM_Choice,2022.2.1,MacIntel,64.1025641,,,,,,,,,,,,,,,,,,8,,,,,,,,,,0.02,2,2.2335,0,2,2,2,1,Watch reality television before bed,Play video games with my friends on a weekend,0.03,0.02,1.1,1,,,,
,,5c9d004ee3b6c40015254526,6685aa9113c938e83b4f1ea0,67093dd0f2b575e8f6e10bf1,2024-10-11_10h02.16.809,WTP_SM_Choice,2022.2.1,MacIntel,64.1025641,,,,,,,,,,,,,,,,,,9,,,,,,,,,,0.02,2,1.7856,0,3,3,3,1,Make pasta with my girlfriend,Play my guitar in my apartment,0.04,0.02,4.4,0,,,,
,,5c9d004ee3b6c40015254526,6685aa9113c938e83b4f1ea0,67093dd0f2b575e8f6e10bf1,2024-10-11_10h02.16.809,WTP_SM_Choice,2022.2.1,MacIntel,64.1025641,,,,,,,,,,,,,,,,,,10,,,,,,,,,,0.02,2,2.081,0,4,4,4,1,Go to the studio with my rappers,Watch reality television before bed,0.05,0.02,1.1,0,,,,
,,5c9d004ee3b6c40015254526,6685aa9113c938e83b4f1ea0,67093dd0f2b575e8f6e10bf1,2024-10-11_10h02.16.809,WTP_SM_Choice,2022.2.1,MacIntel,64.1025641,,,,,,,NAN,,NAN,0.15,5.85,,0,9,9,9,1,10,Alex,Rej,Participant_Images/5c9d004ee3b6c40015254526/5c9d004ee3b6c40015254526_Images/5c9d004ee3b6c40015254526_Image_20.jpeg,did not like,1.672012706,,,,,,,,,,,,,,,,,,,,,,
,,5c9d004ee3b6c40015254526,6685aa9113c938e83b4f1ea0,67093dd0f2b575e8f6e10bf1,2024-10-11_10h02.16.809,WTP_SM_Choice,2022.2.1,MacIntel,64.1025641,,,,,space,2.2993,NAN,,NAN,0.15,5.85,,0,10,10,10,1,11,Alex,Rej,Participant_Images/5c9d004ee3b6c40015254526/5c9d004ee3b6c40015254526_Images/5c9d004ee3b6c40015254526_Image_17.jpeg,did not like,4.942172136,,,,,,,,,,,,,,,,,,,,,,
,,5c9d004ee3b6c40015254526,6685aa9113c938e83b4f1ea0,67093dd0f2b575e8f6e10bf1,2024-10-11_10h02.16.809,WTP_SM_Choice,2022.2.1,MacIntel,64.1025641,,,,,space,0.8184,NAN,,NAN,0.15,5.85,,0,11,11,11,1,12,Alex,Rej,Participant_Images/5c9d004ee3b6c40015254526/5c9d004ee3b6c40015254526_Images/5c9d004ee3b6c40015254526_Image_5.jpeg,did not like,2.50187214,,,,,,,,,,,,,,,,,,,,,,
,,5c9d004ee3b6c40015254526,6685aa9113c938e83b4f1ea0,67093dd0f2b575e8f6e10bf1,2024-10-11_10h02.16.809,WTP_SM_Choice,2022.2.1,MacIntel,64.1025641,,,,,space,0.7832,NAN,,NAN,0.15,5.85,,0,12,12,12,1,13,Alex,Rej,Participant_Images/5c9d004ee3b6c40015254526/5c9d004ee3b6c40015254526_Images/5c9d004ee3b6c40015254526_Image_22.jpeg,liked,2.071164779,,,,,,,,,,,,,,,,,,,,,,
,,5c9d004ee3b6c40015254526,6685aa9113c938e83b4f1ea0,67093dd0f2b575e8f6e10bf1,2024-10-11_10h02.16.809,WTP_SM_Choice,2022.2.1,MacIntel,64.1025641,,,,,space,0.1146,NAN,,NAN,0.15,5.85,,0,13,13,13,1,14,Alex,Rej,Participant_Images/5c9d004ee3b6c40015254526/5c9d004ee3b6c40015254526_Images/5c9d004ee3b6c40015254526_Image_16.jpeg,did not like,5.336503566,,,,,,,,,,,,,,,,,,,,,,
,,5c9d004ee3b6c40015254526,6685aa9113c938e83b4f1ea0,67093dd0f2b575e8f6e10bf1,2024-10-11_10h02.16.809,WTP_SM_Choice,2022.2.1,MacIntel,64.1025641,,,,,,,,,,,,,,,,,,11,,,,,,space,4.2322,space,4.3516,0.01,1,2.1713,0,0,0,0,1,Play video games with my friends on a weekend,Make beats in the studio,0.01,0.03,3.3,0,,,,
,,5c9d004ee3b6c40015254526,6685aa9113c938e83b4f1ea0,67093dd0f2b575e8f6e10bf1,2024-10-11_10h02.16.809,WTP_SM_Choice,2022.2.1,MacIntel,64.1025641,,,,,,,,,,,,,,,,,,12,,,,,,,,,,0.02,1,1.4472,0,1,1,1,1,Go to the studio with my rappers,Make beats in the studio,0.02,0.03,4.4,0,,,,
,,5c9d004ee3b6c40015254526,6685aa9113c938e83b4f1ea0,67093dd0f2b575e8f6e10bf1,2024-10-11_10h02.16.809,WTP_SM_Choice,2022.2.1,MacIntel,64.1025641,,,,,,,,,,,,,,,,,,13,,,,,,,,,,0.03,2,2.3866,0,2,2,2,1,Make pasta with my girlfriend,Produce rap songs in the studio,0.03,0.03,1.1,0,,,,
,,5c9d004ee3b6c40015254526,6685aa9113c938e83b4f1ea0,67093dd0f2b575e8f6e10bf1,2024-10-11_10h02.16.809,WTP_SM_Choice,2022.2.1,MacIntel,64.1025641,,,,,,,,,,,,,,,,,,14,,,,,,,,,,0.03,2,1.7962,0,3,3,3,1,Make pasta with my girlfriend,Make beats in the studio,0.04,0.03,3.3,0,,,,
,,5c9d004ee3b6c40015254526,6685aa9113c938e83b4f1ea0,67093dd0f2b575e8f6e10bf1,2024-10-11_10h02.16.809,WTP_SM_Choice,2022.2.1,MacIntel,64.1025641,,,,,,,,,,,,,,,,,,15,,,,,,,,,,0.03,2,2.1852,0,4,4,4,1,Listen to music that my friends made,Study for class with my study group,0.05,0.03,4.4,1,,,,
,,5c9d004ee3b6c40015254526,6685aa9113c938e83b4f1ea0,67093dd0f2b575e8f6e10bf1,2024-10-11_10h02.16.809,WTP_SM_Choice,2022.2.1,MacIntel,64.1025641,,,,,,,NAN,,NAN,0.27,5.73,,0,14,14,14,1,15,Alex,Rej,Participant_Images/5c9d004ee3b6c40015254526/5c9d004ee3b6c40015254526_Images/5c9d004ee3b6c40015254526_Image_14.jpeg,did not like,2.642157193,,,,,,,,,,,,,,,,,,,,,,
,,5c9d004ee3b6c40015254526,6685aa9113c938e83b4f1ea0,67093dd0f2b575e8f6e10bf1,2024-10-11_10h02.16.809,WTP_SM_Choice,2022.2.1,MacIntel,64.1025641,,,,,space,1.1981,NAN,,NAN,0.27,5.73,,0,15,15,15,1,16,Alex,Rej,Participant_Images/5c9d004ee3b6c40015254526/5c9d004ee3b6c40015254526_Images/5c9d004ee3b6c40015254526_Image_23.jpeg,liked,4.456234322,,,,,,,,,,,,,,,,,,,,,,
,,5c9d004ee3b6c40015254526,6685aa9113c938e83b4f1ea0,67093dd0f2b575e8f6e10bf1,2024-10-11_10h02.16.809,WTP_SM_Choice,2022.2.1,MacIntel,64.1025641,,,,,space,1.8807,NAN,,NAN,0.27,5.73,,0,16,16,16,1,17,Alex,Rej,Participant_Images/5c9d004ee3b6c40015254526/5c9d004ee3b6c40015254526_Images/5c9d004ee3b6c40015254526_Image_3.jpeg,liked,4.438512181,,,,,,,,,,,,,,,,,,,,,,
,,5c9d004ee3b6c40015254526,6685aa9113c938e83b4f1ea0,67093dd0f2b575e8f6e10bf1,2024-10-11_10h02.16.809,WTP_SM_Choice,2022.2.1,MacIntel,64.1025641,,,,,space,0.9509,NAN,,NAN,0.27,5.73,,0,17,17,17,1,18,Alex,Rej,Participant_Images/5c9d004ee3b6c40015254526/5c9d004ee3b6c40015254526_Images/5c9d004ee3b6c40015254526_Image_25.jpeg,did not like,2.682944783,,,,,,,,,,,,,,,,,,,,,,
,,5c9d004ee3b6c40015254526,6685aa9113c938e83b4f1ea0,67093dd0f2b575e8f6e10bf1,2024-10-11_10h02.16.809,WTP_SM_Choice,2022.2.1,MacIntel,64.1025641,,,,,space,0.0999,NAN,,NAN,0.27,5.73,,0,18,18,18,1,19,Alex,Rej,Participant_Images/5c9d004ee3b6c40015254526/5c9d004ee3b6c40015254526_Images/5c9d004ee3b6c40015254526_Image_21.jpeg,did not like,4.51984296,,,,,,,,,,,,,,,,,,,,,,
,,5c9d004ee3b6c40015254526,6685aa9113c938e83b4f1ea0,67093dd0f2b575e8f6e10bf1,2024-10-11_10h02.16.809,WTP_SM_Choice,2022.2.1,MacIntel,64.1025641,,,,,,,,,,,,,,,,,,16,,,,,,space,4.781,space,2.3016,0.01,1,2.0831,0,0,0,0,1,Go to the studio with my rappers,Produce rap songs in the studio,0.01,0.04,1.1,0,,,,
,,5c9d004ee3b6c40015254526,6685aa9113c938e83b4f1ea0,67093dd0f2b575e8f6e10bf1,2024-10-11_10h02.16.809,WTP_SM_Choice,2022.2.1,MacIntel,64.1025641,,,,,,,,,,,,,,,,,,17,,,,,,,,,,0.02,1,2.4815,0,1,1,1,1,Go to the gym to work out,Show off new clothes to my friends,0.02,0.04,8.8,1,,,,
,,5c9d004ee3b6c40015254526,6685aa9113c938e83b4f1ea0,67093dd0f2b575e8f6e10bf1,2024-10-11_10h02.16.809,WTP_SM_Choice,2022.2.1,MacIntel,64.1025641,,,,,,,,,,,,,,,,,,18,,,,,,,,,,0.03,1,2.2342,0,2,2,2,1,read about niche historical battles,Go to the studio with my rappers,0.03,0.04,3.3,1,,,,
,,5c9d004ee3b6c40015254526,6685aa9113c938e83b4f1ea0,67093dd0f2b575e8f6e10bf1,2024-10-11_10h02.16.809,WTP_SM_Choice,2022.2.1,MacIntel,64.1025641,,,,,,,,,,,,,,,,,,19,,,,,,,,,,0.04,2,4.1364,0,3,3,3,1,Run duos on fortnite with my girlfriend,Go to the lake or beach whenever I am out of town,0.04,0.04,3.3,0,,,,
,,5c9d004ee3b6c40015254526,6685aa9113c938e83b4f1ea0,67093dd0f2b575e8f6e10bf1,2024-10-11_10h02.16.809,WTP_SM_Choice,2022.2.1,MacIntel,64.1025641,,,,,,,,,,,,,,,,,,20,,,,,,,,,,0.04,2,2.5673,0,4,4,4,1,Learn new chords on my guitar from my mentor,Go to the lake or beach whenever I am out of town,0.05,0.04,1.1,0,,,,
,,5c9d004ee3b6c40015254526,6685aa9113c938e83b4f1ea0,67093dd0f2b575e8f6e10bf1,2024-10-11_10h02.16.809,WTP_SM_Choice,2022.2.1,MacIntel,64.1025641,,,,,,,NAN,,NAN,0.41,5.59,,0,19,19,19,1,20,Alex,Rej,Participant_Images/5c9d004ee3b6c40015254526/5c9d004ee3b6c40015254526_Images/5c9d004ee3b6c40015254526_Image_18.jpeg,liked,3.195382774,,,,,,,,,,,,,,,,,,,,,,
,,5c9d004ee3b6c40015254526,6685aa9113c938e83b4f1ea0,67093dd0f2b575e8f6e10bf1,2024-10-11_10h02.16.809,WTP_SM_Choice,2022.2.1,MacIntel,64.1025641,,,,,space,0.5506,NAN,,NAN,0.41,5.59,,0,20,20,20,1,21,Alex,Rej,Participant_Images/5c9d004ee3b6c40015254526/5c9d004ee3b6c40015254526_Images/5c9d004ee3b6c40015254526_Image_11.jpeg,did not like,1.779333479,,,,,,,,,,,,,,,,,,,,,,
,,5c9d004ee3b6c40015254526,6685aa9113c938e83b4f1ea0,67093dd0f2b575e8f6e10bf1,2024-10-11_10h02.16.809,WTP_SM_Choice,2022.2.1,MacIntel,64.1025641,,,,,space,0.1509,NAN,,NAN,0.41,5.59,,0,21,21,21,1,22,Alex,Rej,Participant_Images/5c9d004ee3b6c40015254526/5c9d004ee3b6c40015254526_Images/5c9d004ee3b6c40015254526_Image_10.jpeg,did not like,4.312468682,,,,,,,,,,,,,,,,,,,,,,
,,5c9d004ee3b6c40015254526,6685aa9113c938e83b4f1ea0,67093dd0f2b575e8f6e10bf1,2024-10-11_10h02.16.809,WTP_SM_Choice,2022.2.1,MacIntel,64.1025641,,,,,space,0.4669,NAN,,NAN,0.41,5.59,,0,22,22,22,1,23,Alex,Rej,Participant_Images/5c9d004ee3b6c40015254526/5c9d004ee3b6c40015254526_Images/5c9d004ee3b6c40015254526_Image_2.jpeg,did not like,4.940433059,,,,,,,,,,,,,,,,,,,,,,
,,5c9d004ee3b6c40015254526,6685aa9113c938e83b4f1ea0,67093dd0f2b575e8f6e10bf1,2024-10-11_10h02.16.809,WTP_SM_Choice,2022.2.1,MacIntel,64.1025641,,,,,space,1.4644,NAN,,NAN,0.41,5.59,,0,23,23,23,1,24,Alex,Rej,Participant_Images/5c9d004ee3b6c40015254526/5c9d004ee3b6c40015254526_Images/5c9d004ee3b6c40015254526_Image_6.jpeg,did not like,2.7105123,,,,,,,,,,,,,,,,,,,,,,
,,5c9d004ee3b6c40015254526,6685aa9113c938e83b4f1ea0,67093dd0f2b575e8f6e10bf1,2024-10-11_10h02.16.809,WTP_SM_Choice,2022.2.1,MacIntel,64.1025641,,,,,,,,,,,,,,,,,,21,,,,,,space,7.1501,space,1.517,0.01,1,2.3355,0,0,0,0,1,Shop for new clothes with my girlfriend,Produce rap songs in the studio,0.01,0.05,8.8,0,,,,
,,5c9d004ee3b6c40015254526,6685aa9113c938e83b4f1ea0,67093dd0f2b575e8f6e10bf1,2024-10-11_10h02.16.809,WTP_SM_Choice,2022.2.1,MacIntel,64.1025641,,,,,,,,,,,,,,,,,,22,,,,,,,,,,0.02,1,1.614,0,1,1,1,1,read about niche historical battles,Shop for new clothes with my girlfriend,0.02,0.05,4.4,1,,,,
,,5c9d004ee3b6c40015254526,6685aa9113c938e83b4f1ea0,67093dd0f2b575e8f6e10bf1,2024-10-11_10h02.16.809,WTP_SM_Choice,2022.2.1,MacIntel,64.1025641,,,,,,,,,,,,,,,,,,23,,,,,,,,,,0.03,1,3.2333,0,2,2,2,1,read about niche historical battles,Play video games with my friends on a weekend,0.03,0.05,1.1,1,,,,
,,5c9d004ee3b6c40015254526,6685aa9113c938e83b4f1ea0,67093dd0f2b575e8f6e10bf1,2024-10-11_10h02.16.809,WTP_SM_Choice,2022.2.1,MacIntel,64.1025641,,,,,,,,,,,,,,,,,,24,,,,,,,,,,0.05,2,2.5518,0,3,3,3,1,Go to the lake or beach whenever I am out of town,Show off new clothes to my friends,0.04,0.05,4.4,1,,,,
,,5c9d004ee3b6c40015254526,6685aa9113c938e83b4f1ea0,67093dd0f2b575e8f6e10bf1,2024-10-11_10h02.16.809,WTP_SM_Choice,2022.2.1,MacIntel,64.1025641,,,,,,,,,,,,,,,,,,25,,,,,,,,,,0.05,1,4.9151,0,4,4,4,1,Lay in bed late in the morning during the weekend,Go to the studio with my rappers,0.05,0.05,3.3,1,,,,
,,5c9d004ee3b6c40015254526,6685aa9113c938e83b4f1ea0,67093dd0f2b575e8f6e10bf1,2024-10-11_10h02.16.809,WTP_SM_Choice,2022.2.1,MacIntel,64.1025641,,,,,,,2,,3,0.57,5.43,,0,24,24,24,1,25,Alex,Rej,Participant_Images/5c9d004ee3b6c40015254526/5c9d004ee3b6c40015254526_Images/5c9d004ee3b6c40015254526_Image_24.jpeg,liked,3.602308302,,,,,,,,,,,,,,,,,,,space,3.9615,,
,,5c9d004ee3b6c40015254526,6685aa9113c938e83b4f1ea0,67093dd0f2b575e8f6e10bf1,2024-10-11_10h02.16.809,WTP_SM_Choice,2022.2.1,MacIntel,64.1025641,,,space,1.402,space,3.7685,NAN,,NAN,0.57,5.43,,0,25,25,25,1,26,Riley,Acc,Participant_Images/5c9d004ee3b6c40015254526/5c9d004ee3b6c40015254526_Images/5c9d004ee3b6c40015254526_Image_10.jpeg,liked,4.106391878,,,,,,,,,,,,,,,,,,,,,,
,,5c9d004ee3b6c40015254526,6685aa9113c938e83b4f1ea0,67093dd0f2b575e8f6e10bf1,2024-10-11_10h02.16.809,WTP_SM_Choice,2022.2.1,MacIntel,64.1025641,,,,,space,1.4002,NAN,,NAN,0.57,5.43,,0,26,26,26,1,27,Riley,Acc,Participant_Images/5c9d004ee3b6c40015254526/5c9d004ee3b6c40015254526_Images/5c9d004ee3b6c40015254526_Image_1.jpeg,liked,3.799433026,,,,,,,,,,,,,,,,,,,,,,
,,5c9d004ee3b6c40015254526,6685aa9113c938e83b4f1ea0,67093dd0f2b575e8f6e10bf1,2024-10-11_10h02.16.809,WTP_SM_Choice,2022.2.1,MacIntel,64.1025641,,,,,space,4.1657,NAN,,NAN,0.57,5.43,,0,27,27,27,1,28,Riley,Acc,Participant_Images/5c9d004ee3b6c40015254526/5c9d004ee3b6c40015254526_Images/5c9d004ee3b6c40015254526_Image_8.jpeg,did not like,5.246980764,,,,,,,,,,,,,,,,,,,,,,
,,5c9d004ee3b6c40015254526,6685aa9113c938e83b4f1ea0,67093dd0f2b575e8f6e10bf1,2024-10-11_10h02.16.809,WTP_SM_Choice,2022.2.1,MacIntel,64.1025641,,,,,space,4.7002,NAN,,NAN,0.57,5.43,,0,28,28,28,1,29,Riley,Acc,Participant_Images/5c9d004ee3b6c40015254526/5c9d004ee3b6c40015254526_Images/5c9d004ee3b6c40015254526_Image_15.jpeg,liked,3.30081769,,,,,,,,,,,,,,,,,,,,,,
,,5c9d004ee3b6c40015254526,6685aa9113c938e83b4f1ea0,67093dd0f2b575e8f6e10bf1,2024-10-11_10h02.16.809,WTP_SM_Choice,2022.2.1,MacIntel,64.1025641,,,,,,,,,,,,,,,,,,26,,,,,,space,2.8657,space,7.9354,0.01,1,2.9847,0,0,0,0,1,Lay in bed late in the morning during the weekend,Learn new chords on my guitar from my mentor,0.01,0.01,4.4,1,,,,
,,5c9d004ee3b6c40015254526,6685aa9113c938e83b4f1ea0,67093dd0f2b575e8f6e10bf1,2024-10-11_10h02.16.809,WTP_SM_Choice,2022.2.1,MacIntel,64.1025641,,,,,,,,,,,,,,,,,,27,,,,,,,,,,0.01,2,3.1513,0,1,1,1,1,Shop for new clothes with my girlfriend,Make beats in the studio,0.02,0.01,3.3,0,,,,
,,5c9d004ee3b6c40015254526,6685aa9113c938e83b4f1ea0,67093dd0f2b575e8f6e10bf1,2024-10-11_10h02.16.809,WTP_SM_Choice,2022.2.1,MacIntel,64.1025641,,,,,,,,,,,,,,,,,,28,,,,,,,,,,0.03,1,5.2045,0,2,2,2,1,Lay in bed late in the morning during the weekend,Shop for new clothes with my girlfriend,0.03,0.01,3.3,1,,,,
,,5c9d004ee3b6c40015254526,6685aa9113c938e83b4f1ea0,67093dd0f2b575e8f6e10bf1,2024-10-11_10h02.16.809,WTP_SM_Choice,2022.2.1,MacIntel,64.1025641,,,,,,,,,,,,,,,,,,29,,,,,,,,,,0.01,2,7.6348,0,3,3,3,1,Learn new techniques for music production,Go to the studio with my rappers,0.04,0.01,4.4,1,,,,
,,5c9d004ee3b6c40015254526,6685aa9113c938e83b4f1ea0,67093dd0f2b575e8f6e10bf1,2024-10-11_10h02.16.809,WTP_SM_Choice,2022.2.1,MacIntel,64.1025641,,,,,,,,,,,,,,,,,,30,,,,,,,,,,0.01,2,1.835,0,4,4,4,1,Show off new clothes to my friends,Play my guitar in my apartment,0.05,0.01,8.8,0,,,,
,,5c9d004ee3b6c40015254526,6685aa9113c938e83b4f1ea0,67093dd0f2b575e8f6e10bf1,2024-10-11_10h02.16.809,WTP_SM_Choice,2022.2.1,MacIntel,64.1025641,,,,,,,NAN,,NAN,0.64,5.36,,0,29,29,29,1,30,Riley,Acc,Participant_Images/5c9d004ee3b6c40015254526/5c9d004ee3b6c40015254526_Images/5c9d004ee3b6c40015254526_Image_11.jpeg,liked,1.661473164,,,,,,,,,,,,,,,,,,,,,,
,,5c9d004ee3b6c40015254526,6685aa9113c938e83b4f1ea0,67093dd0f2b575e8f6e10bf1,2024-10-11_10h02.16.809,WTP_SM_Choice,2022.2.1,MacIntel,64.1025641,,,,,space,0.2013,NAN,,NAN,0.64,5.36,,0,30,30,30,1,31,Riley,Acc,Participant_Images/5c9d004ee3b6c40015254526/5c9d004ee3b6c40015254526_Images/5c9d004ee3b6c40015254526_Image_9.jpeg,liked,3.613205605,,,,,,,,,,,,,,,,,,,,,,
,,5c9d004ee3b6c40015254526,6685aa9113c938e83b4f1ea0,67093dd0f2b575e8f6e10bf1,2024-10-11_10h02.16.809,WTP_SM_Choice,2022.2.1,MacIntel,64.1025641,,,,,space,0.6995,NAN,,NAN,0.64,5.36,,0,31,31,31,1,32,Riley,Acc,Participant_Images/5c9d004ee3b6c40015254526/5c9d004ee3b6c40015254526_Images/5c9d004ee3b6c40015254526_Image_18.jpeg,liked,4.988446431,,,,,,,,,,,,,,,,,,,,,,
,,5c9d004ee3b6c40015254526,6685aa9113c938e83b4f1ea0,67093dd0f2b575e8f6e10bf1,2024-10-11_10h02.16.809,WTP_SM_Choice,2022.2.1,MacIntel,64.1025641,,,,,space,4.2006,NAN,,NAN,0.64,5.36,,0,32,32,32,1,33,Riley,Acc,Participant_Images/5c9d004ee3b6c40015254526/5c9d004ee3b6c40015254526_Images/5c9d004ee3b6c40015254526_Image_7.jpeg,liked,3.470791822,,,,,,,,,,,,,,,,,,,,,,
,,5c9d004ee3b6c40015254526,6685aa9113c938e83b4f1ea0,67093dd0f2b575e8f6e10bf1,2024-10-11_10h02.16.809,WTP_SM_Choice,2022.2.1,MacIntel,64.1025641,,,,,space,1.5469,NAN,,NAN,0.64,5.36,,0,33,33,33,1,34,Riley,Acc,Participant_Images/5c9d004ee3b6c40015254526/5c9d004ee3b6c40015254526_Images/5c9d004ee3b6c40015254526_Image_24.jpeg,liked,3.820572462,,,,,,,,,,,,,,,,,,,,,,
,,5c9d004ee3b6c40015254526,6685aa9113c938e83b4f1ea0,67093dd0f2b575e8f6e10bf1,2024-10-11_10h02.16.809,WTP_SM_Choice,2022.2.1,MacIntel,64.1025641,,,,,,,,,,,,,,,,,,31,,,,,,space,1.2327,space,0.9399,0.02,2,2.0197,0,0,0,0,1,Run duos on fortnite with my girlfriend,read about niche historical battles,0.01,0.02,8.8,0,,,,
,,5c9d004ee3b6c40015254526,6685aa9113c938e83b4f1ea0,67093dd0f2b575e8f6e10bf1,2024-10-11_10h02.16.809,WTP_SM_Choice,2022.2.1,MacIntel,64.1025641,,,,,,,,,,,,,,,,,,32,,,,,,,,,,0.02,1,2.5986,0,1,1,1,1,Play video games with my friends on a weekend,Listen to music that my friends made,0.02,0.02,1.1,0,,,,
,,5c9d004ee3b6c40015254526,6685aa9113c938e83b4f1ea0,67093dd0f2b575e8f6e10bf1,2024-10-11_10h02.16.809,WTP_SM_Choice,2022.2.1,MacIntel,64.1025641,,,,,,,,,,,,,,,,,,33,,,,,,,,,,0.02,2,3.601,0,2,2,2,1,Go to the store with my siblings,Produce rap songs in the studio,0.03,0.02,4.4,0,,,,
,,5c9d004ee3b6c40015254526,6685aa9113c938e83b4f1ea0,67093dd0f2b575e8f6e10bf1,2024-10-11_10h02.16.809,WTP_SM_Choice,2022.2.1,MacIntel,64.1025641,,,,,,,,,,,,,,,,,,34,,,,,,,,,,0.02,2,2.2695,0,3,3,3,1,Lay in bed late in the morning during the weekend,Show off new clothes to my friends,0.04,0.02,3.3,1,,,,
,,5c9d004ee3b6c40015254526,6685aa9113c938e83b4f1ea0,67093dd0f2b575e8f6e10bf1,2024-10-11_10h02.16.809,WTP_SM_Choice,2022.2.1,MacIntel,64.1025641,,,,,,,,,,,,,,,,,,35,,,,,,,,,,0.02,2,2.386,0,4,4,4,1,Play video games with my friends on a weekend,Play my guitar in my apartment,0.05,0.02,1.1,0,,,,
,,5c9d004ee3b6c40015254526,6685aa9113c938e83b4f1ea0,67093dd0f2b575e8f6e10bf1,2024-10-11_10h02.16.809,WTP_SM_Choice,2022.2.1,MacIntel,64.1025641,,,,,,,NAN,,NAN,0.74,5.26,,0,34,34,34,1,35,Riley,Acc,Participant_Images/5c9d004ee3b6c40015254526/5c9d004ee3b6c40015254526_Images/5c9d004ee3b6c40015254526_Image_14.jpeg,did not like,2.455989137,,,,,,,,,,,,,,,,,,,,,,
,,5c9d004ee3b6c40015254526,6685aa9113c938e83b4f1ea0,67093dd0f2b575e8f6e10bf1,2024-10-11_10h02.16.809,WTP_SM_Choice,2022.2.1,MacIntel,64.1025641,,,,,space,8.0151,NAN,,NAN,0.74,5.26,,0,35,35,35,1,36,Riley,Acc,Participant_Images/5c9d004ee3b6c40015254526/5c9d004ee3b6c40015254526_Images/5c9d004ee3b6c40015254526_Image_5.jpeg,liked,3.79605092,,,,,,,,,,,,,,,,,,,,,,
,,5c9d004ee3b6c40015254526,6685aa9113c938e83b4f1ea0,67093dd0f2b575e8f6e10bf1,2024-10-11_10h02.16.809,WTP_SM_Choice,2022.2.1,MacIntel,64.1025641,,,,,space,4.4326,NAN,,NAN,0.74,5.26,,0,36,36,36,1,37,Riley,Acc,Participant_Images/5c9d004ee3b6c40015254526/5c9d004ee3b6c40015254526_Images/5c9d004ee3b6c40015254526_Image_16.jpeg,did not like,3.562416326,,,,,,,,,,,,,,,,,,,,,,
,,5c9d004ee3b6c40015254526,6685aa9113c938e83b4f1ea0,67093dd0f2b575e8f6e10bf1,2024-10-11_10h02.16.809,WTP_SM_Choice,2022.2.1,MacIntel,64.1025641,,,,,space,1.0327,NAN,,NAN,0.74,5.26,,0,37,37,37,1,38,Riley,Acc,Participant_Images/5c9d004ee3b6c40015254526/5c9d004ee3b6c40015254526_Images/5c9d004ee3b6c40015254526_Image_2.jpeg,did not like,2.843822497,,,,,,,,,,,,,,,,,,,,,,
,,5c9d004ee3b6c40015254526,6685aa9113c938e83b4f1ea0,67093dd0f2b575e8f6e10bf1,2024-10-11_10h02.16.809,WTP_SM_Choice,2022.2.1,MacIntel,64.1025641,,,,,space,0.9159,NAN,,NAN,0.74,5.26,,0,38,38,38,1,39,Riley,Acc,Participant_Images/5c9d004ee3b6c40015254526/5c9d004ee3b6c40015254526_Images/5c9d004ee3b6c40015254526_Image_25.jpeg,liked,3.546495948,,,,,,,,,,,,,,,,,,,,,,
,,5c9d004ee3b6c40015254526,6685aa9113c938e83b4f1ea0,67093dd0f2b575e8f6e10bf1,2024-10-11_10h02.16.809,WTP_SM_Choice,2022.2.1,MacIntel,64.1025641,,,,,,,,,,,,,,,,,,36,,,,,,space,0.7835,space,0.6676,0.01,1,2.1612,0,0,0,0,1,Go to the store with my siblings,Watch reality television before bed,0.01,0.03,3.3,0,,,,
,,5c9d004ee3b6c40015254526,6685aa9113c938e83b4f1ea0,67093dd0f2b575e8f6e10bf1,2024-10-11_10h02.16.809,WTP_SM_Choice,2022.2.1,MacIntel,64.1025641,,,,,,,,,,,,,,,,,,37,,,,,,,,,,0.02,1,4.5012,0,1,1,1,1,Make beats in the studio,Show off new clothes to my friends,0.02,0.03,1.1,1,,,,
,,5c9d004ee3b6c40015254526,6685aa9113c938e83b4f1ea0,67093dd0f2b575e8f6e10bf1,2024-10-11_10h02.16.809,WTP_SM_Choice,2022.2.1,MacIntel,64.1025641,,,,,,,,,,,,,,,,,,38,,,,,,,,,,0.03,1,3.1189,0,2,2,2,1,Watch reality television before bed,Study for class with my study group,0.03,0.03,1.1,1,,,,
,,5c9d004ee3b6c40015254526,6685aa9113c938e83b4f1ea0,67093dd0f2b575e8f6e10bf1,2024-10-11_10h02.16.809,WTP_SM_Choice,2022.2.1,MacIntel,64.1025641,,,,,,,,,,,,,,,,,,39,,,,,,,,,,0.03,2,3.1018,0,3,3,3,1,Jam out with my brother's band,Listen to music that my friends made,0.04,0.03,3.3,0,,,,
,,5c9d004ee3b6c40015254526,6685aa9113c938e83b4f1ea0,67093dd0f2b575e8f6e10bf1,2024-10-11_10h02.16.809,WTP_SM_Choice,2022.2.1,MacIntel,64.1025641,,,,,,,,,,,,,,,,,,40,,,,,,,,,,0.03,2,2.3542,0,4,4,4,1,Study for class with my study group,Lay in bed late in the morning during the weekend,0.05,0.03,4.4,0,,,,
,,5c9d004ee3b6c40015254526,6685aa9113c938e83b4f1ea0,67093dd0f2b575e8f6e10bf1,2024-10-11_10h02.16.809,WTP_SM_Choice,2022.2.1,MacIntel,64.1025641,,,,,,,NAN,,NAN,0.86,5.14,,0,39,39,39,1,40,Riley,Acc,Participant_Images/5c9d004ee3b6c40015254526/5c9d004ee3b6c40015254526_Images/5c9d004ee3b6c40015254526_Image_4.jpeg,did not like,1.672012706,,,,,,,,,,,,,,,,,,,,,,
,,5c9d004ee3b6c40015254526,6685aa9113c938e83b4f1ea0,67093dd0f2b575e8f6e10bf1,2024-10-11_10h02.16.809,WTP_SM_Choice,2022.2.1,MacIntel,64.1025641,,,,,space,0.251,NAN,,NAN,0.86,5.14,,0,40,40,40,1,41,Riley,Acc,Participant_Images/5c9d004ee3b6c40015254526/5c9d004ee3b6c40015254526_Images/5c9d004ee3b6c40015254526_Image_23.jpeg,liked,4.942172136,,,,,,,,,,,,,,,,,,,,,,
,,5c9d004ee3b6c40015254526,6685aa9113c938e83b4f1ea0,67093dd0f2b575e8f6e10bf1,2024-10-11_10h02.16.809,WTP_SM_Choice,2022.2.1,MacIntel,64.1025641,,,,,space,6.0332,NAN,,NAN,0.86,5.14,,0,41,41,41,1,42,Riley,Acc,Participant_Images/5c9d004ee3b6c40015254526/5c9d004ee3b6c40015254526_Images/5c9d004ee3b6c40015254526_Image_12.jpeg,liked,2.50187214,,,,,,,,,,,,,,,,,,,,,,
,,5c9d004ee3b6c40015254526,6685aa9113c938e83b4f1ea0,67093dd0f2b575e8f6e10bf1,2024-10-11_10h02.16.809,WTP_SM_Choice,2022.2.1,MacIntel,64.1025641,,,,,space,5.7986,NAN,,NAN,0.86,5.14,,0,42,42,42,1,43,Riley,Acc,Participant_Images/5c9d004ee3b6c40015254526/5c9d004ee3b6c40015254526_Images/5c9d004ee3b6c40015254526_Image_20.jpeg,liked,2.071164779,,,,,,,,,,,,,,,,,,,,,,
,,5c9d004ee3b6c40015254526,6685aa9113c938e83b4f1ea0,67093dd0f2b575e8f6e10bf1,2024-10-11_10h02.16.809,WTP_SM_Choice,2022.2.1,MacIntel,64.1025641,,,,,space,2.1179,NAN,,NAN,0.86,5.14,,0,43,43,43,1,44,Riley,Acc,Participant_Images/5c9d004ee3b6c40015254526/5c9d004ee3b6c40015254526_Images/5c9d004ee3b6c40015254526_Image_19.jpeg,liked,5.336503566,,,,,,,,,,,,,,,,,,,,,,
,,5c9d004ee3b6c40015254526,6685aa9113c938e83b4f1ea0,67093dd0f2b575e8f6e10bf1,2024-10-11_10h02.16.809,WTP_SM_Choice,2022.2.1,MacIntel,64.1025641,,,,,,,,,,,,,,,,,,41,,,,,,space,2.4178,space,0.5339,0.01,1,1.2198,0,0,0,0,1,Watch reality television before bed,Show off new clothes to my friends,0.01,0.04,1.1,1,,,,
,,5c9d004ee3b6c40015254526,6685aa9113c938e83b4f1ea0,67093dd0f2b575e8f6e10bf1,2024-10-11_10h02.16.809,WTP_SM_Choice,2022.2.1,MacIntel,64.1025641,,,,,,,,,,,,,,,,,,42,,,,,,,,,,0.02,1,2.6515,0,1,1,1,1,Learn new chords on my guitar from my mentor,Go to the gym to work out,0.02,0.04,3.3,0,,,,
,,5c9d004ee3b6c40015254526,6685aa9113c938e83b4f1ea0,67093dd0f2b575e8f6e10bf1,2024-10-11_10h02.16.809,WTP_SM_Choice,2022.2.1,MacIntel,64.1025641,,,,,,,,,,,,,,,,,,43,,,,,,,,,,0.03,1,2.8353,0,2,2,2,1,Learn new techniques for music production,Jam out with my brother's band,0.03,0.04,1.1,1,,,,
,,5c9d004ee3b6c40015254526,6685aa9113c938e83b4f1ea0,67093dd0f2b575e8f6e10bf1,2024-10-11_10h02.16.809,WTP_SM_Choice,2022.2.1,MacIntel,64.1025641,,,,,,,,,,,,,,,,,,44,,,,,,,,,,0.04,2,1.7644,0,3,3,3,1,Learn new chords on my guitar from my mentor,read about niche historical battles,0.04,0.04,1.1,0,,,,
,,5c9d004ee3b6c40015254526,6685aa9113c938e83b4f1ea0,67093dd0f2b575e8f6e10bf1,2024-10-11_10h02.16.809,WTP_SM_Choice,2022.2.1,MacIntel,64.1025641,,,,,,,,,,,,,,,,,,45,,,,,,,,,,0.04,2,1.5501,0,4,4,4,1,Go to the gym to work out,Shop for new clothes with my girlfriend,0.05,0.04,4.4,1,,,,
,,5c9d004ee3b6c40015254526,6685aa9113c938e83b4f1ea0,67093dd0f2b575e8f6e10bf1,2024-10-11_10h02.16.809,WTP_SM_Choice,2022.2.1,MacIntel,64.1025641,,,,,,,NAN,,NAN,1,5,,0,44,44,44,1,45,Riley,Acc,Participant_Images/5c9d004ee3b6c40015254526/5c9d004ee3b6c40015254526_Images/5c9d004ee3b6c40015254526_Image_21.jpeg,did not like,2.642157193,,,,,,,,,,,,,,,,,,,,,,
,,5c9d004ee3b6c40015254526,6685aa9113c938e83b4f1ea0,67093dd0f2b575e8f6e10bf1,2024-10-11_10h02.16.809,WTP_SM_Choice,2022.2.1,MacIntel,64.1025641,,,,,space,0.2324,NAN,,NAN,1,5,,0,45,45,45,1,46,Riley,Acc,Participant_Images/5c9d004ee3b6c40015254526/5c9d004ee3b6c40015254526_Images/5c9d004ee3b6c40015254526_Image_22.jpeg,liked,4.456234322,,,,,,,,,,,,,,,,,,,,,,
,,5c9d004ee3b6c40015254526,6685aa9113c938e83b4f1ea0,67093dd0f2b575e8f6e10bf1,2024-10-11_10h02.16.809,WTP_SM_Choice,2022.2.1,MacIntel,64.1025641,,,,,space,3.1505,NAN,,NAN,1,5,,0,46,46,46,1,47,Riley,Acc,Participant_Images/5c9d004ee3b6c40015254526/5c9d004ee3b6c40015254526_Images/5c9d004ee3b6c40015254526_Image_6.jpeg,liked,4.438512181,,,,,,,,,,,,,,,,,,,,,,
,,5c9d004ee3b6c40015254526,6685aa9113c938e83b4f1ea0,67093dd0f2b575e8f6e10bf1,2024-10-11_10h02.16.809,WTP_SM_Choice,2022.2.1,MacIntel,64.1025641,,,,,space,0.7953,NAN,,NAN,1,5,,0,47,47,47,1,48,Riley,Acc,Participant_Images/5c9d004ee3b6c40015254526/5c9d004ee3b6c40015254526_Images/5c9d004ee3b6c40015254526_Image_17.jpeg,liked,2.682944783,,,,,,,,,,,,,,,,,,,,,,
,,5c9d004ee3b6c40015254526,6685aa9113c938e83b4f1ea0,67093dd0f2b575e8f6e10bf1,2024-10-11_10h02.16.809,WTP_SM_Choice,2022.2.1,MacIntel,64.1025641,,,,,space,4.2168,NAN,,NAN,1,5,,0,48,48,48,1,49,Riley,Acc,Participant_Images/5c9d004ee3b6c40015254526/5c9d004ee3b6c40015254526_Images/5c9d004ee3b6c40015254526_Image_13.jpeg,did not like,4.51984296,,,,,,,,,,,,,,,,,,,,,,
,,5c9d004ee3b6c40015254526,6685aa9113c938e83b4f1ea0,67093dd0f2b575e8f6e10bf1,2024-10-11_10h02.16.809,WTP_SM_Choice,2022.2.1,MacIntel,64.1025641,,,,,,,,,,,,,,,,,,46,,,,,,space,0.917,space,0.5342,0.01,1,1.9016,0,0,0,0,1,Jam out with my brother's band,read about niche historical battles,0.01,0.05,8.8,0,,,,
,,5c9d004ee3b6c40015254526,6685aa9113c938e83b4f1ea0,67093dd0f2b575e8f6e10bf1,2024-10-11_10h02.16.809,WTP_SM_Choice,2022.2.1,MacIntel,64.1025641,,,,,,,,,,,,,,,,,,47,,,,,,,,,,0.02,1,4.1199,0,1,1,1,1,Lay in bed late in the morning during the weekend,Go to the store with my siblings,0.02,0.05,1.1,1,,,,
,,5c9d004ee3b6c40015254526,6685aa9113c938e83b4f1ea0,67093dd0f2b575e8f6e10bf1,2024-10-11_10h02.16.809,WTP_SM_Choice,2022.2.1,MacIntel,64.1025641,,,,,,,,,,,,,,,,,,48,,,,,,,,,,0.03,1,3.7616,0,2,2,2,1,Run duos on fortnite with my girlfriend,Listen to music that my friends made,0.03,0.05,4.4,0,,,,
,,5c9d004ee3b6c40015254526,6685aa9113c938e83b4f1ea0,67093dd0f2b575e8f6e10bf1,2024-10-11_10h02.16.809,WTP_SM_Choice,2022.2.1,MacIntel,64.1025641,,,,,,,,,,,,,,,,,,49,,,,,,,,,,0.04,1,3.8682,0,3,3,3,1,Play my guitar in my apartment,Learn new chords on my guitar from my mentor,0.04,0.05,3.3,1,,,,
,,5c9d004ee3b6c40015254526,6685aa9113c938e83b4f1ea0,67093dd0f2b575e8f6e10bf1,2024-10-11_10h02.16.809,WTP_SM_Choice,2022.2.1,MacIntel,64.1025641,,,,,,,,,,,,,,,,,,50,,,,,,,,,,0.05,1,3.2317,0,4,4,4,1,Go to the store with my siblings,Listen to music that my friends made,0.05,0.05,1.1,0,,,,
,,5c9d004ee3b6c40015254526,6685aa9113c938e83b4f1ea0,67093dd0f2b575e8f6e10bf1,2024-10-11_10h02.16.809,WTP_SM_Choice,2022.2.1,MacIntel,64.1025641,,,,,,,4,,3,1.15,4.85,,0,49,49,49,1,50,Riley,Acc,Participant_Images/5c9d004ee3b6c40015254526/5c9d004ee3b6c40015254526_Images/5c9d004ee3b6c40015254526_Image_3.jpeg,liked,3.195382774,,,,,,,,,,,,,,,,,,,space,1.2662,,
,,5c9d004ee3b6c40015254526,6685aa9113c938e83b4f1ea0,67093dd0f2b575e8f6e10bf1,2024-10-11_10h02.16.809,WTP_SM_Choice,2022.2.1,MacIntel,64.1025641,,,space,6.9396,space,0.667,NAN,,NAN,1.15,4.85,,0,50,50,50,1,51,Charlie,Acc,Participant_Images/5c9d004ee3b6c40015254526/5c9d004ee3b6c40015254526_Images/5c9d004ee3b6c40015254526_Image_18.jpeg,did not like,1.779333479,,,,,,,,,,,,,,,,,,,,,,
,,5c9d004ee3b6c40015254526,6685aa9113c938e83b4f1ea0,67093dd0f2b575e8f6e10bf1,2024-10-11_10h02.16.809,WTP_SM_Choice,2022.2.1,MacIntel,64.1025641,,,,,space,0.5652,NAN,,NAN,1.15,4.85,,0,51,51,51,1,52,Charlie,Acc,Participant_Images/5c9d004ee3b6c40015254526/5c9d004ee3b6c40015254526_Images/5c9d004ee3b6c40015254526_Image_4.jpeg,did not like,4.312468682,,,,,,,,,,,,,,,,,,,,,,
,,5c9d004ee3b6c40015254526,6685aa9113c938e83b4f1ea0,67093dd0f2b575e8f6e10bf1,2024-10-11_10h02.16.809,WTP_SM_Choice,2022.2.1,MacIntel,64.1025641,,,,,space,0.3002,NAN,,NAN,1.15,4.85,,0,52,52,52,1,53,Charlie,Acc,Participant_Images/5c9d004ee3b6c40015254526/5c9d004ee3b6c40015254526_Images/5c9d004ee3b6c40015254526_Image_22.jpeg,liked,4.940433059,,,,,,,,,,,,,,,,,,,,,,
,,5c9d004ee3b6c40015254526,6685aa9113c938e83b4f1ea0,67093dd0f2b575e8f6e10bf1,2024-10-11_10h02.16.809,WTP_SM_Choice,2022.2.1,MacIntel,64.1025641,,,,,space,1.015,NAN,,NAN,1.15,4.85,,0,53,53,53,1,54,Charlie,Acc,Participant_Images/5c9d004ee3b6c40015254526/5c9d004ee3b6c40015254526_Images/5c9d004ee3b6c40015254526_Image_17.jpeg,liked,2.7105123,,,,,,,,,,,,,,,,,,,,,,
,,5c9d004ee3b6c40015254526,6685aa9113c938e83b4f1ea0,67093dd0f2b575e8f6e10bf1,2024-10-11_10h02.16.809,WTP_SM_Choice,2022.2.1,MacIntel,64.1025641,,,,,,,,,,,,,,,,,,51,,,,,,space,1.6174,space,1.0499,0.01,2,4.3656,0,0,0,0,1,Shop for new clothes with my girlfriend,Go to the lake or beach whenever I am out of town,0.01,0.01,1.1,0,,,,
,,5c9d004ee3b6c40015254526,6685aa9113c938e83b4f1ea0,67093dd0f2b575e8f6e10bf1,2024-10-11_10h02.16.809,WTP_SM_Choice,2022.2.1,MacIntel,64.1025641,,,,,,,,,,,,,,,,,,52,,,,,,,,,,0.01,2,4.3344,0,1,1,1,1,Listen to music that my friends made,Learn new chords on my guitar from my mentor,0.02,0.01,3.3,1,,,,
,,5c9d004ee3b6c40015254526,6685aa9113c938e83b4f1ea0,67093dd0f2b575e8f6e10bf1,2024-10-11_10h02.16.809,WTP_SM_Choice,2022.2.1,MacIntel,64.1025641,,,,,,,,,,,,,,,,,,53,,,,,,,,,,0.01,2,1.0146,0,2,2,2,1,Jam out with my brother's band,Go to the gym to work out,0.03,0.01,1.1,0,,,,
,,5c9d004ee3b6c40015254526,6685aa9113c938e83b4f1ea0,67093dd0f2b575e8f6e10bf1,2024-10-11_10h02.16.809,WTP_SM_Choice,2022.2.1,MacIntel,64.1025641,,,,,,,,,,,,,,,,,,54,,,,,,,,,,0.01,2,1.5279,0,3,3,3,1,Learn new techniques for music production,Play video games with my friends on a weekend,0.04,0.01,4.4,1,,,,
,,5c9d004ee3b6c40015254526,6685aa9113c938e83b4f1ea0,67093dd0f2b575e8f6e10bf1,2024-10-11_10h02.16.809,WTP_SM_Choice,2022.2.1,MacIntel,64.1025641,,,,,,,,,,,,,,,,,,55,,,,,,,,,,0.01,2,2.284,0,4,4,4,1,Watch reality television before bed,Make pasta with my girlfriend,0.05,0.01,1.1,1,,,,
,,5c9d004ee3b6c40015254526,6685aa9113c938e83b4f1ea0,67093dd0f2b575e8f6e10bf1,2024-10-11_10h02.16.809,WTP_SM_Choice,2022.2.1,MacIntel,64.1025641,,,,,,,NAN,,NAN,1.2,4.8,,0,54,54,54,1,55,Charlie,Acc,Participant_Images/5c9d004ee3b6c40015254526/5c9d004ee3b6c40015254526_Images/5c9d004ee3b6c40015254526_Image_19.jpeg,did not like,3.602308302,,,,,,,,,,,,,,,,,,,,,,
,,5c9d004ee3b6c40015254526,6685aa9113c938e83b4f1ea0,67093dd0f2b575e8f6e10bf1,2024-10-11_10h02.16.809,WTP_SM_Choice,2022.2.1,MacIntel,64.1025641,,,,,space,1.4824,NAN,,NAN,1.2,4.8,,0,55,55,55,1,56,Charlie,Acc,Participant_Images/5c9d004ee3b6c40015254526/5c9d004ee3b6c40015254526_Images/5c9d004ee3b6c40015254526_Image_25.jpeg,liked,4.106391878,,,,,,,,,,,,,,,,,,,,,,
,,5c9d004ee3b6c40015254526,6685aa9113c938e83b4f1ea0,67093dd0f2b575e8f6e10bf1,2024-10-11_10h02.16.809,WTP_SM_Choice,2022.2.1,MacIntel,64.1025641,,,,,space,0.761,NAN,,NAN,1.2,4.8,,0,56,56,56,1,57,Charlie,Acc,Participant_Images/5c9d004ee3b6c40015254526/5c9d004ee3b6c40015254526_Images/5c9d004ee3b6c40015254526_Image_11.jpeg,liked,3.799433026,,,,,,,,,,,,,,,,,,,,,,
,,5c9d004ee3b6c40015254526,6685aa9113c938e83b4f1ea0,67093dd0f2b575e8f6e10bf1,2024-10-11_10h02.16.809,WTP_SM_Choice,2022.2.1,MacIntel,64.1025641,,,,,space,0.2316,NAN,,NAN,1.2,4.8,,0,57,57,57,1,58,Charlie,Acc,Participant_Images/5c9d004ee3b6c40015254526/5c9d004ee3b6c40015254526_Images/5c9d004ee3b6c40015254526_Image_23.jpeg,liked,5.246980764,,,,,,,,,,,,,,,,,,,,,,
,,5c9d004ee3b6c40015254526,6685aa9113c938e83b4f1ea0,67093dd0f2b575e8f6e10bf1,2024-10-11_10h02.16.809,WTP_SM_Choice,2022.2.1,MacIntel,64.1025641,,,,,space,1.2155,NAN,,NAN,1.2,4.8,,0,58,58,58,1,59,Charlie,Acc,Participant_Images/5c9d004ee3b6c40015254526/5c9d004ee3b6c40015254526_Images/5c9d004ee3b6c40015254526_Image_21.jpeg,did not like,3.30081769,,,,,,,,,,,,,,,,,,,,,,
,,5c9d004ee3b6c40015254526,6685aa9113c938e83b4f1ea0,67093dd0f2b575e8f6e10bf1,2024-10-11_10h02.16.809,WTP_SM_Choice,2022.2.1,MacIntel,64.1025641,,,,,,,,,,,,,,,,,,56,,,,,,space,3.8009,space,18.6024,0.01,1,1.3534,0,0,0,0,1,Go to the gym to work out,Play video games with my friends on a weekend,0.01,0.02,8.8,1,,,,
,,5c9d004ee3b6c40015254526,6685aa9113c938e83b4f1ea0,67093dd0f2b575e8f6e10bf1,2024-10-11_10h02.16.809,WTP_SM_Choice,2022.2.1,MacIntel,64.1025641,,,,,,,,,,,,,,,,,,57,,,,,,,,,,0.02,2,4.6685,0,1,1,1,1,Produce rap songs in the studio,Study for class with my study group,0.02,0.02,4.4,1,,,,
,,5c9d004ee3b6c40015254526,6685aa9113c938e83b4f1ea0,67093dd0f2b575e8f6e10bf1,2024-10-11_10h02.16.809,WTP_SM_Choice,2022.2.1,MacIntel,64.1025641,,,,,,,,,,,,,,,,,,58,,,,,,,,,,0.02,2,3.0544,0,2,2,2,1,Lay in bed late in the morning during the weekend,Run duos on fortnite with my girlfriend,0.03,0.02,4.4,1,,,,
,,5c9d004ee3b6c40015254526,6685aa9113c938e83b4f1ea0,67093dd0f2b575e8f6e10bf1,2024-10-11_10h02.16.809,WTP_SM_Choice,2022.2.1,MacIntel,64.1025641,,,,,,,,,,,,,,,,,,59,,,,,,,,,,0.02,2,1.8032,0,3,3,3,1,Produce rap songs in the studio,Play video games with my friends on a weekend,0.04,0.02,4.4,1,,,,
,,5c9d004ee3b6c40015254526,6685aa9113c938e83b4f1ea0,67093dd0f2b575e8f6e10bf1,2024-10-11_10h02.16.809,WTP_SM_Choice,2022.2.1,MacIntel,64.1025641,,,,,,,,,,,,,,,,,,60,,,,,,,,,,0.02,2,1.6498,0,4,4,4,1,Go to the store with my siblings,Go to the gym to work out,0.05,0.02,1.1,0,,,,
,,5c9d004ee3b6c40015254526,6685aa9113c938e83b4f1ea0,67093dd0f2b575e8f6e10bf1,2024-10-11_10h02.16.809,WTP_SM_Choice,2022.2.1,MacIntel,64.1025641,,,,,,,NAN,,NAN,1.29,4.71,,0,59,59,59,1,60,Charlie,Acc,Participant_Images/5c9d004ee3b6c40015254526/5c9d004ee3b6c40015254526_Images/5c9d004ee3b6c40015254526_Image_20.jpeg,liked,1.661473164,,,,,,,,,,,,,,,,,,,,,,
,,5c9d004ee3b6c40015254526,6685aa9113c938e83b4f1ea0,67093dd0f2b575e8f6e10bf1,2024-10-11_10h02.16.809,WTP_SM_Choice,2022.2.1,MacIntel,64.1025641,,,,,space,0.0668,NAN,,NAN,1.29,4.71,,0,60,60,60,1,61,Charlie,Acc,Participant_Images/5c9d004ee3b6c40015254526/5c9d004ee3b6c40015254526_Images/5c9d004ee3b6c40015254526_Image_5.jpeg,liked,3.613205605,,,,,,,,,,,,,,,,,,,,,,
,,5c9d004ee3b6c40015254526,6685aa9113c938e83b4f1ea0,67093dd0f2b575e8f6e10bf1,2024-10-11_10h02.16.809,WTP_SM_Choice,2022.2.1,MacIntel,64.1025641,,,,,space,1.2829,NAN,,NAN,1.29,4.71,,0,61,61,61,1,62,Charlie,Acc,Participant_Images/5c9d004ee3b6c40015254526/5c9d004ee3b6c40015254526_Images/5c9d004ee3b6c40015254526_Image_14.jpeg,liked,4.988446431,,,,,,,,,,,,,,,,,,,,,,
,,5c9d004ee3b6c40015254526,6685aa9113c938e83b4f1ea0,67093dd0f2b575e8f6e10bf1,2024-10-11_10h02.16.809,WTP_SM_Choice,2022.2.1,MacIntel,64.1025641,,,,,space,17.6339,NAN,,NAN,1.29,4.71,,0,62,62,62,1,63,Charlie,Acc,Participant_Images/5c9d004ee3b6c40015254526/5c9d004ee3b6c40015254526_Images/5c9d004ee3b6c40015254526_Image_3.jpeg,liked,3.470791822,,,,,,,,,,,,,,,,,,,,,,
,,5c9d004ee3b6c40015254526,6685aa9113c938e83b4f1ea0,67093dd0f2b575e8f6e10bf1,2024-10-11_10h02.16.809,WTP_SM_Choice,2022.2.1,MacIntel,64.1025641,,,,,space,2.3822,NAN,,NAN,1.29,4.71,,0,63,63,63,1,64,Charlie,Acc,Participant_Images/5c9d004ee3b6c40015254526/5c9d004ee3b6c40015254526_Images/5c9d004ee3b6c40015254526_Image_12.jpeg,liked,3.820572462,,,,,,,,,,,,,,,,,,,,,,
,,5c9d004ee3b6c40015254526,6685aa9113c938e83b4f1ea0,67093dd0f2b575e8f6e10bf1,2024-10-11_10h02.16.809,WTP_SM_Choice,2022.2.1,MacIntel,64.1025641,,,,,,,,,,,,,,,,,,61,,,,,,space,4.6015,space,0.9676,0.01,1,2.4191,0,0,0,0,1,Make pasta with my girlfriend,Learn new techniques for music production,0.01,0.03,3.3,0,,,,
,,5c9d004ee3b6c40015254526,6685aa9113c938e83b4f1ea0,67093dd0f2b575e8f6e10bf1,2024-10-11_10h02.16.809,WTP_SM_Choice,2022.2.1,MacIntel,64.1025641,,,,,,,,,,,,,,,,,,62,,,,,,,,,,0.02,1,1.8011,0,1,1,1,1,Study for class with my study group,Play my guitar in my apartment,0.02,0.03,3.3,0,,,,
,,5c9d004ee3b6c40015254526,6685aa9113c938e83b4f1ea0,67093dd0f2b575e8f6e10bf1,2024-10-11_10h02.16.809,WTP_SM_Choice,2022.2.1,MacIntel,64.1025641,,,,,,,,,,,,,,,,,,63,,,,,,,,,,0.03,2,2.2636,0,2,2,2,1,Jam out with my brother's band,Lay in bed late in the morning during the weekend,0.03,0.03,3.3,0,,,,
,,5c9d004ee3b6c40015254526,6685aa9113c938e83b4f1ea0,67093dd0f2b575e8f6e10bf1,2024-10-11_10h02.16.809,WTP_SM_Choice,2022.2.1,MacIntel,64.1025641,,,,,,,,,,,,,,,,,,64,,,,,,,,,,0.03,2,2.9866,0,3,3,3,1,Learn new techniques for music production,Study for class with my study group,0.04,0.03,1.1,1,,,,
,,5c9d004ee3b6c40015254526,6685aa9113c938e83b4f1ea0,67093dd0f2b575e8f6e10bf1,2024-10-11_10h02.16.809,WTP_SM_Choice,2022.2.1,MacIntel,64.1025641,,,,,,,,,,,,,,,,,,65,,,,,,,,,,0.03,2,1.9525,0,4,4,4,1,Make beats in the studio,Run duos on fortnite with my girlfriend,0.05,0.03,1.1,1,,,,
,,5c9d004ee3b6c40015254526,6685aa9113c938e83b4f1ea0,67093dd0f2b575e8f6e10bf1,2024-10-11_10h02.16.809,WTP_SM_Choice,2022.2.1,MacIntel,64.1025641,,,,,,,NAN,,NAN,1.41,4.59,,0,64,64,64,1,65,Charlie,Acc,Participant_Images/5c9d004ee3b6c40015254526/5c9d004ee3b6c40015254526_Images/5c9d004ee3b6c40015254526_Image_16.jpeg,liked,2.455989137,,,,,,,,,,,,,,,,,,,,,,
,,5c9d004ee3b6c40015254526,6685aa9113c938e83b4f1ea0,67093dd0f2b575e8f6e10bf1,2024-10-11_10h02.16.809,WTP_SM_Choice,2022.2.1,MacIntel,64.1025641,,,,,space,1.0146,NAN,,NAN,1.41,4.59,,0,65,65,65,1,66,Charlie,Acc,Participant_Images/5c9d004ee3b6c40015254526/5c9d004ee3b6c40015254526_Images/5c9d004ee3b6c40015254526_Image_10.jpeg,did not like,3.79605092,,,,,,,,,,,,,,,,,,,,,,
,,5c9d004ee3b6c40015254526,6685aa9113c938e83b4f1ea0,67093dd0f2b575e8f6e10bf1,2024-10-11_10h02.16.809,WTP_SM_Choice,2022.2.1,MacIntel,64.1025641,,,,,space,6.9645,NAN,,NAN,1.41,4.59,,0,66,66,66,1,67,Charlie,Acc,Participant_Images/5c9d004ee3b6c40015254526/5c9d004ee3b6c40015254526_Images/5c9d004ee3b6c40015254526_Image_13.jpeg,liked,3.562416326,,,,,,,,,,,,,,,,,,,,,,
,,5c9d004ee3b6c40015254526,6685aa9113c938e83b4f1ea0,67093dd0f2b575e8f6e10bf1,2024-10-11_10h02.16.809,WTP_SM_Choice,2022.2.1,MacIntel,64.1025641,,,,,space,1.1999,NAN,,NAN,1.41,4.59,,0,67,67,67,1,68,Charlie,Acc,Participant_Images/5c9d004ee3b6c40015254526/5c9d004ee3b6c40015254526_Images/5c9d004ee3b6c40015254526_Image_2.jpeg,liked,2.843822497,,,,,,,,,,,,,,,,,,,,,,
,,5c9d004ee3b6c40015254526,6685aa9113c938e83b4f1ea0,67093dd0f2b575e8f6e10bf1,2024-10-11_10h02.16.809,WTP_SM_Choice,2022.2.1,MacIntel,64.1025641,,,,,space,3.7338,NAN,,NAN,1.41,4.59,,0,68,68,68,1,69,Charlie,Acc,Participant_Images/5c9d004ee3b6c40015254526/5c9d004ee3b6c40015254526_Images/5c9d004ee3b6c40015254526_Image_8.jpeg,liked,3.546495948,,,,,,,,,,,,,,,,,,,,,,
,,5c9d004ee3b6c40015254526,6685aa9113c938e83b4f1ea0,67093dd0f2b575e8f6e10bf1,2024-10-11_10h02.16.809,WTP_SM_Choice,2022.2.1,MacIntel,64.1025641,,,,,,,,,,,,,,,,,,66,,,,,,space,5.2175,space,0.6981,0.01,1,1.7528,0,0,0,0,1,Play my guitar in my apartment,Run duos on fortnite with my girlfriend,0.01,0.04,1.1,1,,,,
,,5c9d004ee3b6c40015254526,6685aa9113c938e83b4f1ea0,67093dd0f2b575e8f6e10bf1,2024-10-11_10h02.16.809,WTP_SM_Choice,2022.2.1,MacIntel,64.1025641,,,,,,,,,,,,,,,,,,67,,,,,,,,,,0.02,1,3.534,0,1,1,1,1,Listen to music that my friends made,Make pasta with my girlfriend,0.02,0.04,8.8,1,,,,
,,5c9d004ee3b6c40015254526,6685aa9113c938e83b4f1ea0,67093dd0f2b575e8f6e10bf1,2024-10-11_10h02.16.809,WTP_SM_Choice,2022.2.1,MacIntel,64.1025641,,,,,,,,,,,,,,,,,,68,,,,,,,,,,0.03,1,2.5349,0,2,2,2,1,Go to the lake or beach whenever I am out of town,Jam out with my brother's band,0.03,0.04,4.4,1,,,,
,,5c9d004ee3b6c40015254526,6685aa9113c938e83b4f1ea0,67093dd0f2b575e8f6e10bf1,2024-10-11_10h02.16.809,WTP_SM_Choice,2022.2.1,MacIntel,64.1025641,,,,,,,,,,,,,,,,,,69,,,,,,,,,,0.04,1,3.9137,0,3,3,3,1,Go to the store with my siblings,Play my guitar in my apartment,0.04,0.04,1.1,0,,,,
,,5c9d004ee3b6c40015254526,6685aa9113c938e83b4f1ea0,67093dd0f2b575e8f6e10bf1,2024-10-11_10h02.16.809,WTP_SM_Choice,2022.2.1,MacIntel,64.1025641,,,,,,,,,,,,,,,,,,70,,,,,,,,,,0.04,2,2.9865,0,4,4,4,1,Play video games with my friends on a weekend,Go to the lake or beach whenever I am out of town,0.05,0.04,1.1,0,,,,
,,5c9d004ee3b6c40015254526,6685aa9113c938e83b4f1ea0,67093dd0f2b575e8f6e10bf1,2024-10-11_10h02.16.809,WTP_SM_Choice,2022.2.1,MacIntel,64.1025641,,,,,,,NAN,,NAN,1.55,4.45,,0,69,69,69,1,70,Charlie,Acc,Participant_Images/5c9d004ee3b6c40015254526/5c9d004ee3b6c40015254526_Images/5c9d004ee3b6c40015254526_Image_7.jpeg,did not like,1.672012706,,,,,,,,,,,,,,,,,,,,,,
,,5c9d004ee3b6c40015254526,6685aa9113c938e83b4f1ea0,67093dd0f2b575e8f6e10bf1,2024-10-11_10h02.16.809,WTP_SM_Choice,2022.2.1,MacIntel,64.1025641,,,,,space,0.8145,NAN,,NAN,1.55,4.45,,0,70,70,70,1,71,Charlie,Acc,Participant_Images/5c9d004ee3b6c40015254526/5c9d004ee3b6c40015254526_Images/5c9d004ee3b6c40015254526_Image_1.jpeg,did not like,4.942172136,,,,,,,,,,,,,,,,,,,,,,
,,5c9d004ee3b6c40015254526,6685aa9113c938e83b4f1ea0,67093dd0f2b575e8f6e10bf1,2024-10-11_10h02.16.809,WTP_SM_Choice,2022.2.1,MacIntel,64.1025641,,,,,space,1.6647,NAN,,NAN,1.55,4.45,,0,71,71,71,1,72,Charlie,Acc,Participant_Images/5c9d004ee3b6c40015254526/5c9d004ee3b6c40015254526_Images/5c9d004ee3b6c40015254526_Image_15.jpeg,liked,2.50187214,,,,,,,,,,,,,,,,,,,,,,
,,5c9d004ee3b6c40015254526,6685aa9113c938e83b4f1ea0,67093dd0f2b575e8f6e10bf1,2024-10-11_10h02.16.809,WTP_SM_Choice,2022.2.1,MacIntel,64.1025641,,,,,space,1.8136,NAN,,NAN,1.55,4.45,,0,72,72,72,1,73,Charlie,Acc,Participant_Images/5c9d004ee3b6c40015254526/5c9d004ee3b6c40015254526_Images/5c9d004ee3b6c40015254526_Image_9.jpeg,liked,2.071164779,,,,,,,,,,,,,,,,,,,,,,
,,5c9d004ee3b6c40015254526,6685aa9113c938e83b4f1ea0,67093dd0f2b575e8f6e10bf1,2024-10-11_10h02.16.809,WTP_SM_Choice,2022.2.1,MacIntel,64.1025641,,,,,space,1.2807,NAN,,NAN,1.55,4.45,,0,73,73,73,1,74,Charlie,Acc,Participant_Images/5c9d004ee3b6c40015254526/5c9d004ee3b6c40015254526_Images/5c9d004ee3b6c40015254526_Image_6.jpeg,liked,5.336503566,,,,,,,,,,,,,,,,,,,,,,
,,5c9d004ee3b6c40015254526,6685aa9113c938e83b4f1ea0,67093dd0f2b575e8f6e10bf1,2024-10-11_10h02.16.809,WTP_SM_Choice,2022.2.1,MacIntel,64.1025641,,,,,,,,,,,,,,,,,,71,,,,,,space,0.7978,space,2.7691,0.01,1,1.2701,0,0,0,0,1,Learn new techniques for music production,Learn new chords on my guitar from my mentor,0.01,0.05,3.3,1,,,,
,,5c9d004ee3b6c40015254526,6685aa9113c938e83b4f1ea0,67093dd0f2b575e8f6e10bf1,2024-10-11_10h02.16.809,WTP_SM_Choice,2022.2.1,MacIntel,64.1025641,,,,,,,,,,,,,,,,,,72,,,,,,,,,,0.02,1,1.5869,0,1,1,1,1,Produce rap songs in the studio,Run duos on fortnite with my girlfriend,0.02,0.05,8.8,1,,,,
,,5c9d004ee3b6c40015254526,6685aa9113c938e83b4f1ea0,67093dd0f2b575e8f6e10bf1,2024-10-11_10h02.16.809,WTP_SM_Choice,2022.2.1,MacIntel,64.1025641,,,,,,,,,,,,,,,,,,73,,,,,,,,,,0.03,1,2.8351,0,2,2,2,1,Go to the store with my siblings,Go to the lake or beach whenever I am out of town,0.03,0.05,3.3,0,,,,
,,5c9d004ee3b6c40015254526,6685aa9113c938e83b4f1ea0,67093dd0f2b575e8f6e10bf1,2024-10-11_10h02.16.809,WTP_SM_Choice,2022.2.1,MacIntel,64.1025641,,,,,,,,,,,,,,,,,,74,,,,,,,,,,0.04,1,3.0464,0,3,3,3,1,Watch reality television before bed,Learn new chords on my guitar from my mentor,0.04,0.05,4.4,1,,,,
,,5c9d004ee3b6c40015254526,6685aa9113c938e83b4f1ea0,67093dd0f2b575e8f6e10bf1,2024-10-11_10h02.16.809,WTP_SM_Choice,2022.2.1,MacIntel,64.1025641,,,,,,,,,,,,,,,,,,75,,,,,,,,,,0.05,1,2.3869,0,4,4,4,1,Show off new clothes to my friends,Learn new techniques for music production,0.05,0.05,3.3,0,,,,
,,5c9d004ee3b6c40015254526,6685aa9113c938e83b4f1ea0,67093dd0f2b575e8f6e10bf1,2024-10-11_10h02.16.809,WTP_SM_Choice,2022.2.1,MacIntel,64.1025641,,,,,,,3,,3,1.7,4.3,,0,74,74,74,1,75,Charlie,Acc,Participant_Images/5c9d004ee3b6c40015254526/5c9d004ee3b6c40015254526_Images/5c9d004ee3b6c40015254526_Image_24.jpeg,liked,2.642157193,,,,,,,,,,,,,,,,,,,space,2.4299,,
,,5c9d004ee3b6c40015254526,6685aa9113c938e83b4f1ea0,67093dd0f2b575e8f6e10bf1,2024-10-11_10h02.16.809,WTP_SM_Choice,2022.2.1,MacIntel,64.1025641,,,space,6.474,space,2.6647,NAN,,NAN,1.7,4.3,,0,75,75,75,1,76,Sam,Rej,Participant_Images/5c9d004ee3b6c40015254526/5c9d004ee3b6c40015254526_Images/5c9d004ee3b6c40015254526_Image_18.jpeg,liked,4.456234322,,,,,,,,,,,,,,,,,,,,,,
,,5c9d004ee3b6c40015254526,6685aa9113c938e83b4f1ea0,67093dd0f2b575e8f6e10bf1,2024-10-11_10h02.16.809,WTP_SM_Choice,2022.2.1,MacIntel,64.1025641,,,,,space,0.7676,NAN,,NAN,1.7,4.3,,0,76,76,76,1,77,Sam,Rej,Participant_Images/5c9d004ee3b6c40015254526/5c9d004ee3b6c40015254526_Images/5c9d004ee3b6c40015254526_Image_13.jpeg,did not like,4.438512181,,,,,,,,,,,,,,,,,,,,,,
,,5c9d004ee3b6c40015254526,6685aa9113c938e83b4f1ea0,67093dd0f2b575e8f6e10bf1,2024-10-11_10h02.16.809,WTP_SM_Choice,2022.2.1,MacIntel,64.1025641,,,,,space,3.7354,NAN,,NAN,1.7,4.3,,0,77,77,77,1,78,Sam,Rej,Participant_Images/5c9d004ee3b6c40015254526/5c9d004ee3b6c40015254526_Images/5c9d004ee3b6c40015254526_Image_5.jpeg,did not like,2.682944783,,,,,,,,,,,,,,,,,,,,,,
,,5c9d004ee3b6c40015254526,6685aa9113c938e83b4f1ea0,67093dd0f2b575e8f6e10bf1,2024-10-11_10h02.16.809,WTP_SM_Choice,2022.2.1,MacIntel,64.1025641,,,,,space,2.6162,NAN,,NAN,1.7,4.3,,0,78,78,78,1,79,Sam,Rej,Participant_Images/5c9d004ee3b6c40015254526/5c9d004ee3b6c40015254526_Images/5c9d004ee3b6c40015254526_Image_19.jpeg,liked,4.51984296,,,,,,,,,,,,,,,,,,,,,,
,,5c9d004ee3b6c40015254526,6685aa9113c938e83b4f1ea0,67093dd0f2b575e8f6e10bf1,2024-10-11_10h02.16.809,WTP_SM_Choice,2022.2.1,MacIntel,64.1025641,,,,,,,,,,,,,,,,,,76,,,,,,space,5.516,space,0.7013,0.01,1,1.0985,0,0,0,0,1,Go to the studio with my rappers,Play my guitar in my apartment,0.01,0.01,1.1,0,,,,
,,5c9d004ee3b6c40015254526,6685aa9113c938e83b4f1ea0,67093dd0f2b575e8f6e10bf1,2024-10-11_10h02.16.809,WTP_SM_Choice,2022.2.1,MacIntel,64.1025641,,,,,,,,,,,,,,,,,,77,,,,,,,,,,0.01,2,2.1446,0,1,1,1,1,Make pasta with my girlfriend,Lay in bed late in the morning during the weekend,0.02,0.01,8.8,0,,,,
,,5c9d004ee3b6c40015254526,6685aa9113c938e83b4f1ea0,67093dd0f2b575e8f6e10bf1,2024-10-11_10h02.16.809,WTP_SM_Choice,2022.2.1,MacIntel,64.1025641,,,,,,,,,,,,,,,,,,78,,,,,,,,,,0.01,2,8.7344,0,2,2,2,1,Make beats in the studio,Study for class with my study group,0.03,0.01,1.1,1,,,,
,,5c9d004ee3b6c40015254526,6685aa9113c938e83b4f1ea0,67093dd0f2b575e8f6e10bf1,2024-10-11_10h02.16.809,WTP_SM_Choice,2022.2.1,MacIntel,64.1025641,,,,,,,,,,,,,,,,,,79,,,,,,,,,,0.01,2,2.1181,0,3,3,3,1,Run duos on fortnite with my girlfriend,Watch reality television before bed,0.04,0.01,1.1,0,,,,
,,5c9d004ee3b6c40015254526,6685aa9113c938e83b4f1ea0,67093dd0f2b575e8f6e10bf1,2024-10-11_10h02.16.809,WTP_SM_Choice,2022.2.1,MacIntel,64.1025641,,,,,,,,,,,,,,,,,,80,,,,,,,,,,0.01,2,2.1513,0,4,4,4,1,Listen to music that my friends made,Show off new clothes to my friends,0.05,0.01,4.4,1,,,,
,,5c9d004ee3b6c40015254526,6685aa9113c938e83b4f1ea0,67093dd0f2b575e8f6e10bf1,2024-10-11_10h02.16.809,WTP_SM_Choice,2022.2.1,MacIntel,64.1025641,,,,,,,NAN,,NAN,1.75,4.25,,0,79,79,79,1,80,Sam,Rej,Participant_Images/5c9d004ee3b6c40015254526/5c9d004ee3b6c40015254526_Images/5c9d004ee3b6c40015254526_Image_12.jpeg,liked,3.195382774,,,,,,,,,,,,,,,,,,,,,,
,,5c9d004ee3b6c40015254526,6685aa9113c938e83b4f1ea0,67093dd0f2b575e8f6e10bf1,2024-10-11_10h02.16.809,WTP_SM_Choice,2022.2.1,MacIntel,64.1025641,,,,,space,0.1014,NAN,,NAN,1.75,4.25,,0,80,80,80,1,81,Sam,Rej,Participant_Images/5c9d004ee3b6c40015254526/5c9d004ee3b6c40015254526_Images/5c9d004ee3b6c40015254526_Image_22.jpeg,did not like,1.779333479,,,,,,,,,,,,,,,,,,,,,,
,,5c9d004ee3b6c40015254526,6685aa9113c938e83b4f1ea0,67093dd0f2b575e8f6e10bf1,2024-10-11_10h02.16.809,WTP_SM_Choice,2022.2.1,MacIntel,64.1025641,,,,,space,1.4814,NAN,,NAN,1.75,4.25,,0,81,81,81,1,82,Sam,Rej,Participant_Images/5c9d004ee3b6c40015254526/5c9d004ee3b6c40015254526_Images/5c9d004ee3b6c40015254526_Image_14.jpeg,did not like,4.312468682,,,,,,,,,,,,,,,,,,,,,,
,,5c9d004ee3b6c40015254526,6685aa9113c938e83b4f1ea0,67093dd0f2b575e8f6e10bf1,2024-10-11_10h02.16.809,WTP_SM_Choice,2022.2.1,MacIntel,64.1025641,,,,,space,1.2504,NAN,,NAN,1.75,4.25,,0,82,82,82,1,83,Sam,Rej,Participant_Images/5c9d004ee3b6c40015254526/5c9d004ee3b6c40015254526_Images/5c9d004ee3b6c40015254526_Image_7.jpeg,did not like,4.940433059,,,,,,,,,,,,,,,,,,,,,,
,,5c9d004ee3b6c40015254526,6685aa9113c938e83b4f1ea0,67093dd0f2b575e8f6e10bf1,2024-10-11_10h02.16.809,WTP_SM_Choice,2022.2.1,MacIntel,64.1025641,,,,,space,0.0841,NAN,,NAN,1.75,4.25,,0,83,83,83,1,84,Sam,Rej,Participant_Images/5c9d004ee3b6c40015254526/5c9d004ee3b6c40015254526_Images/5c9d004ee3b6c40015254526_Image_11.jpeg,did not like,2.7105123,,,,,,,,,,,,,,,,,,,,,,
,,5c9d004ee3b6c40015254526,6685aa9113c938e83b4f1ea0,67093dd0f2b575e8f6e10bf1,2024-10-11_10h02.16.809,WTP_SM_Choice,2022.2.1,MacIntel,64.1025641,,,,,,,,,,,,,,,,,,81,,,,,,space,2.5488,space,3.1321,0.01,1,2.2535,0,0,0,0,1,read about niche historical battles,Go to the store with my siblings,0.01,0.02,3.3,1,,,,
,,5c9d004ee3b6c40015254526,6685aa9113c938e83b4f1ea0,67093dd0f2b575e8f6e10bf1,2024-10-11_10h02.16.809,WTP_SM_Choice,2022.2.1,MacIntel,64.1025641,,,,,,,,,,,,,,,,,,82,,,,,,,,,,0.02,1,2.1011,0,1,1,1,1,Listen to music that my friends made,Go to the studio with my rappers,0.02,0.02,4.4,1,,,,
,,5c9d004ee3b6c40015254526,6685aa9113c938e83b4f1ea0,67093dd0f2b575e8f6e10bf1,2024-10-11_10h02.16.809,WTP_SM_Choice,2022.2.1,MacIntel,64.1025641,,,,,,,,,,,,,,,,,,83,,,,,,,,,,0.02,2,1.8544,0,2,2,2,1,Produce rap songs in the studio,Learn new chords on my guitar from my mentor,0.03,0.02,1.1,1,,,,
,,5c9d004ee3b6c40015254526,6685aa9113c938e83b4f1ea0,67093dd0f2b575e8f6e10bf1,2024-10-11_10h02.16.809,WTP_SM_Choice,2022.2.1,MacIntel,64.1025641,,,,,,,,,,,,,,,,,,84,,,,,,,,,,0.02,2,1.2682,0,3,3,3,1,Go to the store with my siblings,Make beats in the studio,0.04,0.02,3.3,0,,,,
,,5c9d004ee3b6c40015254526,6685aa9113c938e83b4f1ea0,67093dd0f2b575e8f6e10bf1,2024-10-11_10h02.16.809,WTP_SM_Choice,2022.2.1,MacIntel,64.1025641,,,,,,,,,,,,,,,,,,85,,,,,,,,,,0.02,2,2.4645,0,4,4,4,1,Watch reality television before bed,Shop for new clothes with my girlfriend,0.05,0.02,3.3,1,,,,
,,5c9d004ee3b6c40015254526,6685aa9113c938e83b4f1ea0,67093dd0f2b575e8f6e10bf1,2024-10-11_10h02.16.809,WTP_SM_Choice,2022.2.1,MacIntel,64.1025641,,,,,,,NAN,,NAN,1.84,4.16,,0,84,84,84,1,85,Sam,Rej,Participant_Images/5c9d004ee3b6c40015254526/5c9d004ee3b6c40015254526_Images/5c9d004ee3b6c40015254526_Image_24.jpeg,did not like,3.602308302,,,,,,,,,,,,,,,,,,,,,,
,,5c9d004ee3b6c40015254526,6685aa9113c938e83b4f1ea0,67093dd0f2b575e8f6e10bf1,2024-10-11_10h02.16.809,WTP_SM_Choice,2022.2.1,MacIntel,64.1025641,,,,,space,3.0835,NAN,,NAN,1.84,4.16,,0,85,85,85,1,86,Sam,Rej,Participant_Images/5c9d004ee3b6c40015254526/5c9d004ee3b6c40015254526_Images/5c9d004ee3b6c40015254526_Image_17.jpeg,did not like,4.106391878,,,,,,,,,,,,,,,,,,,,,,
,,5c9d004ee3b6c40015254526,6685aa9113c938e83b4f1ea0,67093dd0f2b575e8f6e10bf1,2024-10-11_10h02.16.809,WTP_SM_Choice,2022.2.1,MacIntel,64.1025641,,,,,space,2.2972,NAN,,NAN,1.84,4.16,,0,86,86,86,1,87,Sam,Rej,Participant_Images/5c9d004ee3b6c40015254526/5c9d004ee3b6c40015254526_Images/5c9d004ee3b6c40015254526_Image_23.jpeg,did not like,3.799433026,,,,,,,,,,,,,,,,,,,,,,
,,5c9d004ee3b6c40015254526,6685aa9113c938e83b4f1ea0,67093dd0f2b575e8f6e10bf1,2024-10-11_10h02.16.809,WTP_SM_Choice,2022.2.1,MacIntel,64.1025641,,,,,space,1.8666,NAN,,NAN,1.84,4.16,,0,87,87,87,1,88,Sam,Rej,Participant_Images/5c9d004ee3b6c40015254526/5c9d004ee3b6c40015254526_Images/5c9d004ee3b6c40015254526_Image_25.jpeg,did not like,5.246980764,,,,,,,,,,,,,,,,,,,,,,
,,5c9d004ee3b6c40015254526,6685aa9113c938e83b4f1ea0,67093dd0f2b575e8f6e10bf1,2024-10-11_10h02.16.809,WTP_SM_Choice,2022.2.1,MacIntel,64.1025641,,,,,space,3.1549,NAN,,NAN,1.84,4.16,,0,88,88,88,1,89,Sam,Rej,Participant_Images/5c9d004ee3b6c40015254526/5c9d004ee3b6c40015254526_Images/5c9d004ee3b6c40015254526_Image_6.jpeg,did not like,3.30081769,,,,,,,,,,,,,,,,,,,,,,
,,5c9d004ee3b6c40015254526,6685aa9113c938e83b4f1ea0,67093dd0f2b575e8f6e10bf1,2024-10-11_10h02.16.809,WTP_SM_Choice,2022.2.1,MacIntel,64.1025641,,,,,,,,,,,,,,,,,,86,,,,,,space,0.252,space,0.7674,0.01,1,0.8035,0,0,0,0,1,Produce rap songs in the studio,Jam out with my brother's band,0.01,0.03,1.1,1,,,,
,,5c9d004ee3b6c40015254526,6685aa9113c938e83b4f1ea0,67093dd0f2b575e8f6e10bf1,2024-10-11_10h02.16.809,WTP_SM_Choice,2022.2.1,MacIntel,64.1025641,,,,,,,,,,,,,,,,,,87,,,,,,,,,,0.02,1,2.6844,0,1,1,1,1,read about niche historical battles,Make pasta with my girlfriend,0.02,0.03,4.4,1,,,,
,,5c9d004ee3b6c40015254526,6685aa9113c938e83b4f1ea0,67093dd0f2b575e8f6e10bf1,2024-10-11_10h02.16.809,WTP_SM_Choice,2022.2.1,MacIntel,64.1025641,,,,,,,,,,,,,,,,,,88,,,,,,,,,,0.03,1,4.4969,0,2,2,2,1,Jam out with my brother's band,Make beats in the studio,0.03,0.03,1.1,0,,,,
,,5c9d004ee3b6c40015254526,6685aa9113c938e83b4f1ea0,67093dd0f2b575e8f6e10bf1,2024-10-11_10h02.16.809,WTP_SM_Choice,2022.2.1,MacIntel,64.1025641,,,,,,,,,,,,,,,,,,89,,,,,,,,,,0.04,1,4.9475,0,3,3,3,1,read about niche historical battles,Show off new clothes to my friends,0.04,0.03,3.3,1,,,,
,,5c9d004ee3b6c40015254526,6685aa9113c938e83b4f1ea0,67093dd0f2b575e8f6e10bf1,2024-10-11_10h02.16.809,WTP_SM_Choice,2022.2.1,MacIntel,64.1025641,,,,,,,,,,,,,,,,,,90,,,,,,,,,,0.03,2,5.7864,0,4,4,4,1,Go to the gym to work out,Run duos on fortnite with my girlfriend,0.05,0.03,8.8,1,,,,
,,5c9d004ee3b6c40015254526,6685aa9113c938e83b4f1ea0,67093dd0f2b575e8f6e10bf1,2024-10-11_10h02.16.809,WTP_SM_Choice,2022.2.1,MacIntel,64.1025641,,,,,,,NAN,,NAN,1.97,4.03,,0,89,89,89,1,90,Sam,Rej,Participant_Images/5c9d004ee3b6c40015254526/5c9d004ee3b6c40015254526_Images/5c9d004ee3b6c40015254526_Image_10.jpeg,did not like,1.661473164,,,,,,,,,,,,,,,,,,,,,,
,,5c9d004ee3b6c40015254526,6685aa9113c938e83b4f1ea0,67093dd0f2b575e8f6e10bf1,2024-10-11_10h02.16.809,WTP_SM_Choice,2022.2.1,MacIntel,64.1025641,,,,,space,2.0157,NAN,,NAN,1.97,4.03,,0,90,90,90,1,91,Sam,Rej,Participant_Images/5c9d004ee3b6c40015254526/5c9d004ee3b6c40015254526_Images/5c9d004ee3b6c40015254526_Image_9.jpeg,liked,3.613205605,,,,,,,,,,,,,,,,,,,,,,
,,5c9d004ee3b6c40015254526,6685aa9113c938e83b4f1ea0,67093dd0f2b575e8f6e10bf1,2024-10-11_10h02.16.809,WTP_SM_Choice,2022.2.1,MacIntel,64.1025641,,,,,space,1.5485,NAN,,NAN,1.97,4.03,,0,91,91,91,1,92,Sam,Rej,Participant_Images/5c9d004ee3b6c40015254526/5c9d004ee3b6c40015254526_Images/5c9d004ee3b6c40015254526_Image_16.jpeg,did not like,4.988446431,,,,,,,,,,,,,,,,,,,,,,
,,5c9d004ee3b6c40015254526,6685aa9113c938e83b4f1ea0,67093dd0f2b575e8f6e10bf1,2024-10-11_10h02.16.809,WTP_SM_Choice,2022.2.1,MacIntel,64.1025641,,,,,space,1.7176,NAN,,NAN,1.97,4.03,,0,92,92,92,1,93,Sam,Rej,Participant_Images/5c9d004ee3b6c40015254526/5c9d004ee3b6c40015254526_Images/5c9d004ee3b6c40015254526_Image_15.jpeg,liked,3.470791822,,,,,,,,,,,,,,,,,,,,,,
,,5c9d004ee3b6c40015254526,6685aa9113c938e83b4f1ea0,67093dd0f2b575e8f6e10bf1,2024-10-11_10h02.16.809,WTP_SM_Choice,2022.2.1,MacIntel,64.1025641,,,,,space,0.8992,NAN,,NAN,1.97,4.03,,0,93,93,93,1,94,Sam,Rej,Participant_Images/5c9d004ee3b6c40015254526/5c9d004ee3b6c40015254526_Images/5c9d004ee3b6c40015254526_Image_8.jpeg,did not like,3.820572462,,,,,,,,,,,,,,,,,,,,,,
,,5c9d004ee3b6c40015254526,6685aa9113c938e83b4f1ea0,67093dd0f2b575e8f6e10bf1,2024-10-11_10h02.16.809,WTP_SM_Choice,2022.2.1,MacIntel,64.1025641,,,,,,,,,,,,,,,,,,91,,,,,,space,12.6498,space,3.9518,0.01,1,1.4532,0,0,0,0,1,Learn new techniques for music production,Go to the store with my siblings,0.01,0.04,3.3,1,,,,
,,5c9d004ee3b6c40015254526,6685aa9113c938e83b4f1ea0,67093dd0f2b575e8f6e10bf1,2024-10-11_10h02.16.809,WTP_SM_Choice,2022.2.1,MacIntel,64.1025641,,,,,,,,,,,,,,,,,,92,,,,,,,,,,0.02,1,1.1646,0,1,1,1,1,Shop for new clothes with my girlfriend,Play my guitar in my apartment,0.02,0.04,8.8,0,,,,
,,5c9d004ee3b6c40015254526,6685aa9113c938e83b4f1ea0,67093dd0f2b575e8f6e10bf1,2024-10-11_10h02.16.809,WTP_SM_Choice,2022.2.1,MacIntel,64.1025641,,,,,,,,,,,,,,,,,,93,,,,,,,,,,0.03,1,1.8527,0,2,2,2,1,Study for class with my study group,read about niche historical battles,0.03,0.04,1.1,0,,,,
,,5c9d004ee3b6c40015254526,6685aa9113c938e83b4f1ea0,67093dd0f2b575e8f6e10bf1,2024-10-11_10h02.16.809,WTP_SM_Choice,2022.2.1,MacIntel,64.1025641,,,,,,,,,,,,,,,,,,94,,,,,,,,,,0.04,2,2.452,0,3,3,3,1,Learn new techniques for music production,Shop for new clothes with my girlfriend,0.04,0.04,4.4,1,,,,
,,5c9d004ee3b6c40015254526,6685aa9113c938e83b4f1ea0,67093dd0f2b575e8f6e10bf1,2024-10-11_10h02.16.809,WTP_SM_Choice,2022.2.1,MacIntel,64.1025641,,,,,,,,,,,,,,,,,,95,,,,,,,,,,0.04,2,1.4671,0,4,4,4,1,Listen to music that my friends made,Shop for new clothes with my girlfriend,0.05,0.04,4.4,1,,,,
,,5c9d004ee3b6c40015254526,6685aa9113c938e83b4f1ea0,67093dd0f2b575e8f6e10bf1,2024-10-11_10h02.16.809,WTP_SM_Choice,2022.2.1,MacIntel,64.1025641,,,,,,,NAN,,NAN,2.11,3.89,,0,94,94,94,1,95,Sam,Rej,Participant_Images/5c9d004ee3b6c40015254526/5c9d004ee3b6c40015254526_Images/5c9d004ee3b6c40015254526_Image_21.jpeg,liked,2.455989137,,,,,,,,,,,,,,,,,,,,,,
,,5c9d004ee3b6c40015254526,6685aa9113c938e83b4f1ea0,67093dd0f2b575e8f6e10bf1,2024-10-11_10h02.16.809,WTP_SM_Choice,2022.2.1,MacIntel,64.1025641,,,,,space,0.9151,NAN,,NAN,2.11,3.89,,0,95,95,95,1,96,Sam,Rej,Participant_Images/5c9d004ee3b6c40015254526/5c9d004ee3b6c40015254526_Images/5c9d004ee3b6c40015254526_Image_1.jpeg,did not like,3.79605092,,,,,,,,,,,,,,,,,,,,,,
,,5c9d004ee3b6c40015254526,6685aa9113c938e83b4f1ea0,67093dd0f2b575e8f6e10bf1,2024-10-11_10h02.16.809,WTP_SM_Choice,2022.2.1,MacIntel,64.1025641,,,,,space,0.2797,NAN,,NAN,2.11,3.89,,0,96,96,96,1,97,Sam,Rej,Participant_Images/5c9d004ee3b6c40015254526/5c9d004ee3b6c40015254526_Images/5c9d004ee3b6c40015254526_Image_2.jpeg,did not like,3.562416326,,,,,,,,,,,,,,,,,,,,,,
,,5c9d004ee3b6c40015254526,6685aa9113c938e83b4f1ea0,67093dd0f2b575e8f6e10bf1,2024-10-11_10h02.16.809,WTP_SM_Choice,2022.2.1,MacIntel,64.1025641,,,,,space,0.0811,NAN,,NAN,2.11,3.89,,0,97,97,97,1,98,Sam,Rej,Participant_Images/5c9d004ee3b6c40015254526/5c9d004ee3b6c40015254526_Images/5c9d004ee3b6c40015254526_Image_20.jpeg,did not like,2.843822497,,,,,,,,,,,,,,,,,,,,,,
,,5c9d004ee3b6c40015254526,6685aa9113c938e83b4f1ea0,67093dd0f2b575e8f6e10bf1,2024-10-11_10h02.16.809,WTP_SM_Choice,2022.2.1,MacIntel,64.1025641,,,,,space,1.5804,NAN,,NAN,2.11,3.89,,0,98,98,98,1,99,Sam,Rej,Participant_Images/5c9d004ee3b6c40015254526/5c9d004ee3b6c40015254526_Images/5c9d004ee3b6c40015254526_Image_3.jpeg,did not like,3.546495948,,,,,,,,,,,,,,,,,,,,,,
,,5c9d004ee3b6c40015254526,6685aa9113c938e83b4f1ea0,67093dd0f2b575e8f6e10bf1,2024-10-11_10h02.16.809,WTP_SM_Choice,2022.2.1,MacIntel,64.1025641,,,,,,,,,,,,,,,,,,96,,,,,,space,2.5663,space,0.8163,0.01,1,1.0153,0,0,0,0,1,Play my guitar in my apartment,Jam out with my brother's band,0.01,0.05,3.3,1,,,,
,,5c9d004ee3b6c40015254526,6685aa9113c938e83b4f1ea0,67093dd0f2b575e8f6e10bf1,2024-10-11_10h02.16.809,WTP_SM_Choice,2022.2.1,MacIntel,64.1025641,,,,,,,,,,,,,,,,,,97,,,,,,,,,,0.02,1,1.5158,0,1,1,1,1,Go to the gym to work out,Make pasta with my girlfriend,0.02,0.05,1.1,1,,,,
,,5c9d004ee3b6c40015254526,6685aa9113c938e83b4f1ea0,67093dd0f2b575e8f6e10bf1,2024-10-11_10h02.16.809,WTP_SM_Choice,2022.2.1,MacIntel,64.1025641,,,,,,,,,,,,,,,,,,98,,,,,,,,,,0.03,1,2.0282,0,2,2,2,1,Show off new clothes to my friends,Produce rap songs in the studio,0.03,0.05,1.1,0,,,,
,,5c9d004ee3b6c40015254526,6685aa9113c938e83b4f1ea0,67093dd0f2b575e8f6e10bf1,2024-10-11_10h02.16.809,WTP_SM_Choice,2022.2.1,MacIntel,64.1025641,,,,,,,,,,,,,,,,,,99,,,,,,,,,,0.04,1,1.5525,0,3,3,3,1,Play video games with my friends on a weekend,Lay in bed late in the morning during the weekend,0.04,0.05,3.3,0,,,,
,,5c9d004ee3b6c40015254526,6685aa9113c938e83b4f1ea0,67093dd0f2b575e8f6e10bf1,2024-10-11_10h02.16.809,WTP_SM_Choice,2022.2.1,MacIntel,64.1025641,,,,,,,,,,,,,,,,,,100,,,,,,,,,,0.05,1,2.9824,0,4,4,4,1,Study for class with my study group,Go to the lake or beach whenever I am out of town,0.05,0.05,4.4,0,,,,
,,5c9d004ee3b6c40015254526,6685aa9113c938e83b4f1ea0,67093dd0f2b575e8f6e10bf1,2024-10-11_10h02.16.809,WTP_SM_Choice,2022.2.1,MacIntel,64.1025641,,,,,,,3,,4,2.26,3.74,,0,99,99,99,1,100,Sam,Rej,Participant_Images/5c9d004ee3b6c40015254526/5c9d004ee3b6c40015254526_Images/5c9d004ee3b6c40015254526_Image_4.jpeg,liked,1.672012706,,,,,,,,,,,,,,,,,,,space,0.7335,,
,,5c9d004ee3b6c40015254526,6685aa9113c938e83b4f1ea0,67093dd0f2b575e8f6e10bf1,2024-10-11_10h02.16.809,WTP_SM_Choice,2022.2.1,MacIntel,64.1025641,,,,,,,,,,,,,,,,,,,,,,,,,,,,,,,,,,,,,,,,,,,,space,2.766
