endwelcomescreen_keys.keys,endwelcomescreen_keys.rt,participant,STUDY_ID,SESSION_ID,date,expName,psychopyVersion,OS,frameRate,endinstructionscreen_keys.keys,endinstructionscreen_keys.rt,endpartnermatch_keys.keys,endpartnermatch_keys.rt,sharenextphoto_key.keys,sharenextphoto_key.rt,salience_rating,key_resp.keys,stress_level,subtract_bonus,TOTAL_TASK_BONUS,stresslevel_keypress.keys,entiretaskloop.thisRepN,entiretaskloop.thisTrialN,entiretaskloop.thisN,entiretaskloop.thisIndex,entiretaskloop.ran,TrialNumber,Partner,Condition,Photos,Feedback,FeedbackWait,WTP_ins_keys1.keys,WTP_ins_keys1.rt,WTP_ins_keys2.keys,WTP_ins_keys2.rt,responses.keys,WTPTaskLoop.thisRepN,WTPTaskLoop.thisTrialN,WTPTaskLoop.thisN,WTPTaskLoop.thisIndex,WTPTaskLoop.ran,right,left,leftmoney,rightmoney,WTP_ITI,social_left,decision_price,responses.rt,Resume_keys.keys,Resume_keys.rt,end_screen_keys.keys,end_screen_keys.rt
space,4.9485,5cc3f0f9fdb33500018c5eeb,6685aa9113c938e83b4f1ea0,66bcc1282ed5ffec8777e14b,2024-08-14_07h37.55.392,WTP_SM_Choice,2022.2.1,Win32,60.60606061,,,,,,,,,,,,,,,,,,,,,,,,,,,,,,,,,,,,,,,,,,,,,
,,5cc3f0f9fdb33500018c5eeb,6685aa9113c938e83b4f1ea0,66bcc1282ed5ffec8777e14b,2024-08-14_07h37.55.392,WTP_SM_Choice,2022.2.1,Win32,60.60606061,space,14.2795,,,,,,,,,,,,,,,,,,,,,,,,,,,,,,,,,,,,,,,,,,,
,,5cc3f0f9fdb33500018c5eeb,6685aa9113c938e83b4f1ea0,66bcc1282ed5ffec8777e14b,2024-08-14_07h37.55.392,WTP_SM_Choice,2022.2.1,Win32,60.60606061,,,space,1.5275,space,0.851,NAN,,NAN,0,6,,0,0,0,0,1,1,Charlie,Acc,Participant_Images/5cc3f0f9fdb33500018c5eeb/5cc3f0f9fdb33500018c5eeb_Images/5cc3f0f9fdb33500018c5eeb_Image_20.jpeg,did not like,3.613205605,,,,,,,,,,,,,,,,,,,,,,
,,5cc3f0f9fdb33500018c5eeb,6685aa9113c938e83b4f1ea0,66bcc1282ed5ffec8777e14b,2024-08-14_07h37.55.392,WTP_SM_Choice,2022.2.1,Win32,60.60606061,,,,,space,0.713,NAN,,NAN,0,6,,0,1,1,1,1,2,Charlie,Acc,Participant_Images/5cc3f0f9fdb33500018c5eeb/5cc3f0f9fdb33500018c5eeb_Images/5cc3f0f9fdb33500018c5eeb_Image_23.jpeg,liked,4.988446431,,,,,,,,,,,,,,,,,,,,,,
,,5cc3f0f9fdb33500018c5eeb,6685aa9113c938e83b4f1ea0,66bcc1282ed5ffec8777e14b,2024-08-14_07h37.55.392,WTP_SM_Choice,2022.2.1,Win32,60.60606061,,,,,space,0.6532,NAN,,NAN,0,6,,0,2,2,2,1,3,Charlie,Acc,Participant_Images/5cc3f0f9fdb33500018c5eeb/5cc3f0f9fdb33500018c5eeb_Images/5cc3f0f9fdb33500018c5eeb_Image_21.jpeg,liked,3.470791822,,,,,,,,,,,,,,,,,,,,,,
,,5cc3f0f9fdb33500018c5eeb,6685aa9113c938e83b4f1ea0,66bcc1282ed5ffec8777e14b,2024-08-14_07h37.55.392,WTP_SM_Choice,2022.2.1,Win32,60.60606061,,,,,space,0.7536,NAN,,NAN,0,6,,0,3,3,3,1,4,Charlie,Acc,Participant_Images/5cc3f0f9fdb33500018c5eeb/5cc3f0f9fdb33500018c5eeb_Images/5cc3f0f9fdb33500018c5eeb_Image_22.jpeg,liked,3.820572462,,,,,,,,,,,,,,,,,,,,,,
,,5cc3f0f9fdb33500018c5eeb,6685aa9113c938e83b4f1ea0,66bcc1282ed5ffec8777e14b,2024-08-14_07h37.55.392,WTP_SM_Choice,2022.2.1,Win32,60.60606061,,,,,,,,,,,,,,,,,,1,,,,,,space,12.9006,space,5.3617,,0,0,0,0,1,Working on sorting and organizing a coin collection,Going to a show,0.01,0.01,4.4,1,,,,,,
,,5cc3f0f9fdb33500018c5eeb,6685aa9113c938e83b4f1ea0,66bcc1282ed5ffec8777e14b,2024-08-14_07h37.55.392,WTP_SM_Choice,2022.2.1,Win32,60.60606061,,,,,,,,,,,,,,,,,,2,,,,,,,,,,1,0,1,1,1,1,Playing Xbox on two TVs,Taking my truck to the car wash,0.02,0.01,8.8,0,0.02,4.1942,,,,
,,5cc3f0f9fdb33500018c5eeb,6685aa9113c938e83b4f1ea0,66bcc1282ed5ffec8777e14b,2024-08-14_07h37.55.392,WTP_SM_Choice,2022.2.1,Win32,60.60606061,,,,,,,,,,,,,,,,,,3,,,,,,,,,,1,0,2,2,2,1,Going to the river,Taking a long bath,0.03,0.01,3.3,0,0.03,1.6766,,,,
,,5cc3f0f9fdb33500018c5eeb,6685aa9113c938e83b4f1ea0,66bcc1282ed5ffec8777e14b,2024-08-14_07h37.55.392,WTP_SM_Choice,2022.2.1,Win32,60.60606061,,,,,,,,,,,,,,,,,,4,,,,,,,,,,1,0,3,3,3,1,Going to a new resturaunt,Organizing and rearranging my room,0.04,0.01,1.1,0,0.04,1.327,,,,
,,5cc3f0f9fdb33500018c5eeb,6685aa9113c938e83b4f1ea0,66bcc1282ed5ffec8777e14b,2024-08-14_07h37.55.392,WTP_SM_Choice,2022.2.1,Win32,60.60606061,,,,,,,,,,,,,,,,,,5,,,,,,,,,,1,0,4,4,4,1,Drawing on procreate,Going to the river,0.05,0.01,1.1,1,0.05,1.6251,,,,
,,5cc3f0f9fdb33500018c5eeb,6685aa9113c938e83b4f1ea0,66bcc1282ed5ffec8777e14b,2024-08-14_07h37.55.392,WTP_SM_Choice,2022.2.1,Win32,60.60606061,,,,,,,NAN,,NAN,0.14,5.86,,0,4,4,4,1,5,Charlie,Acc,Participant_Images/5cc3f0f9fdb33500018c5eeb/5cc3f0f9fdb33500018c5eeb_Images/5cc3f0f9fdb33500018c5eeb_Image_25.jpeg,did not like,2.455989137,,,,,,,,,,,,,,,,,,,,,,
,,5cc3f0f9fdb33500018c5eeb,6685aa9113c938e83b4f1ea0,66bcc1282ed5ffec8777e14b,2024-08-14_07h37.55.392,WTP_SM_Choice,2022.2.1,Win32,60.60606061,,,,,space,0.8439,NAN,,NAN,0.14,5.86,,0,5,5,5,1,6,Charlie,Acc,Participant_Images/5cc3f0f9fdb33500018c5eeb/5cc3f0f9fdb33500018c5eeb_Images/5cc3f0f9fdb33500018c5eeb_Image_4.jpeg,liked,3.79605092,,,,,,,,,,,,,,,,,,,,,,
,,5cc3f0f9fdb33500018c5eeb,6685aa9113c938e83b4f1ea0,66bcc1282ed5ffec8777e14b,2024-08-14_07h37.55.392,WTP_SM_Choice,2022.2.1,Win32,60.60606061,,,,,space,0.8585,NAN,,NAN,0.14,5.86,,0,6,6,6,1,7,Charlie,Acc,Participant_Images/5cc3f0f9fdb33500018c5eeb/5cc3f0f9fdb33500018c5eeb_Images/5cc3f0f9fdb33500018c5eeb_Image_1.jpeg,liked,3.562416326,,,,,,,,,,,,,,,,,,,,,,
,,5cc3f0f9fdb33500018c5eeb,6685aa9113c938e83b4f1ea0,66bcc1282ed5ffec8777e14b,2024-08-14_07h37.55.392,WTP_SM_Choice,2022.2.1,Win32,60.60606061,,,,,space,1.0009,NAN,,NAN,0.14,5.86,,0,7,7,7,1,8,Charlie,Acc,Participant_Images/5cc3f0f9fdb33500018c5eeb/5cc3f0f9fdb33500018c5eeb_Images/5cc3f0f9fdb33500018c5eeb_Image_11.jpeg,liked,2.843822497,,,,,,,,,,,,,,,,,,,,,,
,,5cc3f0f9fdb33500018c5eeb,6685aa9113c938e83b4f1ea0,66bcc1282ed5ffec8777e14b,2024-08-14_07h37.55.392,WTP_SM_Choice,2022.2.1,Win32,60.60606061,,,,,space,0.6699,NAN,,NAN,0.14,5.86,,0,8,8,8,1,9,Charlie,Acc,Participant_Images/5cc3f0f9fdb33500018c5eeb/5cc3f0f9fdb33500018c5eeb_Images/5cc3f0f9fdb33500018c5eeb_Image_8.jpeg,liked,3.546495948,,,,,,,,,,,,,,,,,,,,,,
,,5cc3f0f9fdb33500018c5eeb,6685aa9113c938e83b4f1ea0,66bcc1282ed5ffec8777e14b,2024-08-14_07h37.55.392,WTP_SM_Choice,2022.2.1,Win32,60.60606061,,,,,,,,,,,,,,,,,,6,,,,,,space,1.8046,space,1.2863,2,0,0,0,0,1,Going to the casino,Going to the river,0.01,0.02,3.3,1,0.02,1.7377,,,,
,,5cc3f0f9fdb33500018c5eeb,6685aa9113c938e83b4f1ea0,66bcc1282ed5ffec8777e14b,2024-08-14_07h37.55.392,WTP_SM_Choice,2022.2.1,Win32,60.60606061,,,,,,,,,,,,,,,,,,7,,,,,,,,,,2,0,1,1,1,1,Going on a drive to the river,Going to go to a paint and sip,0.02,0.02,1.1,1,0.02,2.7297,,,,
,,5cc3f0f9fdb33500018c5eeb,6685aa9113c938e83b4f1ea0,66bcc1282ed5ffec8777e14b,2024-08-14_07h37.55.392,WTP_SM_Choice,2022.2.1,Win32,60.60606061,,,,,,,,,,,,,,,,,,8,,,,,,,,,,1,0,2,2,2,1,Going on a drive to the river,Watching a movie,0.03,0.02,1.1,1,0.03,3.6736,,,,
,,5cc3f0f9fdb33500018c5eeb,6685aa9113c938e83b4f1ea0,66bcc1282ed5ffec8777e14b,2024-08-14_07h37.55.392,WTP_SM_Choice,2022.2.1,Win32,60.60606061,,,,,,,,,,,,,,,,,,9,,,,,,,,,,1,0,3,3,3,1,Drawing on procreate,Playing Xbox on two TVs,0.04,0.02,4.4,1,0.04,1.01,,,,
,,5cc3f0f9fdb33500018c5eeb,6685aa9113c938e83b4f1ea0,66bcc1282ed5ffec8777e14b,2024-08-14_07h37.55.392,WTP_SM_Choice,2022.2.1,Win32,60.60606061,,,,,,,,,,,,,,,,,,10,,,,,,,,,,1,0,4,4,4,1,Doing a diamond painting,Going to play laser tag,0.05,0.02,1.1,1,0.05,2.0364,,,,
,,5cc3f0f9fdb33500018c5eeb,6685aa9113c938e83b4f1ea0,66bcc1282ed5ffec8777e14b,2024-08-14_07h37.55.392,WTP_SM_Choice,2022.2.1,Win32,60.60606061,,,,,,,NAN,,NAN,0.3,5.7,,0,9,9,9,1,10,Charlie,Acc,Participant_Images/5cc3f0f9fdb33500018c5eeb/5cc3f0f9fdb33500018c5eeb_Images/5cc3f0f9fdb33500018c5eeb_Image_16.jpeg,did not like,1.672012706,,,,,,,,,,,,,,,,,,,,,,
,,5cc3f0f9fdb33500018c5eeb,6685aa9113c938e83b4f1ea0,66bcc1282ed5ffec8777e14b,2024-08-14_07h37.55.392,WTP_SM_Choice,2022.2.1,Win32,60.60606061,,,,,space,1.7307,NAN,,NAN,0.3,5.7,,0,10,10,10,1,11,Charlie,Acc,Participant_Images/5cc3f0f9fdb33500018c5eeb/5cc3f0f9fdb33500018c5eeb_Images/5cc3f0f9fdb33500018c5eeb_Image_13.jpeg,liked,4.942172136,,,,,,,,,,,,,,,,,,,,,,
,,5cc3f0f9fdb33500018c5eeb,6685aa9113c938e83b4f1ea0,66bcc1282ed5ffec8777e14b,2024-08-14_07h37.55.392,WTP_SM_Choice,2022.2.1,Win32,60.60606061,,,,,space,0.624,NAN,,NAN,0.3,5.7,,0,11,11,11,1,12,Charlie,Acc,Participant_Images/5cc3f0f9fdb33500018c5eeb/5cc3f0f9fdb33500018c5eeb_Images/5cc3f0f9fdb33500018c5eeb_Image_9.jpeg,did not like,2.50187214,,,,,,,,,,,,,,,,,,,,,,
,,5cc3f0f9fdb33500018c5eeb,6685aa9113c938e83b4f1ea0,66bcc1282ed5ffec8777e14b,2024-08-14_07h37.55.392,WTP_SM_Choice,2022.2.1,Win32,60.60606061,,,,,space,0.5519,NAN,,NAN,0.3,5.7,,0,12,12,12,1,13,Charlie,Acc,Participant_Images/5cc3f0f9fdb33500018c5eeb/5cc3f0f9fdb33500018c5eeb_Images/5cc3f0f9fdb33500018c5eeb_Image_17.jpeg,liked,2.071164779,,,,,,,,,,,,,,,,,,,,,,
,,5cc3f0f9fdb33500018c5eeb,6685aa9113c938e83b4f1ea0,66bcc1282ed5ffec8777e14b,2024-08-14_07h37.55.392,WTP_SM_Choice,2022.2.1,Win32,60.60606061,,,,,space,0.5701,NAN,,NAN,0.3,5.7,,0,13,13,13,1,14,Charlie,Acc,Participant_Images/5cc3f0f9fdb33500018c5eeb/5cc3f0f9fdb33500018c5eeb_Images/5cc3f0f9fdb33500018c5eeb_Image_10.jpeg,liked,5.336503566,,,,,,,,,,,,,,,,,,,,,,
,,5cc3f0f9fdb33500018c5eeb,6685aa9113c938e83b4f1ea0,66bcc1282ed5ffec8777e14b,2024-08-14_07h37.55.392,WTP_SM_Choice,2022.2.1,Win32,60.60606061,,,,,,,,,,,,,,,,,,11,,,,,,space,4.4851,space,4.5188,2,0,0,0,0,1,Taking my truck to the car wash,Watching a movie,0.01,0.03,3.3,1,0.03,1.5127,,,,
,,5cc3f0f9fdb33500018c5eeb,6685aa9113c938e83b4f1ea0,66bcc1282ed5ffec8777e14b,2024-08-14_07h37.55.392,WTP_SM_Choice,2022.2.1,Win32,60.60606061,,,,,,,,,,,,,,,,,,12,,,,,,,,,,2,0,1,1,1,1,Going to the casino,Watching a movie,0.02,0.03,4.4,1,0.03,1.444,,,,
,,5cc3f0f9fdb33500018c5eeb,6685aa9113c938e83b4f1ea0,66bcc1282ed5ffec8777e14b,2024-08-14_07h37.55.392,WTP_SM_Choice,2022.2.1,Win32,60.60606061,,,,,,,,,,,,,,,,,,13,,,,,,,,,,1,0,2,2,2,1,Playing Xbox on two TVs,Organizing and rearranging my room,0.03,0.03,1.1,0,0.03,1.6137,,,,
,,5cc3f0f9fdb33500018c5eeb,6685aa9113c938e83b4f1ea0,66bcc1282ed5ffec8777e14b,2024-08-14_07h37.55.392,WTP_SM_Choice,2022.2.1,Win32,60.60606061,,,,,,,,,,,,,,,,,,14,,,,,,,,,,1,0,3,3,3,1,Doing a diamond painting,Going to a show,0.04,0.03,3.3,1,0.04,2.5972,,,,
,,5cc3f0f9fdb33500018c5eeb,6685aa9113c938e83b4f1ea0,66bcc1282ed5ffec8777e14b,2024-08-14_07h37.55.392,WTP_SM_Choice,2022.2.1,Win32,60.60606061,,,,,,,,,,,,,,,,,,15,,,,,,,,,,1,0,4,4,4,1,Going to play laser tag,Organizing and rearranging my room,0.05,0.03,4.4,0,0.05,1.4887,,,,
,,5cc3f0f9fdb33500018c5eeb,6685aa9113c938e83b4f1ea0,66bcc1282ed5ffec8777e14b,2024-08-14_07h37.55.392,WTP_SM_Choice,2022.2.1,Win32,60.60606061,,,,,,,NAN,,NAN,0.48,5.52,,0,14,14,14,1,15,Charlie,Acc,Participant_Images/5cc3f0f9fdb33500018c5eeb/5cc3f0f9fdb33500018c5eeb_Images/5cc3f0f9fdb33500018c5eeb_Image_12.jpeg,liked,2.642157193,,,,,,,,,,,,,,,,,,,,,,
,,5cc3f0f9fdb33500018c5eeb,6685aa9113c938e83b4f1ea0,66bcc1282ed5ffec8777e14b,2024-08-14_07h37.55.392,WTP_SM_Choice,2022.2.1,Win32,60.60606061,,,,,space,1.0359,NAN,,NAN,0.48,5.52,,0,15,15,15,1,16,Charlie,Acc,Participant_Images/5cc3f0f9fdb33500018c5eeb/5cc3f0f9fdb33500018c5eeb_Images/5cc3f0f9fdb33500018c5eeb_Image_14.jpeg,liked,4.456234322,,,,,,,,,,,,,,,,,,,,,,
,,5cc3f0f9fdb33500018c5eeb,6685aa9113c938e83b4f1ea0,66bcc1282ed5ffec8777e14b,2024-08-14_07h37.55.392,WTP_SM_Choice,2022.2.1,Win32,60.60606061,,,,,space,0.8335,NAN,,NAN,0.48,5.52,,0,16,16,16,1,17,Charlie,Acc,Participant_Images/5cc3f0f9fdb33500018c5eeb/5cc3f0f9fdb33500018c5eeb_Images/5cc3f0f9fdb33500018c5eeb_Image_24.jpeg,liked,4.438512181,,,,,,,,,,,,,,,,,,,,,,
,,5cc3f0f9fdb33500018c5eeb,6685aa9113c938e83b4f1ea0,66bcc1282ed5ffec8777e14b,2024-08-14_07h37.55.392,WTP_SM_Choice,2022.2.1,Win32,60.60606061,,,,,space,0.551,NAN,,NAN,0.48,5.52,,0,17,17,17,1,18,Charlie,Acc,Participant_Images/5cc3f0f9fdb33500018c5eeb/5cc3f0f9fdb33500018c5eeb_Images/5cc3f0f9fdb33500018c5eeb_Image_3.jpeg,did not like,2.682944783,,,,,,,,,,,,,,,,,,,,,,
,,5cc3f0f9fdb33500018c5eeb,6685aa9113c938e83b4f1ea0,66bcc1282ed5ffec8777e14b,2024-08-14_07h37.55.392,WTP_SM_Choice,2022.2.1,Win32,60.60606061,,,,,space,0.5924,NAN,,NAN,0.48,5.52,,0,18,18,18,1,19,Charlie,Acc,Participant_Images/5cc3f0f9fdb33500018c5eeb/5cc3f0f9fdb33500018c5eeb_Images/5cc3f0f9fdb33500018c5eeb_Image_18.jpeg,liked,4.51984296,,,,,,,,,,,,,,,,,,,,,,
,,5cc3f0f9fdb33500018c5eeb,6685aa9113c938e83b4f1ea0,66bcc1282ed5ffec8777e14b,2024-08-14_07h37.55.392,WTP_SM_Choice,2022.2.1,Win32,60.60606061,,,,,,,,,,,,,,,,,,16,,,,,,space,4.6973,space,2.3497,1,0,0,0,0,1,Going to go to a paint and sip,Playing Xbox,0.01,0.04,1.1,0,0.01,1.113,,,,
,,5cc3f0f9fdb33500018c5eeb,6685aa9113c938e83b4f1ea0,66bcc1282ed5ffec8777e14b,2024-08-14_07h37.55.392,WTP_SM_Choice,2022.2.1,Win32,60.60606061,,,,,,,,,,,,,,,,,,17,,,,,,,,,,1,0,1,1,1,1,Playing Xbox on two TVs,Working on sorting and organizing a coin collection,0.02,0.04,8.8,0,0.02,0.9286,,,,
,,5cc3f0f9fdb33500018c5eeb,6685aa9113c938e83b4f1ea0,66bcc1282ed5ffec8777e14b,2024-08-14_07h37.55.392,WTP_SM_Choice,2022.2.1,Win32,60.60606061,,,,,,,,,,,,,,,,,,18,,,,,,,,,,1,0,2,2,2,1,Going on a drive to the river,Going to a show,0.03,0.04,3.3,1,0.03,1.3326,,,,
,,5cc3f0f9fdb33500018c5eeb,6685aa9113c938e83b4f1ea0,66bcc1282ed5ffec8777e14b,2024-08-14_07h37.55.392,WTP_SM_Choice,2022.2.1,Win32,60.60606061,,,,,,,,,,,,,,,,,,19,,,,,,,,,,1,0,3,3,3,1,Going on a picnic to a park,Drawing on procreate,0.04,0.04,3.3,0,0.04,3.3743,,,,
,,5cc3f0f9fdb33500018c5eeb,6685aa9113c938e83b4f1ea0,66bcc1282ed5ffec8777e14b,2024-08-14_07h37.55.392,WTP_SM_Choice,2022.2.1,Win32,60.60606061,,,,,,,,,,,,,,,,,,20,,,,,,,,,,2,0,4,4,4,1,Going to the river,Taking my truck to the car wash,0.05,0.04,1.1,0,0.04,0.956,,,,
,,5cc3f0f9fdb33500018c5eeb,6685aa9113c938e83b4f1ea0,66bcc1282ed5ffec8777e14b,2024-08-14_07h37.55.392,WTP_SM_Choice,2022.2.1,Win32,60.60606061,,,,,,,NAN,,NAN,0.62,5.38,,0,19,19,19,1,20,Charlie,Acc,Participant_Images/5cc3f0f9fdb33500018c5eeb/5cc3f0f9fdb33500018c5eeb_Images/5cc3f0f9fdb33500018c5eeb_Image_19.jpeg,did not like,3.195382774,,,,,,,,,,,,,,,,,,,,,,
,,5cc3f0f9fdb33500018c5eeb,6685aa9113c938e83b4f1ea0,66bcc1282ed5ffec8777e14b,2024-08-14_07h37.55.392,WTP_SM_Choice,2022.2.1,Win32,60.60606061,,,,,space,0.5518,NAN,,NAN,0.62,5.38,,0,20,20,20,1,21,Charlie,Acc,Participant_Images/5cc3f0f9fdb33500018c5eeb/5cc3f0f9fdb33500018c5eeb_Images/5cc3f0f9fdb33500018c5eeb_Image_2.jpeg,liked,1.779333479,,,,,,,,,,,,,,,,,,,,,,
,,5cc3f0f9fdb33500018c5eeb,6685aa9113c938e83b4f1ea0,66bcc1282ed5ffec8777e14b,2024-08-14_07h37.55.392,WTP_SM_Choice,2022.2.1,Win32,60.60606061,,,,,space,0.5275,NAN,,NAN,0.62,5.38,,0,21,21,21,1,22,Charlie,Acc,Participant_Images/5cc3f0f9fdb33500018c5eeb/5cc3f0f9fdb33500018c5eeb_Images/5cc3f0f9fdb33500018c5eeb_Image_5.jpeg,did not like,4.312468682,,,,,,,,,,,,,,,,,,,,,,
,,5cc3f0f9fdb33500018c5eeb,6685aa9113c938e83b4f1ea0,66bcc1282ed5ffec8777e14b,2024-08-14_07h37.55.392,WTP_SM_Choice,2022.2.1,Win32,60.60606061,,,,,space,0.6281,NAN,,NAN,0.62,5.38,,0,22,22,22,1,23,Charlie,Acc,Participant_Images/5cc3f0f9fdb33500018c5eeb/5cc3f0f9fdb33500018c5eeb_Images/5cc3f0f9fdb33500018c5eeb_Image_7.jpeg,liked,4.940433059,,,,,,,,,,,,,,,,,,,,,,
,,5cc3f0f9fdb33500018c5eeb,6685aa9113c938e83b4f1ea0,66bcc1282ed5ffec8777e14b,2024-08-14_07h37.55.392,WTP_SM_Choice,2022.2.1,Win32,60.60606061,,,,,space,0.6129,NAN,,NAN,0.62,5.38,,0,23,23,23,1,24,Charlie,Acc,Participant_Images/5cc3f0f9fdb33500018c5eeb/5cc3f0f9fdb33500018c5eeb_Images/5cc3f0f9fdb33500018c5eeb_Image_6.jpeg,liked,2.7105123,,,,,,,,,,,,,,,,,,,,,,
,,5cc3f0f9fdb33500018c5eeb,6685aa9113c938e83b4f1ea0,66bcc1282ed5ffec8777e14b,2024-08-14_07h37.55.392,WTP_SM_Choice,2022.2.1,Win32,60.60606061,,,,,,,,,,,,,,,,,,21,,,,,,space,3.2791,space,1.9069,1,0,0,0,0,1,Drawing on procreate,Going to a football game,0.01,0.05,8.8,1,0.01,1.1814,,,,
,,5cc3f0f9fdb33500018c5eeb,6685aa9113c938e83b4f1ea0,66bcc1282ed5ffec8777e14b,2024-08-14_07h37.55.392,WTP_SM_Choice,2022.2.1,Win32,60.60606061,,,,,,,,,,,,,,,,,,22,,,,,,,,,,1,0,1,1,1,1,Going to a football game,Going to the casino,0.02,0.05,4.4,0,0.02,1.0522,,,,
,,5cc3f0f9fdb33500018c5eeb,6685aa9113c938e83b4f1ea0,66bcc1282ed5ffec8777e14b,2024-08-14_07h37.55.392,WTP_SM_Choice,2022.2.1,Win32,60.60606061,,,,,,,,,,,,,,,,,,23,,,,,,,,,,1,0,2,2,2,1,Going to go to a paint and sip,Taking my truck to the car wash,0.03,0.05,1.1,0,0.03,0.9118,,,,
,,5cc3f0f9fdb33500018c5eeb,6685aa9113c938e83b4f1ea0,66bcc1282ed5ffec8777e14b,2024-08-14_07h37.55.392,WTP_SM_Choice,2022.2.1,Win32,60.60606061,,,,,,,,,,,,,,,,,,24,,,,,,,,,,1,0,3,3,3,1,Going to go to a paint and sip,Playing the drums,0.04,0.05,4.4,0,0.04,1.0216,,,,
,,5cc3f0f9fdb33500018c5eeb,6685aa9113c938e83b4f1ea0,66bcc1282ed5ffec8777e14b,2024-08-14_07h37.55.392,WTP_SM_Choice,2022.2.1,Win32,60.60606061,,,,,,,,,,,,,,,,,,25,,,,,,,,,,2,0,4,4,4,1,Working on sorting and organizing a coin collection,Going on a picnic to a park,0.05,0.05,3.3,1,0.05,2.8051,,,,
,,5cc3f0f9fdb33500018c5eeb,6685aa9113c938e83b4f1ea0,66bcc1282ed5ffec8777e14b,2024-08-14_07h37.55.392,WTP_SM_Choice,2022.2.1,Win32,60.60606061,,,,,,,5,,8,0.77,5.23,,0,24,24,24,1,25,Charlie,Acc,Participant_Images/5cc3f0f9fdb33500018c5eeb/5cc3f0f9fdb33500018c5eeb_Images/5cc3f0f9fdb33500018c5eeb_Image_15.jpeg,liked,3.602308302,,,,,,,,,,,,,,,,,,,space,0.6946,,
,,5cc3f0f9fdb33500018c5eeb,6685aa9113c938e83b4f1ea0,66bcc1282ed5ffec8777e14b,2024-08-14_07h37.55.392,WTP_SM_Choice,2022.2.1,Win32,60.60606061,,,space,2.4061,space,1.1167,NAN,,NAN,0.77,5.23,,0,25,25,25,1,26,Sam,Rej,Participant_Images/5cc3f0f9fdb33500018c5eeb/5cc3f0f9fdb33500018c5eeb_Images/5cc3f0f9fdb33500018c5eeb_Image_11.jpeg,did not like,4.106391878,,,,,,,,,,,,,,,,,,,,,,
,,5cc3f0f9fdb33500018c5eeb,6685aa9113c938e83b4f1ea0,66bcc1282ed5ffec8777e14b,2024-08-14_07h37.55.392,WTP_SM_Choice,2022.2.1,Win32,60.60606061,,,,,space,1.3682,NAN,,NAN,0.77,5.23,,0,26,26,26,1,27,Sam,Rej,Participant_Images/5cc3f0f9fdb33500018c5eeb/5cc3f0f9fdb33500018c5eeb_Images/5cc3f0f9fdb33500018c5eeb_Image_13.jpeg,did not like,3.799433026,,,,,,,,,,,,,,,,,,,,,,
,,5cc3f0f9fdb33500018c5eeb,6685aa9113c938e83b4f1ea0,66bcc1282ed5ffec8777e14b,2024-08-14_07h37.55.392,WTP_SM_Choice,2022.2.1,Win32,60.60606061,,,,,space,4.57,NAN,,NAN,0.77,5.23,,0,27,27,27,1,28,Sam,Rej,Participant_Images/5cc3f0f9fdb33500018c5eeb/5cc3f0f9fdb33500018c5eeb_Images/5cc3f0f9fdb33500018c5eeb_Image_10.jpeg,did not like,5.246980764,,,,,,,,,,,,,,,,,,,,,,
,,5cc3f0f9fdb33500018c5eeb,6685aa9113c938e83b4f1ea0,66bcc1282ed5ffec8777e14b,2024-08-14_07h37.55.392,WTP_SM_Choice,2022.2.1,Win32,60.60606061,,,,,space,1.0029,NAN,,NAN,0.77,5.23,,0,28,28,28,1,29,Sam,Rej,Participant_Images/5cc3f0f9fdb33500018c5eeb/5cc3f0f9fdb33500018c5eeb_Images/5cc3f0f9fdb33500018c5eeb_Image_14.jpeg,did not like,3.30081769,,,,,,,,,,,,,,,,,,,,,,
,,5cc3f0f9fdb33500018c5eeb,6685aa9113c938e83b4f1ea0,66bcc1282ed5ffec8777e14b,2024-08-14_07h37.55.392,WTP_SM_Choice,2022.2.1,Win32,60.60606061,,,,,,,,,,,,,,,,,,26,,,,,,space,4.3023,space,0.3212,1,0,0,0,0,1,Watching a movie,Working on sorting and organizing a coin collection,0.01,0.01,4.4,0,0.01,1.8917,,,,
,,5cc3f0f9fdb33500018c5eeb,6685aa9113c938e83b4f1ea0,66bcc1282ed5ffec8777e14b,2024-08-14_07h37.55.392,WTP_SM_Choice,2022.2.1,Win32,60.60606061,,,,,,,,,,,,,,,,,,27,,,,,,,,,,2,0,1,1,1,1,Going to a new resturaunt,Drawing on procreate,0.02,0.01,3.3,0,0.01,1.2344,,,,
,,5cc3f0f9fdb33500018c5eeb,6685aa9113c938e83b4f1ea0,66bcc1282ed5ffec8777e14b,2024-08-14_07h37.55.392,WTP_SM_Choice,2022.2.1,Win32,60.60606061,,,,,,,,,,,,,,,,,,28,,,,,,,,,,2,0,2,2,2,1,Playing the drums,Going to the river,0.03,0.01,3.3,1,0.01,0.8848,,,,
,,5cc3f0f9fdb33500018c5eeb,6685aa9113c938e83b4f1ea0,66bcc1282ed5ffec8777e14b,2024-08-14_07h37.55.392,WTP_SM_Choice,2022.2.1,Win32,60.60606061,,,,,,,,,,,,,,,,,,29,,,,,,,,,,2,0,3,3,3,1,Playing the drums,Going to a new resturaunt,0.04,0.01,4.4,1,0.01,0.9972,,,,
,,5cc3f0f9fdb33500018c5eeb,6685aa9113c938e83b4f1ea0,66bcc1282ed5ffec8777e14b,2024-08-14_07h37.55.392,WTP_SM_Choice,2022.2.1,Win32,60.60606061,,,,,,,,,,,,,,,,,,30,,,,,,,,,,2,0,4,4,4,1,Going to the river,Playing Xbox,0.05,0.01,8.8,0,0.01,1.2739,,,,
,,5cc3f0f9fdb33500018c5eeb,6685aa9113c938e83b4f1ea0,66bcc1282ed5ffec8777e14b,2024-08-14_07h37.55.392,WTP_SM_Choice,2022.2.1,Win32,60.60606061,,,,,,,NAN,,NAN,0.82,5.18,,0,29,29,29,1,30,Sam,Rej,Participant_Images/5cc3f0f9fdb33500018c5eeb/5cc3f0f9fdb33500018c5eeb_Images/5cc3f0f9fdb33500018c5eeb_Image_5.jpeg,did not like,1.661473164,,,,,,,,,,,,,,,,,,,,,,
,,5cc3f0f9fdb33500018c5eeb,6685aa9113c938e83b4f1ea0,66bcc1282ed5ffec8777e14b,2024-08-14_07h37.55.392,WTP_SM_Choice,2022.2.1,Win32,60.60606061,,,,,space,1.2883,NAN,,NAN,0.82,5.18,,0,30,30,30,1,31,Sam,Rej,Participant_Images/5cc3f0f9fdb33500018c5eeb/5cc3f0f9fdb33500018c5eeb_Images/5cc3f0f9fdb33500018c5eeb_Image_6.jpeg,did not like,3.613205605,,,,,,,,,,,,,,,,,,,,,,
,,5cc3f0f9fdb33500018c5eeb,6685aa9113c938e83b4f1ea0,66bcc1282ed5ffec8777e14b,2024-08-14_07h37.55.392,WTP_SM_Choice,2022.2.1,Win32,60.60606061,,,,,space,0.6014,NAN,,NAN,0.82,5.18,,0,31,31,31,1,32,Sam,Rej,Participant_Images/5cc3f0f9fdb33500018c5eeb/5cc3f0f9fdb33500018c5eeb_Images/5cc3f0f9fdb33500018c5eeb_Image_24.jpeg,did not like,4.988446431,,,,,,,,,,,,,,,,,,,,,,
,,5cc3f0f9fdb33500018c5eeb,6685aa9113c938e83b4f1ea0,66bcc1282ed5ffec8777e14b,2024-08-14_07h37.55.392,WTP_SM_Choice,2022.2.1,Win32,60.60606061,,,,,space,1.3835,NAN,,NAN,0.82,5.18,,0,32,32,32,1,33,Sam,Rej,Participant_Images/5cc3f0f9fdb33500018c5eeb/5cc3f0f9fdb33500018c5eeb_Images/5cc3f0f9fdb33500018c5eeb_Image_22.jpeg,liked,3.470791822,,,,,,,,,,,,,,,,,,,,,,
,,5cc3f0f9fdb33500018c5eeb,6685aa9113c938e83b4f1ea0,66bcc1282ed5ffec8777e14b,2024-08-14_07h37.55.392,WTP_SM_Choice,2022.2.1,Win32,60.60606061,,,,,space,0.745,NAN,,NAN,0.82,5.18,,0,33,33,33,1,34,Sam,Rej,Participant_Images/5cc3f0f9fdb33500018c5eeb/5cc3f0f9fdb33500018c5eeb_Images/5cc3f0f9fdb33500018c5eeb_Image_8.jpeg,liked,3.820572462,,,,,,,,,,,,,,,,,,,,,,
,,5cc3f0f9fdb33500018c5eeb,6685aa9113c938e83b4f1ea0,66bcc1282ed5ffec8777e14b,2024-08-14_07h37.55.392,WTP_SM_Choice,2022.2.1,Win32,60.60606061,,,,,,,,,,,,,,,,,,31,,,,,,space,4.439,space,0.2198,1,0,0,0,0,1,Going to a show,Taking my truck to the car wash,0.01,0.02,8.8,0,0.01,1.9206,,,,
,,5cc3f0f9fdb33500018c5eeb,6685aa9113c938e83b4f1ea0,66bcc1282ed5ffec8777e14b,2024-08-14_07h37.55.392,WTP_SM_Choice,2022.2.1,Win32,60.60606061,,,,,,,,,,,,,,,,,,32,,,,,,,,,,1,0,1,1,1,1,Going to play laser tag,Going to the casino,0.02,0.02,1.1,0,0.02,2.6258,,,,
,,5cc3f0f9fdb33500018c5eeb,6685aa9113c938e83b4f1ea0,66bcc1282ed5ffec8777e14b,2024-08-14_07h37.55.392,WTP_SM_Choice,2022.2.1,Win32,60.60606061,,,,,,,,,,,,,,,,,,33,,,,,,,,,,2,0,2,2,2,1,Watching a movie,Taking a long bath,0.03,0.02,4.4,0,0.02,2.7501,,,,
,,5cc3f0f9fdb33500018c5eeb,6685aa9113c938e83b4f1ea0,66bcc1282ed5ffec8777e14b,2024-08-14_07h37.55.392,WTP_SM_Choice,2022.2.1,Win32,60.60606061,,,,,,,,,,,,,,,,,,34,,,,,,,,,,2,0,3,3,3,1,Playing the drums,Going to a show,0.04,0.02,3.3,1,0.02,1.3315,,,,
,,5cc3f0f9fdb33500018c5eeb,6685aa9113c938e83b4f1ea0,66bcc1282ed5ffec8777e14b,2024-08-14_07h37.55.392,WTP_SM_Choice,2022.2.1,Win32,60.60606061,,,,,,,,,,,,,,,,,,35,,,,,,,,,,2,0,4,4,4,1,Going to a football game,Going on a drive to the river,0.05,0.02,1.1,0,0.02,0.8701,,,,
,,5cc3f0f9fdb33500018c5eeb,6685aa9113c938e83b4f1ea0,66bcc1282ed5ffec8777e14b,2024-08-14_07h37.55.392,WTP_SM_Choice,2022.2.1,Win32,60.60606061,,,,,,,NAN,,NAN,0.91,5.09,,0,34,34,34,1,35,Sam,Rej,Participant_Images/5cc3f0f9fdb33500018c5eeb/5cc3f0f9fdb33500018c5eeb_Images/5cc3f0f9fdb33500018c5eeb_Image_21.jpeg,did not like,2.455989137,,,,,,,,,,,,,,,,,,,,,,
,,5cc3f0f9fdb33500018c5eeb,6685aa9113c938e83b4f1ea0,66bcc1282ed5ffec8777e14b,2024-08-14_07h37.55.392,WTP_SM_Choice,2022.2.1,Win32,60.60606061,,,,,space,12.355,NAN,,NAN,0.91,5.09,,0,35,35,35,1,36,Sam,Rej,Participant_Images/5cc3f0f9fdb33500018c5eeb/5cc3f0f9fdb33500018c5eeb_Images/5cc3f0f9fdb33500018c5eeb_Image_9.jpeg,liked,3.79605092,,,,,,,,,,,,,,,,,,,,,,
,,5cc3f0f9fdb33500018c5eeb,6685aa9113c938e83b4f1ea0,66bcc1282ed5ffec8777e14b,2024-08-14_07h37.55.392,WTP_SM_Choice,2022.2.1,Win32,60.60606061,,,,,space,0.517,NAN,,NAN,0.91,5.09,,0,36,36,36,1,37,Sam,Rej,Participant_Images/5cc3f0f9fdb33500018c5eeb/5cc3f0f9fdb33500018c5eeb_Images/5cc3f0f9fdb33500018c5eeb_Image_3.jpeg,did not like,3.562416326,,,,,,,,,,,,,,,,,,,,,,
,,5cc3f0f9fdb33500018c5eeb,6685aa9113c938e83b4f1ea0,66bcc1282ed5ffec8777e14b,2024-08-14_07h37.55.392,WTP_SM_Choice,2022.2.1,Win32,60.60606061,,,,,space,1.1931,NAN,,NAN,0.91,5.09,,0,37,37,37,1,38,Sam,Rej,Participant_Images/5cc3f0f9fdb33500018c5eeb/5cc3f0f9fdb33500018c5eeb_Images/5cc3f0f9fdb33500018c5eeb_Image_12.jpeg,did not like,2.843822497,,,,,,,,,,,,,,,,,,,,,,
,,5cc3f0f9fdb33500018c5eeb,6685aa9113c938e83b4f1ea0,66bcc1282ed5ffec8777e14b,2024-08-14_07h37.55.392,WTP_SM_Choice,2022.2.1,Win32,60.60606061,,,,,space,1.1239,NAN,,NAN,0.91,5.09,,0,38,38,38,1,39,Sam,Rej,Participant_Images/5cc3f0f9fdb33500018c5eeb/5cc3f0f9fdb33500018c5eeb_Images/5cc3f0f9fdb33500018c5eeb_Image_16.jpeg,did not like,3.546495948,,,,,,,,,,,,,,,,,,,,,,
,,5cc3f0f9fdb33500018c5eeb,6685aa9113c938e83b4f1ea0,66bcc1282ed5ffec8777e14b,2024-08-14_07h37.55.392,WTP_SM_Choice,2022.2.1,Win32,60.60606061,,,,,,,,,,,,,,,,,,36,,,,,,space,1.8312,space,0.1253,1,0,0,0,0,1,Doing a diamond painting,Playing Xbox on two TVs,0.01,0.03,3.3,1,0.01,1.556,,,,
,,5cc3f0f9fdb33500018c5eeb,6685aa9113c938e83b4f1ea0,66bcc1282ed5ffec8777e14b,2024-08-14_07h37.55.392,WTP_SM_Choice,2022.2.1,Win32,60.60606061,,,,,,,,,,,,,,,,,,37,,,,,,,,,,1,0,1,1,1,1,Going to the casino,Going to a show,0.02,0.03,1.1,1,0.02,1.2083,,,,
,,5cc3f0f9fdb33500018c5eeb,6685aa9113c938e83b4f1ea0,66bcc1282ed5ffec8777e14b,2024-08-14_07h37.55.392,WTP_SM_Choice,2022.2.1,Win32,60.60606061,,,,,,,,,,,,,,,,,,38,,,,,,,,,,2,0,2,2,2,1,Going to the casino,Playing Xbox,0.03,0.03,1.1,0,0.03,1.6105,,,,
,,5cc3f0f9fdb33500018c5eeb,6685aa9113c938e83b4f1ea0,66bcc1282ed5ffec8777e14b,2024-08-14_07h37.55.392,WTP_SM_Choice,2022.2.1,Win32,60.60606061,,,,,,,,,,,,,,,,,,39,,,,,,,,,,2,0,3,3,3,1,Taking my truck to the car wash,Going to play laser tag,0.04,0.03,3.3,1,0.03,1.1427,,,,
,,5cc3f0f9fdb33500018c5eeb,6685aa9113c938e83b4f1ea0,66bcc1282ed5ffec8777e14b,2024-08-14_07h37.55.392,WTP_SM_Choice,2022.2.1,Win32,60.60606061,,,,,,,,,,,,,,,,,,40,,,,,,,,,,2,0,4,4,4,1,Going on a drive to the river,Going to a new resturaunt,0.05,0.03,4.4,1,0.03,1.2191,,,,
,,5cc3f0f9fdb33500018c5eeb,6685aa9113c938e83b4f1ea0,66bcc1282ed5ffec8777e14b,2024-08-14_07h37.55.392,WTP_SM_Choice,2022.2.1,Win32,60.60606061,,,,,,,NAN,,NAN,1.03,4.97,,0,39,39,39,1,40,Sam,Rej,Participant_Images/5cc3f0f9fdb33500018c5eeb/5cc3f0f9fdb33500018c5eeb_Images/5cc3f0f9fdb33500018c5eeb_Image_19.jpeg,liked,1.672012706,,,,,,,,,,,,,,,,,,,,,,
,,5cc3f0f9fdb33500018c5eeb,6685aa9113c938e83b4f1ea0,66bcc1282ed5ffec8777e14b,2024-08-14_07h37.55.392,WTP_SM_Choice,2022.2.1,Win32,60.60606061,,,,,space,0.412,NAN,,NAN,1.03,4.97,,0,40,40,40,1,41,Sam,Rej,Participant_Images/5cc3f0f9fdb33500018c5eeb/5cc3f0f9fdb33500018c5eeb_Images/5cc3f0f9fdb33500018c5eeb_Image_15.jpeg,liked,4.942172136,,,,,,,,,,,,,,,,,,,,,,
,,5cc3f0f9fdb33500018c5eeb,6685aa9113c938e83b4f1ea0,66bcc1282ed5ffec8777e14b,2024-08-14_07h37.55.392,WTP_SM_Choice,2022.2.1,Win32,60.60606061,,,,,space,0.8061,NAN,,NAN,1.03,4.97,,0,41,41,41,1,42,Sam,Rej,Participant_Images/5cc3f0f9fdb33500018c5eeb/5cc3f0f9fdb33500018c5eeb_Images/5cc3f0f9fdb33500018c5eeb_Image_20.jpeg,did not like,2.50187214,,,,,,,,,,,,,,,,,,,,,,
,,5cc3f0f9fdb33500018c5eeb,6685aa9113c938e83b4f1ea0,66bcc1282ed5ffec8777e14b,2024-08-14_07h37.55.392,WTP_SM_Choice,2022.2.1,Win32,60.60606061,,,,,space,0.5624,NAN,,NAN,1.03,4.97,,0,42,42,42,1,43,Sam,Rej,Participant_Images/5cc3f0f9fdb33500018c5eeb/5cc3f0f9fdb33500018c5eeb_Images/5cc3f0f9fdb33500018c5eeb_Image_23.jpeg,did not like,2.071164779,,,,,,,,,,,,,,,,,,,,,,
,,5cc3f0f9fdb33500018c5eeb,6685aa9113c938e83b4f1ea0,66bcc1282ed5ffec8777e14b,2024-08-14_07h37.55.392,WTP_SM_Choice,2022.2.1,Win32,60.60606061,,,,,space,0.3006,NAN,,NAN,1.03,4.97,,0,43,43,43,1,44,Sam,Rej,Participant_Images/5cc3f0f9fdb33500018c5eeb/5cc3f0f9fdb33500018c5eeb_Images/5cc3f0f9fdb33500018c5eeb_Image_2.jpeg,did not like,5.336503566,,,,,,,,,,,,,,,,,,,,,,
,,5cc3f0f9fdb33500018c5eeb,6685aa9113c938e83b4f1ea0,66bcc1282ed5ffec8777e14b,2024-08-14_07h37.55.392,WTP_SM_Choice,2022.2.1,Win32,60.60606061,,,,,,,,,,,,,,,,,,41,,,,,,space,1.3446,space,0.1849,1,0,0,0,0,1,Playing the drums,Going on a picnic to a park,0.01,0.04,1.1,1,0.01,0.985,,,,
,,5cc3f0f9fdb33500018c5eeb,6685aa9113c938e83b4f1ea0,66bcc1282ed5ffec8777e14b,2024-08-14_07h37.55.392,WTP_SM_Choice,2022.2.1,Win32,60.60606061,,,,,,,,,,,,,,,,,,42,,,,,,,,,,1,0,1,1,1,1,Organizing and rearranging my room,Going to the casino,0.02,0.04,3.3,1,0.02,0.9045,,,,
,,5cc3f0f9fdb33500018c5eeb,6685aa9113c938e83b4f1ea0,66bcc1282ed5ffec8777e14b,2024-08-14_07h37.55.392,WTP_SM_Choice,2022.2.1,Win32,60.60606061,,,,,,,,,,,,,,,,,,43,,,,,,,,,,1,0,2,2,2,1,Taking a long bath,Going to play laser tag,0.03,0.04,1.1,1,0.03,0.7892,,,,
,,5cc3f0f9fdb33500018c5eeb,6685aa9113c938e83b4f1ea0,66bcc1282ed5ffec8777e14b,2024-08-14_07h37.55.392,WTP_SM_Choice,2022.2.1,Win32,60.60606061,,,,,,,,,,,,,,,,,,44,,,,,,,,,,2,0,3,3,3,1,Playing Xbox,Going to play laser tag,0.04,0.04,1.1,1,0.04,1.7848,,,,
,,5cc3f0f9fdb33500018c5eeb,6685aa9113c938e83b4f1ea0,66bcc1282ed5ffec8777e14b,2024-08-14_07h37.55.392,WTP_SM_Choice,2022.2.1,Win32,60.60606061,,,,,,,,,,,,,,,,,,45,,,,,,,,,,2,0,4,4,4,1,Playing the drums,Playing Xbox on two TVs,0.05,0.04,4.4,1,0.04,0.9906,,,,
,,5cc3f0f9fdb33500018c5eeb,6685aa9113c938e83b4f1ea0,66bcc1282ed5ffec8777e14b,2024-08-14_07h37.55.392,WTP_SM_Choice,2022.2.1,Win32,60.60606061,,,,,,,NAN,,NAN,1.17,4.83,,0,44,44,44,1,45,Sam,Rej,Participant_Images/5cc3f0f9fdb33500018c5eeb/5cc3f0f9fdb33500018c5eeb_Images/5cc3f0f9fdb33500018c5eeb_Image_4.jpeg,did not like,2.642157193,,,,,,,,,,,,,,,,,,,,,,
,,5cc3f0f9fdb33500018c5eeb,6685aa9113c938e83b4f1ea0,66bcc1282ed5ffec8777e14b,2024-08-14_07h37.55.392,WTP_SM_Choice,2022.2.1,Win32,60.60606061,,,,,space,0.4421,NAN,,NAN,1.17,4.83,,0,45,45,45,1,46,Sam,Rej,Participant_Images/5cc3f0f9fdb33500018c5eeb/5cc3f0f9fdb33500018c5eeb_Images/5cc3f0f9fdb33500018c5eeb_Image_1.jpeg,did not like,4.456234322,,,,,,,,,,,,,,,,,,,,,,
,,5cc3f0f9fdb33500018c5eeb,6685aa9113c938e83b4f1ea0,66bcc1282ed5ffec8777e14b,2024-08-14_07h37.55.392,WTP_SM_Choice,2022.2.1,Win32,60.60606061,,,,,space,2.1527,NAN,,NAN,1.17,4.83,,0,46,46,46,1,47,Sam,Rej,Participant_Images/5cc3f0f9fdb33500018c5eeb/5cc3f0f9fdb33500018c5eeb_Images/5cc3f0f9fdb33500018c5eeb_Image_18.jpeg,liked,4.438512181,,,,,,,,,,,,,,,,,,,,,,
,,5cc3f0f9fdb33500018c5eeb,6685aa9113c938e83b4f1ea0,66bcc1282ed5ffec8777e14b,2024-08-14_07h37.55.392,WTP_SM_Choice,2022.2.1,Win32,60.60606061,,,,,space,3.5539,NAN,,NAN,1.17,4.83,,0,47,47,47,1,48,Sam,Rej,Participant_Images/5cc3f0f9fdb33500018c5eeb/5cc3f0f9fdb33500018c5eeb_Images/5cc3f0f9fdb33500018c5eeb_Image_25.jpeg,did not like,2.682944783,,,,,,,,,,,,,,,,,,,,,,
,,5cc3f0f9fdb33500018c5eeb,6685aa9113c938e83b4f1ea0,66bcc1282ed5ffec8777e14b,2024-08-14_07h37.55.392,WTP_SM_Choice,2022.2.1,Win32,60.60606061,,,,,space,1.0266,NAN,,NAN,1.17,4.83,,0,48,48,48,1,49,Sam,Rej,Participant_Images/5cc3f0f9fdb33500018c5eeb/5cc3f0f9fdb33500018c5eeb_Images/5cc3f0f9fdb33500018c5eeb_Image_17.jpeg,liked,4.51984296,,,,,,,,,,,,,,,,,,,,,,
,,5cc3f0f9fdb33500018c5eeb,6685aa9113c938e83b4f1ea0,66bcc1282ed5ffec8777e14b,2024-08-14_07h37.55.392,WTP_SM_Choice,2022.2.1,Win32,60.60606061,,,,,,,,,,,,,,,,,,46,,,,,,space,0.6121,space,0.172,1,0,0,0,0,1,Going to the river,Working on sorting and organizing a coin collection,0.01,0.05,8.8,0,0.01,1.2785,,,,
,,5cc3f0f9fdb33500018c5eeb,6685aa9113c938e83b4f1ea0,66bcc1282ed5ffec8777e14b,2024-08-14_07h37.55.392,WTP_SM_Choice,2022.2.1,Win32,60.60606061,,,,,,,,,,,,,,,,,,47,,,,,,,,,,1,0,1,1,1,1,Going on a drive to the river,Playing Xbox on two TVs,0.02,0.05,1.1,1,0.02,1.0007,,,,
,,5cc3f0f9fdb33500018c5eeb,6685aa9113c938e83b4f1ea0,66bcc1282ed5ffec8777e14b,2024-08-14_07h37.55.392,WTP_SM_Choice,2022.2.1,Win32,60.60606061,,,,,,,,,,,,,,,,,,48,,,,,,,,,,1,0,2,2,2,1,Watching a movie,Organizing and rearranging my room,0.03,0.05,4.4,0,0.03,0.9209,,,,
,,5cc3f0f9fdb33500018c5eeb,6685aa9113c938e83b4f1ea0,66bcc1282ed5ffec8777e14b,2024-08-14_07h37.55.392,WTP_SM_Choice,2022.2.1,Win32,60.60606061,,,,,,,,,,,,,,,,,,49,,,,,,,,,,1,0,3,3,3,1,Working on sorting and organizing a coin collection,Going to a new resturaunt,0.04,0.05,3.3,1,0.04,1.2172,,,,
,,5cc3f0f9fdb33500018c5eeb,6685aa9113c938e83b4f1ea0,66bcc1282ed5ffec8777e14b,2024-08-14_07h37.55.392,WTP_SM_Choice,2022.2.1,Win32,60.60606061,,,,,,,,,,,,,,,,,,50,,,,,,,,,,2,0,4,4,4,1,Going to a show,Organizing and rearranging my room,0.05,0.05,1.1,0,0.05,3.784,,,,
,,5cc3f0f9fdb33500018c5eeb,6685aa9113c938e83b4f1ea0,66bcc1282ed5ffec8777e14b,2024-08-14_07h37.55.392,WTP_SM_Choice,2022.2.1,Win32,60.60606061,,,,,,,2,,7,1.32,4.68,,0,49,49,49,1,50,Sam,Rej,Participant_Images/5cc3f0f9fdb33500018c5eeb/5cc3f0f9fdb33500018c5eeb_Images/5cc3f0f9fdb33500018c5eeb_Image_7.jpeg,did not like,3.195382774,,,,,,,,,,,,,,,,,,,space,0.6485,,
,,5cc3f0f9fdb33500018c5eeb,6685aa9113c938e83b4f1ea0,66bcc1282ed5ffec8777e14b,2024-08-14_07h37.55.392,WTP_SM_Choice,2022.2.1,Win32,60.60606061,,,space,3.2521,space,4.9833,NAN,,NAN,1.32,4.68,,0,50,50,50,1,51,Riley,Acc,Participant_Images/5cc3f0f9fdb33500018c5eeb/5cc3f0f9fdb33500018c5eeb_Images/5cc3f0f9fdb33500018c5eeb_Image_20.jpeg,liked,1.779333479,,,,,,,,,,,,,,,,,,,,,,
,,5cc3f0f9fdb33500018c5eeb,6685aa9113c938e83b4f1ea0,66bcc1282ed5ffec8777e14b,2024-08-14_07h37.55.392,WTP_SM_Choice,2022.2.1,Win32,60.60606061,,,,,space,0.894,NAN,,NAN,1.32,4.68,,0,51,51,51,1,52,Riley,Acc,Participant_Images/5cc3f0f9fdb33500018c5eeb/5cc3f0f9fdb33500018c5eeb_Images/5cc3f0f9fdb33500018c5eeb_Image_25.jpeg,did not like,4.312468682,,,,,,,,,,,,,,,,,,,,,,
,,5cc3f0f9fdb33500018c5eeb,6685aa9113c938e83b4f1ea0,66bcc1282ed5ffec8777e14b,2024-08-14_07h37.55.392,WTP_SM_Choice,2022.2.1,Win32,60.60606061,,,,,space,1.5388,NAN,,NAN,1.32,4.68,,0,52,52,52,1,53,Riley,Acc,Participant_Images/5cc3f0f9fdb33500018c5eeb/5cc3f0f9fdb33500018c5eeb_Images/5cc3f0f9fdb33500018c5eeb_Image_11.jpeg,liked,4.940433059,,,,,,,,,,,,,,,,,,,,,,
,,5cc3f0f9fdb33500018c5eeb,6685aa9113c938e83b4f1ea0,66bcc1282ed5ffec8777e14b,2024-08-14_07h37.55.392,WTP_SM_Choice,2022.2.1,Win32,60.60606061,,,,,space,1.7888,NAN,,NAN,1.32,4.68,,0,53,53,53,1,54,Riley,Acc,Participant_Images/5cc3f0f9fdb33500018c5eeb/5cc3f0f9fdb33500018c5eeb_Images/5cc3f0f9fdb33500018c5eeb_Image_19.jpeg,liked,2.7105123,,,,,,,,,,,,,,,,,,,,,,
,,5cc3f0f9fdb33500018c5eeb,6685aa9113c938e83b4f1ea0,66bcc1282ed5ffec8777e14b,2024-08-14_07h37.55.392,WTP_SM_Choice,2022.2.1,Win32,60.60606061,,,,,,,,,,,,,,,,,,51,,,,,,space,3.2411,space,0.1419,1,0,0,0,0,1,Going to play laser tag,Drawing on procreate,0.01,0.01,1.1,0,0.01,3.0638,,,,
,,5cc3f0f9fdb33500018c5eeb,6685aa9113c938e83b4f1ea0,66bcc1282ed5ffec8777e14b,2024-08-14_07h37.55.392,WTP_SM_Choice,2022.2.1,Win32,60.60606061,,,,,,,,,,,,,,,,,,52,,,,,,,,,,2,0,1,1,1,1,Doing a diamond painting,Watching a movie,0.02,0.01,3.3,1,0.01,0.9272,,,,
,,5cc3f0f9fdb33500018c5eeb,6685aa9113c938e83b4f1ea0,66bcc1282ed5ffec8777e14b,2024-08-14_07h37.55.392,WTP_SM_Choice,2022.2.1,Win32,60.60606061,,,,,,,,,,,,,,,,,,53,,,,,,,,,,2,0,2,2,2,1,Doing a diamond painting,Going to a new resturaunt,0.03,0.01,1.1,1,0.01,0.8249,,,,
,,5cc3f0f9fdb33500018c5eeb,6685aa9113c938e83b4f1ea0,66bcc1282ed5ffec8777e14b,2024-08-14_07h37.55.392,WTP_SM_Choice,2022.2.1,Win32,60.60606061,,,,,,,,,,,,,,,,,,54,,,,,,,,,,2,0,3,3,3,1,Going to the casino,Going to go to a paint and sip,0.04,0.01,4.4,1,0.01,1.1962,,,,
,,5cc3f0f9fdb33500018c5eeb,6685aa9113c938e83b4f1ea0,66bcc1282ed5ffec8777e14b,2024-08-14_07h37.55.392,WTP_SM_Choice,2022.2.1,Win32,60.60606061,,,,,,,,,,,,,,,,,,55,,,,,,,,,,2,0,4,4,4,1,Watching a movie,Drawing on procreate,0.05,0.01,1.1,0,0.01,1.0809,,,,
,,5cc3f0f9fdb33500018c5eeb,6685aa9113c938e83b4f1ea0,66bcc1282ed5ffec8777e14b,2024-08-14_07h37.55.392,WTP_SM_Choice,2022.2.1,Win32,60.60606061,,,,,,,NAN,,NAN,1.37,4.63,,0,54,54,54,1,55,Riley,Acc,Participant_Images/5cc3f0f9fdb33500018c5eeb/5cc3f0f9fdb33500018c5eeb_Images/5cc3f0f9fdb33500018c5eeb_Image_21.jpeg,did not like,3.602308302,,,,,,,,,,,,,,,,,,,,,,
,,5cc3f0f9fdb33500018c5eeb,6685aa9113c938e83b4f1ea0,66bcc1282ed5ffec8777e14b,2024-08-14_07h37.55.392,WTP_SM_Choice,2022.2.1,Win32,60.60606061,,,,,space,2.3731,NAN,,NAN,1.37,4.63,,0,55,55,55,1,56,Riley,Acc,Participant_Images/5cc3f0f9fdb33500018c5eeb/5cc3f0f9fdb33500018c5eeb_Images/5cc3f0f9fdb33500018c5eeb_Image_5.jpeg,liked,4.106391878,,,,,,,,,,,,,,,,,,,,,,
,,5cc3f0f9fdb33500018c5eeb,6685aa9113c938e83b4f1ea0,66bcc1282ed5ffec8777e14b,2024-08-14_07h37.55.392,WTP_SM_Choice,2022.2.1,Win32,60.60606061,,,,,space,0.6117,NAN,,NAN,1.37,4.63,,0,56,56,56,1,57,Riley,Acc,Participant_Images/5cc3f0f9fdb33500018c5eeb/5cc3f0f9fdb33500018c5eeb_Images/5cc3f0f9fdb33500018c5eeb_Image_1.jpeg,liked,3.799433026,,,,,,,,,,,,,,,,,,,,,,
,,5cc3f0f9fdb33500018c5eeb,6685aa9113c938e83b4f1ea0,66bcc1282ed5ffec8777e14b,2024-08-14_07h37.55.392,WTP_SM_Choice,2022.2.1,Win32,60.60606061,,,,,space,1.2189,NAN,,NAN,1.37,4.63,,0,57,57,57,1,58,Riley,Acc,Participant_Images/5cc3f0f9fdb33500018c5eeb/5cc3f0f9fdb33500018c5eeb_Images/5cc3f0f9fdb33500018c5eeb_Image_4.jpeg,liked,5.246980764,,,,,,,,,,,,,,,,,,,,,,
,,5cc3f0f9fdb33500018c5eeb,6685aa9113c938e83b4f1ea0,66bcc1282ed5ffec8777e14b,2024-08-14_07h37.55.392,WTP_SM_Choice,2022.2.1,Win32,60.60606061,,,,,space,0.9095,NAN,,NAN,1.37,4.63,,0,58,58,58,1,59,Riley,Acc,Participant_Images/5cc3f0f9fdb33500018c5eeb/5cc3f0f9fdb33500018c5eeb_Images/5cc3f0f9fdb33500018c5eeb_Image_7.jpeg,did not like,3.30081769,,,,,,,,,,,,,,,,,,,,,,
,,5cc3f0f9fdb33500018c5eeb,6685aa9113c938e83b4f1ea0,66bcc1282ed5ffec8777e14b,2024-08-14_07h37.55.392,WTP_SM_Choice,2022.2.1,Win32,60.60606061,,,,,,,,,,,,,,,,,,56,,,,,,space,3.1048,space,0.3014,1,0,0,0,0,1,Going to a football game,Playing the drums,0.01,0.02,8.8,0,0.01,1.0443,,,,
,,5cc3f0f9fdb33500018c5eeb,6685aa9113c938e83b4f1ea0,66bcc1282ed5ffec8777e14b,2024-08-14_07h37.55.392,WTP_SM_Choice,2022.2.1,Win32,60.60606061,,,,,,,,,,,,,,,,,,57,,,,,,,,,,1,0,1,1,1,1,Going to go to a paint and sip,Organizing and rearranging my room,0.02,0.02,4.4,0,0.02,2.4891,,,,
,,5cc3f0f9fdb33500018c5eeb,6685aa9113c938e83b4f1ea0,66bcc1282ed5ffec8777e14b,2024-08-14_07h37.55.392,WTP_SM_Choice,2022.2.1,Win32,60.60606061,,,,,,,,,,,,,,,,,,58,,,,,,,,,,2,0,2,2,2,1,Taking my truck to the car wash,Going on a picnic to a park,0.03,0.02,4.4,1,0.02,0.8955,,,,
,,5cc3f0f9fdb33500018c5eeb,6685aa9113c938e83b4f1ea0,66bcc1282ed5ffec8777e14b,2024-08-14_07h37.55.392,WTP_SM_Choice,2022.2.1,Win32,60.60606061,,,,,,,,,,,,,,,,,,59,,,,,,,,,,2,0,3,3,3,1,Going to a new resturaunt,Playing Xbox,0.04,0.02,4.4,0,0.02,1.0064,,,,
,,5cc3f0f9fdb33500018c5eeb,6685aa9113c938e83b4f1ea0,66bcc1282ed5ffec8777e14b,2024-08-14_07h37.55.392,WTP_SM_Choice,2022.2.1,Win32,60.60606061,,,,,,,,,,,,,,,,,,60,,,,,,,,,,2,0,4,4,4,1,Going on a picnic to a park,Going to the casino,0.05,0.02,1.1,0,0.02,1.0846,,,,
,,5cc3f0f9fdb33500018c5eeb,6685aa9113c938e83b4f1ea0,66bcc1282ed5ffec8777e14b,2024-08-14_07h37.55.392,WTP_SM_Choice,2022.2.1,Win32,60.60606061,,,,,,,NAN,,NAN,1.46,4.54,,0,59,59,59,1,60,Riley,Acc,Participant_Images/5cc3f0f9fdb33500018c5eeb/5cc3f0f9fdb33500018c5eeb_Images/5cc3f0f9fdb33500018c5eeb_Image_23.jpeg,liked,1.661473164,,,,,,,,,,,,,,,,,,,,,,
,,5cc3f0f9fdb33500018c5eeb,6685aa9113c938e83b4f1ea0,66bcc1282ed5ffec8777e14b,2024-08-14_07h37.55.392,WTP_SM_Choice,2022.2.1,Win32,60.60606061,,,,,space,0.3006,NAN,,NAN,1.46,4.54,,0,60,60,60,1,61,Riley,Acc,Participant_Images/5cc3f0f9fdb33500018c5eeb/5cc3f0f9fdb33500018c5eeb_Images/5cc3f0f9fdb33500018c5eeb_Image_13.jpeg,did not like,3.613205605,,,,,,,,,,,,,,,,,,,,,,
,,5cc3f0f9fdb33500018c5eeb,6685aa9113c938e83b4f1ea0,66bcc1282ed5ffec8777e14b,2024-08-14_07h37.55.392,WTP_SM_Choice,2022.2.1,Win32,60.60606061,,,,,space,0.5964,NAN,,NAN,1.46,4.54,,0,61,61,61,1,62,Riley,Acc,Participant_Images/5cc3f0f9fdb33500018c5eeb/5cc3f0f9fdb33500018c5eeb_Images/5cc3f0f9fdb33500018c5eeb_Image_12.jpeg,did not like,4.988446431,,,,,,,,,,,,,,,,,,,,,,
,,5cc3f0f9fdb33500018c5eeb,6685aa9113c938e83b4f1ea0,66bcc1282ed5ffec8777e14b,2024-08-14_07h37.55.392,WTP_SM_Choice,2022.2.1,Win32,60.60606061,,,,,space,0.9599,NAN,,NAN,1.46,4.54,,0,62,62,62,1,63,Riley,Acc,Participant_Images/5cc3f0f9fdb33500018c5eeb/5cc3f0f9fdb33500018c5eeb_Images/5cc3f0f9fdb33500018c5eeb_Image_6.jpeg,liked,3.470791822,,,,,,,,,,,,,,,,,,,,,,
,,5cc3f0f9fdb33500018c5eeb,6685aa9113c938e83b4f1ea0,66bcc1282ed5ffec8777e14b,2024-08-14_07h37.55.392,WTP_SM_Choice,2022.2.1,Win32,60.60606061,,,,,space,0.4547,NAN,,NAN,1.46,4.54,,0,63,63,63,1,64,Riley,Acc,Participant_Images/5cc3f0f9fdb33500018c5eeb/5cc3f0f9fdb33500018c5eeb_Images/5cc3f0f9fdb33500018c5eeb_Image_16.jpeg,liked,3.820572462,,,,,,,,,,,,,,,,,,,,,,
,,5cc3f0f9fdb33500018c5eeb,6685aa9113c938e83b4f1ea0,66bcc1282ed5ffec8777e14b,2024-08-14_07h37.55.392,WTP_SM_Choice,2022.2.1,Win32,60.60606061,,,,,,,,,,,,,,,,,,61,,,,,,space,0.9885,space,0.2474,1,0,0,0,0,1,Playing Xbox,Going to a show,0.01,0.03,3.3,1,0.01,1.2319,,,,
,,5cc3f0f9fdb33500018c5eeb,6685aa9113c938e83b4f1ea0,66bcc1282ed5ffec8777e14b,2024-08-14_07h37.55.392,WTP_SM_Choice,2022.2.1,Win32,60.60606061,,,,,,,,,,,,,,,,,,62,,,,,,,,,,1,0,1,1,1,1,Going to a football game,Taking a long bath,0.02,0.03,3.3,0,0.02,0.9374,,,,
,,5cc3f0f9fdb33500018c5eeb,6685aa9113c938e83b4f1ea0,66bcc1282ed5ffec8777e14b,2024-08-14_07h37.55.392,WTP_SM_Choice,2022.2.1,Win32,60.60606061,,,,,,,,,,,,,,,,,,63,,,,,,,,,,1,0,2,2,2,1,Taking a long bath,Going to the casino,0.03,0.03,3.3,1,0.03,3.1786,,,,
,,5cc3f0f9fdb33500018c5eeb,6685aa9113c938e83b4f1ea0,66bcc1282ed5ffec8777e14b,2024-08-14_07h37.55.392,WTP_SM_Choice,2022.2.1,Win32,60.60606061,,,,,,,,,,,,,,,,,,64,,,,,,,,,,2,0,3,3,3,1,Going to play laser tag,Going on a drive to the river,0.04,0.03,1.1,0,0.03,1.0211,,,,
,,5cc3f0f9fdb33500018c5eeb,6685aa9113c938e83b4f1ea0,66bcc1282ed5ffec8777e14b,2024-08-14_07h37.55.392,WTP_SM_Choice,2022.2.1,Win32,60.60606061,,,,,,,,,,,,,,,,,,65,,,,,,,,,,2,0,4,4,4,1,Working on sorting and organizing a coin collection,Going to play laser tag,0.05,0.03,1.1,1,0.03,1.0656,,,,
,,5cc3f0f9fdb33500018c5eeb,6685aa9113c938e83b4f1ea0,66bcc1282ed5ffec8777e14b,2024-08-14_07h37.55.392,WTP_SM_Choice,2022.2.1,Win32,60.60606061,,,,,,,NAN,,NAN,1.58,4.42,,0,64,64,64,1,65,Riley,Acc,Participant_Images/5cc3f0f9fdb33500018c5eeb/5cc3f0f9fdb33500018c5eeb_Images/5cc3f0f9fdb33500018c5eeb_Image_18.jpeg,liked,2.455989137,,,,,,,,,,,,,,,,,,,,,,
,,5cc3f0f9fdb33500018c5eeb,6685aa9113c938e83b4f1ea0,66bcc1282ed5ffec8777e14b,2024-08-14_07h37.55.392,WTP_SM_Choice,2022.2.1,Win32,60.60606061,,,,,space,0.8194,NAN,,NAN,1.58,4.42,,0,65,65,65,1,66,Riley,Acc,Participant_Images/5cc3f0f9fdb33500018c5eeb/5cc3f0f9fdb33500018c5eeb_Images/5cc3f0f9fdb33500018c5eeb_Image_15.jpeg,did not like,3.79605092,,,,,,,,,,,,,,,,,,,,,,
,,5cc3f0f9fdb33500018c5eeb,6685aa9113c938e83b4f1ea0,66bcc1282ed5ffec8777e14b,2024-08-14_07h37.55.392,WTP_SM_Choice,2022.2.1,Win32,60.60606061,,,,,space,0.9758,NAN,,NAN,1.58,4.42,,0,66,66,66,1,67,Riley,Acc,Participant_Images/5cc3f0f9fdb33500018c5eeb/5cc3f0f9fdb33500018c5eeb_Images/5cc3f0f9fdb33500018c5eeb_Image_8.jpeg,liked,3.562416326,,,,,,,,,,,,,,,,,,,,,,
,,5cc3f0f9fdb33500018c5eeb,6685aa9113c938e83b4f1ea0,66bcc1282ed5ffec8777e14b,2024-08-14_07h37.55.392,WTP_SM_Choice,2022.2.1,Win32,60.60606061,,,,,space,0.9845,NAN,,NAN,1.58,4.42,,0,67,67,67,1,68,Riley,Acc,Participant_Images/5cc3f0f9fdb33500018c5eeb/5cc3f0f9fdb33500018c5eeb_Images/5cc3f0f9fdb33500018c5eeb_Image_14.jpeg,liked,2.843822497,,,,,,,,,,,,,,,,,,,,,,
,,5cc3f0f9fdb33500018c5eeb,6685aa9113c938e83b4f1ea0,66bcc1282ed5ffec8777e14b,2024-08-14_07h37.55.392,WTP_SM_Choice,2022.2.1,Win32,60.60606061,,,,,space,0.6858,NAN,,NAN,1.58,4.42,,0,68,68,68,1,69,Riley,Acc,Participant_Images/5cc3f0f9fdb33500018c5eeb/5cc3f0f9fdb33500018c5eeb_Images/5cc3f0f9fdb33500018c5eeb_Image_10.jpeg,did not like,3.546495948,,,,,,,,,,,,,,,,,,,,,,
,,5cc3f0f9fdb33500018c5eeb,6685aa9113c938e83b4f1ea0,66bcc1282ed5ffec8777e14b,2024-08-14_07h37.55.392,WTP_SM_Choice,2022.2.1,Win32,60.60606061,,,,,,,,,,,,,,,,,,66,,,,,,space,0.6343,space,0.3888,1,0,0,0,0,1,Going to go to a paint and sip,Doing a diamond painting,0.01,0.04,1.1,0,0.01,0.8497,,,,
,,5cc3f0f9fdb33500018c5eeb,6685aa9113c938e83b4f1ea0,66bcc1282ed5ffec8777e14b,2024-08-14_07h37.55.392,WTP_SM_Choice,2022.2.1,Win32,60.60606061,,,,,,,,,,,,,,,,,,67,,,,,,,,,,1,0,1,1,1,1,Playing Xbox on two TVs,Going to the casino,0.02,0.04,8.8,0,0.02,1.0487,,,,
,,5cc3f0f9fdb33500018c5eeb,6685aa9113c938e83b4f1ea0,66bcc1282ed5ffec8777e14b,2024-08-14_07h37.55.392,WTP_SM_Choice,2022.2.1,Win32,60.60606061,,,,,,,,,,,,,,,,,,68,,,,,,,,,,1,0,2,2,2,1,Going to the casino,Going to the casino,0.03,0.04,4.4,0,0.03,1.2408,,,,
,,5cc3f0f9fdb33500018c5eeb,6685aa9113c938e83b4f1ea0,66bcc1282ed5ffec8777e14b,2024-08-14_07h37.55.392,WTP_SM_Choice,2022.2.1,Win32,60.60606061,,,,,,,,,,,,,,,,,,69,,,,,,,,,,2,0,3,3,3,1,Going to a new resturaunt,Taking my truck to the car wash,0.04,0.04,1.1,0,0.04,2.5957,,,,
,,5cc3f0f9fdb33500018c5eeb,6685aa9113c938e83b4f1ea0,66bcc1282ed5ffec8777e14b,2024-08-14_07h37.55.392,WTP_SM_Choice,2022.2.1,Win32,60.60606061,,,,,,,,,,,,,,,,,,70,,,,,,,,,,2,0,4,4,4,1,Going to the casino,Going on a drive to the river,0.05,0.04,1.1,0,0.04,1.2235,,,,
,,5cc3f0f9fdb33500018c5eeb,6685aa9113c938e83b4f1ea0,66bcc1282ed5ffec8777e14b,2024-08-14_07h37.55.392,WTP_SM_Choice,2022.2.1,Win32,60.60606061,,,,,,,NAN,,NAN,1.72,4.28,,0,69,69,69,1,70,Riley,Acc,Participant_Images/5cc3f0f9fdb33500018c5eeb/5cc3f0f9fdb33500018c5eeb_Images/5cc3f0f9fdb33500018c5eeb_Image_17.jpeg,liked,1.672012706,,,,,,,,,,,,,,,,,,,,,,
,,5cc3f0f9fdb33500018c5eeb,6685aa9113c938e83b4f1ea0,66bcc1282ed5ffec8777e14b,2024-08-14_07h37.55.392,WTP_SM_Choice,2022.2.1,Win32,60.60606061,,,,,space,1.484,NAN,,NAN,1.72,4.28,,0,70,70,70,1,71,Riley,Acc,Participant_Images/5cc3f0f9fdb33500018c5eeb/5cc3f0f9fdb33500018c5eeb_Images/5cc3f0f9fdb33500018c5eeb_Image_22.jpeg,liked,4.942172136,,,,,,,,,,,,,,,,,,,,,,
,,5cc3f0f9fdb33500018c5eeb,6685aa9113c938e83b4f1ea0,66bcc1282ed5ffec8777e14b,2024-08-14_07h37.55.392,WTP_SM_Choice,2022.2.1,Win32,60.60606061,,,,,space,1.1434,NAN,,NAN,1.72,4.28,,0,71,71,71,1,72,Riley,Acc,Participant_Images/5cc3f0f9fdb33500018c5eeb/5cc3f0f9fdb33500018c5eeb_Images/5cc3f0f9fdb33500018c5eeb_Image_3.jpeg,liked,2.50187214,,,,,,,,,,,,,,,,,,,,,,
,,5cc3f0f9fdb33500018c5eeb,6685aa9113c938e83b4f1ea0,66bcc1282ed5ffec8777e14b,2024-08-14_07h37.55.392,WTP_SM_Choice,2022.2.1,Win32,60.60606061,,,,,space,2.0509,NAN,,NAN,1.72,4.28,,0,72,72,72,1,73,Riley,Acc,Participant_Images/5cc3f0f9fdb33500018c5eeb/5cc3f0f9fdb33500018c5eeb_Images/5cc3f0f9fdb33500018c5eeb_Image_2.jpeg,liked,2.071164779,,,,,,,,,,,,,,,,,,,,,,
,,5cc3f0f9fdb33500018c5eeb,6685aa9113c938e83b4f1ea0,66bcc1282ed5ffec8777e14b,2024-08-14_07h37.55.392,WTP_SM_Choice,2022.2.1,Win32,60.60606061,,,,,space,0.9262,NAN,,NAN,1.72,4.28,,0,73,73,73,1,74,Riley,Acc,Participant_Images/5cc3f0f9fdb33500018c5eeb/5cc3f0f9fdb33500018c5eeb_Images/5cc3f0f9fdb33500018c5eeb_Image_9.jpeg,liked,5.336503566,,,,,,,,,,,,,,,,,,,,,,
,,5cc3f0f9fdb33500018c5eeb,6685aa9113c938e83b4f1ea0,66bcc1282ed5ffec8777e14b,2024-08-14_07h37.55.392,WTP_SM_Choice,2022.2.1,Win32,60.60606061,,,,,,,,,,,,,,,,,,71,,,,,,space,2.6852,space,0.242,1,0,0,0,0,1,Going to a football game,Doing a diamond painting,0.01,0.05,3.3,0,0.01,0.9881,,,,
,,5cc3f0f9fdb33500018c5eeb,6685aa9113c938e83b4f1ea0,66bcc1282ed5ffec8777e14b,2024-08-14_07h37.55.392,WTP_SM_Choice,2022.2.1,Win32,60.60606061,,,,,,,,,,,,,,,,,,72,,,,,,,,,,1,0,1,1,1,1,Drawing on procreate,Going to go to a paint and sip,0.02,0.05,8.8,1,0.02,0.9152,,,,
,,5cc3f0f9fdb33500018c5eeb,6685aa9113c938e83b4f1ea0,66bcc1282ed5ffec8777e14b,2024-08-14_07h37.55.392,WTP_SM_Choice,2022.2.1,Win32,60.60606061,,,,,,,,,,,,,,,,,,73,,,,,,,,,,1,0,2,2,2,1,Going on a picnic to a park,Going on a drive to the river,0.03,0.05,3.3,0,0.03,0.7515,,,,
,,5cc3f0f9fdb33500018c5eeb,6685aa9113c938e83b4f1ea0,66bcc1282ed5ffec8777e14b,2024-08-14_07h37.55.392,WTP_SM_Choice,2022.2.1,Win32,60.60606061,,,,,,,,,,,,,,,,,,74,,,,,,,,,,1,0,3,3,3,1,Playing Xbox on two TVs,Taking a long bath,0.04,0.05,4.4,0,0.04,1.3584,,,,
,,5cc3f0f9fdb33500018c5eeb,6685aa9113c938e83b4f1ea0,66bcc1282ed5ffec8777e14b,2024-08-14_07h37.55.392,WTP_SM_Choice,2022.2.1,Win32,60.60606061,,,,,,,,,,,,,,,,,,75,,,,,,,,,,2,0,4,4,4,1,Playing Xbox,Watching a movie,0.05,0.05,3.3,1,0.05,4.216,,,,
,,5cc3f0f9fdb33500018c5eeb,6685aa9113c938e83b4f1ea0,66bcc1282ed5ffec8777e14b,2024-08-14_07h37.55.392,WTP_SM_Choice,2022.2.1,Win32,60.60606061,,,,,,,5,,9,1.87,4.13,,0,74,74,74,1,75,Riley,Acc,Participant_Images/5cc3f0f9fdb33500018c5eeb/5cc3f0f9fdb33500018c5eeb_Images/5cc3f0f9fdb33500018c5eeb_Image_24.jpeg,liked,2.642157193,,,,,,,,,,,,,,,,,,,space,0.8694,,
,,5cc3f0f9fdb33500018c5eeb,6685aa9113c938e83b4f1ea0,66bcc1282ed5ffec8777e14b,2024-08-14_07h37.55.392,WTP_SM_Choice,2022.2.1,Win32,60.60606061,,,space,1.3464,space,0.5219,NAN,,NAN,1.87,4.13,,0,75,75,75,1,76,Alex,Rej,Participant_Images/5cc3f0f9fdb33500018c5eeb/5cc3f0f9fdb33500018c5eeb_Images/5cc3f0f9fdb33500018c5eeb_Image_19.jpeg,did not like,4.456234322,,,,,,,,,,,,,,,,,,,,,,
,,5cc3f0f9fdb33500018c5eeb,6685aa9113c938e83b4f1ea0,66bcc1282ed5ffec8777e14b,2024-08-14_07h37.55.392,WTP_SM_Choice,2022.2.1,Win32,60.60606061,,,,,space,0.9578,NAN,,NAN,1.87,4.13,,0,76,76,76,1,77,Alex,Rej,Participant_Images/5cc3f0f9fdb33500018c5eeb/5cc3f0f9fdb33500018c5eeb_Images/5cc3f0f9fdb33500018c5eeb_Image_2.jpeg,did not like,4.438512181,,,,,,,,,,,,,,,,,,,,,,
,,5cc3f0f9fdb33500018c5eeb,6685aa9113c938e83b4f1ea0,66bcc1282ed5ffec8777e14b,2024-08-14_07h37.55.392,WTP_SM_Choice,2022.2.1,Win32,60.60606061,,,,,space,0.6861,NAN,,NAN,1.87,4.13,,0,77,77,77,1,78,Alex,Rej,Participant_Images/5cc3f0f9fdb33500018c5eeb/5cc3f0f9fdb33500018c5eeb_Images/5cc3f0f9fdb33500018c5eeb_Image_12.jpeg,liked,2.682944783,,,,,,,,,,,,,,,,,,,,,,
,,5cc3f0f9fdb33500018c5eeb,6685aa9113c938e83b4f1ea0,66bcc1282ed5ffec8777e14b,2024-08-14_07h37.55.392,WTP_SM_Choice,2022.2.1,Win32,60.60606061,,,,,space,0.3368,NAN,,NAN,1.87,4.13,,0,78,78,78,1,79,Alex,Rej,Participant_Images/5cc3f0f9fdb33500018c5eeb/5cc3f0f9fdb33500018c5eeb_Images/5cc3f0f9fdb33500018c5eeb_Image_22.jpeg,did not like,4.51984296,,,,,,,,,,,,,,,,,,,,,,
,,5cc3f0f9fdb33500018c5eeb,6685aa9113c938e83b4f1ea0,66bcc1282ed5ffec8777e14b,2024-08-14_07h37.55.392,WTP_SM_Choice,2022.2.1,Win32,60.60606061,,,,,,,,,,,,,,,,,,76,,,,,,space,0.9504,space,0.2473,1,0,0,0,0,1,Taking a long bath,Going to go to a paint and sip,0.01,0.01,1.1,1,0.01,0.7631,,,,
,,5cc3f0f9fdb33500018c5eeb,6685aa9113c938e83b4f1ea0,66bcc1282ed5ffec8777e14b,2024-08-14_07h37.55.392,WTP_SM_Choice,2022.2.1,Win32,60.60606061,,,,,,,,,,,,,,,,,,77,,,,,,,,,,2,0,1,1,1,1,Going to a football game,Organizing and rearranging my room,0.02,0.01,8.8,0,0.01,0.8971,,,,
,,5cc3f0f9fdb33500018c5eeb,6685aa9113c938e83b4f1ea0,66bcc1282ed5ffec8777e14b,2024-08-14_07h37.55.392,WTP_SM_Choice,2022.2.1,Win32,60.60606061,,,,,,,,,,,,,,,,,,78,,,,,,,,,,2,0,2,2,2,1,Going to a football game,Taking my truck to the car wash,0.03,0.01,1.1,0,0.01,0.8405,,,,
,,5cc3f0f9fdb33500018c5eeb,6685aa9113c938e83b4f1ea0,66bcc1282ed5ffec8777e14b,2024-08-14_07h37.55.392,WTP_SM_Choice,2022.2.1,Win32,60.60606061,,,,,,,,,,,,,,,,,,79,,,,,,,,,,2,0,3,3,3,1,Going to a new resturaunt,Taking a long bath,0.04,0.01,1.1,0,0.01,0.9314,,,,
,,5cc3f0f9fdb33500018c5eeb,6685aa9113c938e83b4f1ea0,66bcc1282ed5ffec8777e14b,2024-08-14_07h37.55.392,WTP_SM_Choice,2022.2.1,Win32,60.60606061,,,,,,,,,,,,,,,,,,80,,,,,,,,,,2,0,4,4,4,1,Going to the river,Going on a drive to the river,0.05,0.01,4.4,0,0.01,0.7285,,,,
,,5cc3f0f9fdb33500018c5eeb,6685aa9113c938e83b4f1ea0,66bcc1282ed5ffec8777e14b,2024-08-14_07h37.55.392,WTP_SM_Choice,2022.2.1,Win32,60.60606061,,,,,,,NAN,,NAN,1.92,4.08,,0,79,79,79,1,80,Alex,Rej,Participant_Images/5cc3f0f9fdb33500018c5eeb/5cc3f0f9fdb33500018c5eeb_Images/5cc3f0f9fdb33500018c5eeb_Image_5.jpeg,liked,3.195382774,,,,,,,,,,,,,,,,,,,,,,
,,5cc3f0f9fdb33500018c5eeb,6685aa9113c938e83b4f1ea0,66bcc1282ed5ffec8777e14b,2024-08-14_07h37.55.392,WTP_SM_Choice,2022.2.1,Win32,60.60606061,,,,,space,0.4678,NAN,,NAN,1.92,4.08,,0,80,80,80,1,81,Alex,Rej,Participant_Images/5cc3f0f9fdb33500018c5eeb/5cc3f0f9fdb33500018c5eeb_Images/5cc3f0f9fdb33500018c5eeb_Image_1.jpeg,did not like,1.779333479,,,,,,,,,,,,,,,,,,,,,,
,,5cc3f0f9fdb33500018c5eeb,6685aa9113c938e83b4f1ea0,66bcc1282ed5ffec8777e14b,2024-08-14_07h37.55.392,WTP_SM_Choice,2022.2.1,Win32,60.60606061,,,,,space,0.7937,NAN,,NAN,1.92,4.08,,0,81,81,81,1,82,Alex,Rej,Participant_Images/5cc3f0f9fdb33500018c5eeb/5cc3f0f9fdb33500018c5eeb_Images/5cc3f0f9fdb33500018c5eeb_Image_25.jpeg,did not like,4.312468682,,,,,,,,,,,,,,,,,,,,,,
,,5cc3f0f9fdb33500018c5eeb,6685aa9113c938e83b4f1ea0,66bcc1282ed5ffec8777e14b,2024-08-14_07h37.55.392,WTP_SM_Choice,2022.2.1,Win32,60.60606061,,,,,space,0.4736,NAN,,NAN,1.92,4.08,,0,82,82,82,1,83,Alex,Rej,Participant_Images/5cc3f0f9fdb33500018c5eeb/5cc3f0f9fdb33500018c5eeb_Images/5cc3f0f9fdb33500018c5eeb_Image_15.jpeg,liked,4.940433059,,,,,,,,,,,,,,,,,,,,,,
,,5cc3f0f9fdb33500018c5eeb,6685aa9113c938e83b4f1ea0,66bcc1282ed5ffec8777e14b,2024-08-14_07h37.55.392,WTP_SM_Choice,2022.2.1,Win32,60.60606061,,,,,space,0.674,NAN,,NAN,1.92,4.08,,0,83,83,83,1,84,Alex,Rej,Participant_Images/5cc3f0f9fdb33500018c5eeb/5cc3f0f9fdb33500018c5eeb_Images/5cc3f0f9fdb33500018c5eeb_Image_3.jpeg,did not like,2.7105123,,,,,,,,,,,,,,,,,,,,,,
,,5cc3f0f9fdb33500018c5eeb,6685aa9113c938e83b4f1ea0,66bcc1282ed5ffec8777e14b,2024-08-14_07h37.55.392,WTP_SM_Choice,2022.2.1,Win32,60.60606061,,,,,,,,,,,,,,,,,,81,,,,,,space,0.8968,space,0.2042,1,0,0,0,0,1,Going to a new resturaunt,Going to the casino,0.01,0.02,3.3,0,0.01,0.8349,,,,
,,5cc3f0f9fdb33500018c5eeb,6685aa9113c938e83b4f1ea0,66bcc1282ed5ffec8777e14b,2024-08-14_07h37.55.392,WTP_SM_Choice,2022.2.1,Win32,60.60606061,,,,,,,,,,,,,,,,,,82,,,,,,,,,,2,0,1,1,1,1,Going to the casino,Taking my truck to the car wash,0.02,0.02,4.4,0,0.02,1.9845,,,,
,,5cc3f0f9fdb33500018c5eeb,6685aa9113c938e83b4f1ea0,66bcc1282ed5ffec8777e14b,2024-08-14_07h37.55.392,WTP_SM_Choice,2022.2.1,Win32,60.60606061,,,,,,,,,,,,,,,,,,83,,,,,,,,,,2,0,2,2,2,1,Playing the drums,Going to the casino,0.03,0.02,1.1,1,0.02,1.9032,,,,
,,5cc3f0f9fdb33500018c5eeb,6685aa9113c938e83b4f1ea0,66bcc1282ed5ffec8777e14b,2024-08-14_07h37.55.392,WTP_SM_Choice,2022.2.1,Win32,60.60606061,,,,,,,,,,,,,,,,,,84,,,,,,,,,,2,0,3,3,3,1,Playing the drums,Going to play laser tag,0.04,0.02,3.3,1,0.02,0.8563,,,,
,,5cc3f0f9fdb33500018c5eeb,6685aa9113c938e83b4f1ea0,66bcc1282ed5ffec8777e14b,2024-08-14_07h37.55.392,WTP_SM_Choice,2022.2.1,Win32,60.60606061,,,,,,,,,,,,,,,,,,85,,,,,,,,,,2,0,4,4,4,1,Playing Xbox,Going to a football game,0.05,0.02,3.3,1,0.02,0.9408,,,,
,,5cc3f0f9fdb33500018c5eeb,6685aa9113c938e83b4f1ea0,66bcc1282ed5ffec8777e14b,2024-08-14_07h37.55.392,WTP_SM_Choice,2022.2.1,Win32,60.60606061,,,,,,,NAN,,NAN,2.01,3.99,,0,84,84,84,1,85,Alex,Rej,Participant_Images/5cc3f0f9fdb33500018c5eeb/5cc3f0f9fdb33500018c5eeb_Images/5cc3f0f9fdb33500018c5eeb_Image_4.jpeg,did not like,3.602308302,,,,,,,,,,,,,,,,,,,,,,
,,5cc3f0f9fdb33500018c5eeb,6685aa9113c938e83b4f1ea0,66bcc1282ed5ffec8777e14b,2024-08-14_07h37.55.392,WTP_SM_Choice,2022.2.1,Win32,60.60606061,,,,,space,0.7921,NAN,,NAN,2.01,3.99,,0,85,85,85,1,86,Alex,Rej,Participant_Images/5cc3f0f9fdb33500018c5eeb/5cc3f0f9fdb33500018c5eeb_Images/5cc3f0f9fdb33500018c5eeb_Image_13.jpeg,liked,4.106391878,,,,,,,,,,,,,,,,,,,,,,
,,5cc3f0f9fdb33500018c5eeb,6685aa9113c938e83b4f1ea0,66bcc1282ed5ffec8777e14b,2024-08-14_07h37.55.392,WTP_SM_Choice,2022.2.1,Win32,60.60606061,,,,,space,0.7243,NAN,,NAN,2.01,3.99,,0,86,86,86,1,87,Alex,Rej,Participant_Images/5cc3f0f9fdb33500018c5eeb/5cc3f0f9fdb33500018c5eeb_Images/5cc3f0f9fdb33500018c5eeb_Image_23.jpeg,liked,3.799433026,,,,,,,,,,,,,,,,,,,,,,
,,5cc3f0f9fdb33500018c5eeb,6685aa9113c938e83b4f1ea0,66bcc1282ed5ffec8777e14b,2024-08-14_07h37.55.392,WTP_SM_Choice,2022.2.1,Win32,60.60606061,,,,,space,0.5184,NAN,,NAN,2.01,3.99,,0,87,87,87,1,88,Alex,Rej,Participant_Images/5cc3f0f9fdb33500018c5eeb/5cc3f0f9fdb33500018c5eeb_Images/5cc3f0f9fdb33500018c5eeb_Image_20.jpeg,liked,5.246980764,,,,,,,,,,,,,,,,,,,,,,
,,5cc3f0f9fdb33500018c5eeb,6685aa9113c938e83b4f1ea0,66bcc1282ed5ffec8777e14b,2024-08-14_07h37.55.392,WTP_SM_Choice,2022.2.1,Win32,60.60606061,,,,,space,0.7851,NAN,,NAN,2.01,3.99,,0,88,88,88,1,89,Alex,Rej,Participant_Images/5cc3f0f9fdb33500018c5eeb/5cc3f0f9fdb33500018c5eeb_Images/5cc3f0f9fdb33500018c5eeb_Image_14.jpeg,did not like,3.30081769,,,,,,,,,,,,,,,,,,,,,,
,,5cc3f0f9fdb33500018c5eeb,6685aa9113c938e83b4f1ea0,66bcc1282ed5ffec8777e14b,2024-08-14_07h37.55.392,WTP_SM_Choice,2022.2.1,Win32,60.60606061,,,,,,,,,,,,,,,,,,86,,,,,,space,0.5581,space,0.2502,1,0,0,0,0,1,Organizing and rearranging my room,Going on a picnic to a park,0.01,0.03,1.1,1,0.01,0.8635,,,,
,,5cc3f0f9fdb33500018c5eeb,6685aa9113c938e83b4f1ea0,66bcc1282ed5ffec8777e14b,2024-08-14_07h37.55.392,WTP_SM_Choice,2022.2.1,Win32,60.60606061,,,,,,,,,,,,,,,,,,87,,,,,,,,,,1,0,1,1,1,1,Playing Xbox,Going on a picnic to a park,0.02,0.03,4.4,1,0.02,0.8984,,,,
,,5cc3f0f9fdb33500018c5eeb,6685aa9113c938e83b4f1ea0,66bcc1282ed5ffec8777e14b,2024-08-14_07h37.55.392,WTP_SM_Choice,2022.2.1,Win32,60.60606061,,,,,,,,,,,,,,,,,,88,,,,,,,,,,2,0,2,2,2,1,Playing Xbox,Playing Xbox on two TVs,0.03,0.03,1.1,1,0.03,2.3616,,,,
,,5cc3f0f9fdb33500018c5eeb,6685aa9113c938e83b4f1ea0,66bcc1282ed5ffec8777e14b,2024-08-14_07h37.55.392,WTP_SM_Choice,2022.2.1,Win32,60.60606061,,,,,,,,,,,,,,,,,,89,,,,,,,,,,2,0,3,3,3,1,Doing a diamond painting,Going to the river,0.04,0.03,3.3,1,0.03,1.452,,,,
,,5cc3f0f9fdb33500018c5eeb,6685aa9113c938e83b4f1ea0,66bcc1282ed5ffec8777e14b,2024-08-14_07h37.55.392,WTP_SM_Choice,2022.2.1,Win32,60.60606061,,,,,,,,,,,,,,,,,,90,,,,,,,,,,2,0,4,4,4,1,Organizing and rearranging my room,Going to the river,0.05,0.03,8.8,1,0.03,0.9301,,,,
,,5cc3f0f9fdb33500018c5eeb,6685aa9113c938e83b4f1ea0,66bcc1282ed5ffec8777e14b,2024-08-14_07h37.55.392,WTP_SM_Choice,2022.2.1,Win32,60.60606061,,,,,,,NAN,,NAN,2.13,3.87,,0,89,89,89,1,90,Alex,Rej,Participant_Images/5cc3f0f9fdb33500018c5eeb/5cc3f0f9fdb33500018c5eeb_Images/5cc3f0f9fdb33500018c5eeb_Image_17.jpeg,did not like,1.661473164,,,,,,,,,,,,,,,,,,,,,,
,,5cc3f0f9fdb33500018c5eeb,6685aa9113c938e83b4f1ea0,66bcc1282ed5ffec8777e14b,2024-08-14_07h37.55.392,WTP_SM_Choice,2022.2.1,Win32,60.60606061,,,,,space,1.434,NAN,,NAN,2.13,3.87,,0,90,90,90,1,91,Alex,Rej,Participant_Images/5cc3f0f9fdb33500018c5eeb/5cc3f0f9fdb33500018c5eeb_Images/5cc3f0f9fdb33500018c5eeb_Image_8.jpeg,did not like,3.613205605,,,,,,,,,,,,,,,,,,,,,,
,,5cc3f0f9fdb33500018c5eeb,6685aa9113c938e83b4f1ea0,66bcc1282ed5ffec8777e14b,2024-08-14_07h37.55.392,WTP_SM_Choice,2022.2.1,Win32,60.60606061,,,,,space,0.7576,NAN,,NAN,2.13,3.87,,0,91,91,91,1,92,Alex,Rej,Participant_Images/5cc3f0f9fdb33500018c5eeb/5cc3f0f9fdb33500018c5eeb_Images/5cc3f0f9fdb33500018c5eeb_Image_18.jpeg,did not like,4.988446431,,,,,,,,,,,,,,,,,,,,,,
,,5cc3f0f9fdb33500018c5eeb,6685aa9113c938e83b4f1ea0,66bcc1282ed5ffec8777e14b,2024-08-14_07h37.55.392,WTP_SM_Choice,2022.2.1,Win32,60.60606061,,,,,space,1.0511,NAN,,NAN,2.13,3.87,,0,92,92,92,1,93,Alex,Rej,Participant_Images/5cc3f0f9fdb33500018c5eeb/5cc3f0f9fdb33500018c5eeb_Images/5cc3f0f9fdb33500018c5eeb_Image_16.jpeg,did not like,3.470791822,,,,,,,,,,,,,,,,,,,,,,
,,5cc3f0f9fdb33500018c5eeb,6685aa9113c938e83b4f1ea0,66bcc1282ed5ffec8777e14b,2024-08-14_07h37.55.392,WTP_SM_Choice,2022.2.1,Win32,60.60606061,,,,,space,0.4697,NAN,,NAN,2.13,3.87,,0,93,93,93,1,94,Alex,Rej,Participant_Images/5cc3f0f9fdb33500018c5eeb/5cc3f0f9fdb33500018c5eeb_Images/5cc3f0f9fdb33500018c5eeb_Image_11.jpeg,did not like,3.820572462,,,,,,,,,,,,,,,,,,,,,,
,,5cc3f0f9fdb33500018c5eeb,6685aa9113c938e83b4f1ea0,66bcc1282ed5ffec8777e14b,2024-08-14_07h37.55.392,WTP_SM_Choice,2022.2.1,Win32,60.60606061,,,,,,,,,,,,,,,,,,91,,,,,,space,0.9246,space,0.21,1,0,0,0,0,1,Going to a show,Taking a long bath,0.01,0.04,3.3,0,0.01,0.822,,,,
,,5cc3f0f9fdb33500018c5eeb,6685aa9113c938e83b4f1ea0,66bcc1282ed5ffec8777e14b,2024-08-14_07h37.55.392,WTP_SM_Choice,2022.2.1,Win32,60.60606061,,,,,,,,,,,,,,,,,,92,,,,,,,,,,1,0,1,1,1,1,Going to a show,Drawing on procreate,0.02,0.04,8.8,0,0.02,0.8965,,,,
,,5cc3f0f9fdb33500018c5eeb,6685aa9113c938e83b4f1ea0,66bcc1282ed5ffec8777e14b,2024-08-14_07h37.55.392,WTP_SM_Choice,2022.2.1,Win32,60.60606061,,,,,,,,,,,,,,,,,,93,,,,,,,,,,1,0,2,2,2,1,Doing a diamond painting,Going to the casino,0.03,0.04,1.1,1,0.03,0.8658,,,,
,,5cc3f0f9fdb33500018c5eeb,6685aa9113c938e83b4f1ea0,66bcc1282ed5ffec8777e14b,2024-08-14_07h37.55.392,WTP_SM_Choice,2022.2.1,Win32,60.60606061,,,,,,,,,,,,,,,,,,94,,,,,,,,,,1,0,3,3,3,1,Going to the casino,Working on sorting and organizing a coin collection,0.04,0.04,4.4,0,0.04,4.105,,,,
,,5cc3f0f9fdb33500018c5eeb,6685aa9113c938e83b4f1ea0,66bcc1282ed5ffec8777e14b,2024-08-14_07h37.55.392,WTP_SM_Choice,2022.2.1,Win32,60.60606061,,,,,,,,,,,,,,,,,,95,,,,,,,,,,1,0,4,4,4,1,Taking a long bath,Going on a picnic to a park,0.05,0.04,4.4,1,0.05,0.9268,,,,
,,5cc3f0f9fdb33500018c5eeb,6685aa9113c938e83b4f1ea0,66bcc1282ed5ffec8777e14b,2024-08-14_07h37.55.392,WTP_SM_Choice,2022.2.1,Win32,60.60606061,,,,,,,NAN,,NAN,2.28,3.72,,0,94,94,94,1,95,Alex,Rej,Participant_Images/5cc3f0f9fdb33500018c5eeb/5cc3f0f9fdb33500018c5eeb_Images/5cc3f0f9fdb33500018c5eeb_Image_9.jpeg,did not like,2.455989137,,,,,,,,,,,,,,,,,,,,,,
,,5cc3f0f9fdb33500018c5eeb,6685aa9113c938e83b4f1ea0,66bcc1282ed5ffec8777e14b,2024-08-14_07h37.55.392,WTP_SM_Choice,2022.2.1,Win32,60.60606061,,,,,space,0.8008,NAN,,NAN,2.28,3.72,,0,95,95,95,1,96,Alex,Rej,Participant_Images/5cc3f0f9fdb33500018c5eeb/5cc3f0f9fdb33500018c5eeb_Images/5cc3f0f9fdb33500018c5eeb_Image_7.jpeg,did not like,3.79605092,,,,,,,,,,,,,,,,,,,,,,
,,5cc3f0f9fdb33500018c5eeb,6685aa9113c938e83b4f1ea0,66bcc1282ed5ffec8777e14b,2024-08-14_07h37.55.392,WTP_SM_Choice,2022.2.1,Win32,60.60606061,,,,,space,1.3864,NAN,,NAN,2.28,3.72,,0,96,96,96,1,97,Alex,Rej,Participant_Images/5cc3f0f9fdb33500018c5eeb/5cc3f0f9fdb33500018c5eeb_Images/5cc3f0f9fdb33500018c5eeb_Image_10.jpeg,liked,3.562416326,,,,,,,,,,,,,,,,,,,,,,
,,5cc3f0f9fdb33500018c5eeb,6685aa9113c938e83b4f1ea0,66bcc1282ed5ffec8777e14b,2024-08-14_07h37.55.392,WTP_SM_Choice,2022.2.1,Win32,60.60606061,,,,,space,0.6764,NAN,,NAN,2.28,3.72,,0,97,97,97,1,98,Alex,Rej,Participant_Images/5cc3f0f9fdb33500018c5eeb/5cc3f0f9fdb33500018c5eeb_Images/5cc3f0f9fdb33500018c5eeb_Image_21.jpeg,did not like,2.843822497,,,,,,,,,,,,,,,,,,,,,,
,,5cc3f0f9fdb33500018c5eeb,6685aa9113c938e83b4f1ea0,66bcc1282ed5ffec8777e14b,2024-08-14_07h37.55.392,WTP_SM_Choice,2022.2.1,Win32,60.60606061,,,,,space,0.586,NAN,,NAN,2.28,3.72,,0,98,98,98,1,99,Alex,Rej,Participant_Images/5cc3f0f9fdb33500018c5eeb/5cc3f0f9fdb33500018c5eeb_Images/5cc3f0f9fdb33500018c5eeb_Image_24.jpeg,did not like,3.546495948,,,,,,,,,,,,,,,,,,,,,,
,,5cc3f0f9fdb33500018c5eeb,6685aa9113c938e83b4f1ea0,66bcc1282ed5ffec8777e14b,2024-08-14_07h37.55.392,WTP_SM_Choice,2022.2.1,Win32,60.60606061,,,,,,,,,,,,,,,,,,96,,,,,,space,1.1127,space,0.2509,1,0,0,0,0,1,Going to a football game,Working on sorting and organizing a coin collection,0.01,0.05,3.3,0,0.01,0.7351,,,,
,,5cc3f0f9fdb33500018c5eeb,6685aa9113c938e83b4f1ea0,66bcc1282ed5ffec8777e14b,2024-08-14_07h37.55.392,WTP_SM_Choice,2022.2.1,Win32,60.60606061,,,,,,,,,,,,,,,,,,97,,,,,,,,,,1,0,1,1,1,1,Doing a diamond painting,Going on a picnic to a park,0.02,0.05,1.1,1,0.02,1.0735,,,,
,,5cc3f0f9fdb33500018c5eeb,6685aa9113c938e83b4f1ea0,66bcc1282ed5ffec8777e14b,2024-08-14_07h37.55.392,WTP_SM_Choice,2022.2.1,Win32,60.60606061,,,,,,,,,,,,,,,,,,98,,,,,,,,,,1,0,2,2,2,1,Working on sorting and organizing a coin collection,Going to go to a paint and sip,0.03,0.05,1.1,1,0.03,1.262,,,,
,,5cc3f0f9fdb33500018c5eeb,6685aa9113c938e83b4f1ea0,66bcc1282ed5ffec8777e14b,2024-08-14_07h37.55.392,WTP_SM_Choice,2022.2.1,Win32,60.60606061,,,,,,,,,,,,,,,,,,99,,,,,,,,,,1,0,3,3,3,1,Drawing on procreate,Going to the casino,0.04,0.05,3.3,1,0.04,1.5931,,,,
,,5cc3f0f9fdb33500018c5eeb,6685aa9113c938e83b4f1ea0,66bcc1282ed5ffec8777e14b,2024-08-14_07h37.55.392,WTP_SM_Choice,2022.2.1,Win32,60.60606061,,,,,,,,,,,,,,,,,,100,,,,,,,,,,2,0,4,4,4,1,Watching a movie,Playing the drums,0.05,0.05,4.4,0,0.05,3.1651,,,,
,,5cc3f0f9fdb33500018c5eeb,6685aa9113c938e83b4f1ea0,66bcc1282ed5ffec8777e14b,2024-08-14_07h37.55.392,WTP_SM_Choice,2022.2.1,Win32,60.60606061,,,,,,,2,,7,2.43,3.57,,0,99,99,99,1,100,Alex,Rej,Participant_Images/5cc3f0f9fdb33500018c5eeb/5cc3f0f9fdb33500018c5eeb_Images/5cc3f0f9fdb33500018c5eeb_Image_6.jpeg,did not like,1.672012706,,,,,,,,,,,,,,,,,,,space,0.7968,,
,,5cc3f0f9fdb33500018c5eeb,6685aa9113c938e83b4f1ea0,66bcc1282ed5ffec8777e14b,2024-08-14_07h37.55.392,WTP_SM_Choice,2022.2.1,Win32,60.60606061,,,,,,,,,,,,,,,,,,,,,,,,,,,,,,,,,,,,,,,,,,,,space,2.9862
