endwelcomescreen_keys.keys,endwelcomescreen_keys.rt,participant,STUDY_ID,SESSION_ID,date,expName,psychopyVersion,OS,frameRate,endinstructionscreen_keys.keys,endinstructionscreen_keys.rt,endpartnermatch_keys.keys,endpartnermatch_keys.rt,sharenextphoto_key.keys,sharenextphoto_key.rt,salience_rating,key_resp.keys,stress_level,subtract_bonus,TOTAL_TASK_BONUS,stresslevel_keypress.keys,entiretaskloop.thisRepN,entiretaskloop.thisTrialN,entiretaskloop.thisN,entiretaskloop.thisIndex,entiretaskloop.ran,TrialNumber,Partner,Condition,Photos,Feedback,FeedbackWait,WTP_ins_keys1.keys,WTP_ins_keys1.rt,WTP_ins_keys2.keys,WTP_ins_keys2.rt,decision_price,responses.keys,responses.rt,WTPTaskLoop.thisRepN,WTPTaskLoop.thisTrialN,WTPTaskLoop.thisN,WTPTaskLoop.thisIndex,WTPTaskLoop.ran,right,left,leftmoney,rightmoney,WTP_ITI,social_left,Resume_keys.keys,Resume_keys.rt,end_screen_keys.keys,end_screen_keys.rt
space,5.5378,5ddce9f0f85b50c4fc1515a4,6685aa9113c938e83b4f1ea0,6707efb25e6b53e0c4632bf7,2024-10-10_10h28.36.107,WTP_SM_Choice,2022.2.1,Win32,166.6666667,,,,,,,,,,,,,,,,,,,,,,,,,,,,,,,,,,,,,,,,,,,,,
,,5ddce9f0f85b50c4fc1515a4,6685aa9113c938e83b4f1ea0,6707efb25e6b53e0c4632bf7,2024-10-10_10h28.36.107,WTP_SM_Choice,2022.2.1,Win32,166.6666667,space,13.5245,,,,,,,,,,,,,,,,,,,,,,,,,,,,,,,,,,,,,,,,,,,
,,5ddce9f0f85b50c4fc1515a4,6685aa9113c938e83b4f1ea0,6707efb25e6b53e0c4632bf7,2024-10-10_10h28.36.107,WTP_SM_Choice,2022.2.1,Win32,166.6666667,,,space,5.3201,space,1.7358,NAN,,NAN,0,6,,0,0,0,0,1,1,Charlie,Acc,Participant_Images/5ddce9f0f85b50c4fc1515a4/5ddce9f0f85b50c4fc1515a4_Images/5ddce9f0f85b50c4fc1515a4_Image_20.jpeg,liked,3.613205605,,,,,,,,,,,,,,,,,,,,,,
,,5ddce9f0f85b50c4fc1515a4,6685aa9113c938e83b4f1ea0,6707efb25e6b53e0c4632bf7,2024-10-10_10h28.36.107,WTP_SM_Choice,2022.2.1,Win32,166.6666667,,,,,space,1.3202,NAN,,NAN,0,6,,0,1,1,1,1,2,Charlie,Acc,Participant_Images/5ddce9f0f85b50c4fc1515a4/5ddce9f0f85b50c4fc1515a4_Images/5ddce9f0f85b50c4fc1515a4_Image_2.jpeg,liked,4.988446431,,,,,,,,,,,,,,,,,,,,,,
,,5ddce9f0f85b50c4fc1515a4,6685aa9113c938e83b4f1ea0,6707efb25e6b53e0c4632bf7,2024-10-10_10h28.36.107,WTP_SM_Choice,2022.2.1,Win32,166.6666667,,,,,space,1.4114,NAN,,NAN,0,6,,0,2,2,2,1,3,Charlie,Acc,Participant_Images/5ddce9f0f85b50c4fc1515a4/5ddce9f0f85b50c4fc1515a4_Images/5ddce9f0f85b50c4fc1515a4_Image_7.jpeg,liked,3.470791822,,,,,,,,,,,,,,,,,,,,,,
,,5ddce9f0f85b50c4fc1515a4,6685aa9113c938e83b4f1ea0,6707efb25e6b53e0c4632bf7,2024-10-10_10h28.36.107,WTP_SM_Choice,2022.2.1,Win32,166.6666667,,,,,space,1.8062,NAN,,NAN,0,6,,0,3,3,3,1,4,Charlie,Acc,Participant_Images/5ddce9f0f85b50c4fc1515a4/5ddce9f0f85b50c4fc1515a4_Images/5ddce9f0f85b50c4fc1515a4_Image_10.jpeg,did not like,3.820572462,,,,,,,,,,,,,,,,,,,,,,
,,5ddce9f0f85b50c4fc1515a4,6685aa9113c938e83b4f1ea0,6707efb25e6b53e0c4632bf7,2024-10-10_10h28.36.107,WTP_SM_Choice,2022.2.1,Win32,166.6666667,,,,,,,,,,,,,,,,,,1,,,,,,space,13.8973,space,6.9465,0.01,2,6.645,0,0,0,0,1,Watch friends live stream on Twitch or YouTube with friends,Pop on a movie to recline and watch,0.01,0.01,4.4,0,,,,
,,5ddce9f0f85b50c4fc1515a4,6685aa9113c938e83b4f1ea0,6707efb25e6b53e0c4632bf7,2024-10-10_10h28.36.107,WTP_SM_Choice,2022.2.1,Win32,166.6666667,,,,,,,,,,,,,,,,,,2,,,,,,,,,,0.02,1,5.0957,0,1,1,1,1,Do photo editing in Photoshop,Hang out while watching YouTube videos with friends,0.02,0.01,8.8,1,,,,
,,5ddce9f0f85b50c4fc1515a4,6685aa9113c938e83b4f1ea0,6707efb25e6b53e0c4632bf7,2024-10-10_10h28.36.107,WTP_SM_Choice,2022.2.1,Win32,166.6666667,,,,,,,,,,,,,,,,,,3,,,,,,,,,,0.01,2,6.1991,0,2,2,2,1,Edit some videos with calm music on,Play Left4Dead2 with friends,0.03,0.01,3.3,1,,,,
,,5ddce9f0f85b50c4fc1515a4,6685aa9113c938e83b4f1ea0,6707efb25e6b53e0c4632bf7,2024-10-10_10h28.36.107,WTP_SM_Choice,2022.2.1,Win32,166.6666667,,,,,,,,,,,,,,,,,,4,,,,,,,,,,0.01,2,7.3635,0,3,3,3,1,Record things with my friends that I can edit into videos,Do photo editing in Photoshop,0.04,0.01,1.1,0,,,,
,,5ddce9f0f85b50c4fc1515a4,6685aa9113c938e83b4f1ea0,6707efb25e6b53e0c4632bf7,2024-10-10_10h28.36.107,WTP_SM_Choice,2022.2.1,Win32,166.6666667,,,,,,,,,,,,,,,,,,5,,,,,,,,,,,,,0,4,4,4,1,Go through horrible dad jokes with friends,Play some Animal Crossing in bed,0.05,0.01,1.1,0,,,,
,,5ddce9f0f85b50c4fc1515a4,6685aa9113c938e83b4f1ea0,6707efb25e6b53e0c4632bf7,2024-10-10_10h28.36.107,WTP_SM_Choice,2022.2.1,Win32,166.6666667,,,,,,,NAN,,NAN,0.05,5.95,,0,4,4,4,1,5,Charlie,Acc,Participant_Images/5ddce9f0f85b50c4fc1515a4/5ddce9f0f85b50c4fc1515a4_Images/5ddce9f0f85b50c4fc1515a4_Image_14.jpeg,did not like,2.455989137,,,,,,,,,,,,,,,,,,,,,,
,,5ddce9f0f85b50c4fc1515a4,6685aa9113c938e83b4f1ea0,6707efb25e6b53e0c4632bf7,2024-10-10_10h28.36.107,WTP_SM_Choice,2022.2.1,Win32,166.6666667,,,,,space,0.8385,NAN,,NAN,0.05,5.95,,0,5,5,5,1,6,Charlie,Acc,Participant_Images/5ddce9f0f85b50c4fc1515a4/5ddce9f0f85b50c4fc1515a4_Images/5ddce9f0f85b50c4fc1515a4_Image_15.jpeg,liked,3.79605092,,,,,,,,,,,,,,,,,,,,,,
,,5ddce9f0f85b50c4fc1515a4,6685aa9113c938e83b4f1ea0,6707efb25e6b53e0c4632bf7,2024-10-10_10h28.36.107,WTP_SM_Choice,2022.2.1,Win32,166.6666667,,,,,space,0.8143,NAN,,NAN,0.05,5.95,,0,6,6,6,1,7,Charlie,Acc,Participant_Images/5ddce9f0f85b50c4fc1515a4/5ddce9f0f85b50c4fc1515a4_Images/5ddce9f0f85b50c4fc1515a4_Image_17.jpeg,liked,3.562416326,,,,,,,,,,,,,,,,,,,,,,
,,5ddce9f0f85b50c4fc1515a4,6685aa9113c938e83b4f1ea0,6707efb25e6b53e0c4632bf7,2024-10-10_10h28.36.107,WTP_SM_Choice,2022.2.1,Win32,166.6666667,,,,,space,0.5605,NAN,,NAN,0.05,5.95,,0,7,7,7,1,8,Charlie,Acc,Participant_Images/5ddce9f0f85b50c4fc1515a4/5ddce9f0f85b50c4fc1515a4_Images/5ddce9f0f85b50c4fc1515a4_Image_25.jpeg,liked,2.843822497,,,,,,,,,,,,,,,,,,,,,,
,,5ddce9f0f85b50c4fc1515a4,6685aa9113c938e83b4f1ea0,6707efb25e6b53e0c4632bf7,2024-10-10_10h28.36.107,WTP_SM_Choice,2022.2.1,Win32,166.6666667,,,,,space,0.5791,NAN,,NAN,0.05,5.95,,0,8,8,8,1,9,Charlie,Acc,Participant_Images/5ddce9f0f85b50c4fc1515a4/5ddce9f0f85b50c4fc1515a4_Images/5ddce9f0f85b50c4fc1515a4_Image_18.jpeg,liked,3.546495948,,,,,,,,,,,,,,,,,,,,,,
,,5ddce9f0f85b50c4fc1515a4,6685aa9113c938e83b4f1ea0,6707efb25e6b53e0c4632bf7,2024-10-10_10h28.36.107,WTP_SM_Choice,2022.2.1,Win32,166.6666667,,,,,,,,,,,,,,,,,,6,,,,,,space,2.6279,space,3.1745,0.01,1,3.2966,0,0,0,0,1,Hang out while watching YouTube videos with friends,Do some Ring Fit Adventure to work out,0.01,0.02,3.3,0,,,,
,,5ddce9f0f85b50c4fc1515a4,6685aa9113c938e83b4f1ea0,6707efb25e6b53e0c4632bf7,2024-10-10_10h28.36.107,WTP_SM_Choice,2022.2.1,Win32,166.6666667,,,,,,,,,,,,,,,,,,7,,,,,,,,,,0.02,1,2.4992,0,1,1,1,1,Edit some videos with calm music on,Having a movie night with family and friends,0.02,0.02,1.1,1,,,,
,,5ddce9f0f85b50c4fc1515a4,6685aa9113c938e83b4f1ea0,6707efb25e6b53e0c4632bf7,2024-10-10_10h28.36.107,WTP_SM_Choice,2022.2.1,Win32,166.6666667,,,,,,,,,,,,,,,,,,8,,,,,,,,,,0.02,2,6.6511,0,2,2,2,1,Go through and look at my Pokemon card collection in my binders,Having a movie night with family and friends,0.03,0.02,1.1,1,,,,
,,5ddce9f0f85b50c4fc1515a4,6685aa9113c938e83b4f1ea0,6707efb25e6b53e0c4632bf7,2024-10-10_10h28.36.107,WTP_SM_Choice,2022.2.1,Win32,166.6666667,,,,,,,,,,,,,,,,,,9,,,,,,,,,,0.04,1,3.7375,0,3,3,3,1,Do some Ring Fit Adventure to work out,Having a movie night with family and friends,0.04,0.02,4.4,1,,,,
,,5ddce9f0f85b50c4fc1515a4,6685aa9113c938e83b4f1ea0,6707efb25e6b53e0c4632bf7,2024-10-10_10h28.36.107,WTP_SM_Choice,2022.2.1,Win32,166.6666667,,,,,,,,,,,,,,,,,,10,,,,,,,,,,0.02,2,2.7006,0,4,4,4,1,Go through and look at my Pokemon card collection in my binders,Record things with my friends that I can edit into videos,0.05,0.02,1.1,1,,,,
,,5ddce9f0f85b50c4fc1515a4,6685aa9113c938e83b4f1ea0,6707efb25e6b53e0c4632bf7,2024-10-10_10h28.36.107,WTP_SM_Choice,2022.2.1,Win32,166.6666667,,,,,,,NAN,,NAN,0.16,5.84,,0,9,9,9,1,10,Charlie,Acc,Participant_Images/5ddce9f0f85b50c4fc1515a4/5ddce9f0f85b50c4fc1515a4_Images/5ddce9f0f85b50c4fc1515a4_Image_11.jpeg,liked,1.672012706,,,,,,,,,,,,,,,,,,,,,,
,,5ddce9f0f85b50c4fc1515a4,6685aa9113c938e83b4f1ea0,6707efb25e6b53e0c4632bf7,2024-10-10_10h28.36.107,WTP_SM_Choice,2022.2.1,Win32,166.6666667,,,,,space,0.5898,NAN,,NAN,0.16,5.84,,0,10,10,10,1,11,Charlie,Acc,Participant_Images/5ddce9f0f85b50c4fc1515a4/5ddce9f0f85b50c4fc1515a4_Images/5ddce9f0f85b50c4fc1515a4_Image_19.jpeg,did not like,4.942172136,,,,,,,,,,,,,,,,,,,,,,
,,5ddce9f0f85b50c4fc1515a4,6685aa9113c938e83b4f1ea0,6707efb25e6b53e0c4632bf7,2024-10-10_10h28.36.107,WTP_SM_Choice,2022.2.1,Win32,166.6666667,,,,,space,0.4677,NAN,,NAN,0.16,5.84,,0,11,11,11,1,12,Charlie,Acc,Participant_Images/5ddce9f0f85b50c4fc1515a4/5ddce9f0f85b50c4fc1515a4_Images/5ddce9f0f85b50c4fc1515a4_Image_21.jpeg,did not like,2.50187214,,,,,,,,,,,,,,,,,,,,,,
,,5ddce9f0f85b50c4fc1515a4,6685aa9113c938e83b4f1ea0,6707efb25e6b53e0c4632bf7,2024-10-10_10h28.36.107,WTP_SM_Choice,2022.2.1,Win32,166.6666667,,,,,space,0.6174,NAN,,NAN,0.16,5.84,,0,12,12,12,1,13,Charlie,Acc,Participant_Images/5ddce9f0f85b50c4fc1515a4/5ddce9f0f85b50c4fc1515a4_Images/5ddce9f0f85b50c4fc1515a4_Image_5.jpeg,did not like,2.071164779,,,,,,,,,,,,,,,,,,,,,,
,,5ddce9f0f85b50c4fc1515a4,6685aa9113c938e83b4f1ea0,6707efb25e6b53e0c4632bf7,2024-10-10_10h28.36.107,WTP_SM_Choice,2022.2.1,Win32,166.6666667,,,,,space,0.3737,NAN,,NAN,0.16,5.84,,0,13,13,13,1,14,Charlie,Acc,Participant_Images/5ddce9f0f85b50c4fc1515a4/5ddce9f0f85b50c4fc1515a4_Images/5ddce9f0f85b50c4fc1515a4_Image_1.jpeg,liked,5.336503566,,,,,,,,,,,,,,,,,,,,,,
,,5ddce9f0f85b50c4fc1515a4,6685aa9113c938e83b4f1ea0,6707efb25e6b53e0c4632bf7,2024-10-10_10h28.36.107,WTP_SM_Choice,2022.2.1,Win32,166.6666667,,,,,,,,,,,,,,,,,,11,,,,,,space,2.2593,space,2.5079,0.01,1,3.7258,0,0,0,0,1,Play some Animal Crossing in bed,Hang out while watching YouTube videos with friends,0.01,0.03,3.3,1,,,,
,,5ddce9f0f85b50c4fc1515a4,6685aa9113c938e83b4f1ea0,6707efb25e6b53e0c4632bf7,2024-10-10_10h28.36.107,WTP_SM_Choice,2022.2.1,Win32,166.6666667,,,,,,,,,,,,,,,,,,12,,,,,,,,,,0.03,2,3.7484,0,1,1,1,1,Having a movie night with family and friends,Play with toys with my cat Aurora,0.02,0.03,4.4,0,,,,
,,5ddce9f0f85b50c4fc1515a4,6685aa9113c938e83b4f1ea0,6707efb25e6b53e0c4632bf7,2024-10-10_10h28.36.107,WTP_SM_Choice,2022.2.1,Win32,166.6666667,,,,,,,,,,,,,,,,,,13,,,,,,,,,,0.03,1,1.9794,0,2,2,2,1,Watch friends live stream on Twitch or YouTube with friends,Play with toys with my cat Aurora,0.03,0.03,1.1,0,,,,
,,5ddce9f0f85b50c4fc1515a4,6685aa9113c938e83b4f1ea0,6707efb25e6b53e0c4632bf7,2024-10-10_10h28.36.107,WTP_SM_Choice,2022.2.1,Win32,166.6666667,,,,,,,,,,,,,,,,,,14,,,,,,,,,,0.04,1,3.1213,0,3,3,3,1,Play catch with my dog Poochy,Play Overwatch 2 with friends,0.04,0.03,3.3,1,,,,
,,5ddce9f0f85b50c4fc1515a4,6685aa9113c938e83b4f1ea0,6707efb25e6b53e0c4632bf7,2024-10-10_10h28.36.107,WTP_SM_Choice,2022.2.1,Win32,166.6666667,,,,,,,,,,,,,,,,,,15,,,,,,,,,,0.03,2,3.485,0,4,4,4,1,Hang out while watching YouTube videos with friends,Play some Story of Seasons while I relax,0.05,0.03,4.4,0,,,,
,,5ddce9f0f85b50c4fc1515a4,6685aa9113c938e83b4f1ea0,6707efb25e6b53e0c4632bf7,2024-10-10_10h28.36.107,WTP_SM_Choice,2022.2.1,Win32,166.6666667,,,,,,,NAN,,NAN,0.3,5.7,,0,14,14,14,1,15,Charlie,Acc,Participant_Images/5ddce9f0f85b50c4fc1515a4/5ddce9f0f85b50c4fc1515a4_Images/5ddce9f0f85b50c4fc1515a4_Image_6.jpeg,did not like,2.642157193,,,,,,,,,,,,,,,,,,,,,,
,,5ddce9f0f85b50c4fc1515a4,6685aa9113c938e83b4f1ea0,6707efb25e6b53e0c4632bf7,2024-10-10_10h28.36.107,WTP_SM_Choice,2022.2.1,Win32,166.6666667,,,,,space,0.4929,NAN,,NAN,0.3,5.7,,0,15,15,15,1,16,Charlie,Acc,Participant_Images/5ddce9f0f85b50c4fc1515a4/5ddce9f0f85b50c4fc1515a4_Images/5ddce9f0f85b50c4fc1515a4_Image_13.jpeg,liked,4.456234322,,,,,,,,,,,,,,,,,,,,,,
,,5ddce9f0f85b50c4fc1515a4,6685aa9113c938e83b4f1ea0,6707efb25e6b53e0c4632bf7,2024-10-10_10h28.36.107,WTP_SM_Choice,2022.2.1,Win32,166.6666667,,,,,space,0.699,NAN,,NAN,0.3,5.7,,0,16,16,16,1,17,Charlie,Acc,Participant_Images/5ddce9f0f85b50c4fc1515a4/5ddce9f0f85b50c4fc1515a4_Images/5ddce9f0f85b50c4fc1515a4_Image_9.jpeg,liked,4.438512181,,,,,,,,,,,,,,,,,,,,,,
,,5ddce9f0f85b50c4fc1515a4,6685aa9113c938e83b4f1ea0,6707efb25e6b53e0c4632bf7,2024-10-10_10h28.36.107,WTP_SM_Choice,2022.2.1,Win32,166.6666667,,,,,space,0.4762,NAN,,NAN,0.3,5.7,,0,17,17,17,1,18,Charlie,Acc,Participant_Images/5ddce9f0f85b50c4fc1515a4/5ddce9f0f85b50c4fc1515a4_Images/5ddce9f0f85b50c4fc1515a4_Image_8.jpeg,liked,2.682944783,,,,,,,,,,,,,,,,,,,,,,
,,5ddce9f0f85b50c4fc1515a4,6685aa9113c938e83b4f1ea0,6707efb25e6b53e0c4632bf7,2024-10-10_10h28.36.107,WTP_SM_Choice,2022.2.1,Win32,166.6666667,,,,,space,0.4822,NAN,,NAN,0.3,5.7,,0,18,18,18,1,19,Charlie,Acc,Participant_Images/5ddce9f0f85b50c4fc1515a4/5ddce9f0f85b50c4fc1515a4_Images/5ddce9f0f85b50c4fc1515a4_Image_4.jpeg,liked,4.51984296,,,,,,,,,,,,,,,,,,,,,,
,,5ddce9f0f85b50c4fc1515a4,6685aa9113c938e83b4f1ea0,6707efb25e6b53e0c4632bf7,2024-10-10_10h28.36.107,WTP_SM_Choice,2022.2.1,Win32,166.6666667,,,,,,,,,,,,,,,,,,16,,,,,,space,3.1576,space,0.8938,0.01,1,2.4752,0,0,0,0,1,Watch friends live stream on Twitch or YouTube with friends,Play some Story of Seasons while I relax,0.01,0.04,1.1,0,,,,
,,5ddce9f0f85b50c4fc1515a4,6685aa9113c938e83b4f1ea0,6707efb25e6b53e0c4632bf7,2024-10-10_10h28.36.107,WTP_SM_Choice,2022.2.1,Win32,166.6666667,,,,,,,,,,,,,,,,,,17,,,,,,,,,,0.02,1,4.024,0,1,1,1,1,Just chill and talking about life with friends,Do photo editing in Photoshop,0.02,0.04,8.8,0,,,,
,,5ddce9f0f85b50c4fc1515a4,6685aa9113c938e83b4f1ea0,6707efb25e6b53e0c4632bf7,2024-10-10_10h28.36.107,WTP_SM_Choice,2022.2.1,Win32,166.6666667,,,,,,,,,,,,,,,,,,18,,,,,,,,,,0.03,1,2.9078,0,2,2,2,1,Go through and look at my Pokemon card collection in my binders,Watch friends live stream on Twitch or YouTube with friends,0.03,0.04,3.3,1,,,,
,,5ddce9f0f85b50c4fc1515a4,6685aa9113c938e83b4f1ea0,6707efb25e6b53e0c4632bf7,2024-10-10_10h28.36.107,WTP_SM_Choice,2022.2.1,Win32,166.6666667,,,,,,,,,,,,,,,,,,19,,,,,,,,,,0.04,1,2.9623,0,3,3,3,1,Pop on a movie to recline and watch,Watching football all day on Sunday with family and friends,0.04,0.04,3.3,1,,,,
,,5ddce9f0f85b50c4fc1515a4,6685aa9113c938e83b4f1ea0,6707efb25e6b53e0c4632bf7,2024-10-10_10h28.36.107,WTP_SM_Choice,2022.2.1,Win32,166.6666667,,,,,,,,,,,,,,,,,,20,,,,,,,,,,0.04,2,3.1544,0,4,4,4,1,Having a movie night with family and friends,Play some Animal Crossing in bed,0.05,0.04,1.1,0,,,,
,,5ddce9f0f85b50c4fc1515a4,6685aa9113c938e83b4f1ea0,6707efb25e6b53e0c4632bf7,2024-10-10_10h28.36.107,WTP_SM_Choice,2022.2.1,Win32,166.6666667,,,,,,,NAN,,NAN,0.44,5.56,,0,19,19,19,1,20,Charlie,Acc,Participant_Images/5ddce9f0f85b50c4fc1515a4/5ddce9f0f85b50c4fc1515a4_Images/5ddce9f0f85b50c4fc1515a4_Image_12.jpeg,liked,3.195382774,,,,,,,,,,,,,,,,,,,,,,
,,5ddce9f0f85b50c4fc1515a4,6685aa9113c938e83b4f1ea0,6707efb25e6b53e0c4632bf7,2024-10-10_10h28.36.107,WTP_SM_Choice,2022.2.1,Win32,166.6666667,,,,,space,0.6379,NAN,,NAN,0.44,5.56,,0,20,20,20,1,21,Charlie,Acc,Participant_Images/5ddce9f0f85b50c4fc1515a4/5ddce9f0f85b50c4fc1515a4_Images/5ddce9f0f85b50c4fc1515a4_Image_22.jpeg,liked,1.779333479,,,,,,,,,,,,,,,,,,,,,,
,,5ddce9f0f85b50c4fc1515a4,6685aa9113c938e83b4f1ea0,6707efb25e6b53e0c4632bf7,2024-10-10_10h28.36.107,WTP_SM_Choice,2022.2.1,Win32,166.6666667,,,,,space,0.7171,NAN,,NAN,0.44,5.56,,0,21,21,21,1,22,Charlie,Acc,Participant_Images/5ddce9f0f85b50c4fc1515a4/5ddce9f0f85b50c4fc1515a4_Images/5ddce9f0f85b50c4fc1515a4_Image_16.jpeg,did not like,4.312468682,,,,,,,,,,,,,,,,,,,,,,
,,5ddce9f0f85b50c4fc1515a4,6685aa9113c938e83b4f1ea0,6707efb25e6b53e0c4632bf7,2024-10-10_10h28.36.107,WTP_SM_Choice,2022.2.1,Win32,166.6666667,,,,,space,0.7174,NAN,,NAN,0.44,5.56,,0,22,22,22,1,23,Charlie,Acc,Participant_Images/5ddce9f0f85b50c4fc1515a4/5ddce9f0f85b50c4fc1515a4_Images/5ddce9f0f85b50c4fc1515a4_Image_23.jpeg,liked,4.940433059,,,,,,,,,,,,,,,,,,,,,,
,,5ddce9f0f85b50c4fc1515a4,6685aa9113c938e83b4f1ea0,6707efb25e6b53e0c4632bf7,2024-10-10_10h28.36.107,WTP_SM_Choice,2022.2.1,Win32,166.6666667,,,,,space,0.7464,NAN,,NAN,0.44,5.56,,0,23,23,23,1,24,Charlie,Acc,Participant_Images/5ddce9f0f85b50c4fc1515a4/5ddce9f0f85b50c4fc1515a4_Images/5ddce9f0f85b50c4fc1515a4_Image_24.jpeg,liked,2.7105123,,,,,,,,,,,,,,,,,,,,,,
,,5ddce9f0f85b50c4fc1515a4,6685aa9113c938e83b4f1ea0,6707efb25e6b53e0c4632bf7,2024-10-10_10h28.36.107,WTP_SM_Choice,2022.2.1,Win32,166.6666667,,,,,,,,,,,,,,,,,,21,,,,,,space,1.2762,space,0.6968,0.01,1,2.6953,0,0,0,0,1,Plan out what to do for future live stream content,Watching football all day on Sunday with family and friends,0.01,0.05,8.8,1,,,,
,,5ddce9f0f85b50c4fc1515a4,6685aa9113c938e83b4f1ea0,6707efb25e6b53e0c4632bf7,2024-10-10_10h28.36.107,WTP_SM_Choice,2022.2.1,Win32,166.6666667,,,,,,,,,,,,,,,,,,22,,,,,,,,,,0.02,1,3.082,0,1,1,1,1,Play catch with my dog Poochy,Play Left4Dead2 with friends,0.02,0.05,4.4,1,,,,
,,5ddce9f0f85b50c4fc1515a4,6685aa9113c938e83b4f1ea0,6707efb25e6b53e0c4632bf7,2024-10-10_10h28.36.107,WTP_SM_Choice,2022.2.1,Win32,166.6666667,,,,,,,,,,,,,,,,,,23,,,,,,,,,,0.03,1,2.3628,0,2,2,2,1,Do some Ring Fit Adventure to work out,Play Left4Dead2 with friends,0.03,0.05,1.1,1,,,,
,,5ddce9f0f85b50c4fc1515a4,6685aa9113c938e83b4f1ea0,6707efb25e6b53e0c4632bf7,2024-10-10_10h28.36.107,WTP_SM_Choice,2022.2.1,Win32,166.6666667,,,,,,,,,,,,,,,,,,24,,,,,,,,,,0.04,1,2.5827,0,3,3,3,1,Play Left4Dead2 with friends,Pop on a movie to recline and watch,0.04,0.05,4.4,0,,,,
,,5ddce9f0f85b50c4fc1515a4,6685aa9113c938e83b4f1ea0,6707efb25e6b53e0c4632bf7,2024-10-10_10h28.36.107,WTP_SM_Choice,2022.2.1,Win32,166.6666667,,,,,,,,,,,,,,,,,,25,,,,,,,,,,0.05,1,2.9501,0,4,4,4,1,Hang out while watching YouTube videos with friends,Play with toys with my cat Aurora,0.05,0.05,3.3,0,,,,
,,5ddce9f0f85b50c4fc1515a4,6685aa9113c938e83b4f1ea0,6707efb25e6b53e0c4632bf7,2024-10-10_10h28.36.107,WTP_SM_Choice,2022.2.1,Win32,166.6666667,,,,,,,5,,4,0.59,5.41,,0,24,24,24,1,25,Charlie,Acc,Participant_Images/5ddce9f0f85b50c4fc1515a4/5ddce9f0f85b50c4fc1515a4_Images/5ddce9f0f85b50c4fc1515a4_Image_3.jpeg,liked,3.602308302,,,,,,,,,,,,,,,,,,,space,0.597,,
,,5ddce9f0f85b50c4fc1515a4,6685aa9113c938e83b4f1ea0,6707efb25e6b53e0c4632bf7,2024-10-10_10h28.36.107,WTP_SM_Choice,2022.2.1,Win32,166.6666667,,,space,3.8005,space,0.9095,NAN,,NAN,0.59,5.41,,0,25,25,25,1,26,Riley,Rej,Participant_Images/5ddce9f0f85b50c4fc1515a4/5ddce9f0f85b50c4fc1515a4_Images/5ddce9f0f85b50c4fc1515a4_Image_21.jpeg,did not like,4.106391878,,,,,,,,,,,,,,,,,,,,,,
,,5ddce9f0f85b50c4fc1515a4,6685aa9113c938e83b4f1ea0,6707efb25e6b53e0c4632bf7,2024-10-10_10h28.36.107,WTP_SM_Choice,2022.2.1,Win32,166.6666667,,,,,space,0.6774,NAN,,NAN,0.59,5.41,,0,26,26,26,1,27,Riley,Rej,Participant_Images/5ddce9f0f85b50c4fc1515a4/5ddce9f0f85b50c4fc1515a4_Images/5ddce9f0f85b50c4fc1515a4_Image_2.jpeg,did not like,3.799433026,,,,,,,,,,,,,,,,,,,,,,
,,5ddce9f0f85b50c4fc1515a4,6685aa9113c938e83b4f1ea0,6707efb25e6b53e0c4632bf7,2024-10-10_10h28.36.107,WTP_SM_Choice,2022.2.1,Win32,166.6666667,,,,,space,0.6245,NAN,,NAN,0.59,5.41,,0,27,27,27,1,28,Riley,Rej,Participant_Images/5ddce9f0f85b50c4fc1515a4/5ddce9f0f85b50c4fc1515a4_Images/5ddce9f0f85b50c4fc1515a4_Image_22.jpeg,did not like,5.246980764,,,,,,,,,,,,,,,,,,,,,,
,,5ddce9f0f85b50c4fc1515a4,6685aa9113c938e83b4f1ea0,6707efb25e6b53e0c4632bf7,2024-10-10_10h28.36.107,WTP_SM_Choice,2022.2.1,Win32,166.6666667,,,,,space,0.5989,NAN,,NAN,0.59,5.41,,0,28,28,28,1,29,Riley,Rej,Participant_Images/5ddce9f0f85b50c4fc1515a4/5ddce9f0f85b50c4fc1515a4_Images/5ddce9f0f85b50c4fc1515a4_Image_9.jpeg,liked,3.30081769,,,,,,,,,,,,,,,,,,,,,,
,,5ddce9f0f85b50c4fc1515a4,6685aa9113c938e83b4f1ea0,6707efb25e6b53e0c4632bf7,2024-10-10_10h28.36.107,WTP_SM_Choice,2022.2.1,Win32,166.6666667,,,,,,,,,,,,,,,,,,26,,,,,,space,1.4592,space,0.7658,0.01,2,3.3343,0,0,0,0,1,Play Golf With  Friends,Pop on a movie to recline and watch,0.01,0.01,4.4,0,,,,
,,5ddce9f0f85b50c4fc1515a4,6685aa9113c938e83b4f1ea0,6707efb25e6b53e0c4632bf7,2024-10-10_10h28.36.107,WTP_SM_Choice,2022.2.1,Win32,166.6666667,,,,,,,,,,,,,,,,,,27,,,,,,,,,,0.01,2,1.5147,0,1,1,1,1,Pop on a movie to recline and watch,Go through horrible dad jokes with friends,0.02,0.01,3.3,1,,,,
,,5ddce9f0f85b50c4fc1515a4,6685aa9113c938e83b4f1ea0,6707efb25e6b53e0c4632bf7,2024-10-10_10h28.36.107,WTP_SM_Choice,2022.2.1,Win32,166.6666667,,,,,,,,,,,,,,,,,,28,,,,,,,,,,0.01,2,3.1991,0,2,2,2,1,Hang out while watching YouTube videos with friends,Plan out what to do for future live stream content,0.03,0.01,3.3,0,,,,
,,5ddce9f0f85b50c4fc1515a4,6685aa9113c938e83b4f1ea0,6707efb25e6b53e0c4632bf7,2024-10-10_10h28.36.107,WTP_SM_Choice,2022.2.1,Win32,166.6666667,,,,,,,,,,,,,,,,,,29,,,,,,,,,,0.01,2,2.5246,0,3,3,3,1,Plan out what to do for future live stream content,Go through horrible dad jokes with friends,0.04,0.01,4.4,1,,,,
,,5ddce9f0f85b50c4fc1515a4,6685aa9113c938e83b4f1ea0,6707efb25e6b53e0c4632bf7,2024-10-10_10h28.36.107,WTP_SM_Choice,2022.2.1,Win32,166.6666667,,,,,,,,,,,,,,,,,,30,,,,,,,,,,0.05,1,2.9825,0,4,4,4,1,Play catch with my dog Poochy,Watching football all day on Sunday with family and friends,0.05,0.01,8.8,1,,,,
,,5ddce9f0f85b50c4fc1515a4,6685aa9113c938e83b4f1ea0,6707efb25e6b53e0c4632bf7,2024-10-10_10h28.36.107,WTP_SM_Choice,2022.2.1,Win32,166.6666667,,,,,,,NAN,,NAN,0.68,5.32,,0,29,29,29,1,30,Riley,Rej,Participant_Images/5ddce9f0f85b50c4fc1515a4/5ddce9f0f85b50c4fc1515a4_Images/5ddce9f0f85b50c4fc1515a4_Image_25.jpeg,did not like,1.661473164,,,,,,,,,,,,,,,,,,,,,,
,,5ddce9f0f85b50c4fc1515a4,6685aa9113c938e83b4f1ea0,6707efb25e6b53e0c4632bf7,2024-10-10_10h28.36.107,WTP_SM_Choice,2022.2.1,Win32,166.6666667,,,,,space,2.0524,NAN,,NAN,0.68,5.32,,0,30,30,30,1,31,Riley,Rej,Participant_Images/5ddce9f0f85b50c4fc1515a4/5ddce9f0f85b50c4fc1515a4_Images/5ddce9f0f85b50c4fc1515a4_Image_1.jpeg,liked,3.613205605,,,,,,,,,,,,,,,,,,,,,,
,,5ddce9f0f85b50c4fc1515a4,6685aa9113c938e83b4f1ea0,6707efb25e6b53e0c4632bf7,2024-10-10_10h28.36.107,WTP_SM_Choice,2022.2.1,Win32,166.6666667,,,,,space,0.4505,NAN,,NAN,0.68,5.32,,0,31,31,31,1,32,Riley,Rej,Participant_Images/5ddce9f0f85b50c4fc1515a4/5ddce9f0f85b50c4fc1515a4_Images/5ddce9f0f85b50c4fc1515a4_Image_23.jpeg,did not like,4.988446431,,,,,,,,,,,,,,,,,,,,,,
,,5ddce9f0f85b50c4fc1515a4,6685aa9113c938e83b4f1ea0,6707efb25e6b53e0c4632bf7,2024-10-10_10h28.36.107,WTP_SM_Choice,2022.2.1,Win32,166.6666667,,,,,space,0.741,NAN,,NAN,0.68,5.32,,0,32,32,32,1,33,Riley,Rej,Participant_Images/5ddce9f0f85b50c4fc1515a4/5ddce9f0f85b50c4fc1515a4_Images/5ddce9f0f85b50c4fc1515a4_Image_13.jpeg,did not like,3.470791822,,,,,,,,,,,,,,,,,,,,,,
,,5ddce9f0f85b50c4fc1515a4,6685aa9113c938e83b4f1ea0,6707efb25e6b53e0c4632bf7,2024-10-10_10h28.36.107,WTP_SM_Choice,2022.2.1,Win32,166.6666667,,,,,space,0.5026,NAN,,NAN,0.68,5.32,,0,33,33,33,1,34,Riley,Rej,Participant_Images/5ddce9f0f85b50c4fc1515a4/5ddce9f0f85b50c4fc1515a4_Images/5ddce9f0f85b50c4fc1515a4_Image_10.jpeg,liked,3.820572462,,,,,,,,,,,,,,,,,,,,,,
,,5ddce9f0f85b50c4fc1515a4,6685aa9113c938e83b4f1ea0,6707efb25e6b53e0c4632bf7,2024-10-10_10h28.36.107,WTP_SM_Choice,2022.2.1,Win32,166.6666667,,,,,,,,,,,,,,,,,,31,,,,,,space,0.7134,space,0.8261,0.01,1,3.8555,0,0,0,0,1,Play some Story of Seasons while I relax,Play Golf With  Friends,0.01,0.02,8.8,1,,,,
,,5ddce9f0f85b50c4fc1515a4,6685aa9113c938e83b4f1ea0,6707efb25e6b53e0c4632bf7,2024-10-10_10h28.36.107,WTP_SM_Choice,2022.2.1,Win32,166.6666667,,,,,,,,,,,,,,,,,,32,,,,,,,,,,0.02,2,3.0535,0,1,1,1,1,Play catch with my dog Poochy,Hang out while watching YouTube videos with friends,0.02,0.02,1.1,1,,,,
,,5ddce9f0f85b50c4fc1515a4,6685aa9113c938e83b4f1ea0,6707efb25e6b53e0c4632bf7,2024-10-10_10h28.36.107,WTP_SM_Choice,2022.2.1,Win32,166.6666667,,,,,,,,,,,,,,,,,,33,,,,,,,,,,0.02,2,2.2923,0,2,2,2,1,Play catch with my dog Poochy,Play Golf With  Friends,0.03,0.02,4.4,1,,,,
,,5ddce9f0f85b50c4fc1515a4,6685aa9113c938e83b4f1ea0,6707efb25e6b53e0c4632bf7,2024-10-10_10h28.36.107,WTP_SM_Choice,2022.2.1,Win32,166.6666667,,,,,,,,,,,,,,,,,,34,,,,,,,,,,0.02,2,2.5181,0,3,3,3,1,Pop on a movie to recline and watch,Hang out while watching YouTube videos with friends,0.04,0.02,3.3,1,,,,
,,5ddce9f0f85b50c4fc1515a4,6685aa9113c938e83b4f1ea0,6707efb25e6b53e0c4632bf7,2024-10-10_10h28.36.107,WTP_SM_Choice,2022.2.1,Win32,166.6666667,,,,,,,,,,,,,,,,,,35,,,,,,,,,,0.02,2,2.7264,0,4,4,4,1,Just chill and talking about life with friends,Play some Animal Crossing in bed,0.05,0.02,1.1,0,,,,
,,5ddce9f0f85b50c4fc1515a4,6685aa9113c938e83b4f1ea0,6707efb25e6b53e0c4632bf7,2024-10-10_10h28.36.107,WTP_SM_Choice,2022.2.1,Win32,166.6666667,,,,,,,NAN,,NAN,0.77,5.23,,0,34,34,34,1,35,Riley,Rej,Participant_Images/5ddce9f0f85b50c4fc1515a4/5ddce9f0f85b50c4fc1515a4_Images/5ddce9f0f85b50c4fc1515a4_Image_5.jpeg,did not like,2.455989137,,,,,,,,,,,,,,,,,,,,,,
,,5ddce9f0f85b50c4fc1515a4,6685aa9113c938e83b4f1ea0,6707efb25e6b53e0c4632bf7,2024-10-10_10h28.36.107,WTP_SM_Choice,2022.2.1,Win32,166.6666667,,,,,space,0.7541,NAN,,NAN,0.77,5.23,,0,35,35,35,1,36,Riley,Rej,Participant_Images/5ddce9f0f85b50c4fc1515a4/5ddce9f0f85b50c4fc1515a4_Images/5ddce9f0f85b50c4fc1515a4_Image_6.jpeg,did not like,3.79605092,,,,,,,,,,,,,,,,,,,,,,
,,5ddce9f0f85b50c4fc1515a4,6685aa9113c938e83b4f1ea0,6707efb25e6b53e0c4632bf7,2024-10-10_10h28.36.107,WTP_SM_Choice,2022.2.1,Win32,166.6666667,,,,,space,0.4843,NAN,,NAN,0.77,5.23,,0,36,36,36,1,37,Riley,Rej,Participant_Images/5ddce9f0f85b50c4fc1515a4/5ddce9f0f85b50c4fc1515a4_Images/5ddce9f0f85b50c4fc1515a4_Image_20.jpeg,did not like,3.562416326,,,,,,,,,,,,,,,,,,,,,,
,,5ddce9f0f85b50c4fc1515a4,6685aa9113c938e83b4f1ea0,6707efb25e6b53e0c4632bf7,2024-10-10_10h28.36.107,WTP_SM_Choice,2022.2.1,Win32,166.6666667,,,,,space,0.4833,NAN,,NAN,0.77,5.23,,0,37,37,37,1,38,Riley,Rej,Participant_Images/5ddce9f0f85b50c4fc1515a4/5ddce9f0f85b50c4fc1515a4_Images/5ddce9f0f85b50c4fc1515a4_Image_14.jpeg,liked,2.843822497,,,,,,,,,,,,,,,,,,,,,,
,,5ddce9f0f85b50c4fc1515a4,6685aa9113c938e83b4f1ea0,6707efb25e6b53e0c4632bf7,2024-10-10_10h28.36.107,WTP_SM_Choice,2022.2.1,Win32,166.6666667,,,,,space,0.8201,NAN,,NAN,0.77,5.23,,0,38,38,38,1,39,Riley,Rej,Participant_Images/5ddce9f0f85b50c4fc1515a4/5ddce9f0f85b50c4fc1515a4_Images/5ddce9f0f85b50c4fc1515a4_Image_24.jpeg,did not like,3.546495948,,,,,,,,,,,,,,,,,,,,,,
,,5ddce9f0f85b50c4fc1515a4,6685aa9113c938e83b4f1ea0,6707efb25e6b53e0c4632bf7,2024-10-10_10h28.36.107,WTP_SM_Choice,2022.2.1,Win32,166.6666667,,,,,,,,,,,,,,,,,,36,,,,,,space,0.973,space,0.6611,0.01,1,2.2903,0,0,0,0,1,Play some Story of Seasons while I relax,Watching football all day on Sunday with family and friends,0.01,0.03,3.3,1,,,,
,,5ddce9f0f85b50c4fc1515a4,6685aa9113c938e83b4f1ea0,6707efb25e6b53e0c4632bf7,2024-10-10_10h28.36.107,WTP_SM_Choice,2022.2.1,Win32,166.6666667,,,,,,,,,,,,,,,,,,37,,,,,,,,,,0.03,2,2.1974,0,1,1,1,1,Do some Ring Fit Adventure to work out,Watch friends live stream on Twitch or YouTube with friends,0.02,0.03,1.1,1,,,,
,,5ddce9f0f85b50c4fc1515a4,6685aa9113c938e83b4f1ea0,6707efb25e6b53e0c4632bf7,2024-10-10_10h28.36.107,WTP_SM_Choice,2022.2.1,Win32,166.6666667,,,,,,,,,,,,,,,,,,38,,,,,,,,,,0.03,2,3.1646,0,2,2,2,1,Play Golf With  Friends,Do photo editing in Photoshop,0.03,0.03,1.1,0,,,,
,,5ddce9f0f85b50c4fc1515a4,6685aa9113c938e83b4f1ea0,6707efb25e6b53e0c4632bf7,2024-10-10_10h28.36.107,WTP_SM_Choice,2022.2.1,Win32,166.6666667,,,,,,,,,,,,,,,,,,39,,,,,,,,,,0.03,2,2.3808,0,3,3,3,1,Play Left4Dead2 with friends,Play with toys with my cat Aurora,0.04,0.03,3.3,0,,,,
,,5ddce9f0f85b50c4fc1515a4,6685aa9113c938e83b4f1ea0,6707efb25e6b53e0c4632bf7,2024-10-10_10h28.36.107,WTP_SM_Choice,2022.2.1,Win32,166.6666667,,,,,,,,,,,,,,,,,,40,,,,,,,,,,0.03,2,2.3076,0,4,4,4,1,Record things with my friends that I can edit into videos,Edit some videos with calm music on,0.05,0.03,4.4,0,,,,
,,5ddce9f0f85b50c4fc1515a4,6685aa9113c938e83b4f1ea0,6707efb25e6b53e0c4632bf7,2024-10-10_10h28.36.107,WTP_SM_Choice,2022.2.1,Win32,166.6666667,,,,,,,NAN,,NAN,0.9,5.1,,0,39,39,39,1,40,Riley,Rej,Participant_Images/5ddce9f0f85b50c4fc1515a4/5ddce9f0f85b50c4fc1515a4_Images/5ddce9f0f85b50c4fc1515a4_Image_18.jpeg,did not like,1.672012706,,,,,,,,,,,,,,,,,,,,,,
,,5ddce9f0f85b50c4fc1515a4,6685aa9113c938e83b4f1ea0,6707efb25e6b53e0c4632bf7,2024-10-10_10h28.36.107,WTP_SM_Choice,2022.2.1,Win32,166.6666667,,,,,space,0.2924,NAN,,NAN,0.9,5.1,,0,40,40,40,1,41,Riley,Rej,Participant_Images/5ddce9f0f85b50c4fc1515a4/5ddce9f0f85b50c4fc1515a4_Images/5ddce9f0f85b50c4fc1515a4_Image_17.jpeg,liked,4.942172136,,,,,,,,,,,,,,,,,,,,,,
,,5ddce9f0f85b50c4fc1515a4,6685aa9113c938e83b4f1ea0,6707efb25e6b53e0c4632bf7,2024-10-10_10h28.36.107,WTP_SM_Choice,2022.2.1,Win32,166.6666667,,,,,space,1.913,NAN,,NAN,0.9,5.1,,0,41,41,41,1,42,Riley,Rej,Participant_Images/5ddce9f0f85b50c4fc1515a4/5ddce9f0f85b50c4fc1515a4_Images/5ddce9f0f85b50c4fc1515a4_Image_16.jpeg,did not like,2.50187214,,,,,,,,,,,,,,,,,,,,,,
,,5ddce9f0f85b50c4fc1515a4,6685aa9113c938e83b4f1ea0,6707efb25e6b53e0c4632bf7,2024-10-10_10h28.36.107,WTP_SM_Choice,2022.2.1,Win32,166.6666667,,,,,space,0.7812,NAN,,NAN,0.9,5.1,,0,42,42,42,1,43,Riley,Rej,Participant_Images/5ddce9f0f85b50c4fc1515a4/5ddce9f0f85b50c4fc1515a4_Images/5ddce9f0f85b50c4fc1515a4_Image_4.jpeg,did not like,2.071164779,,,,,,,,,,,,,,,,,,,,,,
,,5ddce9f0f85b50c4fc1515a4,6685aa9113c938e83b4f1ea0,6707efb25e6b53e0c4632bf7,2024-10-10_10h28.36.107,WTP_SM_Choice,2022.2.1,Win32,166.6666667,,,,,space,0.4613,NAN,,NAN,0.9,5.1,,0,43,43,43,1,44,Riley,Rej,Participant_Images/5ddce9f0f85b50c4fc1515a4/5ddce9f0f85b50c4fc1515a4_Images/5ddce9f0f85b50c4fc1515a4_Image_15.jpeg,did not like,5.336503566,,,,,,,,,,,,,,,,,,,,,,
,,5ddce9f0f85b50c4fc1515a4,6685aa9113c938e83b4f1ea0,6707efb25e6b53e0c4632bf7,2024-10-10_10h28.36.107,WTP_SM_Choice,2022.2.1,Win32,166.6666667,,,,,,,,,,,,,,,,,,41,,,,,,space,0.9274,space,0.5621,0.01,1,2.1481,0,0,0,0,1,Plan out what to do for future live stream content,Play Overwatch 2 with friends,0.01,0.04,1.1,1,,,,
,,5ddce9f0f85b50c4fc1515a4,6685aa9113c938e83b4f1ea0,6707efb25e6b53e0c4632bf7,2024-10-10_10h28.36.107,WTP_SM_Choice,2022.2.1,Win32,166.6666667,,,,,,,,,,,,,,,,,,42,,,,,,,,,,0.02,1,2.7023,0,1,1,1,1,Play some Animal Crossing in bed,Watch friends live stream on Twitch or YouTube with friends,0.02,0.04,3.3,1,,,,
,,5ddce9f0f85b50c4fc1515a4,6685aa9113c938e83b4f1ea0,6707efb25e6b53e0c4632bf7,2024-10-10_10h28.36.107,WTP_SM_Choice,2022.2.1,Win32,166.6666667,,,,,,,,,,,,,,,,,,43,,,,,,,,,,0.03,1,3.4244,0,2,2,2,1,Plan out what to do for future live stream content,Having a movie night with family and friends,0.03,0.04,1.1,1,,,,
,,5ddce9f0f85b50c4fc1515a4,6685aa9113c938e83b4f1ea0,6707efb25e6b53e0c4632bf7,2024-10-10_10h28.36.107,WTP_SM_Choice,2022.2.1,Win32,166.6666667,,,,,,,,,,,,,,,,,,44,,,,,,,,,,0.04,2,3.2714,0,3,3,3,1,Having a movie night with family and friends,Pop on a movie to recline and watch,0.04,0.04,1.1,0,,,,
,,5ddce9f0f85b50c4fc1515a4,6685aa9113c938e83b4f1ea0,6707efb25e6b53e0c4632bf7,2024-10-10_10h28.36.107,WTP_SM_Choice,2022.2.1,Win32,166.6666667,,,,,,,,,,,,,,,,,,45,,,,,,,,,,0.04,2,3.7919,0,4,4,4,1,Record things with my friends that I can edit into videos,Plan out what to do for future live stream content,0.05,0.04,4.4,0,,,,
,,5ddce9f0f85b50c4fc1515a4,6685aa9113c938e83b4f1ea0,6707efb25e6b53e0c4632bf7,2024-10-10_10h28.36.107,WTP_SM_Choice,2022.2.1,Win32,166.6666667,,,,,,,NAN,,NAN,1.04,4.96,,0,44,44,44,1,45,Riley,Rej,Participant_Images/5ddce9f0f85b50c4fc1515a4/5ddce9f0f85b50c4fc1515a4_Images/5ddce9f0f85b50c4fc1515a4_Image_8.jpeg,did not like,2.642157193,,,,,,,,,,,,,,,,,,,,,,
,,5ddce9f0f85b50c4fc1515a4,6685aa9113c938e83b4f1ea0,6707efb25e6b53e0c4632bf7,2024-10-10_10h28.36.107,WTP_SM_Choice,2022.2.1,Win32,166.6666667,,,,,space,0.4442,NAN,,NAN,1.04,4.96,,0,45,45,45,1,46,Riley,Rej,Participant_Images/5ddce9f0f85b50c4fc1515a4/5ddce9f0f85b50c4fc1515a4_Images/5ddce9f0f85b50c4fc1515a4_Image_11.jpeg,did not like,4.456234322,,,,,,,,,,,,,,,,,,,,,,
,,5ddce9f0f85b50c4fc1515a4,6685aa9113c938e83b4f1ea0,6707efb25e6b53e0c4632bf7,2024-10-10_10h28.36.107,WTP_SM_Choice,2022.2.1,Win32,166.6666667,,,,,space,4.8277,NAN,,NAN,1.04,4.96,,0,46,46,46,1,47,Riley,Rej,Participant_Images/5ddce9f0f85b50c4fc1515a4/5ddce9f0f85b50c4fc1515a4_Images/5ddce9f0f85b50c4fc1515a4_Image_12.jpeg,liked,4.438512181,,,,,,,,,,,,,,,,,,,,,,
,,5ddce9f0f85b50c4fc1515a4,6685aa9113c938e83b4f1ea0,6707efb25e6b53e0c4632bf7,2024-10-10_10h28.36.107,WTP_SM_Choice,2022.2.1,Win32,166.6666667,,,,,space,0.3431,NAN,,NAN,1.04,4.96,,0,47,47,47,1,48,Riley,Rej,Participant_Images/5ddce9f0f85b50c4fc1515a4/5ddce9f0f85b50c4fc1515a4_Images/5ddce9f0f85b50c4fc1515a4_Image_3.jpeg,did not like,2.682944783,,,,,,,,,,,,,,,,,,,,,,
,,5ddce9f0f85b50c4fc1515a4,6685aa9113c938e83b4f1ea0,6707efb25e6b53e0c4632bf7,2024-10-10_10h28.36.107,WTP_SM_Choice,2022.2.1,Win32,166.6666667,,,,,space,0.0631,NAN,,NAN,1.04,4.96,,0,48,48,48,1,49,Riley,Rej,Participant_Images/5ddce9f0f85b50c4fc1515a4/5ddce9f0f85b50c4fc1515a4_Images/5ddce9f0f85b50c4fc1515a4_Image_19.jpeg,did not like,4.51984296,,,,,,,,,,,,,,,,,,,,,,
,,5ddce9f0f85b50c4fc1515a4,6685aa9113c938e83b4f1ea0,6707efb25e6b53e0c4632bf7,2024-10-10_10h28.36.107,WTP_SM_Choice,2022.2.1,Win32,166.6666667,,,,,,,,,,,,,,,,,,46,,,,,,space,2.4813,space,0.5459,0.01,1,2.6308,0,0,0,0,1,Record things with my friends that I can edit into videos,Play some Story of Seasons while I relax,0.01,0.05,8.8,0,,,,
,,5ddce9f0f85b50c4fc1515a4,6685aa9113c938e83b4f1ea0,6707efb25e6b53e0c4632bf7,2024-10-10_10h28.36.107,WTP_SM_Choice,2022.2.1,Win32,166.6666667,,,,,,,,,,,,,,,,,,47,,,,,,,,,,0.02,1,2.5364,0,1,1,1,1,Play with toys with my cat Aurora,Play Golf With  Friends,0.02,0.05,1.1,1,,,,
,,5ddce9f0f85b50c4fc1515a4,6685aa9113c938e83b4f1ea0,6707efb25e6b53e0c4632bf7,2024-10-10_10h28.36.107,WTP_SM_Choice,2022.2.1,Win32,166.6666667,,,,,,,,,,,,,,,,,,48,,,,,,,,,,0.03,1,2.9058,0,2,2,2,1,Go through horrible dad jokes with friends,Play some Story of Seasons while I relax,0.03,0.05,4.4,0,,,,
,,5ddce9f0f85b50c4fc1515a4,6685aa9113c938e83b4f1ea0,6707efb25e6b53e0c4632bf7,2024-10-10_10h28.36.107,WTP_SM_Choice,2022.2.1,Win32,166.6666667,,,,,,,,,,,,,,,,,,49,,,,,,,,,,0.04,1,3.3809,0,3,3,3,1,Edit some videos with calm music on,Hang out while watching YouTube videos with friends,0.04,0.05,3.3,1,,,,
,,5ddce9f0f85b50c4fc1515a4,6685aa9113c938e83b4f1ea0,6707efb25e6b53e0c4632bf7,2024-10-10_10h28.36.107,WTP_SM_Choice,2022.2.1,Win32,166.6666667,,,,,,,,,,,,,,,,,,50,,,,,,,,,,0.05,1,2.5749,0,4,4,4,1,Play some Animal Crossing in bed,Play Overwatch 2 with friends,0.05,0.05,1.1,1,,,,
,,5ddce9f0f85b50c4fc1515a4,6685aa9113c938e83b4f1ea0,6707efb25e6b53e0c4632bf7,2024-10-10_10h28.36.107,WTP_SM_Choice,2022.2.1,Win32,166.6666667,,,,,,,1,,4,1.19,4.81,,0,49,49,49,1,50,Riley,Rej,Participant_Images/5ddce9f0f85b50c4fc1515a4/5ddce9f0f85b50c4fc1515a4_Images/5ddce9f0f85b50c4fc1515a4_Image_7.jpeg,liked,3.195382774,,,,,,,,,,,,,,,,,,,space,1.7548,,
,,5ddce9f0f85b50c4fc1515a4,6685aa9113c938e83b4f1ea0,6707efb25e6b53e0c4632bf7,2024-10-10_10h28.36.107,WTP_SM_Choice,2022.2.1,Win32,166.6666667,,,space,2.6107,space,0.5045,NAN,,NAN,1.19,4.81,,0,50,50,50,1,51,Alex,Rej,Participant_Images/5ddce9f0f85b50c4fc1515a4/5ddce9f0f85b50c4fc1515a4_Images/5ddce9f0f85b50c4fc1515a4_Image_22.jpeg,did not like,1.779333479,,,,,,,,,,,,,,,,,,,,,,
,,5ddce9f0f85b50c4fc1515a4,6685aa9113c938e83b4f1ea0,6707efb25e6b53e0c4632bf7,2024-10-10_10h28.36.107,WTP_SM_Choice,2022.2.1,Win32,166.6666667,,,,,space,1.1729,NAN,,NAN,1.19,4.81,,0,51,51,51,1,52,Alex,Rej,Participant_Images/5ddce9f0f85b50c4fc1515a4/5ddce9f0f85b50c4fc1515a4_Images/5ddce9f0f85b50c4fc1515a4_Image_10.jpeg,liked,4.312468682,,,,,,,,,,,,,,,,,,,,,,
,,5ddce9f0f85b50c4fc1515a4,6685aa9113c938e83b4f1ea0,6707efb25e6b53e0c4632bf7,2024-10-10_10h28.36.107,WTP_SM_Choice,2022.2.1,Win32,166.6666667,,,,,space,0.5344,NAN,,NAN,1.19,4.81,,0,52,52,52,1,53,Alex,Rej,Participant_Images/5ddce9f0f85b50c4fc1515a4/5ddce9f0f85b50c4fc1515a4_Images/5ddce9f0f85b50c4fc1515a4_Image_13.jpeg,did not like,4.940433059,,,,,,,,,,,,,,,,,,,,,,
,,5ddce9f0f85b50c4fc1515a4,6685aa9113c938e83b4f1ea0,6707efb25e6b53e0c4632bf7,2024-10-10_10h28.36.107,WTP_SM_Choice,2022.2.1,Win32,166.6666667,,,,,space,0.6783,NAN,,NAN,1.19,4.81,,0,53,53,53,1,54,Alex,Rej,Participant_Images/5ddce9f0f85b50c4fc1515a4/5ddce9f0f85b50c4fc1515a4_Images/5ddce9f0f85b50c4fc1515a4_Image_11.jpeg,did not like,2.7105123,,,,,,,,,,,,,,,,,,,,,,
,,5ddce9f0f85b50c4fc1515a4,6685aa9113c938e83b4f1ea0,6707efb25e6b53e0c4632bf7,2024-10-10_10h28.36.107,WTP_SM_Choice,2022.2.1,Win32,166.6666667,,,,,,,,,,,,,,,,,,51,,,,,,space,0.9819,space,0.6869,0.01,2,3.7266,0,0,0,0,1,Go through horrible dad jokes with friends,Do photo editing in Photoshop,0.01,0.01,1.1,0,,,,
,,5ddce9f0f85b50c4fc1515a4,6685aa9113c938e83b4f1ea0,6707efb25e6b53e0c4632bf7,2024-10-10_10h28.36.107,WTP_SM_Choice,2022.2.1,Win32,166.6666667,,,,,,,,,,,,,,,,,,52,,,,,,,,,,0.01,2,2.3201,0,1,1,1,1,Do some Ring Fit Adventure to work out,Play Golf With  Friends,0.02,0.01,3.3,1,,,,
,,5ddce9f0f85b50c4fc1515a4,6685aa9113c938e83b4f1ea0,6707efb25e6b53e0c4632bf7,2024-10-10_10h28.36.107,WTP_SM_Choice,2022.2.1,Win32,166.6666667,,,,,,,,,,,,,,,,,,53,,,,,,,,,,0.01,2,2.5602,0,2,2,2,1,Just chill and talking about life with friends,Plan out what to do for future live stream content,0.03,0.01,1.1,0,,,,
,,5ddce9f0f85b50c4fc1515a4,6685aa9113c938e83b4f1ea0,6707efb25e6b53e0c4632bf7,2024-10-10_10h28.36.107,WTP_SM_Choice,2022.2.1,Win32,166.6666667,,,,,,,,,,,,,,,,,,54,,,,,,,,,,0.01,2,2.1136,0,3,3,3,1,Play Left4Dead2 with friends,Go through and look at my Pokemon card collection in my binders,0.04,0.01,4.4,0,,,,
,,5ddce9f0f85b50c4fc1515a4,6685aa9113c938e83b4f1ea0,6707efb25e6b53e0c4632bf7,2024-10-10_10h28.36.107,WTP_SM_Choice,2022.2.1,Win32,166.6666667,,,,,,,,,,,,,,,,,,55,,,,,,,,,,0.01,2,1.4705,0,4,4,4,1,Play Overwatch 2 with friends,Pop on a movie to recline and watch,0.05,0.01,1.1,0,,,,
,,5ddce9f0f85b50c4fc1515a4,6685aa9113c938e83b4f1ea0,6707efb25e6b53e0c4632bf7,2024-10-10_10h28.36.107,WTP_SM_Choice,2022.2.1,Win32,166.6666667,,,,,,,NAN,,NAN,1.24,4.76,,0,54,54,54,1,55,Alex,Rej,Participant_Images/5ddce9f0f85b50c4fc1515a4/5ddce9f0f85b50c4fc1515a4_Images/5ddce9f0f85b50c4fc1515a4_Image_6.jpeg,did not like,3.602308302,,,,,,,,,,,,,,,,,,,,,,
,,5ddce9f0f85b50c4fc1515a4,6685aa9113c938e83b4f1ea0,6707efb25e6b53e0c4632bf7,2024-10-10_10h28.36.107,WTP_SM_Choice,2022.2.1,Win32,166.6666667,,,,,space,0.3907,NAN,,NAN,1.24,4.76,,0,55,55,55,1,56,Alex,Rej,Participant_Images/5ddce9f0f85b50c4fc1515a4/5ddce9f0f85b50c4fc1515a4_Images/5ddce9f0f85b50c4fc1515a4_Image_16.jpeg,did not like,4.106391878,,,,,,,,,,,,,,,,,,,,,,
,,5ddce9f0f85b50c4fc1515a4,6685aa9113c938e83b4f1ea0,6707efb25e6b53e0c4632bf7,2024-10-10_10h28.36.107,WTP_SM_Choice,2022.2.1,Win32,166.6666667,,,,,space,0.7928,NAN,,NAN,1.24,4.76,,0,56,56,56,1,57,Alex,Rej,Participant_Images/5ddce9f0f85b50c4fc1515a4/5ddce9f0f85b50c4fc1515a4_Images/5ddce9f0f85b50c4fc1515a4_Image_19.jpeg,did not like,3.799433026,,,,,,,,,,,,,,,,,,,,,,
,,5ddce9f0f85b50c4fc1515a4,6685aa9113c938e83b4f1ea0,6707efb25e6b53e0c4632bf7,2024-10-10_10h28.36.107,WTP_SM_Choice,2022.2.1,Win32,166.6666667,,,,,space,0.4278,NAN,,NAN,1.24,4.76,,0,57,57,57,1,58,Alex,Rej,Participant_Images/5ddce9f0f85b50c4fc1515a4/5ddce9f0f85b50c4fc1515a4_Images/5ddce9f0f85b50c4fc1515a4_Image_12.jpeg,did not like,5.246980764,,,,,,,,,,,,,,,,,,,,,,
,,5ddce9f0f85b50c4fc1515a4,6685aa9113c938e83b4f1ea0,6707efb25e6b53e0c4632bf7,2024-10-10_10h28.36.107,WTP_SM_Choice,2022.2.1,Win32,166.6666667,,,,,space,0.4589,NAN,,NAN,1.24,4.76,,0,58,58,58,1,59,Alex,Rej,Participant_Images/5ddce9f0f85b50c4fc1515a4/5ddce9f0f85b50c4fc1515a4_Images/5ddce9f0f85b50c4fc1515a4_Image_1.jpeg,did not like,3.30081769,,,,,,,,,,,,,,,,,,,,,,
,,5ddce9f0f85b50c4fc1515a4,6685aa9113c938e83b4f1ea0,6707efb25e6b53e0c4632bf7,2024-10-10_10h28.36.107,WTP_SM_Choice,2022.2.1,Win32,166.6666667,,,,,,,,,,,,,,,,,,56,,,,,,space,1.7721,space,0.5565,0.01,1,2.5866,0,0,0,0,1,Play some Story of Seasons while I relax,Having a movie night with family and friends,0.01,0.02,8.8,1,,,,
,,5ddce9f0f85b50c4fc1515a4,6685aa9113c938e83b4f1ea0,6707efb25e6b53e0c4632bf7,2024-10-10_10h28.36.107,WTP_SM_Choice,2022.2.1,Win32,166.6666667,,,,,,,,,,,,,,,,,,57,,,,,,,,,,0.02,2,2.1177,0,1,1,1,1,Play Overwatch 2 with friends,Play some Story of Seasons while I relax,0.02,0.02,4.4,0,,,,
,,5ddce9f0f85b50c4fc1515a4,6685aa9113c938e83b4f1ea0,6707efb25e6b53e0c4632bf7,2024-10-10_10h28.36.107,WTP_SM_Choice,2022.2.1,Win32,166.6666667,,,,,,,,,,,,,,,,,,58,,,,,,,,,,0.03,1,2.7971,0,2,2,2,1,Go through horrible dad jokes with friends,Edit some videos with calm music on,0.03,0.02,4.4,0,,,,
,,5ddce9f0f85b50c4fc1515a4,6685aa9113c938e83b4f1ea0,6707efb25e6b53e0c4632bf7,2024-10-10_10h28.36.107,WTP_SM_Choice,2022.2.1,Win32,166.6666667,,,,,,,,,,,,,,,,,,59,,,,,,,,,,0.02,2,1.9475,0,3,3,3,1,Play Overwatch 2 with friends,Go through and look at my Pokemon card collection in my binders,0.04,0.02,4.4,0,,,,
,,5ddce9f0f85b50c4fc1515a4,6685aa9113c938e83b4f1ea0,6707efb25e6b53e0c4632bf7,2024-10-10_10h28.36.107,WTP_SM_Choice,2022.2.1,Win32,166.6666667,,,,,,,,,,,,,,,,,,60,,,,,,,,,,0.02,2,1.8664,0,4,4,4,1,Go through and look at my Pokemon card collection in my binders,Just chill and talking about life with friends,0.05,0.02,1.1,1,,,,
,,5ddce9f0f85b50c4fc1515a4,6685aa9113c938e83b4f1ea0,6707efb25e6b53e0c4632bf7,2024-10-10_10h28.36.107,WTP_SM_Choice,2022.2.1,Win32,166.6666667,,,,,,,NAN,,NAN,1.34,4.66,,0,59,59,59,1,60,Alex,Rej,Participant_Images/5ddce9f0f85b50c4fc1515a4/5ddce9f0f85b50c4fc1515a4_Images/5ddce9f0f85b50c4fc1515a4_Image_5.jpeg,did not like,1.661473164,,,,,,,,,,,,,,,,,,,,,,
,,5ddce9f0f85b50c4fc1515a4,6685aa9113c938e83b4f1ea0,6707efb25e6b53e0c4632bf7,2024-10-10_10h28.36.107,WTP_SM_Choice,2022.2.1,Win32,166.6666667,,,,,space,0.5676,NAN,,NAN,1.34,4.66,,0,60,60,60,1,61,Alex,Rej,Participant_Images/5ddce9f0f85b50c4fc1515a4/5ddce9f0f85b50c4fc1515a4_Images/5ddce9f0f85b50c4fc1515a4_Image_7.jpeg,liked,3.613205605,,,,,,,,,,,,,,,,,,,,,,
,,5ddce9f0f85b50c4fc1515a4,6685aa9113c938e83b4f1ea0,6707efb25e6b53e0c4632bf7,2024-10-10_10h28.36.107,WTP_SM_Choice,2022.2.1,Win32,166.6666667,,,,,space,0.8151,NAN,,NAN,1.34,4.66,,0,61,61,61,1,62,Alex,Rej,Participant_Images/5ddce9f0f85b50c4fc1515a4/5ddce9f0f85b50c4fc1515a4_Images/5ddce9f0f85b50c4fc1515a4_Image_2.jpeg,did not like,4.988446431,,,,,,,,,,,,,,,,,,,,,,
,,5ddce9f0f85b50c4fc1515a4,6685aa9113c938e83b4f1ea0,6707efb25e6b53e0c4632bf7,2024-10-10_10h28.36.107,WTP_SM_Choice,2022.2.1,Win32,166.6666667,,,,,space,0.7225,NAN,,NAN,1.34,4.66,,0,62,62,62,1,63,Alex,Rej,Participant_Images/5ddce9f0f85b50c4fc1515a4/5ddce9f0f85b50c4fc1515a4_Images/5ddce9f0f85b50c4fc1515a4_Image_4.jpeg,did not like,3.470791822,,,,,,,,,,,,,,,,,,,,,,
,,5ddce9f0f85b50c4fc1515a4,6685aa9113c938e83b4f1ea0,6707efb25e6b53e0c4632bf7,2024-10-10_10h28.36.107,WTP_SM_Choice,2022.2.1,Win32,166.6666667,,,,,space,0.5165,NAN,,NAN,1.34,4.66,,0,63,63,63,1,64,Alex,Rej,Participant_Images/5ddce9f0f85b50c4fc1515a4/5ddce9f0f85b50c4fc1515a4_Images/5ddce9f0f85b50c4fc1515a4_Image_3.jpeg,did not like,3.820572462,,,,,,,,,,,,,,,,,,,,,,
,,5ddce9f0f85b50c4fc1515a4,6685aa9113c938e83b4f1ea0,6707efb25e6b53e0c4632bf7,2024-10-10_10h28.36.107,WTP_SM_Choice,2022.2.1,Win32,166.6666667,,,,,,,,,,,,,,,,,,61,,,,,,space,2.8291,space,1.98,0.01,1,2.292,0,0,0,0,1,Play catch with my dog Poochy,Having a movie night with family and friends,0.01,0.03,3.3,1,,,,
,,5ddce9f0f85b50c4fc1515a4,6685aa9113c938e83b4f1ea0,6707efb25e6b53e0c4632bf7,2024-10-10_10h28.36.107,WTP_SM_Choice,2022.2.1,Win32,166.6666667,,,,,,,,,,,,,,,,,,62,,,,,,,,,,0.02,1,1.8339,0,1,1,1,1,Watch friends live stream on Twitch or YouTube with friends,Edit some videos with calm music on,0.02,0.03,3.3,0,,,,
,,5ddce9f0f85b50c4fc1515a4,6685aa9113c938e83b4f1ea0,6707efb25e6b53e0c4632bf7,2024-10-10_10h28.36.107,WTP_SM_Choice,2022.2.1,Win32,166.6666667,,,,,,,,,,,,,,,,,,63,,,,,,,,,,0.03,1,3.5106,0,2,2,2,1,Edit some videos with calm music on,Watching football all day on Sunday with family and friends,0.03,0.03,3.3,1,,,,
,,5ddce9f0f85b50c4fc1515a4,6685aa9113c938e83b4f1ea0,6707efb25e6b53e0c4632bf7,2024-10-10_10h28.36.107,WTP_SM_Choice,2022.2.1,Win32,166.6666667,,,,,,,,,,,,,,,,,,64,,,,,,,,,,0.03,2,2.2289,0,3,3,3,1,Watching football all day on Sunday with family and friends,Go through and look at my Pokemon card collection in my binders,0.04,0.03,1.1,0,,,,
,,5ddce9f0f85b50c4fc1515a4,6685aa9113c938e83b4f1ea0,6707efb25e6b53e0c4632bf7,2024-10-10_10h28.36.107,WTP_SM_Choice,2022.2.1,Win32,166.6666667,,,,,,,,,,,,,,,,,,65,,,,,,,,,,0.03,2,2.9573,0,4,4,4,1,Play Golf With  Friends,Play some Animal Crossing in bed,0.05,0.03,1.1,0,,,,
,,5ddce9f0f85b50c4fc1515a4,6685aa9113c938e83b4f1ea0,6707efb25e6b53e0c4632bf7,2024-10-10_10h28.36.107,WTP_SM_Choice,2022.2.1,Win32,166.6666667,,,,,,,NAN,,NAN,1.46,4.54,,0,64,64,64,1,65,Alex,Rej,Participant_Images/5ddce9f0f85b50c4fc1515a4/5ddce9f0f85b50c4fc1515a4_Images/5ddce9f0f85b50c4fc1515a4_Image_23.jpeg,did not like,2.455989137,,,,,,,,,,,,,,,,,,,,,,
,,5ddce9f0f85b50c4fc1515a4,6685aa9113c938e83b4f1ea0,6707efb25e6b53e0c4632bf7,2024-10-10_10h28.36.107,WTP_SM_Choice,2022.2.1,Win32,166.6666667,,,,,space,0.3978,NAN,,NAN,1.46,4.54,,0,65,65,65,1,66,Alex,Rej,Participant_Images/5ddce9f0f85b50c4fc1515a4/5ddce9f0f85b50c4fc1515a4_Images/5ddce9f0f85b50c4fc1515a4_Image_15.jpeg,did not like,3.79605092,,,,,,,,,,,,,,,,,,,,,,
,,5ddce9f0f85b50c4fc1515a4,6685aa9113c938e83b4f1ea0,6707efb25e6b53e0c4632bf7,2024-10-10_10h28.36.107,WTP_SM_Choice,2022.2.1,Win32,166.6666667,,,,,space,0.5717,NAN,,NAN,1.46,4.54,,0,66,66,66,1,67,Alex,Rej,Participant_Images/5ddce9f0f85b50c4fc1515a4/5ddce9f0f85b50c4fc1515a4_Images/5ddce9f0f85b50c4fc1515a4_Image_20.jpeg,did not like,3.562416326,,,,,,,,,,,,,,,,,,,,,,
,,5ddce9f0f85b50c4fc1515a4,6685aa9113c938e83b4f1ea0,6707efb25e6b53e0c4632bf7,2024-10-10_10h28.36.107,WTP_SM_Choice,2022.2.1,Win32,166.6666667,,,,,space,0.6133,NAN,,NAN,1.46,4.54,,0,67,67,67,1,68,Alex,Rej,Participant_Images/5ddce9f0f85b50c4fc1515a4/5ddce9f0f85b50c4fc1515a4_Images/5ddce9f0f85b50c4fc1515a4_Image_25.jpeg,did not like,2.843822497,,,,,,,,,,,,,,,,,,,,,,
,,5ddce9f0f85b50c4fc1515a4,6685aa9113c938e83b4f1ea0,6707efb25e6b53e0c4632bf7,2024-10-10_10h28.36.107,WTP_SM_Choice,2022.2.1,Win32,166.6666667,,,,,space,0.7532,NAN,,NAN,1.46,4.54,,0,68,68,68,1,69,Alex,Rej,Participant_Images/5ddce9f0f85b50c4fc1515a4/5ddce9f0f85b50c4fc1515a4_Images/5ddce9f0f85b50c4fc1515a4_Image_21.jpeg,did not like,3.546495948,,,,,,,,,,,,,,,,,,,,,,
,,5ddce9f0f85b50c4fc1515a4,6685aa9113c938e83b4f1ea0,6707efb25e6b53e0c4632bf7,2024-10-10_10h28.36.107,WTP_SM_Choice,2022.2.1,Win32,166.6666667,,,,,,,,,,,,,,,,,,66,,,,,,space,1.635,space,0.9609,0.01,1,2.6988,0,0,0,0,1,Play Overwatch 2 with friends,Play with toys with my cat Aurora,0.01,0.04,1.1,0,,,,
,,5ddce9f0f85b50c4fc1515a4,6685aa9113c938e83b4f1ea0,6707efb25e6b53e0c4632bf7,2024-10-10_10h28.36.107,WTP_SM_Choice,2022.2.1,Win32,166.6666667,,,,,,,,,,,,,,,,,,67,,,,,,,,,,0.02,1,1.5988,0,1,1,1,1,Watching football all day on Sunday with family and friends,Do some Ring Fit Adventure to work out,0.02,0.04,8.8,0,,,,
,,5ddce9f0f85b50c4fc1515a4,6685aa9113c938e83b4f1ea0,6707efb25e6b53e0c4632bf7,2024-10-10_10h28.36.107,WTP_SM_Choice,2022.2.1,Win32,166.6666667,,,,,,,,,,,,,,,,,,68,,,,,,,,,,0.03,1,2.287,0,2,2,2,1,Just chill and talking about life with friends,Play with toys with my cat Aurora,0.03,0.04,4.4,0,,,,
,,5ddce9f0f85b50c4fc1515a4,6685aa9113c938e83b4f1ea0,6707efb25e6b53e0c4632bf7,2024-10-10_10h28.36.107,WTP_SM_Choice,2022.2.1,Win32,166.6666667,,,,,,,,,,,,,,,,,,69,,,,,,,,,,0.04,2,1.8731,0,3,3,3,1,Record things with my friends that I can edit into videos,Play with toys with my cat Aurora,0.04,0.04,1.1,0,,,,
,,5ddce9f0f85b50c4fc1515a4,6685aa9113c938e83b4f1ea0,6707efb25e6b53e0c4632bf7,2024-10-10_10h28.36.107,WTP_SM_Choice,2022.2.1,Win32,166.6666667,,,,,,,,,,,,,,,,,,70,,,,,,,,,,0.04,2,4.5304,0,4,4,4,1,Go through and look at my Pokemon card collection in my binders,Go through horrible dad jokes with friends,0.05,0.04,1.1,1,,,,
,,5ddce9f0f85b50c4fc1515a4,6685aa9113c938e83b4f1ea0,6707efb25e6b53e0c4632bf7,2024-10-10_10h28.36.107,WTP_SM_Choice,2022.2.1,Win32,166.6666667,,,,,,,NAN,,NAN,1.6,4.4,,0,69,69,69,1,70,Alex,Rej,Participant_Images/5ddce9f0f85b50c4fc1515a4/5ddce9f0f85b50c4fc1515a4_Images/5ddce9f0f85b50c4fc1515a4_Image_8.jpeg,liked,1.672012706,,,,,,,,,,,,,,,,,,,,,,
,,5ddce9f0f85b50c4fc1515a4,6685aa9113c938e83b4f1ea0,6707efb25e6b53e0c4632bf7,2024-10-10_10h28.36.107,WTP_SM_Choice,2022.2.1,Win32,166.6666667,,,,,space,0.5494,NAN,,NAN,1.6,4.4,,0,70,70,70,1,71,Alex,Rej,Participant_Images/5ddce9f0f85b50c4fc1515a4/5ddce9f0f85b50c4fc1515a4_Images/5ddce9f0f85b50c4fc1515a4_Image_14.jpeg,liked,4.942172136,,,,,,,,,,,,,,,,,,,,,,
,,5ddce9f0f85b50c4fc1515a4,6685aa9113c938e83b4f1ea0,6707efb25e6b53e0c4632bf7,2024-10-10_10h28.36.107,WTP_SM_Choice,2022.2.1,Win32,166.6666667,,,,,space,0.6998,NAN,,NAN,1.6,4.4,,0,71,71,71,1,72,Alex,Rej,Participant_Images/5ddce9f0f85b50c4fc1515a4/5ddce9f0f85b50c4fc1515a4_Images/5ddce9f0f85b50c4fc1515a4_Image_18.jpeg,did not like,2.50187214,,,,,,,,,,,,,,,,,,,,,,
,,5ddce9f0f85b50c4fc1515a4,6685aa9113c938e83b4f1ea0,6707efb25e6b53e0c4632bf7,2024-10-10_10h28.36.107,WTP_SM_Choice,2022.2.1,Win32,166.6666667,,,,,space,0.6805,NAN,,NAN,1.6,4.4,,0,72,72,72,1,73,Alex,Rej,Participant_Images/5ddce9f0f85b50c4fc1515a4/5ddce9f0f85b50c4fc1515a4_Images/5ddce9f0f85b50c4fc1515a4_Image_24.jpeg,liked,2.071164779,,,,,,,,,,,,,,,,,,,,,,
,,5ddce9f0f85b50c4fc1515a4,6685aa9113c938e83b4f1ea0,6707efb25e6b53e0c4632bf7,2024-10-10_10h28.36.107,WTP_SM_Choice,2022.2.1,Win32,166.6666667,,,,,space,0.6214,NAN,,NAN,1.6,4.4,,0,73,73,73,1,74,Alex,Rej,Participant_Images/5ddce9f0f85b50c4fc1515a4/5ddce9f0f85b50c4fc1515a4_Images/5ddce9f0f85b50c4fc1515a4_Image_9.jpeg,liked,5.336503566,,,,,,,,,,,,,,,,,,,,,,
,,5ddce9f0f85b50c4fc1515a4,6685aa9113c938e83b4f1ea0,6707efb25e6b53e0c4632bf7,2024-10-10_10h28.36.107,WTP_SM_Choice,2022.2.1,Win32,166.6666667,,,,,,,,,,,,,,,,,,71,,,,,,space,0.761,space,2.672,0.01,1,2.0105,0,0,0,0,1,Edit some videos with calm music on,Play Overwatch 2 with friends,0.01,0.05,3.3,1,,,,
,,5ddce9f0f85b50c4fc1515a4,6685aa9113c938e83b4f1ea0,6707efb25e6b53e0c4632bf7,2024-10-10_10h28.36.107,WTP_SM_Choice,2022.2.1,Win32,166.6666667,,,,,,,,,,,,,,,,,,72,,,,,,,,,,0.02,1,2.7453,0,1,1,1,1,Play Overwatch 2 with friends,Do photo editing in Photoshop,0.02,0.05,8.8,0,,,,
,,5ddce9f0f85b50c4fc1515a4,6685aa9113c938e83b4f1ea0,6707efb25e6b53e0c4632bf7,2024-10-10_10h28.36.107,WTP_SM_Choice,2022.2.1,Win32,166.6666667,,,,,,,,,,,,,,,,,,73,,,,,,,,,,0.03,1,2.7192,0,2,2,2,1,Edit some videos with calm music on,Just chill and talking about life with friends,0.03,0.05,3.3,1,,,,
,,5ddce9f0f85b50c4fc1515a4,6685aa9113c938e83b4f1ea0,6707efb25e6b53e0c4632bf7,2024-10-10_10h28.36.107,WTP_SM_Choice,2022.2.1,Win32,166.6666667,,,,,,,,,,,,,,,,,,74,,,,,,,,,,0.04,1,3.6922,0,3,3,3,1,Play catch with my dog Poochy,Record things with my friends that I can edit into videos,0.04,0.05,4.4,1,,,,
,,5ddce9f0f85b50c4fc1515a4,6685aa9113c938e83b4f1ea0,6707efb25e6b53e0c4632bf7,2024-10-10_10h28.36.107,WTP_SM_Choice,2022.2.1,Win32,166.6666667,,,,,,,,,,,,,,,,,,75,,,,,,,,,,0.05,2,3.0653,0,4,4,4,1,Pop on a movie to recline and watch,Just chill and talking about life with friends,0.05,0.05,3.3,1,,,,
,,5ddce9f0f85b50c4fc1515a4,6685aa9113c938e83b4f1ea0,6707efb25e6b53e0c4632bf7,2024-10-10_10h28.36.107,WTP_SM_Choice,2022.2.1,Win32,166.6666667,,,,,,,2,,4,1.75,4.25,,0,74,74,74,1,75,Alex,Rej,Participant_Images/5ddce9f0f85b50c4fc1515a4/5ddce9f0f85b50c4fc1515a4_Images/5ddce9f0f85b50c4fc1515a4_Image_17.jpeg,liked,2.642157193,,,,,,,,,,,,,,,,,,,space,1.8097,,
,,5ddce9f0f85b50c4fc1515a4,6685aa9113c938e83b4f1ea0,6707efb25e6b53e0c4632bf7,2024-10-10_10h28.36.107,WTP_SM_Choice,2022.2.1,Win32,166.6666667,,,space,2.0817,space,1.3224,NAN,,NAN,1.75,4.25,,0,75,75,75,1,76,Sam,Acc,Participant_Images/5ddce9f0f85b50c4fc1515a4/5ddce9f0f85b50c4fc1515a4_Images/5ddce9f0f85b50c4fc1515a4_Image_23.jpeg,liked,4.456234322,,,,,,,,,,,,,,,,,,,,,,
,,5ddce9f0f85b50c4fc1515a4,6685aa9113c938e83b4f1ea0,6707efb25e6b53e0c4632bf7,2024-10-10_10h28.36.107,WTP_SM_Choice,2022.2.1,Win32,166.6666667,,,,,space,0.4263,NAN,,NAN,1.75,4.25,,0,76,76,76,1,77,Sam,Acc,Participant_Images/5ddce9f0f85b50c4fc1515a4/5ddce9f0f85b50c4fc1515a4_Images/5ddce9f0f85b50c4fc1515a4_Image_1.jpeg,did not like,4.438512181,,,,,,,,,,,,,,,,,,,,,,
,,5ddce9f0f85b50c4fc1515a4,6685aa9113c938e83b4f1ea0,6707efb25e6b53e0c4632bf7,2024-10-10_10h28.36.107,WTP_SM_Choice,2022.2.1,Win32,166.6666667,,,,,space,0.5407,NAN,,NAN,1.75,4.25,,0,77,77,77,1,78,Sam,Acc,Participant_Images/5ddce9f0f85b50c4fc1515a4/5ddce9f0f85b50c4fc1515a4_Images/5ddce9f0f85b50c4fc1515a4_Image_16.jpeg,liked,2.682944783,,,,,,,,,,,,,,,,,,,,,,
,,5ddce9f0f85b50c4fc1515a4,6685aa9113c938e83b4f1ea0,6707efb25e6b53e0c4632bf7,2024-10-10_10h28.36.107,WTP_SM_Choice,2022.2.1,Win32,166.6666667,,,,,space,0.4716,NAN,,NAN,1.75,4.25,,0,78,78,78,1,79,Sam,Acc,Participant_Images/5ddce9f0f85b50c4fc1515a4/5ddce9f0f85b50c4fc1515a4_Images/5ddce9f0f85b50c4fc1515a4_Image_19.jpeg,liked,4.51984296,,,,,,,,,,,,,,,,,,,,,,
,,5ddce9f0f85b50c4fc1515a4,6685aa9113c938e83b4f1ea0,6707efb25e6b53e0c4632bf7,2024-10-10_10h28.36.107,WTP_SM_Choice,2022.2.1,Win32,166.6666667,,,,,,,,,,,,,,,,,,76,,,,,,space,1.5535,space,1.2555,0.01,2,5.7773,0,0,0,0,1,Go through and look at my Pokemon card collection in my binders,Play Golf With  Friends,0.01,0.01,1.1,1,,,,
,,5ddce9f0f85b50c4fc1515a4,6685aa9113c938e83b4f1ea0,6707efb25e6b53e0c4632bf7,2024-10-10_10h28.36.107,WTP_SM_Choice,2022.2.1,Win32,166.6666667,,,,,,,,,,,,,,,,,,77,,,,,,,,,,0.01,2,2.2226,0,1,1,1,1,Do some Ring Fit Adventure to work out,Just chill and talking about life with friends,0.02,0.01,8.8,1,,,,
,,5ddce9f0f85b50c4fc1515a4,6685aa9113c938e83b4f1ea0,6707efb25e6b53e0c4632bf7,2024-10-10_10h28.36.107,WTP_SM_Choice,2022.2.1,Win32,166.6666667,,,,,,,,,,,,,,,,,,78,,,,,,,,,,0.03,1,3.2882,0,2,2,2,1,Do photo editing in Photoshop,Watch friends live stream on Twitch or YouTube with friends,0.03,0.01,1.1,1,,,,
,,5ddce9f0f85b50c4fc1515a4,6685aa9113c938e83b4f1ea0,6707efb25e6b53e0c4632bf7,2024-10-10_10h28.36.107,WTP_SM_Choice,2022.2.1,Win32,166.6666667,,,,,,,,,,,,,,,,,,79,,,,,,,,,,0.01,2,2.6117,0,3,3,3,1,Play Golf With  Friends,Edit some videos with calm music on,0.04,0.01,1.1,0,,,,
,,5ddce9f0f85b50c4fc1515a4,6685aa9113c938e83b4f1ea0,6707efb25e6b53e0c4632bf7,2024-10-10_10h28.36.107,WTP_SM_Choice,2022.2.1,Win32,166.6666667,,,,,,,,,,,,,,,,,,80,,,,,,,,,,0.01,2,3.2716,0,4,4,4,1,Do photo editing in Photoshop,Having a movie night with family and friends,0.05,0.01,4.4,1,,,,
,,5ddce9f0f85b50c4fc1515a4,6685aa9113c938e83b4f1ea0,6707efb25e6b53e0c4632bf7,2024-10-10_10h28.36.107,WTP_SM_Choice,2022.2.1,Win32,166.6666667,,,,,,,NAN,,NAN,1.82,4.18,,0,79,79,79,1,80,Sam,Acc,Participant_Images/5ddce9f0f85b50c4fc1515a4/5ddce9f0f85b50c4fc1515a4_Images/5ddce9f0f85b50c4fc1515a4_Image_6.jpeg,did not like,3.195382774,,,,,,,,,,,,,,,,,,,,,,
,,5ddce9f0f85b50c4fc1515a4,6685aa9113c938e83b4f1ea0,6707efb25e6b53e0c4632bf7,2024-10-10_10h28.36.107,WTP_SM_Choice,2022.2.1,Win32,166.6666667,,,,,space,0.6277,NAN,,NAN,1.82,4.18,,0,80,80,80,1,81,Sam,Acc,Participant_Images/5ddce9f0f85b50c4fc1515a4/5ddce9f0f85b50c4fc1515a4_Images/5ddce9f0f85b50c4fc1515a4_Image_22.jpeg,liked,1.779333479,,,,,,,,,,,,,,,,,,,,,,
,,5ddce9f0f85b50c4fc1515a4,6685aa9113c938e83b4f1ea0,6707efb25e6b53e0c4632bf7,2024-10-10_10h28.36.107,WTP_SM_Choice,2022.2.1,Win32,166.6666667,,,,,space,0.4507,NAN,,NAN,1.82,4.18,,0,81,81,81,1,82,Sam,Acc,Participant_Images/5ddce9f0f85b50c4fc1515a4/5ddce9f0f85b50c4fc1515a4_Images/5ddce9f0f85b50c4fc1515a4_Image_4.jpeg,did not like,4.312468682,,,,,,,,,,,,,,,,,,,,,,
,,5ddce9f0f85b50c4fc1515a4,6685aa9113c938e83b4f1ea0,6707efb25e6b53e0c4632bf7,2024-10-10_10h28.36.107,WTP_SM_Choice,2022.2.1,Win32,166.6666667,,,,,space,0.724,NAN,,NAN,1.82,4.18,,0,82,82,82,1,83,Sam,Acc,Participant_Images/5ddce9f0f85b50c4fc1515a4/5ddce9f0f85b50c4fc1515a4_Images/5ddce9f0f85b50c4fc1515a4_Image_5.jpeg,liked,4.940433059,,,,,,,,,,,,,,,,,,,,,,
,,5ddce9f0f85b50c4fc1515a4,6685aa9113c938e83b4f1ea0,6707efb25e6b53e0c4632bf7,2024-10-10_10h28.36.107,WTP_SM_Choice,2022.2.1,Win32,166.6666667,,,,,space,1.0407,NAN,,NAN,1.82,4.18,,0,83,83,83,1,84,Sam,Acc,Participant_Images/5ddce9f0f85b50c4fc1515a4/5ddce9f0f85b50c4fc1515a4_Images/5ddce9f0f85b50c4fc1515a4_Image_20.jpeg,liked,2.7105123,,,,,,,,,,,,,,,,,,,,,,
,,5ddce9f0f85b50c4fc1515a4,6685aa9113c938e83b4f1ea0,6707efb25e6b53e0c4632bf7,2024-10-10_10h28.36.107,WTP_SM_Choice,2022.2.1,Win32,166.6666667,,,,,,,,,,,,,,,,,,81,,,,,,space,1.2276,space,0.4315,0.01,1,4.188,0,0,0,0,1,Just chill and talking about life with friends,Play catch with my dog Poochy,0.01,0.02,3.3,0,,,,
,,5ddce9f0f85b50c4fc1515a4,6685aa9113c938e83b4f1ea0,6707efb25e6b53e0c4632bf7,2024-10-10_10h28.36.107,WTP_SM_Choice,2022.2.1,Win32,166.6666667,,,,,,,,,,,,,,,,,,82,,,,,,,,,,0.02,2,2.53,0,1,1,1,1,Play Golf With  Friends,Plan out what to do for future live stream content,0.02,0.02,4.4,0,,,,
,,5ddce9f0f85b50c4fc1515a4,6685aa9113c938e83b4f1ea0,6707efb25e6b53e0c4632bf7,2024-10-10_10h28.36.107,WTP_SM_Choice,2022.2.1,Win32,166.6666667,,,,,,,,,,,,,,,,,,83,,,,,,,,,,0.03,1,3.2143,0,2,2,2,1,Play some Animal Crossing in bed,Watching football all day on Sunday with family and friends,0.03,0.02,1.1,1,,,,
,,5ddce9f0f85b50c4fc1515a4,6685aa9113c938e83b4f1ea0,6707efb25e6b53e0c4632bf7,2024-10-10_10h28.36.107,WTP_SM_Choice,2022.2.1,Win32,166.6666667,,,,,,,,,,,,,,,,,,84,,,,,,,,,,0.02,2,3.5596,0,3,3,3,1,Go through and look at my Pokemon card collection in my binders,Hang out while watching YouTube videos with friends,0.04,0.02,3.3,1,,,,
,,5ddce9f0f85b50c4fc1515a4,6685aa9113c938e83b4f1ea0,6707efb25e6b53e0c4632bf7,2024-10-10_10h28.36.107,WTP_SM_Choice,2022.2.1,Win32,166.6666667,,,,,,,,,,,,,,,,,,85,,,,,,,,,,0.02,2,3.6824,0,4,4,4,1,Play some Animal Crossing in bed,Record things with my friends that I can edit into videos,0.05,0.02,3.3,1,,,,
,,5ddce9f0f85b50c4fc1515a4,6685aa9113c938e83b4f1ea0,6707efb25e6b53e0c4632bf7,2024-10-10_10h28.36.107,WTP_SM_Choice,2022.2.1,Win32,166.6666667,,,,,,,NAN,,NAN,1.92,4.08,,0,84,84,84,1,85,Sam,Acc,Participant_Images/5ddce9f0f85b50c4fc1515a4/5ddce9f0f85b50c4fc1515a4_Images/5ddce9f0f85b50c4fc1515a4_Image_25.jpeg,liked,3.602308302,,,,,,,,,,,,,,,,,,,,,,
,,5ddce9f0f85b50c4fc1515a4,6685aa9113c938e83b4f1ea0,6707efb25e6b53e0c4632bf7,2024-10-10_10h28.36.107,WTP_SM_Choice,2022.2.1,Win32,166.6666667,,,,,space,0.363,NAN,,NAN,1.92,4.08,,0,85,85,85,1,86,Sam,Acc,Participant_Images/5ddce9f0f85b50c4fc1515a4/5ddce9f0f85b50c4fc1515a4_Images/5ddce9f0f85b50c4fc1515a4_Image_2.jpeg,did not like,4.106391878,,,,,,,,,,,,,,,,,,,,,,
,,5ddce9f0f85b50c4fc1515a4,6685aa9113c938e83b4f1ea0,6707efb25e6b53e0c4632bf7,2024-10-10_10h28.36.107,WTP_SM_Choice,2022.2.1,Win32,166.6666667,,,,,space,0.5935,NAN,,NAN,1.92,4.08,,0,86,86,86,1,87,Sam,Acc,Participant_Images/5ddce9f0f85b50c4fc1515a4/5ddce9f0f85b50c4fc1515a4_Images/5ddce9f0f85b50c4fc1515a4_Image_8.jpeg,did not like,3.799433026,,,,,,,,,,,,,,,,,,,,,,
,,5ddce9f0f85b50c4fc1515a4,6685aa9113c938e83b4f1ea0,6707efb25e6b53e0c4632bf7,2024-10-10_10h28.36.107,WTP_SM_Choice,2022.2.1,Win32,166.6666667,,,,,space,0.8131,NAN,,NAN,1.92,4.08,,0,87,87,87,1,88,Sam,Acc,Participant_Images/5ddce9f0f85b50c4fc1515a4/5ddce9f0f85b50c4fc1515a4_Images/5ddce9f0f85b50c4fc1515a4_Image_9.jpeg,liked,5.246980764,,,,,,,,,,,,,,,,,,,,,,
,,5ddce9f0f85b50c4fc1515a4,6685aa9113c938e83b4f1ea0,6707efb25e6b53e0c4632bf7,2024-10-10_10h28.36.107,WTP_SM_Choice,2022.2.1,Win32,166.6666667,,,,,space,0.5979,NAN,,NAN,1.92,4.08,,0,88,88,88,1,89,Sam,Acc,Participant_Images/5ddce9f0f85b50c4fc1515a4/5ddce9f0f85b50c4fc1515a4_Images/5ddce9f0f85b50c4fc1515a4_Image_12.jpeg,liked,3.30081769,,,,,,,,,,,,,,,,,,,,,,
,,5ddce9f0f85b50c4fc1515a4,6685aa9113c938e83b4f1ea0,6707efb25e6b53e0c4632bf7,2024-10-10_10h28.36.107,WTP_SM_Choice,2022.2.1,Win32,166.6666667,,,,,,,,,,,,,,,,,,86,,,,,,space,1.4443,space,1.0082,0.01,1,2.5799,0,0,0,0,1,Go through horrible dad jokes with friends,Play catch with my dog Poochy,0.01,0.03,1.1,0,,,,
,,5ddce9f0f85b50c4fc1515a4,6685aa9113c938e83b4f1ea0,6707efb25e6b53e0c4632bf7,2024-10-10_10h28.36.107,WTP_SM_Choice,2022.2.1,Win32,166.6666667,,,,,,,,,,,,,,,,,,87,,,,,,,,,,0.03,2,5.1345,0,1,1,1,1,Play Overwatch 2 with friends,Do some Ring Fit Adventure to work out,0.02,0.03,4.4,0,,,,
,,5ddce9f0f85b50c4fc1515a4,6685aa9113c938e83b4f1ea0,6707efb25e6b53e0c4632bf7,2024-10-10_10h28.36.107,WTP_SM_Choice,2022.2.1,Win32,166.6666667,,,,,,,,,,,,,,,,,,88,,,,,,,,,,0.03,2,2.6591,0,2,2,2,1,Record things with my friends that I can edit into videos,Pop on a movie to recline and watch,0.03,0.03,1.1,0,,,,
,,5ddce9f0f85b50c4fc1515a4,6685aa9113c938e83b4f1ea0,6707efb25e6b53e0c4632bf7,2024-10-10_10h28.36.107,WTP_SM_Choice,2022.2.1,Win32,166.6666667,,,,,,,,,,,,,,,,,,89,,,,,,,,,,0.03,2,6.9536,0,3,3,3,1,Play with toys with my cat Aurora,Watching football all day on Sunday with family and friends,0.04,0.03,3.3,1,,,,
,,5ddce9f0f85b50c4fc1515a4,6685aa9113c938e83b4f1ea0,6707efb25e6b53e0c4632bf7,2024-10-10_10h28.36.107,WTP_SM_Choice,2022.2.1,Win32,166.6666667,,,,,,,,,,,,,,,,,,90,,,,,,,,,,0.03,2,3.5989,0,4,4,4,1,Play Left4Dead2 with friends,Play some Animal Crossing in bed,0.05,0.03,8.8,0,,,,
,,5ddce9f0f85b50c4fc1515a4,6685aa9113c938e83b4f1ea0,6707efb25e6b53e0c4632bf7,2024-10-10_10h28.36.107,WTP_SM_Choice,2022.2.1,Win32,166.6666667,,,,,,,NAN,,NAN,2.05,3.95,,0,89,89,89,1,90,Sam,Acc,Participant_Images/5ddce9f0f85b50c4fc1515a4/5ddce9f0f85b50c4fc1515a4_Images/5ddce9f0f85b50c4fc1515a4_Image_13.jpeg,did not like,1.661473164,,,,,,,,,,,,,,,,,,,,,,
,,5ddce9f0f85b50c4fc1515a4,6685aa9113c938e83b4f1ea0,6707efb25e6b53e0c4632bf7,2024-10-10_10h28.36.107,WTP_SM_Choice,2022.2.1,Win32,166.6666667,,,,,space,1.2645,NAN,,NAN,2.05,3.95,,0,90,90,90,1,91,Sam,Acc,Participant_Images/5ddce9f0f85b50c4fc1515a4/5ddce9f0f85b50c4fc1515a4_Images/5ddce9f0f85b50c4fc1515a4_Image_24.jpeg,liked,3.613205605,,,,,,,,,,,,,,,,,,,,,,
,,5ddce9f0f85b50c4fc1515a4,6685aa9113c938e83b4f1ea0,6707efb25e6b53e0c4632bf7,2024-10-10_10h28.36.107,WTP_SM_Choice,2022.2.1,Win32,166.6666667,,,,,space,4.9079,NAN,,NAN,2.05,3.95,,0,91,91,91,1,92,Sam,Acc,Participant_Images/5ddce9f0f85b50c4fc1515a4/5ddce9f0f85b50c4fc1515a4_Images/5ddce9f0f85b50c4fc1515a4_Image_18.jpeg,liked,4.988446431,,,,,,,,,,,,,,,,,,,,,,
,,5ddce9f0f85b50c4fc1515a4,6685aa9113c938e83b4f1ea0,6707efb25e6b53e0c4632bf7,2024-10-10_10h28.36.107,WTP_SM_Choice,2022.2.1,Win32,166.6666667,,,,,space,0.3892,NAN,,NAN,2.05,3.95,,0,92,92,92,1,93,Sam,Acc,Participant_Images/5ddce9f0f85b50c4fc1515a4/5ddce9f0f85b50c4fc1515a4_Images/5ddce9f0f85b50c4fc1515a4_Image_17.jpeg,liked,3.470791822,,,,,,,,,,,,,,,,,,,,,,
,,5ddce9f0f85b50c4fc1515a4,6685aa9113c938e83b4f1ea0,6707efb25e6b53e0c4632bf7,2024-10-10_10h28.36.107,WTP_SM_Choice,2022.2.1,Win32,166.6666667,,,,,space,0.5587,NAN,,NAN,2.05,3.95,,0,93,93,93,1,94,Sam,Acc,Participant_Images/5ddce9f0f85b50c4fc1515a4/5ddce9f0f85b50c4fc1515a4_Images/5ddce9f0f85b50c4fc1515a4_Image_14.jpeg,liked,3.820572462,,,,,,,,,,,,,,,,,,,,,,
,,5ddce9f0f85b50c4fc1515a4,6685aa9113c938e83b4f1ea0,6707efb25e6b53e0c4632bf7,2024-10-10_10h28.36.107,WTP_SM_Choice,2022.2.1,Win32,166.6666667,,,,,,,,,,,,,,,,,,91,,,,,,space,0.9154,space,1.0635,0.04,2,2.3263,0,0,0,0,1,Watching football all day on Sunday with family and friends,Do photo editing in Photoshop,0.01,0.04,3.3,0,,,,
,,5ddce9f0f85b50c4fc1515a4,6685aa9113c938e83b4f1ea0,6707efb25e6b53e0c4632bf7,2024-10-10_10h28.36.107,WTP_SM_Choice,2022.2.1,Win32,166.6666667,,,,,,,,,,,,,,,,,,92,,,,,,,,,,0.02,1,3.3313,0,1,1,1,1,Do some Ring Fit Adventure to work out,Record things with my friends that I can edit into videos,0.02,0.04,8.8,1,,,,
,,5ddce9f0f85b50c4fc1515a4,6685aa9113c938e83b4f1ea0,6707efb25e6b53e0c4632bf7,2024-10-10_10h28.36.107,WTP_SM_Choice,2022.2.1,Win32,166.6666667,,,,,,,,,,,,,,,,,,93,,,,,,,,,,0.03,1,3.3325,0,2,2,2,1,Go through horrible dad jokes with friends,Do some Ring Fit Adventure to work out,0.03,0.04,1.1,0,,,,
,,5ddce9f0f85b50c4fc1515a4,6685aa9113c938e83b4f1ea0,6707efb25e6b53e0c4632bf7,2024-10-10_10h28.36.107,WTP_SM_Choice,2022.2.1,Win32,166.6666667,,,,,,,,,,,,,,,,,,94,,,,,,,,,,0.04,1,3.9671,0,3,3,3,1,Go through horrible dad jokes with friends,Play with toys with my cat Aurora,0.04,0.04,4.4,0,,,,
,,5ddce9f0f85b50c4fc1515a4,6685aa9113c938e83b4f1ea0,6707efb25e6b53e0c4632bf7,2024-10-10_10h28.36.107,WTP_SM_Choice,2022.2.1,Win32,166.6666667,,,,,,,,,,,,,,,,,,95,,,,,,,,,,0.05,1,2.4369,0,4,4,4,1,Do photo editing in Photoshop,Play Left4Dead2 with friends,0.05,0.04,4.4,1,,,,
,,5ddce9f0f85b50c4fc1515a4,6685aa9113c938e83b4f1ea0,6707efb25e6b53e0c4632bf7,2024-10-10_10h28.36.107,WTP_SM_Choice,2022.2.1,Win32,166.6666667,,,,,,,NAN,,NAN,2.23,3.77,,0,94,94,94,1,95,Sam,Acc,Participant_Images/5ddce9f0f85b50c4fc1515a4/5ddce9f0f85b50c4fc1515a4_Images/5ddce9f0f85b50c4fc1515a4_Image_3.jpeg,liked,2.455989137,,,,,,,,,,,,,,,,,,,,,,
,,5ddce9f0f85b50c4fc1515a4,6685aa9113c938e83b4f1ea0,6707efb25e6b53e0c4632bf7,2024-10-10_10h28.36.107,WTP_SM_Choice,2022.2.1,Win32,166.6666667,,,,,space,0.3848,NAN,,NAN,2.23,3.77,,0,95,95,95,1,96,Sam,Acc,Participant_Images/5ddce9f0f85b50c4fc1515a4/5ddce9f0f85b50c4fc1515a4_Images/5ddce9f0f85b50c4fc1515a4_Image_21.jpeg,liked,3.79605092,,,,,,,,,,,,,,,,,,,,,,
,,5ddce9f0f85b50c4fc1515a4,6685aa9113c938e83b4f1ea0,6707efb25e6b53e0c4632bf7,2024-10-10_10h28.36.107,WTP_SM_Choice,2022.2.1,Win32,166.6666667,,,,,space,0.61,NAN,,NAN,2.23,3.77,,0,96,96,96,1,97,Sam,Acc,Participant_Images/5ddce9f0f85b50c4fc1515a4/5ddce9f0f85b50c4fc1515a4_Images/5ddce9f0f85b50c4fc1515a4_Image_10.jpeg,liked,3.562416326,,,,,,,,,,,,,,,,,,,,,,
,,5ddce9f0f85b50c4fc1515a4,6685aa9113c938e83b4f1ea0,6707efb25e6b53e0c4632bf7,2024-10-10_10h28.36.107,WTP_SM_Choice,2022.2.1,Win32,166.6666667,,,,,space,0.8615,NAN,,NAN,2.23,3.77,,0,97,97,97,1,98,Sam,Acc,Participant_Images/5ddce9f0f85b50c4fc1515a4/5ddce9f0f85b50c4fc1515a4_Images/5ddce9f0f85b50c4fc1515a4_Image_7.jpeg,liked,2.843822497,,,,,,,,,,,,,,,,,,,,,,
,,5ddce9f0f85b50c4fc1515a4,6685aa9113c938e83b4f1ea0,6707efb25e6b53e0c4632bf7,2024-10-10_10h28.36.107,WTP_SM_Choice,2022.2.1,Win32,166.6666667,,,,,space,0.7786,NAN,,NAN,2.23,3.77,,0,98,98,98,1,99,Sam,Acc,Participant_Images/5ddce9f0f85b50c4fc1515a4/5ddce9f0f85b50c4fc1515a4_Images/5ddce9f0f85b50c4fc1515a4_Image_15.jpeg,did not like,3.546495948,,,,,,,,,,,,,,,,,,,,,,
,,5ddce9f0f85b50c4fc1515a4,6685aa9113c938e83b4f1ea0,6707efb25e6b53e0c4632bf7,2024-10-10_10h28.36.107,WTP_SM_Choice,2022.2.1,Win32,166.6666667,,,,,,,,,,,,,,,,,,96,,,,,,space,1.0116,space,0.5726,0.01,1,1.9797,0,0,0,0,1,Just chill and talking about life with friends,Play some Story of Seasons while I relax,0.01,0.05,3.3,0,,,,
,,5ddce9f0f85b50c4fc1515a4,6685aa9113c938e83b4f1ea0,6707efb25e6b53e0c4632bf7,2024-10-10_10h28.36.107,WTP_SM_Choice,2022.2.1,Win32,166.6666667,,,,,,,,,,,,,,,,,,97,,,,,,,,,,0.02,1,3.1391,0,1,1,1,1,Watch friends live stream on Twitch or YouTube with friends,Play catch with my dog Poochy,0.02,0.05,1.1,0,,,,
,,5ddce9f0f85b50c4fc1515a4,6685aa9113c938e83b4f1ea0,6707efb25e6b53e0c4632bf7,2024-10-10_10h28.36.107,WTP_SM_Choice,2022.2.1,Win32,166.6666667,,,,,,,,,,,,,,,,,,98,,,,,,,,,,0.03,1,2.4831,0,2,2,2,1,Plan out what to do for future live stream content,Watch friends live stream on Twitch or YouTube with friends,0.03,0.05,1.1,1,,,,
,,5ddce9f0f85b50c4fc1515a4,6685aa9113c938e83b4f1ea0,6707efb25e6b53e0c4632bf7,2024-10-10_10h28.36.107,WTP_SM_Choice,2022.2.1,Win32,166.6666667,,,,,,,,,,,,,,,,,,99,,,,,,,,,,0.04,1,2.9708,0,3,3,3,1,Play Left4Dead2 with friends,Plan out what to do for future live stream content,0.04,0.05,3.3,0,,,,
,,5ddce9f0f85b50c4fc1515a4,6685aa9113c938e83b4f1ea0,6707efb25e6b53e0c4632bf7,2024-10-10_10h28.36.107,WTP_SM_Choice,2022.2.1,Win32,166.6666667,,,,,,,,,,,,,,,,,,100,,,,,,,,,,0.05,1,2.3015,0,4,4,4,1,Play some Story of Seasons while I relax,Play Left4Dead2 with friends,0.05,0.05,4.4,1,,,,
,,5ddce9f0f85b50c4fc1515a4,6685aa9113c938e83b4f1ea0,6707efb25e6b53e0c4632bf7,2024-10-10_10h28.36.107,WTP_SM_Choice,2022.2.1,Win32,166.6666667,,,,,,,4,,6,2.38,3.62,,0,99,99,99,1,100,Sam,Acc,Participant_Images/5ddce9f0f85b50c4fc1515a4/5ddce9f0f85b50c4fc1515a4_Images/5ddce9f0f85b50c4fc1515a4_Image_11.jpeg,liked,1.672012706,,,,,,,,,,,,,,,,,,,space,0.7351,,
,,5ddce9f0f85b50c4fc1515a4,6685aa9113c938e83b4f1ea0,6707efb25e6b53e0c4632bf7,2024-10-10_10h28.36.107,WTP_SM_Choice,2022.2.1,Win32,166.6666667,,,,,,,,,,,,,,,,,,,,,,,,,,,,,,,,,,,,,,,,,,,,space,1.8111
