endwelcomescreen_keys.keys,endwelcomescreen_keys.rt,participant,STUDY_ID,SESSION_ID,date,expName,psychopyVersion,OS,frameRate,endinstructionscreen_keys.keys,endinstructionscreen_keys.rt,endpartnermatch_keys.keys,endpartnermatch_keys.rt,sharenextphoto_key.keys,sharenextphoto_key.rt,salience_rating,key_resp.keys,stress_level,subtract_bonus,TOTAL_TASK_BONUS,stresslevel_keypress.keys,entiretaskloop.thisRepN,entiretaskloop.thisTrialN,entiretaskloop.thisN,entiretaskloop.thisIndex,entiretaskloop.ran,TrialNumber,Partner,Condition,Photos,Feedback,FeedbackWait,WTP_ins_keys1.keys,WTP_ins_keys1.rt,WTP_ins_keys2.keys,WTP_ins_keys2.rt,decision_price,responses.keys,responses.rt,WTPTaskLoop.thisRepN,WTPTaskLoop.thisTrialN,WTPTaskLoop.thisN,WTPTaskLoop.thisIndex,WTPTaskLoop.ran,right,left,leftmoney,rightmoney,WTP_ITI,social_left,Resume_keys.keys,Resume_keys.rt,key_resp.rt,end_screen_keys.keys,end_screen_keys.rt
space,4.0911,5de8613ddf86d37c8a8ab294,6685aa9113c938e83b4f1ea0,6707ea2313e95505d65b87ab,2024-10-10_07h53.29.161,WTP_SM_Choice,2022.2.1,Win32,59.88023952,,,,,,,,,,,,,,,,,,,,,,,,,,,,,,,,,,,,,,,,,,,,,,
,,5de8613ddf86d37c8a8ab294,6685aa9113c938e83b4f1ea0,6707ea2313e95505d65b87ab,2024-10-10_07h53.29.161,WTP_SM_Choice,2022.2.1,Win32,59.88023952,space,9.3414,,,,,,,,,,,,,,,,,,,,,,,,,,,,,,,,,,,,,,,,,,,,
,,5de8613ddf86d37c8a8ab294,6685aa9113c938e83b4f1ea0,6707ea2313e95505d65b87ab,2024-10-10_07h53.29.161,WTP_SM_Choice,2022.2.1,Win32,59.88023952,,,space,1.4368,space,0.8871,NAN,,NAN,0,6,,0,0,0,0,1,1,Sam,Acc,Participant_Images/5de8613ddf86d37c8a8ab294/5de8613ddf86d37c8a8ab294_Images/5de8613ddf86d37c8a8ab294_Image_5.jpeg,did not like,3.613205605,,,,,,,,,,,,,,,,,,,,,,,
,,5de8613ddf86d37c8a8ab294,6685aa9113c938e83b4f1ea0,6707ea2313e95505d65b87ab,2024-10-10_07h53.29.161,WTP_SM_Choice,2022.2.1,Win32,59.88023952,,,,,space,2.2201,NAN,,NAN,0,6,,0,1,1,1,1,2,Sam,Acc,Participant_Images/5de8613ddf86d37c8a8ab294/5de8613ddf86d37c8a8ab294_Images/5de8613ddf86d37c8a8ab294_Image_16.jpeg,liked,4.988446431,,,,,,,,,,,,,,,,,,,,,,,
,,5de8613ddf86d37c8a8ab294,6685aa9113c938e83b4f1ea0,6707ea2313e95505d65b87ab,2024-10-10_07h53.29.161,WTP_SM_Choice,2022.2.1,Win32,59.88023952,,,,,space,0.8366,NAN,,NAN,0,6,,0,2,2,2,1,3,Sam,Acc,Participant_Images/5de8613ddf86d37c8a8ab294/5de8613ddf86d37c8a8ab294_Images/5de8613ddf86d37c8a8ab294_Image_15.jpeg,liked,3.470791822,,,,,,,,,,,,,,,,,,,,,,,
,,5de8613ddf86d37c8a8ab294,6685aa9113c938e83b4f1ea0,6707ea2313e95505d65b87ab,2024-10-10_07h53.29.161,WTP_SM_Choice,2022.2.1,Win32,59.88023952,,,,,space,0.8896,NAN,,NAN,0,6,,0,3,3,3,1,4,Sam,Acc,Participant_Images/5de8613ddf86d37c8a8ab294/5de8613ddf86d37c8a8ab294_Images/5de8613ddf86d37c8a8ab294_Image_8.jpeg,liked,3.820572462,,,,,,,,,,,,,,,,,,,,,,,
,,5de8613ddf86d37c8a8ab294,6685aa9113c938e83b4f1ea0,6707ea2313e95505d65b87ab,2024-10-10_07h53.29.161,WTP_SM_Choice,2022.2.1,Win32,59.88023952,,,,,,,,,,,,,,,,,,1,,,,,,space,19.6946,space,4.8249,0.01,2,2.9846,0,0,0,0,1,Lay in bed with my partner in silence,Think of new outfit ideas and experimenting with new fashion trends,0.01,0.01,4.4,0,,,,,
,,5de8613ddf86d37c8a8ab294,6685aa9113c938e83b4f1ea0,6707ea2313e95505d65b87ab,2024-10-10_07h53.29.161,WTP_SM_Choice,2022.2.1,Win32,59.88023952,,,,,,,,,,,,,,,,,,2,,,,,,,,,,0.02,1,1.4454,0,1,1,1,1,Thrift shop in the city,Lay in bed with my partner in silence,0.02,0.01,8.8,1,,,,,
,,5de8613ddf86d37c8a8ab294,6685aa9113c938e83b4f1ea0,6707ea2313e95505d65b87ab,2024-10-10_07h53.29.161,WTP_SM_Choice,2022.2.1,Win32,59.88023952,,,,,,,,,,,,,,,,,,3,,,,,,,,,,0.03,1,2.3304,0,2,2,2,1,Thrift shop in the city,Color with my sister,0.03,0.01,3.3,1,,,,,
,,5de8613ddf86d37c8a8ab294,6685aa9113c938e83b4f1ea0,6707ea2313e95505d65b87ab,2024-10-10_07h53.29.161,WTP_SM_Choice,2022.2.1,Win32,59.88023952,,,,,,,,,,,,,,,,,,4,,,,,,,,,,0.01,2,2.7321,0,3,3,3,1,Cook with my baby sister,Crochet with meditation music playing,0.04,0.01,1.1,0,,,,,
,,5de8613ddf86d37c8a8ab294,6685aa9113c938e83b4f1ea0,6707ea2313e95505d65b87ab,2024-10-10_07h53.29.161,WTP_SM_Choice,2022.2.1,Win32,59.88023952,,,,,,,,,,,,,,,,,,5,,,,,,,,,,0.05,1,1.3736,0,4,4,4,1,Crochet with meditation music playing,Go to Target with my mom,0.05,0.01,1.1,1,,,,,
,,5de8613ddf86d37c8a8ab294,6685aa9113c938e83b4f1ea0,6707ea2313e95505d65b87ab,2024-10-10_07h53.29.161,WTP_SM_Choice,2022.2.1,Win32,59.88023952,,,,,,,NAN,,NAN,0.12,5.88,,0,4,4,4,1,5,Sam,Acc,Participant_Images/5de8613ddf86d37c8a8ab294/5de8613ddf86d37c8a8ab294_Images/5de8613ddf86d37c8a8ab294_Image_4.jpeg,liked,2.455989137,,,,,,,,,,,,,,,,,,,,,,,
,,5de8613ddf86d37c8a8ab294,6685aa9113c938e83b4f1ea0,6707ea2313e95505d65b87ab,2024-10-10_07h53.29.161,WTP_SM_Choice,2022.2.1,Win32,59.88023952,,,,,space,0.2899,NAN,,NAN,0.12,5.88,,0,5,5,5,1,6,Sam,Acc,Participant_Images/5de8613ddf86d37c8a8ab294/5de8613ddf86d37c8a8ab294_Images/5de8613ddf86d37c8a8ab294_Image_22.jpeg,liked,3.79605092,,,,,,,,,,,,,,,,,,,,,,,
,,5de8613ddf86d37c8a8ab294,6685aa9113c938e83b4f1ea0,6707ea2313e95505d65b87ab,2024-10-10_07h53.29.161,WTP_SM_Choice,2022.2.1,Win32,59.88023952,,,,,space,0.3711,NAN,,NAN,0.12,5.88,,0,6,6,6,1,7,Sam,Acc,Participant_Images/5de8613ddf86d37c8a8ab294/5de8613ddf86d37c8a8ab294_Images/5de8613ddf86d37c8a8ab294_Image_2.jpeg,liked,3.562416326,,,,,,,,,,,,,,,,,,,,,,,
,,5de8613ddf86d37c8a8ab294,6685aa9113c938e83b4f1ea0,6707ea2313e95505d65b87ab,2024-10-10_07h53.29.161,WTP_SM_Choice,2022.2.1,Win32,59.88023952,,,,,space,0.4383,NAN,,NAN,0.12,5.88,,0,7,7,7,1,8,Sam,Acc,Participant_Images/5de8613ddf86d37c8a8ab294/5de8613ddf86d37c8a8ab294_Images/5de8613ddf86d37c8a8ab294_Image_6.jpeg,liked,2.843822497,,,,,,,,,,,,,,,,,,,,,,,
,,5de8613ddf86d37c8a8ab294,6685aa9113c938e83b4f1ea0,6707ea2313e95505d65b87ab,2024-10-10_07h53.29.161,WTP_SM_Choice,2022.2.1,Win32,59.88023952,,,,,space,0.3551,NAN,,NAN,0.12,5.88,,0,8,8,8,1,9,Sam,Acc,Participant_Images/5de8613ddf86d37c8a8ab294/5de8613ddf86d37c8a8ab294_Images/5de8613ddf86d37c8a8ab294_Image_17.jpeg,did not like,3.546495948,,,,,,,,,,,,,,,,,,,,,,,
,,5de8613ddf86d37c8a8ab294,6685aa9113c938e83b4f1ea0,6707ea2313e95505d65b87ab,2024-10-10_07h53.29.161,WTP_SM_Choice,2022.2.1,Win32,59.88023952,,,,,,,,,,,,,,,,,,6,,,,,,space,0.4169,space,1.2812,0.02,2,2.3938,0,0,0,0,1,Watch old school movies with my partner,Think of new outfit ideas and experimenting with new fashion trends,0.01,0.02,3.3,0,,,,,
,,5de8613ddf86d37c8a8ab294,6685aa9113c938e83b4f1ea0,6707ea2313e95505d65b87ab,2024-10-10_07h53.29.161,WTP_SM_Choice,2022.2.1,Win32,59.88023952,,,,,,,,,,,,,,,,,,7,,,,,,,,,,0.02,2,2.1852,0,1,1,1,1,Visit h mart to find new snacks,Get Starbucks with my mom,0.02,0.02,1.1,1,,,,,
,,5de8613ddf86d37c8a8ab294,6685aa9113c938e83b4f1ea0,6707ea2313e95505d65b87ab,2024-10-10_07h53.29.161,WTP_SM_Choice,2022.2.1,Win32,59.88023952,,,,,,,,,,,,,,,,,,8,,,,,,,,,,0.02,2,1.3908,0,2,2,2,1,Get Starbucks with my mom,Watch the simpsons all day,0.03,0.02,1.1,0,,,,,
,,5de8613ddf86d37c8a8ab294,6685aa9113c938e83b4f1ea0,6707ea2313e95505d65b87ab,2024-10-10_07h53.29.161,WTP_SM_Choice,2022.2.1,Win32,59.88023952,,,,,,,,,,,,,,,,,,9,,,,,,,,,,0.02,2,1.9106,0,3,3,3,1,Color with my sister,Think of new outfit ideas and experimenting with new fashion trends,0.04,0.02,4.4,0,,,,,
,,5de8613ddf86d37c8a8ab294,6685aa9113c938e83b4f1ea0,6707ea2313e95505d65b87ab,2024-10-10_07h53.29.161,WTP_SM_Choice,2022.2.1,Win32,59.88023952,,,,,,,,,,,,,,,,,,10,,,,,,,,,,0.02,2,1.776,0,4,4,4,1,Dance in my room with the windows open,Call my friends to gossip,0.05,0.02,1.1,1,,,,,
,,5de8613ddf86d37c8a8ab294,6685aa9113c938e83b4f1ea0,6707ea2313e95505d65b87ab,2024-10-10_07h53.29.161,WTP_SM_Choice,2022.2.1,Win32,59.88023952,,,,,,,NAN,,NAN,0.22,5.78,,0,9,9,9,1,10,Sam,Acc,Participant_Images/5de8613ddf86d37c8a8ab294/5de8613ddf86d37c8a8ab294_Images/5de8613ddf86d37c8a8ab294_Image_13.jpeg,liked,1.672012706,,,,,,,,,,,,,,,,,,,,,,,
,,5de8613ddf86d37c8a8ab294,6685aa9113c938e83b4f1ea0,6707ea2313e95505d65b87ab,2024-10-10_07h53.29.161,WTP_SM_Choice,2022.2.1,Win32,59.88023952,,,,,space,0.6343,NAN,,NAN,0.22,5.78,,0,10,10,10,1,11,Sam,Acc,Participant_Images/5de8613ddf86d37c8a8ab294/5de8613ddf86d37c8a8ab294_Images/5de8613ddf86d37c8a8ab294_Image_20.jpeg,did not like,4.942172136,,,,,,,,,,,,,,,,,,,,,,,
,,5de8613ddf86d37c8a8ab294,6685aa9113c938e83b4f1ea0,6707ea2313e95505d65b87ab,2024-10-10_07h53.29.161,WTP_SM_Choice,2022.2.1,Win32,59.88023952,,,,,space,0.2653,NAN,,NAN,0.22,5.78,,0,11,11,11,1,12,Sam,Acc,Participant_Images/5de8613ddf86d37c8a8ab294/5de8613ddf86d37c8a8ab294_Images/5de8613ddf86d37c8a8ab294_Image_25.jpeg,liked,2.50187214,,,,,,,,,,,,,,,,,,,,,,,
,,5de8613ddf86d37c8a8ab294,6685aa9113c938e83b4f1ea0,6707ea2313e95505d65b87ab,2024-10-10_07h53.29.161,WTP_SM_Choice,2022.2.1,Win32,59.88023952,,,,,space,0.8058,NAN,,NAN,0.22,5.78,,0,12,12,12,1,13,Sam,Acc,Participant_Images/5de8613ddf86d37c8a8ab294/5de8613ddf86d37c8a8ab294_Images/5de8613ddf86d37c8a8ab294_Image_1.jpeg,liked,2.071164779,,,,,,,,,,,,,,,,,,,,,,,
,,5de8613ddf86d37c8a8ab294,6685aa9113c938e83b4f1ea0,6707ea2313e95505d65b87ab,2024-10-10_07h53.29.161,WTP_SM_Choice,2022.2.1,Win32,59.88023952,,,,,space,0.7352,NAN,,NAN,0.22,5.78,,0,13,13,13,1,14,Sam,Acc,Participant_Images/5de8613ddf86d37c8a8ab294/5de8613ddf86d37c8a8ab294_Images/5de8613ddf86d37c8a8ab294_Image_11.jpeg,liked,5.336503566,,,,,,,,,,,,,,,,,,,,,,,
,,5de8613ddf86d37c8a8ab294,6685aa9113c938e83b4f1ea0,6707ea2313e95505d65b87ab,2024-10-10_07h53.29.161,WTP_SM_Choice,2022.2.1,Win32,59.88023952,,,,,,,,,,,,,,,,,,11,,,,,,space,0.2331,space,1.1499,0.03,2,1.9729,0,0,0,0,1,Lay in bed with my partner in silence,Making french toast with an accompanying sauce,0.01,0.03,3.3,0,,,,,
,,5de8613ddf86d37c8a8ab294,6685aa9113c938e83b4f1ea0,6707ea2313e95505d65b87ab,2024-10-10_07h53.29.161,WTP_SM_Choice,2022.2.1,Win32,59.88023952,,,,,,,,,,,,,,,,,,12,,,,,,,,,,0.02,1,3.2565,0,1,1,1,1,Try new classes with friends like pottery or painting,Watch the simpsons all day,0.02,0.03,4.4,0,,,,,
,,5de8613ddf86d37c8a8ab294,6685aa9113c938e83b4f1ea0,6707ea2313e95505d65b87ab,2024-10-10_07h53.29.161,WTP_SM_Choice,2022.2.1,Win32,59.88023952,,,,,,,,,,,,,,,,,,13,,,,,,,,,,0.03,2,1.1741,0,2,2,2,1,Visit h mart to find new snacks,Try new restaurants with my friends,0.03,0.03,1.1,1,,,,,
,,5de8613ddf86d37c8a8ab294,6685aa9113c938e83b4f1ea0,6707ea2313e95505d65b87ab,2024-10-10_07h53.29.161,WTP_SM_Choice,2022.2.1,Win32,59.88023952,,,,,,,,,,,,,,,,,,14,,,,,,,,,,0.04,1,1.0177,0,3,3,3,1,Try new restaurants with my friends,Garden all day ,0.04,0.03,3.3,0,,,,,
,,5de8613ddf86d37c8a8ab294,6685aa9113c938e83b4f1ea0,6707ea2313e95505d65b87ab,2024-10-10_07h53.29.161,WTP_SM_Choice,2022.2.1,Win32,59.88023952,,,,,,,,,,,,,,,,,,15,,,,,,,,,,0.03,2,0.7527,0,4,4,4,1,Have a drink with friends ,Dance in my room with the windows open,0.05,0.03,4.4,0,,,,,
,,5de8613ddf86d37c8a8ab294,6685aa9113c938e83b4f1ea0,6707ea2313e95505d65b87ab,2024-10-10_07h53.29.161,WTP_SM_Choice,2022.2.1,Win32,59.88023952,,,,,,,NAN,,NAN,0.37,5.63,,0,14,14,14,1,15,Sam,Acc,Participant_Images/5de8613ddf86d37c8a8ab294/5de8613ddf86d37c8a8ab294_Images/5de8613ddf86d37c8a8ab294_Image_21.jpeg,liked,2.642157193,,,,,,,,,,,,,,,,,,,,,,,
,,5de8613ddf86d37c8a8ab294,6685aa9113c938e83b4f1ea0,6707ea2313e95505d65b87ab,2024-10-10_07h53.29.161,WTP_SM_Choice,2022.2.1,Win32,59.88023952,,,,,space,0.468,NAN,,NAN,0.37,5.63,,0,15,15,15,1,16,Sam,Acc,Participant_Images/5de8613ddf86d37c8a8ab294/5de8613ddf86d37c8a8ab294_Images/5de8613ddf86d37c8a8ab294_Image_10.jpeg,did not like,4.456234322,,,,,,,,,,,,,,,,,,,,,,,
,,5de8613ddf86d37c8a8ab294,6685aa9113c938e83b4f1ea0,6707ea2313e95505d65b87ab,2024-10-10_07h53.29.161,WTP_SM_Choice,2022.2.1,Win32,59.88023952,,,,,space,0.6703,NAN,,NAN,0.37,5.63,,0,16,16,16,1,17,Sam,Acc,Participant_Images/5de8613ddf86d37c8a8ab294/5de8613ddf86d37c8a8ab294_Images/5de8613ddf86d37c8a8ab294_Image_12.jpeg,liked,4.438512181,,,,,,,,,,,,,,,,,,,,,,,
,,5de8613ddf86d37c8a8ab294,6685aa9113c938e83b4f1ea0,6707ea2313e95505d65b87ab,2024-10-10_07h53.29.161,WTP_SM_Choice,2022.2.1,Win32,59.88023952,,,,,space,0.3017,NAN,,NAN,0.37,5.63,,0,17,17,17,1,18,Sam,Acc,Participant_Images/5de8613ddf86d37c8a8ab294/5de8613ddf86d37c8a8ab294_Images/5de8613ddf86d37c8a8ab294_Image_14.jpeg,liked,2.682944783,,,,,,,,,,,,,,,,,,,,,,,
,,5de8613ddf86d37c8a8ab294,6685aa9113c938e83b4f1ea0,6707ea2313e95505d65b87ab,2024-10-10_07h53.29.161,WTP_SM_Choice,2022.2.1,Win32,59.88023952,,,,,space,0.5678,NAN,,NAN,0.37,5.63,,0,18,18,18,1,19,Sam,Acc,Participant_Images/5de8613ddf86d37c8a8ab294/5de8613ddf86d37c8a8ab294_Images/5de8613ddf86d37c8a8ab294_Image_3.jpeg,did not like,4.51984296,,,,,,,,,,,,,,,,,,,,,,,
,,5de8613ddf86d37c8a8ab294,6685aa9113c938e83b4f1ea0,6707ea2313e95505d65b87ab,2024-10-10_07h53.29.161,WTP_SM_Choice,2022.2.1,Win32,59.88023952,,,,,,,,,,,,,,,,,,16,,,,,,space,6.2453,space,0.9183,0.04,2,1.6285,0,0,0,0,1,Thrift shop in the city,Try new classes with friends like pottery or painting,0.01,0.04,1.1,1,,,,,
,,5de8613ddf86d37c8a8ab294,6685aa9113c938e83b4f1ea0,6707ea2313e95505d65b87ab,2024-10-10_07h53.29.161,WTP_SM_Choice,2022.2.1,Win32,59.88023952,,,,,,,,,,,,,,,,,,17,,,,,,,,,,0.02,1,0.6946,0,1,1,1,1,Crochet with meditation music playing,Watch old school movies with my partner,0.02,0.04,8.8,1,,,,,
,,5de8613ddf86d37c8a8ab294,6685aa9113c938e83b4f1ea0,6707ea2313e95505d65b87ab,2024-10-10_07h53.29.161,WTP_SM_Choice,2022.2.1,Win32,59.88023952,,,,,,,,,,,,,,,,,,18,,,,,,,,,,0.04,2,1.4619,0,2,2,2,1,Learn a new language using duolingo,Watch old school movies with my partner,0.03,0.04,3.3,1,,,,,
,,5de8613ddf86d37c8a8ab294,6685aa9113c938e83b4f1ea0,6707ea2313e95505d65b87ab,2024-10-10_07h53.29.161,WTP_SM_Choice,2022.2.1,Win32,59.88023952,,,,,,,,,,,,,,,,,,19,,,,,,,,,,0.04,1,2.9246,0,3,3,3,1,Garden all day ,Watch old school movies with my partner,0.04,0.04,3.3,1,,,,,
,,5de8613ddf86d37c8a8ab294,6685aa9113c938e83b4f1ea0,6707ea2313e95505d65b87ab,2024-10-10_07h53.29.161,WTP_SM_Choice,2022.2.1,Win32,59.88023952,,,,,,,,,,,,,,,,,,20,,,,,,,,,,0.05,1,0.9253,0,4,4,4,1,Making french toast with an accompanying sauce,Get Starbucks with my mom,0.05,0.04,1.1,1,,,,,
,,5de8613ddf86d37c8a8ab294,6685aa9113c938e83b4f1ea0,6707ea2313e95505d65b87ab,2024-10-10_07h53.29.161,WTP_SM_Choice,2022.2.1,Win32,59.88023952,,,,,,,NAN,,NAN,0.56,5.44,,0,19,19,19,1,20,Sam,Acc,Participant_Images/5de8613ddf86d37c8a8ab294/5de8613ddf86d37c8a8ab294_Images/5de8613ddf86d37c8a8ab294_Image_7.jpeg,did not like,3.195382774,,,,,,,,,,,,,,,,,,,,,,,
,,5de8613ddf86d37c8a8ab294,6685aa9113c938e83b4f1ea0,6707ea2313e95505d65b87ab,2024-10-10_07h53.29.161,WTP_SM_Choice,2022.2.1,Win32,59.88023952,,,,,space,0.8013,NAN,,NAN,0.56,5.44,,0,20,20,20,1,21,Sam,Acc,Participant_Images/5de8613ddf86d37c8a8ab294/5de8613ddf86d37c8a8ab294_Images/5de8613ddf86d37c8a8ab294_Image_19.jpeg,liked,1.779333479,,,,,,,,,,,,,,,,,,,,,,,
,,5de8613ddf86d37c8a8ab294,6685aa9113c938e83b4f1ea0,6707ea2313e95505d65b87ab,2024-10-10_07h53.29.161,WTP_SM_Choice,2022.2.1,Win32,59.88023952,,,,,space,0.9711,NAN,,NAN,0.56,5.44,,0,21,21,21,1,22,Sam,Acc,Participant_Images/5de8613ddf86d37c8a8ab294/5de8613ddf86d37c8a8ab294_Images/5de8613ddf86d37c8a8ab294_Image_24.jpeg,did not like,4.312468682,,,,,,,,,,,,,,,,,,,,,,,
,,5de8613ddf86d37c8a8ab294,6685aa9113c938e83b4f1ea0,6707ea2313e95505d65b87ab,2024-10-10_07h53.29.161,WTP_SM_Choice,2022.2.1,Win32,59.88023952,,,,,space,1.1015,NAN,,NAN,0.56,5.44,,0,22,22,22,1,23,Sam,Acc,Participant_Images/5de8613ddf86d37c8a8ab294/5de8613ddf86d37c8a8ab294_Images/5de8613ddf86d37c8a8ab294_Image_18.jpeg,liked,4.940433059,,,,,,,,,,,,,,,,,,,,,,,
,,5de8613ddf86d37c8a8ab294,6685aa9113c938e83b4f1ea0,6707ea2313e95505d65b87ab,2024-10-10_07h53.29.161,WTP_SM_Choice,2022.2.1,Win32,59.88023952,,,,,space,0.5221,NAN,,NAN,0.56,5.44,,0,23,23,23,1,24,Sam,Acc,Participant_Images/5de8613ddf86d37c8a8ab294/5de8613ddf86d37c8a8ab294_Images/5de8613ddf86d37c8a8ab294_Image_23.jpeg,liked,2.7105123,,,,,,,,,,,,,,,,,,,,,,,
,,5de8613ddf86d37c8a8ab294,6685aa9113c938e83b4f1ea0,6707ea2313e95505d65b87ab,2024-10-10_07h53.29.161,WTP_SM_Choice,2022.2.1,Win32,59.88023952,,,,,,,,,,,,,,,,,,21,,,,,,space,0.998,space,0.6512,0.01,1,0.9082,0,0,0,0,1,Cook with my baby sister,Making french toast with an accompanying sauce,0.01,0.05,8.8,0,,,,,
,,5de8613ddf86d37c8a8ab294,6685aa9113c938e83b4f1ea0,6707ea2313e95505d65b87ab,2024-10-10_07h53.29.161,WTP_SM_Choice,2022.2.1,Win32,59.88023952,,,,,,,,,,,,,,,,,,22,,,,,,,,,,0.02,1,2.0306,0,1,1,1,1,Visit h mart to find new snacks,Try new classes with friends like pottery or painting,0.02,0.05,4.4,1,,,,,
,,5de8613ddf86d37c8a8ab294,6685aa9113c938e83b4f1ea0,6707ea2313e95505d65b87ab,2024-10-10_07h53.29.161,WTP_SM_Choice,2022.2.1,Win32,59.88023952,,,,,,,,,,,,,,,,,,23,,,,,,,,,,0.03,1,1.1286,0,2,2,2,1,Dance in my room with the windows open,Try new classes with friends like pottery or painting,0.03,0.05,1.1,1,,,,,
,,5de8613ddf86d37c8a8ab294,6685aa9113c938e83b4f1ea0,6707ea2313e95505d65b87ab,2024-10-10_07h53.29.161,WTP_SM_Choice,2022.2.1,Win32,59.88023952,,,,,,,,,,,,,,,,,,24,,,,,,,,,,0.04,1,0.9309,0,3,3,3,1,Think of new outfit ideas and experimenting with new fashion trends,Try new restaurants with my friends,0.04,0.05,4.4,1,,,,,
,,5de8613ddf86d37c8a8ab294,6685aa9113c938e83b4f1ea0,6707ea2313e95505d65b87ab,2024-10-10_07h53.29.161,WTP_SM_Choice,2022.2.1,Win32,59.88023952,,,,,,,,,,,,,,,,,,25,,,,,,,,,,0.05,1,3.5929,0,4,4,4,1,Have a drink with friends ,Thrift shop in the city,0.05,0.05,3.3,0,,,,,
,,5de8613ddf86d37c8a8ab294,6685aa9113c938e83b4f1ea0,6707ea2313e95505d65b87ab,2024-10-10_07h53.29.161,WTP_SM_Choice,2022.2.1,Win32,59.88023952,,,,,,,4,space,4,0.71,5.29,,0,24,24,24,1,25,Sam,Acc,Participant_Images/5de8613ddf86d37c8a8ab294/5de8613ddf86d37c8a8ab294_Images/5de8613ddf86d37c8a8ab294_Image_9.jpeg,liked,3.602308302,,,,,,,,,,,,,,,,,,,space,1.0021,3.8583,,
,,5de8613ddf86d37c8a8ab294,6685aa9113c938e83b4f1ea0,6707ea2313e95505d65b87ab,2024-10-10_07h53.29.161,WTP_SM_Choice,2022.2.1,Win32,59.88023952,,,space,20.6483,space,0.3169,NAN,,NAN,0.71,5.29,,0,25,25,25,1,26,Alex,Acc,Participant_Images/5de8613ddf86d37c8a8ab294/5de8613ddf86d37c8a8ab294_Images/5de8613ddf86d37c8a8ab294_Image_13.jpeg,liked,4.106391878,,,,,,,,,,,,,,,,,,,,,,,
,,5de8613ddf86d37c8a8ab294,6685aa9113c938e83b4f1ea0,6707ea2313e95505d65b87ab,2024-10-10_07h53.29.161,WTP_SM_Choice,2022.2.1,Win32,59.88023952,,,,,space,0.3848,NAN,,NAN,0.71,5.29,,0,26,26,26,1,27,Alex,Acc,Participant_Images/5de8613ddf86d37c8a8ab294/5de8613ddf86d37c8a8ab294_Images/5de8613ddf86d37c8a8ab294_Image_22.jpeg,liked,3.799433026,,,,,,,,,,,,,,,,,,,,,,,
,,5de8613ddf86d37c8a8ab294,6685aa9113c938e83b4f1ea0,6707ea2313e95505d65b87ab,2024-10-10_07h53.29.161,WTP_SM_Choice,2022.2.1,Win32,59.88023952,,,,,space,0.6143,NAN,,NAN,0.71,5.29,,0,27,27,27,1,28,Alex,Acc,Participant_Images/5de8613ddf86d37c8a8ab294/5de8613ddf86d37c8a8ab294_Images/5de8613ddf86d37c8a8ab294_Image_17.jpeg,liked,5.246980764,,,,,,,,,,,,,,,,,,,,,,,
,,5de8613ddf86d37c8a8ab294,6685aa9113c938e83b4f1ea0,6707ea2313e95505d65b87ab,2024-10-10_07h53.29.161,WTP_SM_Choice,2022.2.1,Win32,59.88023952,,,,,space,0.4167,NAN,,NAN,0.71,5.29,,0,28,28,28,1,29,Alex,Acc,Participant_Images/5de8613ddf86d37c8a8ab294/5de8613ddf86d37c8a8ab294_Images/5de8613ddf86d37c8a8ab294_Image_24.jpeg,liked,3.30081769,,,,,,,,,,,,,,,,,,,,,,,
,,5de8613ddf86d37c8a8ab294,6685aa9113c938e83b4f1ea0,6707ea2313e95505d65b87ab,2024-10-10_07h53.29.161,WTP_SM_Choice,2022.2.1,Win32,59.88023952,,,,,,,,,,,,,,,,,,26,,,,,,space,0.2018,space,0.5305,0.01,1,1.9745,0,0,0,0,1,Making french toast with an accompanying sauce,Try new restaurants with my friends,0.01,0.01,4.4,1,,,,,
,,5de8613ddf86d37c8a8ab294,6685aa9113c938e83b4f1ea0,6707ea2313e95505d65b87ab,2024-10-10_07h53.29.161,WTP_SM_Choice,2022.2.1,Win32,59.88023952,,,,,,,,,,,,,,,,,,27,,,,,,,,,,0.02,1,1.0789,0,1,1,1,1,Garden all day ,Color with my sister,0.02,0.01,3.3,1,,,,,
,,5de8613ddf86d37c8a8ab294,6685aa9113c938e83b4f1ea0,6707ea2313e95505d65b87ab,2024-10-10_07h53.29.161,WTP_SM_Choice,2022.2.1,Win32,59.88023952,,,,,,,,,,,,,,,,,,28,,,,,,,,,,0.01,2,1.8094,0,2,2,2,1,Learn a new language using duolingo,Lay in bed with my partner in silence,0.03,0.01,3.3,1,,,,,
,,5de8613ddf86d37c8a8ab294,6685aa9113c938e83b4f1ea0,6707ea2313e95505d65b87ab,2024-10-10_07h53.29.161,WTP_SM_Choice,2022.2.1,Win32,59.88023952,,,,,,,,,,,,,,,,,,29,,,,,,,,,,0.04,1,0.5968,0,3,3,3,1,Color with my sister,Visit h mart to find new snacks,0.04,0.01,4.4,0,,,,,
,,5de8613ddf86d37c8a8ab294,6685aa9113c938e83b4f1ea0,6707ea2313e95505d65b87ab,2024-10-10_07h53.29.161,WTP_SM_Choice,2022.2.1,Win32,59.88023952,,,,,,,,,,,,,,,,,,30,,,,,,,,,,0.01,2,0.9119,0,4,4,4,1,Making french toast with an accompanying sauce,Try new classes with friends like pottery or painting,0.05,0.01,8.8,1,,,,,
,,5de8613ddf86d37c8a8ab294,6685aa9113c938e83b4f1ea0,6707ea2313e95505d65b87ab,2024-10-10_07h53.29.161,WTP_SM_Choice,2022.2.1,Win32,59.88023952,,,,,,,NAN,,NAN,0.8,5.2,,0,29,29,29,1,30,Alex,Acc,Participant_Images/5de8613ddf86d37c8a8ab294/5de8613ddf86d37c8a8ab294_Images/5de8613ddf86d37c8a8ab294_Image_12.jpeg,did not like,1.661473164,,,,,,,,,,,,,,,,,,,,,,,
,,5de8613ddf86d37c8a8ab294,6685aa9113c938e83b4f1ea0,6707ea2313e95505d65b87ab,2024-10-10_07h53.29.161,WTP_SM_Choice,2022.2.1,Win32,59.88023952,,,,,space,0.5875,NAN,,NAN,0.8,5.2,,0,30,30,30,1,31,Alex,Acc,Participant_Images/5de8613ddf86d37c8a8ab294/5de8613ddf86d37c8a8ab294_Images/5de8613ddf86d37c8a8ab294_Image_10.jpeg,did not like,3.613205605,,,,,,,,,,,,,,,,,,,,,,,
,,5de8613ddf86d37c8a8ab294,6685aa9113c938e83b4f1ea0,6707ea2313e95505d65b87ab,2024-10-10_07h53.29.161,WTP_SM_Choice,2022.2.1,Win32,59.88023952,,,,,space,0.9553,NAN,,NAN,0.8,5.2,,0,31,31,31,1,32,Alex,Acc,Participant_Images/5de8613ddf86d37c8a8ab294/5de8613ddf86d37c8a8ab294_Images/5de8613ddf86d37c8a8ab294_Image_25.jpeg,liked,4.988446431,,,,,,,,,,,,,,,,,,,,,,,
,,5de8613ddf86d37c8a8ab294,6685aa9113c938e83b4f1ea0,6707ea2313e95505d65b87ab,2024-10-10_07h53.29.161,WTP_SM_Choice,2022.2.1,Win32,59.88023952,,,,,space,0.4184,NAN,,NAN,0.8,5.2,,0,32,32,32,1,33,Alex,Acc,Participant_Images/5de8613ddf86d37c8a8ab294/5de8613ddf86d37c8a8ab294_Images/5de8613ddf86d37c8a8ab294_Image_11.jpeg,did not like,3.470791822,,,,,,,,,,,,,,,,,,,,,,,
,,5de8613ddf86d37c8a8ab294,6685aa9113c938e83b4f1ea0,6707ea2313e95505d65b87ab,2024-10-10_07h53.29.161,WTP_SM_Choice,2022.2.1,Win32,59.88023952,,,,,space,0.3113,NAN,,NAN,0.8,5.2,,0,33,33,33,1,34,Alex,Acc,Participant_Images/5de8613ddf86d37c8a8ab294/5de8613ddf86d37c8a8ab294_Images/5de8613ddf86d37c8a8ab294_Image_8.jpeg,liked,3.820572462,,,,,,,,,,,,,,,,,,,,,,,
,,5de8613ddf86d37c8a8ab294,6685aa9113c938e83b4f1ea0,6707ea2313e95505d65b87ab,2024-10-10_07h53.29.161,WTP_SM_Choice,2022.2.1,Win32,59.88023952,,,,,,,,,,,,,,,,,,31,,,,,,space,0.4214,space,0.6507,0.01,1,0.9391,0,0,0,0,1,Cook with my baby sister,Walk outside for fresh air,0.01,0.02,8.8,0,,,,,
,,5de8613ddf86d37c8a8ab294,6685aa9113c938e83b4f1ea0,6707ea2313e95505d65b87ab,2024-10-10_07h53.29.161,WTP_SM_Choice,2022.2.1,Win32,59.88023952,,,,,,,,,,,,,,,,,,32,,,,,,,,,,0.02,2,2.1739,0,1,1,1,1,Watch old school movies with my partner,Visit h mart to find new snacks,0.02,0.02,1.1,0,,,,,
,,5de8613ddf86d37c8a8ab294,6685aa9113c938e83b4f1ea0,6707ea2313e95505d65b87ab,2024-10-10_07h53.29.161,WTP_SM_Choice,2022.2.1,Win32,59.88023952,,,,,,,,,,,,,,,,,,33,,,,,,,,,,0.02,2,4.335,0,2,2,2,1,Call my friends to gossip,Learn a new language using duolingo,0.03,0.02,4.4,0,,,,,
,,5de8613ddf86d37c8a8ab294,6685aa9113c938e83b4f1ea0,6707ea2313e95505d65b87ab,2024-10-10_07h53.29.161,WTP_SM_Choice,2022.2.1,Win32,59.88023952,,,,,,,,,,,,,,,,,,34,,,,,,,,,,,,,0,3,3,3,1,Thrift shop in the city,Try new restaurants with my friends,0.04,0.02,3.3,1,,,,,
,,5de8613ddf86d37c8a8ab294,6685aa9113c938e83b4f1ea0,6707ea2313e95505d65b87ab,2024-10-10_07h53.29.161,WTP_SM_Choice,2022.2.1,Win32,59.88023952,,,,,,,,,,,,,,,,,,35,,,,,,,,,,0.05,1,5.4147,0,4,4,4,1,Get Starbucks with my mom,Learn a new language using duolingo,0.05,0.02,1.1,0,,,,,
,,5de8613ddf86d37c8a8ab294,6685aa9113c938e83b4f1ea0,6707ea2313e95505d65b87ab,2024-10-10_07h53.29.161,WTP_SM_Choice,2022.2.1,Win32,59.88023952,,,,,,,NAN,,NAN,0.9,5.1,,0,34,34,34,1,35,Alex,Acc,Participant_Images/5de8613ddf86d37c8a8ab294/5de8613ddf86d37c8a8ab294_Images/5de8613ddf86d37c8a8ab294_Image_5.jpeg,liked,2.455989137,,,,,,,,,,,,,,,,,,,,,,,
,,5de8613ddf86d37c8a8ab294,6685aa9113c938e83b4f1ea0,6707ea2313e95505d65b87ab,2024-10-10_07h53.29.161,WTP_SM_Choice,2022.2.1,Win32,59.88023952,,,,,space,0.7683,NAN,,NAN,0.9,5.1,,0,35,35,35,1,36,Alex,Acc,Participant_Images/5de8613ddf86d37c8a8ab294/5de8613ddf86d37c8a8ab294_Images/5de8613ddf86d37c8a8ab294_Image_18.jpeg,liked,3.79605092,,,,,,,,,,,,,,,,,,,,,,,
,,5de8613ddf86d37c8a8ab294,6685aa9113c938e83b4f1ea0,6707ea2313e95505d65b87ab,2024-10-10_07h53.29.161,WTP_SM_Choice,2022.2.1,Win32,59.88023952,,,,,space,0.7528,NAN,,NAN,0.9,5.1,,0,36,36,36,1,37,Alex,Acc,Participant_Images/5de8613ddf86d37c8a8ab294/5de8613ddf86d37c8a8ab294_Images/5de8613ddf86d37c8a8ab294_Image_14.jpeg,did not like,3.562416326,,,,,,,,,,,,,,,,,,,,,,,
,,5de8613ddf86d37c8a8ab294,6685aa9113c938e83b4f1ea0,6707ea2313e95505d65b87ab,2024-10-10_07h53.29.161,WTP_SM_Choice,2022.2.1,Win32,59.88023952,,,,,space,0.8372,NAN,,NAN,0.9,5.1,,0,37,37,37,1,38,Alex,Acc,Participant_Images/5de8613ddf86d37c8a8ab294/5de8613ddf86d37c8a8ab294_Images/5de8613ddf86d37c8a8ab294_Image_15.jpeg,liked,2.843822497,,,,,,,,,,,,,,,,,,,,,,,
,,5de8613ddf86d37c8a8ab294,6685aa9113c938e83b4f1ea0,6707ea2313e95505d65b87ab,2024-10-10_07h53.29.161,WTP_SM_Choice,2022.2.1,Win32,59.88023952,,,,,space,1.8914,NAN,,NAN,0.9,5.1,,0,38,38,38,1,39,Alex,Acc,Participant_Images/5de8613ddf86d37c8a8ab294/5de8613ddf86d37c8a8ab294_Images/5de8613ddf86d37c8a8ab294_Image_16.jpeg,did not like,3.546495948,,,,,,,,,,,,,,,,,,,,,,,
,,5de8613ddf86d37c8a8ab294,6685aa9113c938e83b4f1ea0,6707ea2313e95505d65b87ab,2024-10-10_07h53.29.161,WTP_SM_Choice,2022.2.1,Win32,59.88023952,,,,,,,,,,,,,,,,,,36,,,,,,space,22.7078,space,0.7345,0.01,1,0.7301,0,0,0,0,1,Crochet with meditation music playing,Color with my sister,0.01,0.03,3.3,1,,,,,
,,5de8613ddf86d37c8a8ab294,6685aa9113c938e83b4f1ea0,6707ea2313e95505d65b87ab,2024-10-10_07h53.29.161,WTP_SM_Choice,2022.2.1,Win32,59.88023952,,,,,,,,,,,,,,,,,,37,,,,,,,,,,0.02,1,1.1633,0,1,1,1,1,Lay in bed with my partner in silence,Visit h mart to find new snacks,0.02,0.03,1.1,0,,,,,
,,5de8613ddf86d37c8a8ab294,6685aa9113c938e83b4f1ea0,6707ea2313e95505d65b87ab,2024-10-10_07h53.29.161,WTP_SM_Choice,2022.2.1,Win32,59.88023952,,,,,,,,,,,,,,,,,,38,,,,,,,,,,,,,0,2,2,2,1,Call my friends to gossip,Watch the simpsons all day,0.03,0.03,1.1,0,,,,,
,,5de8613ddf86d37c8a8ab294,6685aa9113c938e83b4f1ea0,6707ea2313e95505d65b87ab,2024-10-10_07h53.29.161,WTP_SM_Choice,2022.2.1,Win32,59.88023952,,,,,,,,,,,,,,,,,,39,,,,,,,,,,0.04,1,1.4254,0,3,3,3,1,Watch the simpsons all day,Watch old school movies with my partner,0.04,0.03,3.3,1,,,,,
,,5de8613ddf86d37c8a8ab294,6685aa9113c938e83b4f1ea0,6707ea2313e95505d65b87ab,2024-10-10_07h53.29.161,WTP_SM_Choice,2022.2.1,Win32,59.88023952,,,,,,,,,,,,,,,,,,40,,,,,,,,,,0.05,1,0.5916,0,4,4,4,1,Crochet with meditation music playing,Call my friends to gossip,0.05,0.03,4.4,1,,,,,
,,5de8613ddf86d37c8a8ab294,6685aa9113c938e83b4f1ea0,6707ea2313e95505d65b87ab,2024-10-10_07h53.29.161,WTP_SM_Choice,2022.2.1,Win32,59.88023952,,,,,,,NAN,,NAN,1.02,4.98,,0,39,39,39,1,40,Alex,Acc,Participant_Images/5de8613ddf86d37c8a8ab294/5de8613ddf86d37c8a8ab294_Images/5de8613ddf86d37c8a8ab294_Image_9.jpeg,liked,1.672012706,,,,,,,,,,,,,,,,,,,,,,,
,,5de8613ddf86d37c8a8ab294,6685aa9113c938e83b4f1ea0,6707ea2313e95505d65b87ab,2024-10-10_07h53.29.161,WTP_SM_Choice,2022.2.1,Win32,59.88023952,,,,,space,33.2979,NAN,,NAN,1.02,4.98,,0,40,40,40,1,41,Alex,Acc,Participant_Images/5de8613ddf86d37c8a8ab294/5de8613ddf86d37c8a8ab294_Images/5de8613ddf86d37c8a8ab294_Image_23.jpeg,did not like,4.942172136,,,,,,,,,,,,,,,,,,,,,,,
,,5de8613ddf86d37c8a8ab294,6685aa9113c938e83b4f1ea0,6707ea2313e95505d65b87ab,2024-10-10_07h53.29.161,WTP_SM_Choice,2022.2.1,Win32,59.88023952,,,,,space,0.982,NAN,,NAN,1.02,4.98,,0,41,41,41,1,42,Alex,Acc,Participant_Images/5de8613ddf86d37c8a8ab294/5de8613ddf86d37c8a8ab294_Images/5de8613ddf86d37c8a8ab294_Image_7.jpeg,liked,2.50187214,,,,,,,,,,,,,,,,,,,,,,,
,,5de8613ddf86d37c8a8ab294,6685aa9113c938e83b4f1ea0,6707ea2313e95505d65b87ab,2024-10-10_07h53.29.161,WTP_SM_Choice,2022.2.1,Win32,59.88023952,,,,,space,0.352,NAN,,NAN,1.02,4.98,,0,42,42,42,1,43,Alex,Acc,Participant_Images/5de8613ddf86d37c8a8ab294/5de8613ddf86d37c8a8ab294_Images/5de8613ddf86d37c8a8ab294_Image_19.jpeg,did not like,2.071164779,,,,,,,,,,,,,,,,,,,,,,,
,,5de8613ddf86d37c8a8ab294,6685aa9113c938e83b4f1ea0,6707ea2313e95505d65b87ab,2024-10-10_07h53.29.161,WTP_SM_Choice,2022.2.1,Win32,59.88023952,,,,,space,100.4582,NAN,,NAN,1.02,4.98,,0,43,43,43,1,44,Alex,Acc,Participant_Images/5de8613ddf86d37c8a8ab294/5de8613ddf86d37c8a8ab294_Images/5de8613ddf86d37c8a8ab294_Image_4.jpeg,liked,5.336503566,,,,,,,,,,,,,,,,,,,,,,,
,,5de8613ddf86d37c8a8ab294,6685aa9113c938e83b4f1ea0,6707ea2313e95505d65b87ab,2024-10-10_07h53.29.161,WTP_SM_Choice,2022.2.1,Win32,59.88023952,,,,,,,,,,,,,,,,,,41,,,,,,space,0.464,space,0.6357,0.01,1,0.8934,0,0,0,0,1,Get Starbucks with my mom,Think of new outfit ideas and experimenting with new fashion trends,0.01,0.04,1.1,0,,,,,
,,5de8613ddf86d37c8a8ab294,6685aa9113c938e83b4f1ea0,6707ea2313e95505d65b87ab,2024-10-10_07h53.29.161,WTP_SM_Choice,2022.2.1,Win32,59.88023952,,,,,,,,,,,,,,,,,,42,,,,,,,,,,0.02,1,0.5438,0,1,1,1,1,Go to Target with my mom,Making french toast with an accompanying sauce,0.02,0.04,3.3,0,,,,,
,,5de8613ddf86d37c8a8ab294,6685aa9113c938e83b4f1ea0,6707ea2313e95505d65b87ab,2024-10-10_07h53.29.161,WTP_SM_Choice,2022.2.1,Win32,59.88023952,,,,,,,,,,,,,,,,,,43,,,,,,,,,,0.04,2,0.3609,0,2,2,2,1,Try new restaurants with my friends,Watch the simpsons all day,0.03,0.04,1.1,0,,,,,
,,5de8613ddf86d37c8a8ab294,6685aa9113c938e83b4f1ea0,6707ea2313e95505d65b87ab,2024-10-10_07h53.29.161,WTP_SM_Choice,2022.2.1,Win32,59.88023952,,,,,,,,,,,,,,,,,,44,,,,,,,,,,0.04,2,0.3446,0,3,3,3,1,Lay in bed with my partner in silence,Walk outside for fresh air,0.04,0.04,1.1,0,,,,,
,,5de8613ddf86d37c8a8ab294,6685aa9113c938e83b4f1ea0,6707ea2313e95505d65b87ab,2024-10-10_07h53.29.161,WTP_SM_Choice,2022.2.1,Win32,59.88023952,,,,,,,,,,,,,,,,,,45,,,,,,,,,,0.05,1,0.376,0,4,4,4,1,Dance in my room with the windows open,Try new restaurants with my friends,0.05,0.04,4.4,1,,,,,
,,5de8613ddf86d37c8a8ab294,6685aa9113c938e83b4f1ea0,6707ea2313e95505d65b87ab,2024-10-10_07h53.29.161,WTP_SM_Choice,2022.2.1,Win32,59.88023952,,,,,,,NAN,,NAN,1.18,4.82,,0,44,44,44,1,45,Alex,Acc,Participant_Images/5de8613ddf86d37c8a8ab294/5de8613ddf86d37c8a8ab294_Images/5de8613ddf86d37c8a8ab294_Image_3.jpeg,liked,2.642157193,,,,,,,,,,,,,,,,,,,,,,,
,,5de8613ddf86d37c8a8ab294,6685aa9113c938e83b4f1ea0,6707ea2313e95505d65b87ab,2024-10-10_07h53.29.161,WTP_SM_Choice,2022.2.1,Win32,59.88023952,,,,,space,18.8997,NAN,,NAN,1.18,4.82,,0,45,45,45,1,46,Alex,Acc,Participant_Images/5de8613ddf86d37c8a8ab294/5de8613ddf86d37c8a8ab294_Images/5de8613ddf86d37c8a8ab294_Image_6.jpeg,liked,4.456234322,,,,,,,,,,,,,,,,,,,,,,,
,,5de8613ddf86d37c8a8ab294,6685aa9113c938e83b4f1ea0,6707ea2313e95505d65b87ab,2024-10-10_07h53.29.161,WTP_SM_Choice,2022.2.1,Win32,59.88023952,,,,,space,25.9421,NAN,,NAN,1.18,4.82,,0,46,46,46,1,47,Alex,Acc,Participant_Images/5de8613ddf86d37c8a8ab294/5de8613ddf86d37c8a8ab294_Images/5de8613ddf86d37c8a8ab294_Image_21.jpeg,liked,4.438512181,,,,,,,,,,,,,,,,,,,,,,,
,,5de8613ddf86d37c8a8ab294,6685aa9113c938e83b4f1ea0,6707ea2313e95505d65b87ab,2024-10-10_07h53.29.161,WTP_SM_Choice,2022.2.1,Win32,59.88023952,,,,,space,23.6902,NAN,,NAN,1.18,4.82,,0,47,47,47,1,48,Alex,Acc,Participant_Images/5de8613ddf86d37c8a8ab294/5de8613ddf86d37c8a8ab294_Images/5de8613ddf86d37c8a8ab294_Image_1.jpeg,liked,2.682944783,,,,,,,,,,,,,,,,,,,,,,,
,,5de8613ddf86d37c8a8ab294,6685aa9113c938e83b4f1ea0,6707ea2313e95505d65b87ab,2024-10-10_07h53.29.161,WTP_SM_Choice,2022.2.1,Win32,59.88023952,,,,,space,0.3347,NAN,,NAN,1.18,4.82,,0,48,48,48,1,49,Alex,Acc,Participant_Images/5de8613ddf86d37c8a8ab294/5de8613ddf86d37c8a8ab294_Images/5de8613ddf86d37c8a8ab294_Image_20.jpeg,liked,4.51984296,,,,,,,,,,,,,,,,,,,,,,,
,,5de8613ddf86d37c8a8ab294,6685aa9113c938e83b4f1ea0,6707ea2313e95505d65b87ab,2024-10-10_07h53.29.161,WTP_SM_Choice,2022.2.1,Win32,59.88023952,,,,,,,,,,,,,,,,,,46,,,,,,space,0.4329,space,0.5347,0.01,1,1.0261,0,0,0,0,1,Crochet with meditation music playing,Lay in bed with my partner in silence,0.01,0.05,8.8,1,,,,,
,,5de8613ddf86d37c8a8ab294,6685aa9113c938e83b4f1ea0,6707ea2313e95505d65b87ab,2024-10-10_07h53.29.161,WTP_SM_Choice,2022.2.1,Win32,59.88023952,,,,,,,,,,,,,,,,,,47,,,,,,,,,,,,,0,1,1,1,1,Watch the simpsons all day,Go to Target with my mom,0.02,0.05,1.1,1,,,,,
,,5de8613ddf86d37c8a8ab294,6685aa9113c938e83b4f1ea0,6707ea2313e95505d65b87ab,2024-10-10_07h53.29.161,WTP_SM_Choice,2022.2.1,Win32,59.88023952,,,,,,,,,,,,,,,,,,48,,,,,,,,,,,,,0,2,2,2,1,Try new classes with friends like pottery or painting,Garden all day ,0.03,0.05,4.4,0,,,,,
,,5de8613ddf86d37c8a8ab294,6685aa9113c938e83b4f1ea0,6707ea2313e95505d65b87ab,2024-10-10_07h53.29.161,WTP_SM_Choice,2022.2.1,Win32,59.88023952,,,,,,,,,,,,,,,,,,49,,,,,,,,,,,,,0,3,3,3,1,Try new restaurants with my friends,Learn a new language using duolingo,0.04,0.05,3.3,0,,,,,
,,5de8613ddf86d37c8a8ab294,6685aa9113c938e83b4f1ea0,6707ea2313e95505d65b87ab,2024-10-10_07h53.29.161,WTP_SM_Choice,2022.2.1,Win32,59.88023952,,,,,,,,,,,,,,,,,,50,,,,,,,,,,,,,0,4,4,4,1,Crochet with meditation music playing,Try new classes with friends like pottery or painting,0.05,0.05,1.1,1,,,,,
,,5de8613ddf86d37c8a8ab294,6685aa9113c938e83b4f1ea0,6707ea2313e95505d65b87ab,2024-10-10_07h53.29.161,WTP_SM_Choice,2022.2.1,Win32,59.88023952,,,,,,,4,space,4,1.19,4.81,,0,49,49,49,1,50,Alex,Acc,Participant_Images/5de8613ddf86d37c8a8ab294/5de8613ddf86d37c8a8ab294_Images/5de8613ddf86d37c8a8ab294_Image_2.jpeg,liked,3.195382774,,,,,,,,,,,,,,,,,,,space,29.7598,2.5197,,
,,5de8613ddf86d37c8a8ab294,6685aa9113c938e83b4f1ea0,6707ea2313e95505d65b87ab,2024-10-10_07h53.29.161,WTP_SM_Choice,2022.2.1,Win32,59.88023952,,,space,2.7789,space,0.1508,NAN,,NAN,1.19,4.81,,0,50,50,50,1,51,Riley,Rej,Participant_Images/5de8613ddf86d37c8a8ab294/5de8613ddf86d37c8a8ab294_Images/5de8613ddf86d37c8a8ab294_Image_12.jpeg,did not like,1.779333479,,,,,,,,,,,,,,,,,,,,,,,
,,5de8613ddf86d37c8a8ab294,6685aa9113c938e83b4f1ea0,6707ea2313e95505d65b87ab,2024-10-10_07h53.29.161,WTP_SM_Choice,2022.2.1,Win32,59.88023952,,,,,space,0.475,NAN,,NAN,1.19,4.81,,0,51,51,51,1,52,Riley,Rej,Participant_Images/5de8613ddf86d37c8a8ab294/5de8613ddf86d37c8a8ab294_Images/5de8613ddf86d37c8a8ab294_Image_4.jpeg,did not like,4.312468682,,,,,,,,,,,,,,,,,,,,,,,
,,5de8613ddf86d37c8a8ab294,6685aa9113c938e83b4f1ea0,6707ea2313e95505d65b87ab,2024-10-10_07h53.29.161,WTP_SM_Choice,2022.2.1,Win32,59.88023952,,,,,space,119.5489,NAN,,NAN,1.19,4.81,,0,52,52,52,1,53,Riley,Rej,Participant_Images/5de8613ddf86d37c8a8ab294/5de8613ddf86d37c8a8ab294_Images/5de8613ddf86d37c8a8ab294_Image_16.jpeg,did not like,4.940433059,,,,,,,,,,,,,,,,,,,,,,,
,,5de8613ddf86d37c8a8ab294,6685aa9113c938e83b4f1ea0,6707ea2313e95505d65b87ab,2024-10-10_07h53.29.161,WTP_SM_Choice,2022.2.1,Win32,59.88023952,,,,,space,0.3857,NAN,,NAN,1.19,4.81,,0,53,53,53,1,54,Riley,Rej,Participant_Images/5de8613ddf86d37c8a8ab294/5de8613ddf86d37c8a8ab294_Images/5de8613ddf86d37c8a8ab294_Image_11.jpeg,liked,2.7105123,,,,,,,,,,,,,,,,,,,,,,,
,,5de8613ddf86d37c8a8ab294,6685aa9113c938e83b4f1ea0,6707ea2313e95505d65b87ab,2024-10-10_07h53.29.161,WTP_SM_Choice,2022.2.1,Win32,59.88023952,,,,,,,,,,,,,,,,,,51,,,,,,space,0.5165,space,5.6606,0.01,1,2.0414,0,0,0,0,1,Call my friends to gossip,Think of new outfit ideas and experimenting with new fashion trends,0.01,0.01,1.1,0,,,,,
,,5de8613ddf86d37c8a8ab294,6685aa9113c938e83b4f1ea0,6707ea2313e95505d65b87ab,2024-10-10_07h53.29.161,WTP_SM_Choice,2022.2.1,Win32,59.88023952,,,,,,,,,,,,,,,,,,52,,,,,,,,,,0.02,1,0.7752,0,1,1,1,1,Thrift shop in the city,Go to Target with my mom,0.02,0.01,3.3,1,,,,,
,,5de8613ddf86d37c8a8ab294,6685aa9113c938e83b4f1ea0,6707ea2313e95505d65b87ab,2024-10-10_07h53.29.161,WTP_SM_Choice,2022.2.1,Win32,59.88023952,,,,,,,,,,,,,,,,,,53,,,,,,,,,,0.03,1,0.428,0,2,2,2,1,Color with my sister,Walk outside for fresh air,0.03,0.01,1.1,0,,,,,
,,5de8613ddf86d37c8a8ab294,6685aa9113c938e83b4f1ea0,6707ea2313e95505d65b87ab,2024-10-10_07h53.29.161,WTP_SM_Choice,2022.2.1,Win32,59.88023952,,,,,,,,,,,,,,,,,,54,,,,,,,,,,0.01,2,0.6752,0,3,3,3,1,Visit h mart to find new snacks,Call my friends to gossip,0.04,0.01,4.4,1,,,,,
,,5de8613ddf86d37c8a8ab294,6685aa9113c938e83b4f1ea0,6707ea2313e95505d65b87ab,2024-10-10_07h53.29.161,WTP_SM_Choice,2022.2.1,Win32,59.88023952,,,,,,,,,,,,,,,,,,55,,,,,,,,,,0.05,1,0.562,0,4,4,4,1,Dance in my room with the windows open,Color with my sister,0.05,0.01,1.1,1,,,,,
,,5de8613ddf86d37c8a8ab294,6685aa9113c938e83b4f1ea0,6707ea2313e95505d65b87ab,2024-10-10_07h53.29.161,WTP_SM_Choice,2022.2.1,Win32,59.88023952,,,,,,,NAN,,NAN,1.31,4.69,,0,54,54,54,1,55,Riley,Rej,Participant_Images/5de8613ddf86d37c8a8ab294/5de8613ddf86d37c8a8ab294_Images/5de8613ddf86d37c8a8ab294_Image_1.jpeg,liked,3.602308302,,,,,,,,,,,,,,,,,,,,,,,
,,5de8613ddf86d37c8a8ab294,6685aa9113c938e83b4f1ea0,6707ea2313e95505d65b87ab,2024-10-10_07h53.29.161,WTP_SM_Choice,2022.2.1,Win32,59.88023952,,,,,space,0.5012,NAN,,NAN,1.31,4.69,,0,55,55,55,1,56,Riley,Rej,Participant_Images/5de8613ddf86d37c8a8ab294/5de8613ddf86d37c8a8ab294_Images/5de8613ddf86d37c8a8ab294_Image_14.jpeg,did not like,4.106391878,,,,,,,,,,,,,,,,,,,,,,,
,,5de8613ddf86d37c8a8ab294,6685aa9113c938e83b4f1ea0,6707ea2313e95505d65b87ab,2024-10-10_07h53.29.161,WTP_SM_Choice,2022.2.1,Win32,59.88023952,,,,,space,0.5825,NAN,,NAN,1.31,4.69,,0,56,56,56,1,57,Riley,Rej,Participant_Images/5de8613ddf86d37c8a8ab294/5de8613ddf86d37c8a8ab294_Images/5de8613ddf86d37c8a8ab294_Image_15.jpeg,did not like,3.799433026,,,,,,,,,,,,,,,,,,,,,,,
,,5de8613ddf86d37c8a8ab294,6685aa9113c938e83b4f1ea0,6707ea2313e95505d65b87ab,2024-10-10_07h53.29.161,WTP_SM_Choice,2022.2.1,Win32,59.88023952,,,,,space,0.8193,NAN,,NAN,1.31,4.69,,0,57,57,57,1,58,Riley,Rej,Participant_Images/5de8613ddf86d37c8a8ab294/5de8613ddf86d37c8a8ab294_Images/5de8613ddf86d37c8a8ab294_Image_19.jpeg,did not like,5.246980764,,,,,,,,,,,,,,,,,,,,,,,
,,5de8613ddf86d37c8a8ab294,6685aa9113c938e83b4f1ea0,6707ea2313e95505d65b87ab,2024-10-10_07h53.29.161,WTP_SM_Choice,2022.2.1,Win32,59.88023952,,,,,space,0.3868,NAN,,NAN,1.31,4.69,,0,58,58,58,1,59,Riley,Rej,Participant_Images/5de8613ddf86d37c8a8ab294/5de8613ddf86d37c8a8ab294_Images/5de8613ddf86d37c8a8ab294_Image_8.jpeg,did not like,3.30081769,,,,,,,,,,,,,,,,,,,,,,,
,,5de8613ddf86d37c8a8ab294,6685aa9113c938e83b4f1ea0,6707ea2313e95505d65b87ab,2024-10-10_07h53.29.161,WTP_SM_Choice,2022.2.1,Win32,59.88023952,,,,,,,,,,,,,,,,,,56,,,,,,space,0.8835,space,0.7847,0.01,1,0.8375,0,0,0,0,1,Visit h mart to find new snacks,Cook with my baby sister,0.01,0.02,8.8,1,,,,,
,,5de8613ddf86d37c8a8ab294,6685aa9113c938e83b4f1ea0,6707ea2313e95505d65b87ab,2024-10-10_07h53.29.161,WTP_SM_Choice,2022.2.1,Win32,59.88023952,,,,,,,,,,,,,,,,,,57,,,,,,,,,,0.02,2,0.3472,0,1,1,1,1,Have a drink with friends ,Visit h mart to find new snacks,0.02,0.02,4.4,0,,,,,
,,5de8613ddf86d37c8a8ab294,6685aa9113c938e83b4f1ea0,6707ea2313e95505d65b87ab,2024-10-10_07h53.29.161,WTP_SM_Choice,2022.2.1,Win32,59.88023952,,,,,,,,,,,,,,,,,,58,,,,,,,,,,0.03,1,1.0431,0,2,2,2,1,Thrift shop in the city,Get Starbucks with my mom,0.03,0.02,4.4,1,,,,,
,,5de8613ddf86d37c8a8ab294,6685aa9113c938e83b4f1ea0,6707ea2313e95505d65b87ab,2024-10-10_07h53.29.161,WTP_SM_Choice,2022.2.1,Win32,59.88023952,,,,,,,,,,,,,,,,,,59,,,,,,,,,,0.04,1,0.4977,0,3,3,3,1,Call my friends to gossip,Making french toast with an accompanying sauce,0.04,0.02,4.4,0,,,,,
,,5de8613ddf86d37c8a8ab294,6685aa9113c938e83b4f1ea0,6707ea2313e95505d65b87ab,2024-10-10_07h53.29.161,WTP_SM_Choice,2022.2.1,Win32,59.88023952,,,,,,,,,,,,,,,,,,60,,,,,,,,,,0.02,2,1.2258,0,4,4,4,1,Get Starbucks with my mom,Garden all day ,0.05,0.02,1.1,0,,,,,
,,5de8613ddf86d37c8a8ab294,6685aa9113c938e83b4f1ea0,6707ea2313e95505d65b87ab,2024-10-10_07h53.29.161,WTP_SM_Choice,2022.2.1,Win32,59.88023952,,,,,,,NAN,,NAN,1.43,4.57,,0,59,59,59,1,60,Riley,Rej,Participant_Images/5de8613ddf86d37c8a8ab294/5de8613ddf86d37c8a8ab294_Images/5de8613ddf86d37c8a8ab294_Image_20.jpeg,did not like,1.661473164,,,,,,,,,,,,,,,,,,,,,,,
,,5de8613ddf86d37c8a8ab294,6685aa9113c938e83b4f1ea0,6707ea2313e95505d65b87ab,2024-10-10_07h53.29.161,WTP_SM_Choice,2022.2.1,Win32,59.88023952,,,,,space,1.1218,NAN,,NAN,1.43,4.57,,0,60,60,60,1,61,Riley,Rej,Participant_Images/5de8613ddf86d37c8a8ab294/5de8613ddf86d37c8a8ab294_Images/5de8613ddf86d37c8a8ab294_Image_6.jpeg,did not like,3.613205605,,,,,,,,,,,,,,,,,,,,,,,
,,5de8613ddf86d37c8a8ab294,6685aa9113c938e83b4f1ea0,6707ea2313e95505d65b87ab,2024-10-10_07h53.29.161,WTP_SM_Choice,2022.2.1,Win32,59.88023952,,,,,space,0.4354,NAN,,NAN,1.43,4.57,,0,61,61,61,1,62,Riley,Rej,Participant_Images/5de8613ddf86d37c8a8ab294/5de8613ddf86d37c8a8ab294_Images/5de8613ddf86d37c8a8ab294_Image_2.jpeg,did not like,4.988446431,,,,,,,,,,,,,,,,,,,,,,,
,,5de8613ddf86d37c8a8ab294,6685aa9113c938e83b4f1ea0,6707ea2313e95505d65b87ab,2024-10-10_07h53.29.161,WTP_SM_Choice,2022.2.1,Win32,59.88023952,,,,,space,0.9833,NAN,,NAN,1.43,4.57,,0,62,62,62,1,63,Riley,Rej,Participant_Images/5de8613ddf86d37c8a8ab294/5de8613ddf86d37c8a8ab294_Images/5de8613ddf86d37c8a8ab294_Image_7.jpeg,did not like,3.470791822,,,,,,,,,,,,,,,,,,,,,,,
,,5de8613ddf86d37c8a8ab294,6685aa9113c938e83b4f1ea0,6707ea2313e95505d65b87ab,2024-10-10_07h53.29.161,WTP_SM_Choice,2022.2.1,Win32,59.88023952,,,,,space,0.6023,NAN,,NAN,1.43,4.57,,0,63,63,63,1,64,Riley,Rej,Participant_Images/5de8613ddf86d37c8a8ab294/5de8613ddf86d37c8a8ab294_Images/5de8613ddf86d37c8a8ab294_Image_18.jpeg,liked,3.820572462,,,,,,,,,,,,,,,,,,,,,,,
,,5de8613ddf86d37c8a8ab294,6685aa9113c938e83b4f1ea0,6707ea2313e95505d65b87ab,2024-10-10_07h53.29.161,WTP_SM_Choice,2022.2.1,Win32,59.88023952,,,,,,,,,,,,,,,,,,61,,,,,,space,0.4334,space,0.583,0.01,1,0.6298,0,0,0,0,1,Watch the simpsons all day,Have a drink with friends ,0.01,0.03,3.3,1,,,,,
,,5de8613ddf86d37c8a8ab294,6685aa9113c938e83b4f1ea0,6707ea2313e95505d65b87ab,2024-10-10_07h53.29.161,WTP_SM_Choice,2022.2.1,Win32,59.88023952,,,,,,,,,,,,,,,,,,62,,,,,,,,,,0.03,2,0.8115,0,1,1,1,1,Garden all day ,Have a drink with friends ,0.02,0.03,3.3,1,,,,,
,,5de8613ddf86d37c8a8ab294,6685aa9113c938e83b4f1ea0,6707ea2313e95505d65b87ab,2024-10-10_07h53.29.161,WTP_SM_Choice,2022.2.1,Win32,59.88023952,,,,,,,,,,,,,,,,,,63,,,,,,,,,,0.03,2,0.9095,0,2,2,2,1,Lay in bed with my partner in silence,Garden all day ,0.03,0.03,3.3,0,,,,,
,,5de8613ddf86d37c8a8ab294,6685aa9113c938e83b4f1ea0,6707ea2313e95505d65b87ab,2024-10-10_07h53.29.161,WTP_SM_Choice,2022.2.1,Win32,59.88023952,,,,,,,,,,,,,,,,,,64,,,,,,,,,,0.04,1,0.6046,0,3,3,3,1,Have a drink with friends ,Crochet with meditation music playing,0.04,0.03,1.1,0,,,,,
,,5de8613ddf86d37c8a8ab294,6685aa9113c938e83b4f1ea0,6707ea2313e95505d65b87ab,2024-10-10_07h53.29.161,WTP_SM_Choice,2022.2.1,Win32,59.88023952,,,,,,,,,,,,,,,,,,65,,,,,,,,,,0.03,2,0.7299,0,4,4,4,1,Try new restaurants with my friends,Crochet with meditation music playing,0.05,0.03,1.1,0,,,,,
,,5de8613ddf86d37c8a8ab294,6685aa9113c938e83b4f1ea0,6707ea2313e95505d65b87ab,2024-10-10_07h53.29.161,WTP_SM_Choice,2022.2.1,Win32,59.88023952,,,,,,,NAN,,NAN,1.57,4.43,,0,64,64,64,1,65,Riley,Rej,Participant_Images/5de8613ddf86d37c8a8ab294/5de8613ddf86d37c8a8ab294_Images/5de8613ddf86d37c8a8ab294_Image_24.jpeg,did not like,2.455989137,,,,,,,,,,,,,,,,,,,,,,,
,,5de8613ddf86d37c8a8ab294,6685aa9113c938e83b4f1ea0,6707ea2313e95505d65b87ab,2024-10-10_07h53.29.161,WTP_SM_Choice,2022.2.1,Win32,59.88023952,,,,,space,0.7348,NAN,,NAN,1.57,4.43,,0,65,65,65,1,66,Riley,Rej,Participant_Images/5de8613ddf86d37c8a8ab294/5de8613ddf86d37c8a8ab294_Images/5de8613ddf86d37c8a8ab294_Image_10.jpeg,did not like,3.79605092,,,,,,,,,,,,,,,,,,,,,,,
,,5de8613ddf86d37c8a8ab294,6685aa9113c938e83b4f1ea0,6707ea2313e95505d65b87ab,2024-10-10_07h53.29.161,WTP_SM_Choice,2022.2.1,Win32,59.88023952,,,,,space,0.5521,NAN,,NAN,1.57,4.43,,0,66,66,66,1,67,Riley,Rej,Participant_Images/5de8613ddf86d37c8a8ab294/5de8613ddf86d37c8a8ab294_Images/5de8613ddf86d37c8a8ab294_Image_21.jpeg,did not like,3.562416326,,,,,,,,,,,,,,,,,,,,,,,
,,5de8613ddf86d37c8a8ab294,6685aa9113c938e83b4f1ea0,6707ea2313e95505d65b87ab,2024-10-10_07h53.29.161,WTP_SM_Choice,2022.2.1,Win32,59.88023952,,,,,space,1.667,NAN,,NAN,1.57,4.43,,0,67,67,67,1,68,Riley,Rej,Participant_Images/5de8613ddf86d37c8a8ab294/5de8613ddf86d37c8a8ab294_Images/5de8613ddf86d37c8a8ab294_Image_22.jpeg,liked,2.843822497,,,,,,,,,,,,,,,,,,,,,,,
,,5de8613ddf86d37c8a8ab294,6685aa9113c938e83b4f1ea0,6707ea2313e95505d65b87ab,2024-10-10_07h53.29.161,WTP_SM_Choice,2022.2.1,Win32,59.88023952,,,,,space,0.4183,NAN,,NAN,1.57,4.43,,0,68,68,68,1,69,Riley,Rej,Participant_Images/5de8613ddf86d37c8a8ab294/5de8613ddf86d37c8a8ab294_Images/5de8613ddf86d37c8a8ab294_Image_25.jpeg,liked,3.546495948,,,,,,,,,,,,,,,,,,,,,,,
,,5de8613ddf86d37c8a8ab294,6685aa9113c938e83b4f1ea0,6707ea2313e95505d65b87ab,2024-10-10_07h53.29.161,WTP_SM_Choice,2022.2.1,Win32,59.88023952,,,,,,,,,,,,,,,,,,66,,,,,,space,0.3338,space,0.5022,0.04,2,1.3059,0,0,0,0,1,Color with my sister,Making french toast with an accompanying sauce,0.01,0.04,1.1,0,,,,,
,,5de8613ddf86d37c8a8ab294,6685aa9113c938e83b4f1ea0,6707ea2313e95505d65b87ab,2024-10-10_07h53.29.161,WTP_SM_Choice,2022.2.1,Win32,59.88023952,,,,,,,,,,,,,,,,,,67,,,,,,,,,,0.04,2,1.1293,0,1,1,1,1,Get Starbucks with my mom,Walk outside for fresh air,0.02,0.04,8.8,0,,,,,
,,5de8613ddf86d37c8a8ab294,6685aa9113c938e83b4f1ea0,6707ea2313e95505d65b87ab,2024-10-10_07h53.29.161,WTP_SM_Choice,2022.2.1,Win32,59.88023952,,,,,,,,,,,,,,,,,,68,,,,,,,,,,0.04,2,0.46,0,2,2,2,1,Go to Target with my mom,Think of new outfit ideas and experimenting with new fashion trends,0.03,0.04,4.4,0,,,,,
,,5de8613ddf86d37c8a8ab294,6685aa9113c938e83b4f1ea0,6707ea2313e95505d65b87ab,2024-10-10_07h53.29.161,WTP_SM_Choice,2022.2.1,Win32,59.88023952,,,,,,,,,,,,,,,,,,69,,,,,,,,,,0.04,2,0.4254,0,3,3,3,1,Making french toast with an accompanying sauce,Watch old school movies with my partner,0.04,0.04,1.1,1,,,,,
,,5de8613ddf86d37c8a8ab294,6685aa9113c938e83b4f1ea0,6707ea2313e95505d65b87ab,2024-10-10_07h53.29.161,WTP_SM_Choice,2022.2.1,Win32,59.88023952,,,,,,,,,,,,,,,,,,70,,,,,,,,,,0.04,2,0.4462,0,4,4,4,1,Making french toast with an accompanying sauce,Have a drink with friends ,0.05,0.04,1.1,1,,,,,
,,5de8613ddf86d37c8a8ab294,6685aa9113c938e83b4f1ea0,6707ea2313e95505d65b87ab,2024-10-10_07h53.29.161,WTP_SM_Choice,2022.2.1,Win32,59.88023952,,,,,,,NAN,,NAN,1.77,4.23,,0,69,69,69,1,70,Riley,Rej,Participant_Images/5de8613ddf86d37c8a8ab294/5de8613ddf86d37c8a8ab294_Images/5de8613ddf86d37c8a8ab294_Image_13.jpeg,did not like,1.672012706,,,,,,,,,,,,,,,,,,,,,,,
,,5de8613ddf86d37c8a8ab294,6685aa9113c938e83b4f1ea0,6707ea2313e95505d65b87ab,2024-10-10_07h53.29.161,WTP_SM_Choice,2022.2.1,Win32,59.88023952,,,,,space,0.3225,NAN,,NAN,1.77,4.23,,0,70,70,70,1,71,Riley,Rej,Participant_Images/5de8613ddf86d37c8a8ab294/5de8613ddf86d37c8a8ab294_Images/5de8613ddf86d37c8a8ab294_Image_17.jpeg,liked,4.942172136,,,,,,,,,,,,,,,,,,,,,,,
,,5de8613ddf86d37c8a8ab294,6685aa9113c938e83b4f1ea0,6707ea2313e95505d65b87ab,2024-10-10_07h53.29.161,WTP_SM_Choice,2022.2.1,Win32,59.88023952,,,,,space,0.384,NAN,,NAN,1.77,4.23,,0,71,71,71,1,72,Riley,Rej,Participant_Images/5de8613ddf86d37c8a8ab294/5de8613ddf86d37c8a8ab294_Images/5de8613ddf86d37c8a8ab294_Image_5.jpeg,did not like,2.50187214,,,,,,,,,,,,,,,,,,,,,,,
,,5de8613ddf86d37c8a8ab294,6685aa9113c938e83b4f1ea0,6707ea2313e95505d65b87ab,2024-10-10_07h53.29.161,WTP_SM_Choice,2022.2.1,Win32,59.88023952,,,,,space,0.6335,NAN,,NAN,1.77,4.23,,0,72,72,72,1,73,Riley,Rej,Participant_Images/5de8613ddf86d37c8a8ab294/5de8613ddf86d37c8a8ab294_Images/5de8613ddf86d37c8a8ab294_Image_3.jpeg,did not like,2.071164779,,,,,,,,,,,,,,,,,,,,,,,
,,5de8613ddf86d37c8a8ab294,6685aa9113c938e83b4f1ea0,6707ea2313e95505d65b87ab,2024-10-10_07h53.29.161,WTP_SM_Choice,2022.2.1,Win32,59.88023952,,,,,space,0.6524,NAN,,NAN,1.77,4.23,,0,73,73,73,1,74,Riley,Rej,Participant_Images/5de8613ddf86d37c8a8ab294/5de8613ddf86d37c8a8ab294_Images/5de8613ddf86d37c8a8ab294_Image_23.jpeg,did not like,5.336503566,,,,,,,,,,,,,,,,,,,,,,,
,,5de8613ddf86d37c8a8ab294,6685aa9113c938e83b4f1ea0,6707ea2313e95505d65b87ab,2024-10-10_07h53.29.161,WTP_SM_Choice,2022.2.1,Win32,59.88023952,,,,,,,,,,,,,,,,,,71,,,,,,space,0.7693,space,0.6514,0.05,2,1.4738,0,0,0,0,1,Watch old school movies with my partner,Walk outside for fresh air,0.01,0.05,3.3,0,,,,,
,,5de8613ddf86d37c8a8ab294,6685aa9113c938e83b4f1ea0,6707ea2313e95505d65b87ab,2024-10-10_07h53.29.161,WTP_SM_Choice,2022.2.1,Win32,59.88023952,,,,,,,,,,,,,,,,,,72,,,,,,,,,,0.02,1,1.0465,0,1,1,1,1,Garden all day ,Call my friends to gossip,0.02,0.05,8.8,1,,,,,
,,5de8613ddf86d37c8a8ab294,6685aa9113c938e83b4f1ea0,6707ea2313e95505d65b87ab,2024-10-10_07h53.29.161,WTP_SM_Choice,2022.2.1,Win32,59.88023952,,,,,,,,,,,,,,,,,,73,,,,,,,,,,0.03,1,0.4941,0,2,2,2,1,Watch the simpsons all day,Color with my sister,0.03,0.05,3.3,1,,,,,
,,5de8613ddf86d37c8a8ab294,6685aa9113c938e83b4f1ea0,6707ea2313e95505d65b87ab,2024-10-10_07h53.29.161,WTP_SM_Choice,2022.2.1,Win32,59.88023952,,,,,,,,,,,,,,,,,,74,,,,,,,,,,0.05,2,0.6598,0,3,3,3,1,Visit h mart to find new snacks,Go to Target with my mom,0.04,0.05,4.4,1,,,,,
,,5de8613ddf86d37c8a8ab294,6685aa9113c938e83b4f1ea0,6707ea2313e95505d65b87ab,2024-10-10_07h53.29.161,WTP_SM_Choice,2022.2.1,Win32,59.88023952,,,,,,,,,,,,,,,,,,75,,,,,,,,,,0.05,1,0.3866,0,4,4,4,1,Walk outside for fresh air,Try new classes with friends like pottery or painting,0.05,0.05,3.3,1,,,,,
,,5de8613ddf86d37c8a8ab294,6685aa9113c938e83b4f1ea0,6707ea2313e95505d65b87ab,2024-10-10_07h53.29.161,WTP_SM_Choice,2022.2.1,Win32,59.88023952,,,,,,,3,,4,1.97,4.03,,0,74,74,74,1,75,Riley,Rej,Participant_Images/5de8613ddf86d37c8a8ab294/5de8613ddf86d37c8a8ab294_Images/5de8613ddf86d37c8a8ab294_Image_9.jpeg,liked,2.642157193,,,,,,,,,,,,,,,,,,,space,0.7681,,,
,,5de8613ddf86d37c8a8ab294,6685aa9113c938e83b4f1ea0,6707ea2313e95505d65b87ab,2024-10-10_07h53.29.161,WTP_SM_Choice,2022.2.1,Win32,59.88023952,,,space,0.396,space,0.3374,NAN,,NAN,1.97,4.03,,0,75,75,75,1,76,Charlie,Rej,Participant_Images/5de8613ddf86d37c8a8ab294/5de8613ddf86d37c8a8ab294_Images/5de8613ddf86d37c8a8ab294_Image_9.jpeg,did not like,4.456234322,,,,,,,,,,,,,,,,,,,,,,,
,,5de8613ddf86d37c8a8ab294,6685aa9113c938e83b4f1ea0,6707ea2313e95505d65b87ab,2024-10-10_07h53.29.161,WTP_SM_Choice,2022.2.1,Win32,59.88023952,,,,,space,0.5391,NAN,,NAN,1.97,4.03,,0,76,76,76,1,77,Charlie,Rej,Participant_Images/5de8613ddf86d37c8a8ab294/5de8613ddf86d37c8a8ab294_Images/5de8613ddf86d37c8a8ab294_Image_13.jpeg,did not like,4.438512181,,,,,,,,,,,,,,,,,,,,,,,
,,5de8613ddf86d37c8a8ab294,6685aa9113c938e83b4f1ea0,6707ea2313e95505d65b87ab,2024-10-10_07h53.29.161,WTP_SM_Choice,2022.2.1,Win32,59.88023952,,,,,space,0.49,NAN,,NAN,1.97,4.03,,0,77,77,77,1,78,Charlie,Rej,Participant_Images/5de8613ddf86d37c8a8ab294/5de8613ddf86d37c8a8ab294_Images/5de8613ddf86d37c8a8ab294_Image_18.jpeg,did not like,2.682944783,,,,,,,,,,,,,,,,,,,,,,,
,,5de8613ddf86d37c8a8ab294,6685aa9113c938e83b4f1ea0,6707ea2313e95505d65b87ab,2024-10-10_07h53.29.161,WTP_SM_Choice,2022.2.1,Win32,59.88023952,,,,,space,0.6191,NAN,,NAN,1.97,4.03,,0,78,78,78,1,79,Charlie,Rej,Participant_Images/5de8613ddf86d37c8a8ab294/5de8613ddf86d37c8a8ab294_Images/5de8613ddf86d37c8a8ab294_Image_8.jpeg,did not like,4.51984296,,,,,,,,,,,,,,,,,,,,,,,
,,5de8613ddf86d37c8a8ab294,6685aa9113c938e83b4f1ea0,6707ea2313e95505d65b87ab,2024-10-10_07h53.29.161,WTP_SM_Choice,2022.2.1,Win32,59.88023952,,,,,,,,,,,,,,,,,,76,,,,,,space,0.4647,space,0.3166,0.01,1,1.1594,0,0,0,0,1,Learn a new language using duolingo,Cook with my baby sister,0.01,0.01,1.1,1,,,,,
,,5de8613ddf86d37c8a8ab294,6685aa9113c938e83b4f1ea0,6707ea2313e95505d65b87ab,2024-10-10_07h53.29.161,WTP_SM_Choice,2022.2.1,Win32,59.88023952,,,,,,,,,,,,,,,,,,77,,,,,,,,,,0.01,2,1.4147,0,1,1,1,1,Call my friends to gossip,Thrift shop in the city,0.02,0.01,8.8,0,,,,,
,,5de8613ddf86d37c8a8ab294,6685aa9113c938e83b4f1ea0,6707ea2313e95505d65b87ab,2024-10-10_07h53.29.161,WTP_SM_Choice,2022.2.1,Win32,59.88023952,,,,,,,,,,,,,,,,,,78,,,,,,,,,,0.03,1,0.8785,0,2,2,2,1,Thrift shop in the city,Cook with my baby sister,0.03,0.01,1.1,1,,,,,
,,5de8613ddf86d37c8a8ab294,6685aa9113c938e83b4f1ea0,6707ea2313e95505d65b87ab,2024-10-10_07h53.29.161,WTP_SM_Choice,2022.2.1,Win32,59.88023952,,,,,,,,,,,,,,,,,,79,,,,,,,,,,0.01,2,0.7824,0,3,3,3,1,Dance in my room with the windows open,Lay in bed with my partner in silence,0.04,0.01,1.1,1,,,,,
,,5de8613ddf86d37c8a8ab294,6685aa9113c938e83b4f1ea0,6707ea2313e95505d65b87ab,2024-10-10_07h53.29.161,WTP_SM_Choice,2022.2.1,Win32,59.88023952,,,,,,,,,,,,,,,,,,80,,,,,,,,,,0.01,2,0.6095,0,4,4,4,1,Think of new outfit ideas and experimenting with new fashion trends,Try new classes with friends like pottery or painting,0.05,0.01,4.4,1,,,,,
,,5de8613ddf86d37c8a8ab294,6685aa9113c938e83b4f1ea0,6707ea2313e95505d65b87ab,2024-10-10_07h53.29.161,WTP_SM_Choice,2022.2.1,Win32,59.88023952,,,,,,,NAN,,NAN,2.04,3.96,,0,79,79,79,1,80,Charlie,Rej,Participant_Images/5de8613ddf86d37c8a8ab294/5de8613ddf86d37c8a8ab294_Images/5de8613ddf86d37c8a8ab294_Image_7.jpeg,did not like,3.195382774,,,,,,,,,,,,,,,,,,,,,,,
,,5de8613ddf86d37c8a8ab294,6685aa9113c938e83b4f1ea0,6707ea2313e95505d65b87ab,2024-10-10_07h53.29.161,WTP_SM_Choice,2022.2.1,Win32,59.88023952,,,,,space,0.4491,NAN,,NAN,2.04,3.96,,0,80,80,80,1,81,Charlie,Rej,Participant_Images/5de8613ddf86d37c8a8ab294/5de8613ddf86d37c8a8ab294_Images/5de8613ddf86d37c8a8ab294_Image_3.jpeg,liked,1.779333479,,,,,,,,,,,,,,,,,,,,,,,
,,5de8613ddf86d37c8a8ab294,6685aa9113c938e83b4f1ea0,6707ea2313e95505d65b87ab,2024-10-10_07h53.29.161,WTP_SM_Choice,2022.2.1,Win32,59.88023952,,,,,space,0.6174,NAN,,NAN,2.04,3.96,,0,81,81,81,1,82,Charlie,Rej,Participant_Images/5de8613ddf86d37c8a8ab294/5de8613ddf86d37c8a8ab294_Images/5de8613ddf86d37c8a8ab294_Image_2.jpeg,did not like,4.312468682,,,,,,,,,,,,,,,,,,,,,,,
,,5de8613ddf86d37c8a8ab294,6685aa9113c938e83b4f1ea0,6707ea2313e95505d65b87ab,2024-10-10_07h53.29.161,WTP_SM_Choice,2022.2.1,Win32,59.88023952,,,,,space,0.486,NAN,,NAN,2.04,3.96,,0,82,82,82,1,83,Charlie,Rej,Participant_Images/5de8613ddf86d37c8a8ab294/5de8613ddf86d37c8a8ab294_Images/5de8613ddf86d37c8a8ab294_Image_21.jpeg,did not like,4.940433059,,,,,,,,,,,,,,,,,,,,,,,
,,5de8613ddf86d37c8a8ab294,6685aa9113c938e83b4f1ea0,6707ea2313e95505d65b87ab,2024-10-10_07h53.29.161,WTP_SM_Choice,2022.2.1,Win32,59.88023952,,,,,space,0.8184,NAN,,NAN,2.04,3.96,,0,83,83,83,1,84,Charlie,Rej,Participant_Images/5de8613ddf86d37c8a8ab294/5de8613ddf86d37c8a8ab294_Images/5de8613ddf86d37c8a8ab294_Image_4.jpeg,did not like,2.7105123,,,,,,,,,,,,,,,,,,,,,,,
,,5de8613ddf86d37c8a8ab294,6685aa9113c938e83b4f1ea0,6707ea2313e95505d65b87ab,2024-10-10_07h53.29.161,WTP_SM_Choice,2022.2.1,Win32,59.88023952,,,,,,,,,,,,,,,,,,81,,,,,,space,0.539,space,0.4865,0.01,1,0.758,0,0,0,0,1,Learn a new language using duolingo,Go to Target with my mom,0.01,0.02,3.3,1,,,,,
,,5de8613ddf86d37c8a8ab294,6685aa9113c938e83b4f1ea0,6707ea2313e95505d65b87ab,2024-10-10_07h53.29.161,WTP_SM_Choice,2022.2.1,Win32,59.88023952,,,,,,,,,,,,,,,,,,82,,,,,,,,,,0.02,1,0.9131,0,1,1,1,1,Walk outside for fresh air,Call my friends to gossip,0.02,0.02,4.4,1,,,,,
,,5de8613ddf86d37c8a8ab294,6685aa9113c938e83b4f1ea0,6707ea2313e95505d65b87ab,2024-10-10_07h53.29.161,WTP_SM_Choice,2022.2.1,Win32,59.88023952,,,,,,,,,,,,,,,,,,83,,,,,,,,,,0.02,2,0.8825,0,2,2,2,1,Cook with my baby sister,Garden all day ,0.03,0.02,1.1,0,,,,,
,,5de8613ddf86d37c8a8ab294,6685aa9113c938e83b4f1ea0,6707ea2313e95505d65b87ab,2024-10-10_07h53.29.161,WTP_SM_Choice,2022.2.1,Win32,59.88023952,,,,,,,,,,,,,,,,,,84,,,,,,,,,,0.04,1,0.8155,0,3,3,3,1,Watch old school movies with my partner,Dance in my room with the windows open,0.04,0.02,3.3,0,,,,,
,,5de8613ddf86d37c8a8ab294,6685aa9113c938e83b4f1ea0,6707ea2313e95505d65b87ab,2024-10-10_07h53.29.161,WTP_SM_Choice,2022.2.1,Win32,59.88023952,,,,,,,,,,,,,,,,,,85,,,,,,,,,,0.02,2,0.7441,0,4,4,4,1,Try new classes with friends like pottery or painting,Learn a new language using duolingo,0.05,0.02,3.3,0,,,,,
,,5de8613ddf86d37c8a8ab294,6685aa9113c938e83b4f1ea0,6707ea2313e95505d65b87ab,2024-10-10_07h53.29.161,WTP_SM_Choice,2022.2.1,Win32,59.88023952,,,,,,,NAN,,NAN,2.15,3.85,,0,84,84,84,1,85,Charlie,Rej,Participant_Images/5de8613ddf86d37c8a8ab294/5de8613ddf86d37c8a8ab294_Images/5de8613ddf86d37c8a8ab294_Image_24.jpeg,liked,3.602308302,,,,,,,,,,,,,,,,,,,,,,,
,,5de8613ddf86d37c8a8ab294,6685aa9113c938e83b4f1ea0,6707ea2313e95505d65b87ab,2024-10-10_07h53.29.161,WTP_SM_Choice,2022.2.1,Win32,59.88023952,,,,,space,0.7097,NAN,,NAN,2.15,3.85,,0,85,85,85,1,86,Charlie,Rej,Participant_Images/5de8613ddf86d37c8a8ab294/5de8613ddf86d37c8a8ab294_Images/5de8613ddf86d37c8a8ab294_Image_17.jpeg,did not like,4.106391878,,,,,,,,,,,,,,,,,,,,,,,
,,5de8613ddf86d37c8a8ab294,6685aa9113c938e83b4f1ea0,6707ea2313e95505d65b87ab,2024-10-10_07h53.29.161,WTP_SM_Choice,2022.2.1,Win32,59.88023952,,,,,space,0.3308,NAN,,NAN,2.15,3.85,,0,86,86,86,1,87,Charlie,Rej,Participant_Images/5de8613ddf86d37c8a8ab294/5de8613ddf86d37c8a8ab294_Images/5de8613ddf86d37c8a8ab294_Image_16.jpeg,did not like,3.799433026,,,,,,,,,,,,,,,,,,,,,,,
,,5de8613ddf86d37c8a8ab294,6685aa9113c938e83b4f1ea0,6707ea2313e95505d65b87ab,2024-10-10_07h53.29.161,WTP_SM_Choice,2022.2.1,Win32,59.88023952,,,,,space,0.3342,NAN,,NAN,2.15,3.85,,0,87,87,87,1,88,Charlie,Rej,Participant_Images/5de8613ddf86d37c8a8ab294/5de8613ddf86d37c8a8ab294_Images/5de8613ddf86d37c8a8ab294_Image_1.jpeg,did not like,5.246980764,,,,,,,,,,,,,,,,,,,,,,,
,,5de8613ddf86d37c8a8ab294,6685aa9113c938e83b4f1ea0,6707ea2313e95505d65b87ab,2024-10-10_07h53.29.161,WTP_SM_Choice,2022.2.1,Win32,59.88023952,,,,,space,0.431,NAN,,NAN,2.15,3.85,,0,88,88,88,1,89,Charlie,Rej,Participant_Images/5de8613ddf86d37c8a8ab294/5de8613ddf86d37c8a8ab294_Images/5de8613ddf86d37c8a8ab294_Image_5.jpeg,did not like,3.30081769,,,,,,,,,,,,,,,,,,,,,,,
,,5de8613ddf86d37c8a8ab294,6685aa9113c938e83b4f1ea0,6707ea2313e95505d65b87ab,2024-10-10_07h53.29.161,WTP_SM_Choice,2022.2.1,Win32,59.88023952,,,,,,,,,,,,,,,,,,86,,,,,,space,0.7678,space,1.1065,0.01,1,2.8412,0,0,0,0,1,Get Starbucks with my mom,Dance in my room with the windows open,0.01,0.03,1.1,0,,,,,
,,5de8613ddf86d37c8a8ab294,6685aa9113c938e83b4f1ea0,6707ea2313e95505d65b87ab,2024-10-10_07h53.29.161,WTP_SM_Choice,2022.2.1,Win32,59.88023952,,,,,,,,,,,,,,,,,,87,,,,,,,,,,0.03,2,0.6121,0,1,1,1,1,Go to Target with my mom,Garden all day ,0.02,0.03,4.4,0,,,,,
,,5de8613ddf86d37c8a8ab294,6685aa9113c938e83b4f1ea0,6707ea2313e95505d65b87ab,2024-10-10_07h53.29.161,WTP_SM_Choice,2022.2.1,Win32,59.88023952,,,,,,,,,,,,,,,,,,88,,,,,,,,,,0.03,1,0.4944,0,2,2,2,1,Try new restaurants with my friends,Walk outside for fresh air,0.03,0.03,1.1,0,,,,,
,,5de8613ddf86d37c8a8ab294,6685aa9113c938e83b4f1ea0,6707ea2313e95505d65b87ab,2024-10-10_07h53.29.161,WTP_SM_Choice,2022.2.1,Win32,59.88023952,,,,,,,,,,,,,,,,,,89,,,,,,,,,,0.04,1,0.6105,0,3,3,3,1,Crochet with meditation music playing,Get Starbucks with my mom,0.04,0.03,3.3,1,,,,,
,,5de8613ddf86d37c8a8ab294,6685aa9113c938e83b4f1ea0,6707ea2313e95505d65b87ab,2024-10-10_07h53.29.161,WTP_SM_Choice,2022.2.1,Win32,59.88023952,,,,,,,,,,,,,,,,,,90,,,,,,,,,,0.05,1,0.5091,0,4,4,4,1,Go to Target with my mom,Dance in my room with the windows open,0.05,0.03,8.8,0,,,,,
,,5de8613ddf86d37c8a8ab294,6685aa9113c938e83b4f1ea0,6707ea2313e95505d65b87ab,2024-10-10_07h53.29.161,WTP_SM_Choice,2022.2.1,Win32,59.88023952,,,,,,,NAN,,NAN,2.31,3.69,,0,89,89,89,1,90,Charlie,Rej,Participant_Images/5de8613ddf86d37c8a8ab294/5de8613ddf86d37c8a8ab294_Images/5de8613ddf86d37c8a8ab294_Image_25.jpeg,did not like,1.661473164,,,,,,,,,,,,,,,,,,,,,,,
,,5de8613ddf86d37c8a8ab294,6685aa9113c938e83b4f1ea0,6707ea2313e95505d65b87ab,2024-10-10_07h53.29.161,WTP_SM_Choice,2022.2.1,Win32,59.88023952,,,,,space,0.7016,NAN,,NAN,2.31,3.69,,0,90,90,90,1,91,Charlie,Rej,Participant_Images/5de8613ddf86d37c8a8ab294/5de8613ddf86d37c8a8ab294_Images/5de8613ddf86d37c8a8ab294_Image_23.jpeg,liked,3.613205605,,,,,,,,,,,,,,,,,,,,,,,
,,5de8613ddf86d37c8a8ab294,6685aa9113c938e83b4f1ea0,6707ea2313e95505d65b87ab,2024-10-10_07h53.29.161,WTP_SM_Choice,2022.2.1,Win32,59.88023952,,,,,space,0.2374,NAN,,NAN,2.31,3.69,,0,91,91,91,1,92,Charlie,Rej,Participant_Images/5de8613ddf86d37c8a8ab294/5de8613ddf86d37c8a8ab294_Images/5de8613ddf86d37c8a8ab294_Image_6.jpeg,did not like,4.988446431,,,,,,,,,,,,,,,,,,,,,,,
,,5de8613ddf86d37c8a8ab294,6685aa9113c938e83b4f1ea0,6707ea2313e95505d65b87ab,2024-10-10_07h53.29.161,WTP_SM_Choice,2022.2.1,Win32,59.88023952,,,,,space,0.4687,NAN,,NAN,2.31,3.69,,0,92,92,92,1,93,Charlie,Rej,Participant_Images/5de8613ddf86d37c8a8ab294/5de8613ddf86d37c8a8ab294_Images/5de8613ddf86d37c8a8ab294_Image_12.jpeg,liked,3.470791822,,,,,,,,,,,,,,,,,,,,,,,
,,5de8613ddf86d37c8a8ab294,6685aa9113c938e83b4f1ea0,6707ea2313e95505d65b87ab,2024-10-10_07h53.29.161,WTP_SM_Choice,2022.2.1,Win32,59.88023952,,,,,space,1.3954,NAN,,NAN,2.31,3.69,,0,93,93,93,1,94,Charlie,Rej,Participant_Images/5de8613ddf86d37c8a8ab294/5de8613ddf86d37c8a8ab294_Images/5de8613ddf86d37c8a8ab294_Image_10.jpeg,did not like,3.820572462,,,,,,,,,,,,,,,,,,,,,,,
,,5de8613ddf86d37c8a8ab294,6685aa9113c938e83b4f1ea0,6707ea2313e95505d65b87ab,2024-10-10_07h53.29.161,WTP_SM_Choice,2022.2.1,Win32,59.88023952,,,,,,,,,,,,,,,,,,91,,,,,,space,0.5493,space,0.4182,0.01,1,0.924,0,0,0,0,1,Dance in my room with the windows open,Cook with my baby sister,0.01,0.04,3.3,1,,,,,
,,5de8613ddf86d37c8a8ab294,6685aa9113c938e83b4f1ea0,6707ea2313e95505d65b87ab,2024-10-10_07h53.29.161,WTP_SM_Choice,2022.2.1,Win32,59.88023952,,,,,,,,,,,,,,,,,,92,,,,,,,,,,0.04,2,0.8105,0,1,1,1,1,Go to Target with my mom,Walk outside for fresh air,0.02,0.04,8.8,0,,,,,
,,5de8613ddf86d37c8a8ab294,6685aa9113c938e83b4f1ea0,6707ea2313e95505d65b87ab,2024-10-10_07h53.29.161,WTP_SM_Choice,2022.2.1,Win32,59.88023952,,,,,,,,,,,,,,,,,,93,,,,,,,,,,0.03,1,1.1118,0,2,2,2,1,Cook with my baby sister,Watch the simpsons all day,0.03,0.04,1.1,0,,,,,
,,5de8613ddf86d37c8a8ab294,6685aa9113c938e83b4f1ea0,6707ea2313e95505d65b87ab,2024-10-10_07h53.29.161,WTP_SM_Choice,2022.2.1,Win32,59.88023952,,,,,,,,,,,,,,,,,,94,,,,,,,,,,0.04,2,0.8767,0,3,3,3,1,Watch old school movies with my partner,Thrift shop in the city,0.04,0.04,4.4,0,,,,,
,,5de8613ddf86d37c8a8ab294,6685aa9113c938e83b4f1ea0,6707ea2313e95505d65b87ab,2024-10-10_07h53.29.161,WTP_SM_Choice,2022.2.1,Win32,59.88023952,,,,,,,,,,,,,,,,,,95,,,,,,,,,,0.05,1,0.607,0,4,4,4,1,Think of new outfit ideas and experimenting with new fashion trends,Have a drink with friends ,0.05,0.04,4.4,1,,,,,
,,5de8613ddf86d37c8a8ab294,6685aa9113c938e83b4f1ea0,6707ea2313e95505d65b87ab,2024-10-10_07h53.29.161,WTP_SM_Choice,2022.2.1,Win32,59.88023952,,,,,,,NAN,,NAN,2.48,3.52,,0,94,94,94,1,95,Charlie,Rej,Participant_Images/5de8613ddf86d37c8a8ab294/5de8613ddf86d37c8a8ab294_Images/5de8613ddf86d37c8a8ab294_Image_11.jpeg,did not like,2.455989137,,,,,,,,,,,,,,,,,,,,,,,
,,5de8613ddf86d37c8a8ab294,6685aa9113c938e83b4f1ea0,6707ea2313e95505d65b87ab,2024-10-10_07h53.29.161,WTP_SM_Choice,2022.2.1,Win32,59.88023952,,,,,space,1.339,NAN,,NAN,2.48,3.52,,0,95,95,95,1,96,Charlie,Rej,Participant_Images/5de8613ddf86d37c8a8ab294/5de8613ddf86d37c8a8ab294_Images/5de8613ddf86d37c8a8ab294_Image_14.jpeg,liked,3.79605092,,,,,,,,,,,,,,,,,,,,,,,
,,5de8613ddf86d37c8a8ab294,6685aa9113c938e83b4f1ea0,6707ea2313e95505d65b87ab,2024-10-10_07h53.29.161,WTP_SM_Choice,2022.2.1,Win32,59.88023952,,,,,space,2.905,NAN,,NAN,2.48,3.52,,0,96,96,96,1,97,Charlie,Rej,Participant_Images/5de8613ddf86d37c8a8ab294/5de8613ddf86d37c8a8ab294_Images/5de8613ddf86d37c8a8ab294_Image_15.jpeg,did not like,3.562416326,,,,,,,,,,,,,,,,,,,,,,,
,,5de8613ddf86d37c8a8ab294,6685aa9113c938e83b4f1ea0,6707ea2313e95505d65b87ab,2024-10-10_07h53.29.161,WTP_SM_Choice,2022.2.1,Win32,59.88023952,,,,,space,0.8696,NAN,,NAN,2.48,3.52,,0,97,97,97,1,98,Charlie,Rej,Participant_Images/5de8613ddf86d37c8a8ab294/5de8613ddf86d37c8a8ab294_Images/5de8613ddf86d37c8a8ab294_Image_22.jpeg,liked,2.843822497,,,,,,,,,,,,,,,,,,,,,,,
,,5de8613ddf86d37c8a8ab294,6685aa9113c938e83b4f1ea0,6707ea2313e95505d65b87ab,2024-10-10_07h53.29.161,WTP_SM_Choice,2022.2.1,Win32,59.88023952,,,,,space,0.6198,NAN,,NAN,2.48,3.52,,0,98,98,98,1,99,Charlie,Rej,Participant_Images/5de8613ddf86d37c8a8ab294/5de8613ddf86d37c8a8ab294_Images/5de8613ddf86d37c8a8ab294_Image_20.jpeg,did not like,3.546495948,,,,,,,,,,,,,,,,,,,,,,,
,,5de8613ddf86d37c8a8ab294,6685aa9113c938e83b4f1ea0,6707ea2313e95505d65b87ab,2024-10-10_07h53.29.161,WTP_SM_Choice,2022.2.1,Win32,59.88023952,,,,,,,,,,,,,,,,,,96,,,,,,space,0.4493,space,0.6546,0.01,1,1.3766,0,0,0,0,1,Think of new outfit ideas and experimenting with new fashion trends,Cook with my baby sister,0.01,0.05,3.3,1,,,,,
,,5de8613ddf86d37c8a8ab294,6685aa9113c938e83b4f1ea0,6707ea2313e95505d65b87ab,2024-10-10_07h53.29.161,WTP_SM_Choice,2022.2.1,Win32,59.88023952,,,,,,,,,,,,,,,,,,97,,,,,,,,,,0.05,2,0.663,0,1,1,1,1,Have a drink with friends ,Walk outside for fresh air,0.02,0.05,1.1,0,,,,,
,,5de8613ddf86d37c8a8ab294,6685aa9113c938e83b4f1ea0,6707ea2313e95505d65b87ab,2024-10-10_07h53.29.161,WTP_SM_Choice,2022.2.1,Win32,59.88023952,,,,,,,,,,,,,,,,,,98,,,,,,,,,,0.05,2,0.7103,0,2,2,2,1,Color with my sister,Learn a new language using duolingo,0.03,0.05,1.1,0,,,,,
,,5de8613ddf86d37c8a8ab294,6685aa9113c938e83b4f1ea0,6707ea2313e95505d65b87ab,2024-10-10_07h53.29.161,WTP_SM_Choice,2022.2.1,Win32,59.88023952,,,,,,,,,,,,,,,,,,99,,,,,,,,,,0.05,2,0.7285,0,3,3,3,1,Watch the simpsons all day,Lay in bed with my partner in silence,0.04,0.05,3.3,1,,,,,
,,5de8613ddf86d37c8a8ab294,6685aa9113c938e83b4f1ea0,6707ea2313e95505d65b87ab,2024-10-10_07h53.29.161,WTP_SM_Choice,2022.2.1,Win32,59.88023952,,,,,,,,,,,,,,,,,,100,,,,,,,,,,0.05,1,0.5203,0,4,4,4,1,Have a drink with friends ,Learn a new language using duolingo,0.05,0.05,4.4,0,,,,,
,,5de8613ddf86d37c8a8ab294,6685aa9113c938e83b4f1ea0,6707ea2313e95505d65b87ab,2024-10-10_07h53.29.161,WTP_SM_Choice,2022.2.1,Win32,59.88023952,,,,,,,3,space,5,2.69,3.31,,0,99,99,99,1,100,Charlie,Rej,Participant_Images/5de8613ddf86d37c8a8ab294/5de8613ddf86d37c8a8ab294_Images/5de8613ddf86d37c8a8ab294_Image_19.jpeg,liked,1.672012706,,,,,,,,,,,,,,,,,,,space,0.8187,3.0895,,
,,5de8613ddf86d37c8a8ab294,6685aa9113c938e83b4f1ea0,6707ea2313e95505d65b87ab,2024-10-10_07h53.29.161,WTP_SM_Choice,2022.2.1,Win32,59.88023952,,,,,,,,,,,,,,,,,,,,,,,,,,,,,,,,,,,,,,,,,,,,,space,1.5524
