endwelcomescreen_keys.keys,endwelcomescreen_keys.rt,participant,STUDY_ID,SESSION_ID,date,expName,psychopyVersion,OS,frameRate,endinstructionscreen_keys.keys,endinstructionscreen_keys.rt,endpartnermatch_keys.keys,endpartnermatch_keys.rt,sharenextphoto_key.keys,sharenextphoto_key.rt,salience_rating,key_resp.keys,stress_level,subtract_bonus,TOTAL_TASK_BONUS,stresslevel_keypress.keys,entiretaskloop.thisRepN,entiretaskloop.thisTrialN,entiretaskloop.thisN,entiretaskloop.thisIndex,entiretaskloop.ran,TrialNumber,Partner,Condition,Photos,Feedback,FeedbackWait,WTP_ins_keys1.keys,WTP_ins_keys1.rt,WTP_ins_keys2.keys,WTP_ins_keys2.rt,decision_price,responses.keys,responses.rt,WTPTaskLoop.thisRepN,WTPTaskLoop.thisTrialN,WTPTaskLoop.thisN,WTPTaskLoop.thisIndex,WTPTaskLoop.ran,right,left,leftmoney,rightmoney,WTP_ITI,social_left,Resume_keys.keys,Resume_keys.rt,end_screen_keys.keys,end_screen_keys.rt
space,7.6297,5e923888c38d4a574e72d716,6685aa9113c938e83b4f1ea0,671bd6ffc9180981c9c10604,2024-10-25_14h10.53.776,WTP_SM_Choice,2022.2.1,Win32,59.88023952,,,,,,,,,,,,,,,,,,,,,,,,,,,,,,,,,,,,,,,,,,,,,
,,5e923888c38d4a574e72d716,6685aa9113c938e83b4f1ea0,671bd6ffc9180981c9c10604,2024-10-25_14h10.53.776,WTP_SM_Choice,2022.2.1,Win32,59.88023952,space,22.2889,,,,,,,,,,,,,,,,,,,,,,,,,,,,,,,,,,,,,,,,,,,
,,5e923888c38d4a574e72d716,6685aa9113c938e83b4f1ea0,671bd6ffc9180981c9c10604,2024-10-25_14h10.53.776,WTP_SM_Choice,2022.2.1,Win32,59.88023952,,,space,2.7448,space,2.0615,NAN,,NAN,0,6,,0,0,0,0,1,1,Charlie,Acc,Participant_Images/5e923888c38d4a574e72d716/5e923888c38d4a574e72d716_Images/5e923888c38d4a574e72d716_Image_21.jpeg,liked,3.613205605,,,,,,,,,,,,,,,,,,,,,,
,,5e923888c38d4a574e72d716,6685aa9113c938e83b4f1ea0,671bd6ffc9180981c9c10604,2024-10-25_14h10.53.776,WTP_SM_Choice,2022.2.1,Win32,59.88023952,,,,,space,1.7523,NAN,,NAN,0,6,,0,1,1,1,1,2,Charlie,Acc,Participant_Images/5e923888c38d4a574e72d716/5e923888c38d4a574e72d716_Images/5e923888c38d4a574e72d716_Image_6.jpeg,liked,4.988446431,,,,,,,,,,,,,,,,,,,,,,
,,5e923888c38d4a574e72d716,6685aa9113c938e83b4f1ea0,671bd6ffc9180981c9c10604,2024-10-25_14h10.53.776,WTP_SM_Choice,2022.2.1,Win32,59.88023952,,,,,space,0.7501,NAN,,NAN,0,6,,0,2,2,2,1,3,Charlie,Acc,Participant_Images/5e923888c38d4a574e72d716/5e923888c38d4a574e72d716_Images/5e923888c38d4a574e72d716_Image_24.jpeg,liked,3.470791822,,,,,,,,,,,,,,,,,,,,,,
,,5e923888c38d4a574e72d716,6685aa9113c938e83b4f1ea0,671bd6ffc9180981c9c10604,2024-10-25_14h10.53.776,WTP_SM_Choice,2022.2.1,Win32,59.88023952,,,,,space,1.0406,NAN,,NAN,0,6,,0,3,3,3,1,4,Charlie,Acc,Participant_Images/5e923888c38d4a574e72d716/5e923888c38d4a574e72d716_Images/5e923888c38d4a574e72d716_Image_17.jpeg,liked,3.820572462,,,,,,,,,,,,,,,,,,,,,,
,,5e923888c38d4a574e72d716,6685aa9113c938e83b4f1ea0,671bd6ffc9180981c9c10604,2024-10-25_14h10.53.776,WTP_SM_Choice,2022.2.1,Win32,59.88023952,,,,,,,,,,,,,,,,,,1,,,,,,space,80.7795,space,12.1463,0.01,1,3.2517,0,0,0,0,1,watch spongebob episodes before bed,go to the park everyday with my siblings,0.01,0.01,4.4,1,,,,
,,5e923888c38d4a574e72d716,6685aa9113c938e83b4f1ea0,671bd6ffc9180981c9c10604,2024-10-25_14h10.53.776,WTP_SM_Choice,2022.2.1,Win32,59.88023952,,,,,,,,,,,,,,,,,,2,,,,,,,,,,0.01,2,4.0742,0,1,1,1,1,try new foods and restaurants with my sister,bake cookies or cupcakes,0.02,0.01,8.8,0,,,,
,,5e923888c38d4a574e72d716,6685aa9113c938e83b4f1ea0,671bd6ffc9180981c9c10604,2024-10-25_14h10.53.776,WTP_SM_Choice,2022.2.1,Win32,59.88023952,,,,,,,,,,,,,,,,,,3,,,,,,,,,,0.03,1,3.5718,0,2,2,2,1,go to the library and browsing the newly added books section,go to the park everyday with my siblings,0.03,0.01,3.3,1,,,,
,,5e923888c38d4a574e72d716,6685aa9113c938e83b4f1ea0,671bd6ffc9180981c9c10604,2024-10-25_14h10.53.776,WTP_SM_Choice,2022.2.1,Win32,59.88023952,,,,,,,,,,,,,,,,,,4,,,,,,,,,,0.01,2,3.7216,0,3,3,3,1,sketch and draw with my sister at the park,bake cookies or cupcakes,0.04,0.01,1.1,0,,,,
,,5e923888c38d4a574e72d716,6685aa9113c938e83b4f1ea0,671bd6ffc9180981c9c10604,2024-10-25_14h10.53.776,WTP_SM_Choice,2022.2.1,Win32,59.88023952,,,,,,,,,,,,,,,,,,5,,,,,,,,,,0.05,1,4.0919,0,4,4,4,1,go to church and then out to eat after with my siblings on Sundays,watch spongebob episodes before bed,0.05,0.01,1.1,0,,,,
,,5e923888c38d4a574e72d716,6685aa9113c938e83b4f1ea0,671bd6ffc9180981c9c10604,2024-10-25_14h10.53.776,WTP_SM_Choice,2022.2.1,Win32,59.88023952,,,,,,,NAN,,NAN,0.11,5.89,,0,4,4,4,1,5,Charlie,Acc,Participant_Images/5e923888c38d4a574e72d716/5e923888c38d4a574e72d716_Images/5e923888c38d4a574e72d716_Image_7.jpeg,did not like,2.455989137,,,,,,,,,,,,,,,,,,,,,,
,,5e923888c38d4a574e72d716,6685aa9113c938e83b4f1ea0,671bd6ffc9180981c9c10604,2024-10-25_14h10.53.776,WTP_SM_Choice,2022.2.1,Win32,59.88023952,,,,,space,1.8584,NAN,,NAN,0.11,5.89,,0,5,5,5,1,6,Charlie,Acc,Participant_Images/5e923888c38d4a574e72d716/5e923888c38d4a574e72d716_Images/5e923888c38d4a574e72d716_Image_15.jpeg,liked,3.79605092,,,,,,,,,,,,,,,,,,,,,,
,,5e923888c38d4a574e72d716,6685aa9113c938e83b4f1ea0,671bd6ffc9180981c9c10604,2024-10-25_14h10.53.776,WTP_SM_Choice,2022.2.1,Win32,59.88023952,,,,,space,1.5672,NAN,,NAN,0.11,5.89,,0,6,6,6,1,7,Charlie,Acc,Participant_Images/5e923888c38d4a574e72d716/5e923888c38d4a574e72d716_Images/5e923888c38d4a574e72d716_Image_14.jpeg,did not like,3.562416326,,,,,,,,,,,,,,,,,,,,,,
,,5e923888c38d4a574e72d716,6685aa9113c938e83b4f1ea0,671bd6ffc9180981c9c10604,2024-10-25_14h10.53.776,WTP_SM_Choice,2022.2.1,Win32,59.88023952,,,,,space,1.1686,NAN,,NAN,0.11,5.89,,0,7,7,7,1,8,Charlie,Acc,Participant_Images/5e923888c38d4a574e72d716/5e923888c38d4a574e72d716_Images/5e923888c38d4a574e72d716_Image_3.jpeg,did not like,2.843822497,,,,,,,,,,,,,,,,,,,,,,
,,5e923888c38d4a574e72d716,6685aa9113c938e83b4f1ea0,671bd6ffc9180981c9c10604,2024-10-25_14h10.53.776,WTP_SM_Choice,2022.2.1,Win32,59.88023952,,,,,space,0.884,NAN,,NAN,0.11,5.89,,0,8,8,8,1,9,Charlie,Acc,Participant_Images/5e923888c38d4a574e72d716/5e923888c38d4a574e72d716_Images/5e923888c38d4a574e72d716_Image_2.jpeg,liked,3.546495948,,,,,,,,,,,,,,,,,,,,,,
,,5e923888c38d4a574e72d716,6685aa9113c938e83b4f1ea0,671bd6ffc9180981c9c10604,2024-10-25_14h10.53.776,WTP_SM_Choice,2022.2.1,Win32,59.88023952,,,,,,,,,,,,,,,,,,6,,,,,,space,10.3459,space,2.6862,0.02,2,3.6589,0,0,0,0,1,bake cookies or cupcakes,go to church and then out to eat after with my siblings on Sundays,0.01,0.02,3.3,1,,,,
,,5e923888c38d4a574e72d716,6685aa9113c938e83b4f1ea0,671bd6ffc9180981c9c10604,2024-10-25_14h10.53.776,WTP_SM_Choice,2022.2.1,Win32,59.88023952,,,,,,,,,,,,,,,,,,7,,,,,,,,,,0.02,1,2.8225,0,1,1,1,1,play online video games with my sibingls over weekends,catch up on anime series that i have yet to finish,0.02,0.02,1.1,0,,,,
,,5e923888c38d4a574e72d716,6685aa9113c938e83b4f1ea0,671bd6ffc9180981c9c10604,2024-10-25_14h10.53.776,WTP_SM_Choice,2022.2.1,Win32,59.88023952,,,,,,,,,,,,,,,,,,8,,,,,,,,,,0.02,2,3.0353,0,2,2,2,1,play online video games with my sibingls over weekends,browse online for outfit inspiration,0.03,0.02,1.1,0,,,,
,,5e923888c38d4a574e72d716,6685aa9113c938e83b4f1ea0,671bd6ffc9180981c9c10604,2024-10-25_14h10.53.776,WTP_SM_Choice,2022.2.1,Win32,59.88023952,,,,,,,,,,,,,,,,,,9,,,,,,,,,,0.04,1,2.9131,0,3,3,3,1,watch new movies with my siblings on Friday nights,listen to music while walking around the park,0.04,0.02,4.4,0,,,,
,,5e923888c38d4a574e72d716,6685aa9113c938e83b4f1ea0,671bd6ffc9180981c9c10604,2024-10-25_14h10.53.776,WTP_SM_Choice,2022.2.1,Win32,59.88023952,,,,,,,,,,,,,,,,,,10,,,,,,,,,,0.02,2,2.9442,0,4,4,4,1,shop and thrift with my sister for new seasonal outfits,listen to music while walking around the park,0.05,0.02,1.1,0,,,,
,,5e923888c38d4a574e72d716,6685aa9113c938e83b4f1ea0,671bd6ffc9180981c9c10604,2024-10-25_14h10.53.776,WTP_SM_Choice,2022.2.1,Win32,59.88023952,,,,,,,NAN,,NAN,0.23,5.77,,0,9,9,9,1,10,Charlie,Acc,Participant_Images/5e923888c38d4a574e72d716/5e923888c38d4a574e72d716_Images/5e923888c38d4a574e72d716_Image_20.jpeg,liked,1.672012706,,,,,,,,,,,,,,,,,,,,,,
,,5e923888c38d4a574e72d716,6685aa9113c938e83b4f1ea0,671bd6ffc9180981c9c10604,2024-10-25_14h10.53.776,WTP_SM_Choice,2022.2.1,Win32,59.88023952,,,,,space,1.2225,NAN,,NAN,0.23,5.77,,0,10,10,10,1,11,Charlie,Acc,Participant_Images/5e923888c38d4a574e72d716/5e923888c38d4a574e72d716_Images/5e923888c38d4a574e72d716_Image_8.jpeg,liked,4.942172136,,,,,,,,,,,,,,,,,,,,,,
,,5e923888c38d4a574e72d716,6685aa9113c938e83b4f1ea0,671bd6ffc9180981c9c10604,2024-10-25_14h10.53.776,WTP_SM_Choice,2022.2.1,Win32,59.88023952,,,,,space,1.4643,NAN,,NAN,0.23,5.77,,0,11,11,11,1,12,Charlie,Acc,Participant_Images/5e923888c38d4a574e72d716/5e923888c38d4a574e72d716_Images/5e923888c38d4a574e72d716_Image_5.jpeg,liked,2.50187214,,,,,,,,,,,,,,,,,,,,,,
,,5e923888c38d4a574e72d716,6685aa9113c938e83b4f1ea0,671bd6ffc9180981c9c10604,2024-10-25_14h10.53.776,WTP_SM_Choice,2022.2.1,Win32,59.88023952,,,,,space,1.7728,NAN,,NAN,0.23,5.77,,0,12,12,12,1,13,Charlie,Acc,Participant_Images/5e923888c38d4a574e72d716/5e923888c38d4a574e72d716_Images/5e923888c38d4a574e72d716_Image_12.jpeg,liked,2.071164779,,,,,,,,,,,,,,,,,,,,,,
,,5e923888c38d4a574e72d716,6685aa9113c938e83b4f1ea0,671bd6ffc9180981c9c10604,2024-10-25_14h10.53.776,WTP_SM_Choice,2022.2.1,Win32,59.88023952,,,,,space,0.8679,NAN,,NAN,0.23,5.77,,0,13,13,13,1,14,Charlie,Acc,Participant_Images/5e923888c38d4a574e72d716/5e923888c38d4a574e72d716_Images/5e923888c38d4a574e72d716_Image_18.jpeg,liked,5.336503566,,,,,,,,,,,,,,,,,,,,,,
,,5e923888c38d4a574e72d716,6685aa9113c938e83b4f1ea0,671bd6ffc9180981c9c10604,2024-10-25_14h10.53.776,WTP_SM_Choice,2022.2.1,Win32,59.88023952,,,,,,,,,,,,,,,,,,11,,,,,,space,30.4995,space,4.0733,0.01,1,2.5109,0,0,0,0,1,catch up on anime series that i have yet to finish,sketch and draw with my sister at the park,0.01,0.03,3.3,1,,,,
,,5e923888c38d4a574e72d716,6685aa9113c938e83b4f1ea0,671bd6ffc9180981c9c10604,2024-10-25_14h10.53.776,WTP_SM_Choice,2022.2.1,Win32,59.88023952,,,,,,,,,,,,,,,,,,12,,,,,,,,,,0.03,2,4.2767,0,1,1,1,1,cook a pasta bake to have for dinner,go to church and then out to eat after with my siblings on Sundays,0.02,0.03,4.4,1,,,,
,,5e923888c38d4a574e72d716,6685aa9113c938e83b4f1ea0,671bd6ffc9180981c9c10604,2024-10-25_14h10.53.776,WTP_SM_Choice,2022.2.1,Win32,59.88023952,,,,,,,,,,,,,,,,,,13,,,,,,,,,,0.03,2,3.2752,0,2,2,2,1,play online video games with my sibingls over weekends,watch spongebob episodes before bed,0.03,0.03,1.1,0,,,,
,,5e923888c38d4a574e72d716,6685aa9113c938e83b4f1ea0,671bd6ffc9180981c9c10604,2024-10-25_14h10.53.776,WTP_SM_Choice,2022.2.1,Win32,59.88023952,,,,,,,,,,,,,,,,,,14,,,,,,,,,,0.04,1,3.7774,0,3,3,3,1,go to the library and browsing the newly added books section,sketch and draw with my sister at the park,0.04,0.03,3.3,1,,,,
,,5e923888c38d4a574e72d716,6685aa9113c938e83b4f1ea0,671bd6ffc9180981c9c10604,2024-10-25_14h10.53.776,WTP_SM_Choice,2022.2.1,Win32,59.88023952,,,,,,,,,,,,,,,,,,15,,,,,,,,,,0.03,2,5.3561,0,4,4,4,1,get tacos from rosas cafe with my siblings on tuesdays,go through my closet and coming up with fun outfits,0.05,0.03,4.4,0,,,,
,,5e923888c38d4a574e72d716,6685aa9113c938e83b4f1ea0,671bd6ffc9180981c9c10604,2024-10-25_14h10.53.776,WTP_SM_Choice,2022.2.1,Win32,59.88023952,,,,,,,NAN,,NAN,0.37,5.63,,0,14,14,14,1,15,Charlie,Acc,Participant_Images/5e923888c38d4a574e72d716/5e923888c38d4a574e72d716_Images/5e923888c38d4a574e72d716_Image_11.jpeg,liked,2.642157193,,,,,,,,,,,,,,,,,,,,,,
,,5e923888c38d4a574e72d716,6685aa9113c938e83b4f1ea0,671bd6ffc9180981c9c10604,2024-10-25_14h10.53.776,WTP_SM_Choice,2022.2.1,Win32,59.88023952,,,,,space,0.8041,NAN,,NAN,0.37,5.63,,0,15,15,15,1,16,Charlie,Acc,Participant_Images/5e923888c38d4a574e72d716/5e923888c38d4a574e72d716_Images/5e923888c38d4a574e72d716_Image_19.jpeg,liked,4.456234322,,,,,,,,,,,,,,,,,,,,,,
,,5e923888c38d4a574e72d716,6685aa9113c938e83b4f1ea0,671bd6ffc9180981c9c10604,2024-10-25_14h10.53.776,WTP_SM_Choice,2022.2.1,Win32,59.88023952,,,,,space,1.4246,NAN,,NAN,0.37,5.63,,0,16,16,16,1,17,Charlie,Acc,Participant_Images/5e923888c38d4a574e72d716/5e923888c38d4a574e72d716_Images/5e923888c38d4a574e72d716_Image_1.jpeg,liked,4.438512181,,,,,,,,,,,,,,,,,,,,,,
,,5e923888c38d4a574e72d716,6685aa9113c938e83b4f1ea0,671bd6ffc9180981c9c10604,2024-10-25_14h10.53.776,WTP_SM_Choice,2022.2.1,Win32,59.88023952,,,,,space,3.7055,NAN,,NAN,0.37,5.63,,0,17,17,17,1,18,Charlie,Acc,Participant_Images/5e923888c38d4a574e72d716/5e923888c38d4a574e72d716_Images/5e923888c38d4a574e72d716_Image_23.jpeg,liked,2.682944783,,,,,,,,,,,,,,,,,,,,,,
,,5e923888c38d4a574e72d716,6685aa9113c938e83b4f1ea0,671bd6ffc9180981c9c10604,2024-10-25_14h10.53.776,WTP_SM_Choice,2022.2.1,Win32,59.88023952,,,,,space,1.4984,NAN,,NAN,0.37,5.63,,0,18,18,18,1,19,Charlie,Acc,Participant_Images/5e923888c38d4a574e72d716/5e923888c38d4a574e72d716_Images/5e923888c38d4a574e72d716_Image_13.jpeg,did not like,4.51984296,,,,,,,,,,,,,,,,,,,,,,
,,5e923888c38d4a574e72d716,6685aa9113c938e83b4f1ea0,671bd6ffc9180981c9c10604,2024-10-25_14h10.53.776,WTP_SM_Choice,2022.2.1,Win32,59.88023952,,,,,,,,,,,,,,,,,,16,,,,,,space,3.1848,space,1.5457,0.01,1,2.2527,0,0,0,0,1,cook a pasta bake to have for dinner,play online video games with my sibingls over weekends,0.01,0.04,1.1,1,,,,
,,5e923888c38d4a574e72d716,6685aa9113c938e83b4f1ea0,671bd6ffc9180981c9c10604,2024-10-25_14h10.53.776,WTP_SM_Choice,2022.2.1,Win32,59.88023952,,,,,,,,,,,,,,,,,,17,,,,,,,,,,0.04,2,3.4099,0,1,1,1,1,go to the park everyday with my siblings,catch up on movies recently released on streaming,0.02,0.04,8.8,0,,,,
,,5e923888c38d4a574e72d716,6685aa9113c938e83b4f1ea0,671bd6ffc9180981c9c10604,2024-10-25_14h10.53.776,WTP_SM_Choice,2022.2.1,Win32,59.88023952,,,,,,,,,,,,,,,,,,18,,,,,,,,,,0.03,1,4.5959,0,2,2,2,1,read a book at the park when it is clear skies or partly cloudy,re-watch henry danger with my siblings over the weekends,0.03,0.04,3.3,1,,,,
,,5e923888c38d4a574e72d716,6685aa9113c938e83b4f1ea0,671bd6ffc9180981c9c10604,2024-10-25_14h10.53.776,WTP_SM_Choice,2022.2.1,Win32,59.88023952,,,,,,,,,,,,,,,,,,19,,,,,,,,,,0.04,2,5.9218,0,3,3,3,1,go to build a bear with my sister to pick out new plushies on our birthdays,watch spongebob episodes before bed,0.04,0.04,3.3,0,,,,
,,5e923888c38d4a574e72d716,6685aa9113c938e83b4f1ea0,671bd6ffc9180981c9c10604,2024-10-25_14h10.53.776,WTP_SM_Choice,2022.2.1,Win32,59.88023952,,,,,,,,,,,,,,,,,,20,,,,,,,,,,0.05,1,4.2666,0,4,4,4,1,go through my closet and coming up with fun outfits,sketch and draw with my sister at the park,0.05,0.04,1.1,1,,,,
,,5e923888c38d4a574e72d716,6685aa9113c938e83b4f1ea0,671bd6ffc9180981c9c10604,2024-10-25_14h10.53.776,WTP_SM_Choice,2022.2.1,Win32,59.88023952,,,,,,,NAN,,NAN,0.54,5.46,,0,19,19,19,1,20,Charlie,Acc,Participant_Images/5e923888c38d4a574e72d716/5e923888c38d4a574e72d716_Images/5e923888c38d4a574e72d716_Image_16.jpeg,liked,3.195382774,,,,,,,,,,,,,,,,,,,,,,
,,5e923888c38d4a574e72d716,6685aa9113c938e83b4f1ea0,671bd6ffc9180981c9c10604,2024-10-25_14h10.53.776,WTP_SM_Choice,2022.2.1,Win32,59.88023952,,,,,space,1.4745,NAN,,NAN,0.54,5.46,,0,20,20,20,1,21,Charlie,Acc,Participant_Images/5e923888c38d4a574e72d716/5e923888c38d4a574e72d716_Images/5e923888c38d4a574e72d716_Image_10.jpeg,liked,1.779333479,,,,,,,,,,,,,,,,,,,,,,
,,5e923888c38d4a574e72d716,6685aa9113c938e83b4f1ea0,671bd6ffc9180981c9c10604,2024-10-25_14h10.53.776,WTP_SM_Choice,2022.2.1,Win32,59.88023952,,,,,space,2.4174,NAN,,NAN,0.54,5.46,,0,21,21,21,1,22,Charlie,Acc,Participant_Images/5e923888c38d4a574e72d716/5e923888c38d4a574e72d716_Images/5e923888c38d4a574e72d716_Image_22.jpeg,did not like,4.312468682,,,,,,,,,,,,,,,,,,,,,,
,,5e923888c38d4a574e72d716,6685aa9113c938e83b4f1ea0,671bd6ffc9180981c9c10604,2024-10-25_14h10.53.776,WTP_SM_Choice,2022.2.1,Win32,59.88023952,,,,,space,4.521,NAN,,NAN,0.54,5.46,,0,22,22,22,1,23,Charlie,Acc,Participant_Images/5e923888c38d4a574e72d716/5e923888c38d4a574e72d716_Images/5e923888c38d4a574e72d716_Image_9.jpeg,liked,4.940433059,,,,,,,,,,,,,,,,,,,,,,
,,5e923888c38d4a574e72d716,6685aa9113c938e83b4f1ea0,671bd6ffc9180981c9c10604,2024-10-25_14h10.53.776,WTP_SM_Choice,2022.2.1,Win32,59.88023952,,,,,space,2.3325,NAN,,NAN,0.54,5.46,,0,23,23,23,1,24,Charlie,Acc,Participant_Images/5e923888c38d4a574e72d716/5e923888c38d4a574e72d716_Images/5e923888c38d4a574e72d716_Image_4.jpeg,did not like,2.7105123,,,,,,,,,,,,,,,,,,,,,,
,,5e923888c38d4a574e72d716,6685aa9113c938e83b4f1ea0,671bd6ffc9180981c9c10604,2024-10-25_14h10.53.776,WTP_SM_Choice,2022.2.1,Win32,59.88023952,,,,,,,,,,,,,,,,,,21,,,,,,space,12.1162,space,1.5038,0.01,1,2.3574,0,0,0,0,1,cook a pasta bake to have for dinner,shop and thrift with my sister for new seasonal outfits,0.01,0.05,8.8,1,,,,
,,5e923888c38d4a574e72d716,6685aa9113c938e83b4f1ea0,671bd6ffc9180981c9c10604,2024-10-25_14h10.53.776,WTP_SM_Choice,2022.2.1,Win32,59.88023952,,,,,,,,,,,,,,,,,,22,,,,,,,,,,0.02,1,2.7622,0,1,1,1,1,re-watch henry danger with my siblings over the weekends,listen to music while walking around the park,0.02,0.05,4.4,0,,,,
,,5e923888c38d4a574e72d716,6685aa9113c938e83b4f1ea0,671bd6ffc9180981c9c10604,2024-10-25_14h10.53.776,WTP_SM_Choice,2022.2.1,Win32,59.88023952,,,,,,,,,,,,,,,,,,23,,,,,,,,,,0.05,2,2.6323,0,2,2,2,1,watch new movies with my siblings on Friday nights,cook a pasta bake to have for dinner,0.03,0.05,1.1,0,,,,
,,5e923888c38d4a574e72d716,6685aa9113c938e83b4f1ea0,671bd6ffc9180981c9c10604,2024-10-25_14h10.53.776,WTP_SM_Choice,2022.2.1,Win32,59.88023952,,,,,,,,,,,,,,,,,,24,,,,,,,,,,0.04,1,2.9249,0,3,3,3,1,listen to music while walking around the park,get tacos from rosas cafe with my siblings on tuesdays,0.04,0.05,4.4,1,,,,
,,5e923888c38d4a574e72d716,6685aa9113c938e83b4f1ea0,671bd6ffc9180981c9c10604,2024-10-25_14h10.53.776,WTP_SM_Choice,2022.2.1,Win32,59.88023952,,,,,,,,,,,,,,,,,,25,,,,,,,,,,0.05,1,2.4475,0,4,4,4,1,listen to music while walking around the park,sketch and draw with my sister at the park,0.05,0.05,3.3,1,,,,
,,5e923888c38d4a574e72d716,6685aa9113c938e83b4f1ea0,671bd6ffc9180981c9c10604,2024-10-25_14h10.53.776,WTP_SM_Choice,2022.2.1,Win32,59.88023952,,,,,,,4,,7,0.71,5.29,,0,24,24,24,1,25,Charlie,Acc,Participant_Images/5e923888c38d4a574e72d716/5e923888c38d4a574e72d716_Images/5e923888c38d4a574e72d716_Image_25.jpeg,did not like,3.602308302,,,,,,,,,,,,,,,,,,,space,1.4793,,
,,5e923888c38d4a574e72d716,6685aa9113c938e83b4f1ea0,671bd6ffc9180981c9c10604,2024-10-25_14h10.53.776,WTP_SM_Choice,2022.2.1,Win32,59.88023952,,,space,5.5857,space,1.1329,NAN,,NAN,0.71,5.29,,0,25,25,25,1,26,Sam,Rej,Participant_Images/5e923888c38d4a574e72d716/5e923888c38d4a574e72d716_Images/5e923888c38d4a574e72d716_Image_9.jpeg,did not like,4.106391878,,,,,,,,,,,,,,,,,,,,,,
,,5e923888c38d4a574e72d716,6685aa9113c938e83b4f1ea0,671bd6ffc9180981c9c10604,2024-10-25_14h10.53.776,WTP_SM_Choice,2022.2.1,Win32,59.88023952,,,,,space,4.9816,NAN,,NAN,0.71,5.29,,0,26,26,26,1,27,Sam,Rej,Participant_Images/5e923888c38d4a574e72d716/5e923888c38d4a574e72d716_Images/5e923888c38d4a574e72d716_Image_19.jpeg,liked,3.799433026,,,,,,,,,,,,,,,,,,,,,,
,,5e923888c38d4a574e72d716,6685aa9113c938e83b4f1ea0,671bd6ffc9180981c9c10604,2024-10-25_14h10.53.776,WTP_SM_Choice,2022.2.1,Win32,59.88023952,,,,,space,1.6836,NAN,,NAN,0.71,5.29,,0,27,27,27,1,28,Sam,Rej,Participant_Images/5e923888c38d4a574e72d716/5e923888c38d4a574e72d716_Images/5e923888c38d4a574e72d716_Image_15.jpeg,did not like,5.246980764,,,,,,,,,,,,,,,,,,,,,,
,,5e923888c38d4a574e72d716,6685aa9113c938e83b4f1ea0,671bd6ffc9180981c9c10604,2024-10-25_14h10.53.776,WTP_SM_Choice,2022.2.1,Win32,59.88023952,,,,,space,1.034,NAN,,NAN,0.71,5.29,,0,28,28,28,1,29,Sam,Rej,Participant_Images/5e923888c38d4a574e72d716/5e923888c38d4a574e72d716_Images/5e923888c38d4a574e72d716_Image_1.jpeg,liked,3.30081769,,,,,,,,,,,,,,,,,,,,,,
,,5e923888c38d4a574e72d716,6685aa9113c938e83b4f1ea0,671bd6ffc9180981c9c10604,2024-10-25_14h10.53.776,WTP_SM_Choice,2022.2.1,Win32,59.88023952,,,,,,,,,,,,,,,,,,26,,,,,,space,3.5229,space,1.1819,0.01,1,3.1625,0,0,0,0,1,go to the library and browsing the newly added books section,go to build a bear with my sister to pick out new plushies on our birthdays,0.01,0.01,4.4,1,,,,
,,5e923888c38d4a574e72d716,6685aa9113c938e83b4f1ea0,671bd6ffc9180981c9c10604,2024-10-25_14h10.53.776,WTP_SM_Choice,2022.2.1,Win32,59.88023952,,,,,,,,,,,,,,,,,,27,,,,,,,,,,0.01,2,2.5272,0,1,1,1,1,go to the library and browsing the newly added books section,re-watch henry danger with my siblings over the weekends,0.02,0.01,3.3,1,,,,
,,5e923888c38d4a574e72d716,6685aa9113c938e83b4f1ea0,671bd6ffc9180981c9c10604,2024-10-25_14h10.53.776,WTP_SM_Choice,2022.2.1,Win32,59.88023952,,,,,,,,,,,,,,,,,,28,,,,,,,,,,0.01,2,3.4823,0,2,2,2,1,go to the park everyday with my siblings,go through my closet and coming up with fun outfits,0.03,0.01,3.3,0,,,,
,,5e923888c38d4a574e72d716,6685aa9113c938e83b4f1ea0,671bd6ffc9180981c9c10604,2024-10-25_14h10.53.776,WTP_SM_Choice,2022.2.1,Win32,59.88023952,,,,,,,,,,,,,,,,,,29,,,,,,,,,,0.01,2,4.718,0,3,3,3,1,catch up on movies recently released on streaming,re-watch henry danger with my siblings over the weekends,0.04,0.01,4.4,1,,,,
,,5e923888c38d4a574e72d716,6685aa9113c938e83b4f1ea0,671bd6ffc9180981c9c10604,2024-10-25_14h10.53.776,WTP_SM_Choice,2022.2.1,Win32,59.88023952,,,,,,,,,,,,,,,,,,30,,,,,,,,,,0.05,1,5.2555,0,4,4,4,1,catch up on movies recently released on streaming,go to build a bear with my sister to pick out new plushies on our birthdays,0.05,0.01,8.8,1,,,,
,,5e923888c38d4a574e72d716,6685aa9113c938e83b4f1ea0,671bd6ffc9180981c9c10604,2024-10-25_14h10.53.776,WTP_SM_Choice,2022.2.1,Win32,59.88023952,,,,,,,NAN,,NAN,0.8,5.2,,0,29,29,29,1,30,Sam,Rej,Participant_Images/5e923888c38d4a574e72d716/5e923888c38d4a574e72d716_Images/5e923888c38d4a574e72d716_Image_4.jpeg,did not like,1.661473164,,,,,,,,,,,,,,,,,,,,,,
,,5e923888c38d4a574e72d716,6685aa9113c938e83b4f1ea0,671bd6ffc9180981c9c10604,2024-10-25_14h10.53.776,WTP_SM_Choice,2022.2.1,Win32,59.88023952,,,,,space,1.5011,NAN,,NAN,0.8,5.2,,0,30,30,30,1,31,Sam,Rej,Participant_Images/5e923888c38d4a574e72d716/5e923888c38d4a574e72d716_Images/5e923888c38d4a574e72d716_Image_12.jpeg,did not like,3.613205605,,,,,,,,,,,,,,,,,,,,,,
,,5e923888c38d4a574e72d716,6685aa9113c938e83b4f1ea0,671bd6ffc9180981c9c10604,2024-10-25_14h10.53.776,WTP_SM_Choice,2022.2.1,Win32,59.88023952,,,,,space,1.4442,NAN,,NAN,0.8,5.2,,0,31,31,31,1,32,Sam,Rej,Participant_Images/5e923888c38d4a574e72d716/5e923888c38d4a574e72d716_Images/5e923888c38d4a574e72d716_Image_20.jpeg,did not like,4.988446431,,,,,,,,,,,,,,,,,,,,,,
,,5e923888c38d4a574e72d716,6685aa9113c938e83b4f1ea0,671bd6ffc9180981c9c10604,2024-10-25_14h10.53.776,WTP_SM_Choice,2022.2.1,Win32,59.88023952,,,,,space,1.5324,NAN,,NAN,0.8,5.2,,0,32,32,32,1,33,Sam,Rej,Participant_Images/5e923888c38d4a574e72d716/5e923888c38d4a574e72d716_Images/5e923888c38d4a574e72d716_Image_6.jpeg,did not like,3.470791822,,,,,,,,,,,,,,,,,,,,,,
,,5e923888c38d4a574e72d716,6685aa9113c938e83b4f1ea0,671bd6ffc9180981c9c10604,2024-10-25_14h10.53.776,WTP_SM_Choice,2022.2.1,Win32,59.88023952,,,,,space,1.4651,NAN,,NAN,0.8,5.2,,0,33,33,33,1,34,Sam,Rej,Participant_Images/5e923888c38d4a574e72d716/5e923888c38d4a574e72d716_Images/5e923888c38d4a574e72d716_Image_22.jpeg,did not like,3.820572462,,,,,,,,,,,,,,,,,,,,,,
,,5e923888c38d4a574e72d716,6685aa9113c938e83b4f1ea0,671bd6ffc9180981c9c10604,2024-10-25_14h10.53.776,WTP_SM_Choice,2022.2.1,Win32,59.88023952,,,,,,,,,,,,,,,,,,31,,,,,,space,1.9022,space,1.4741,0.01,1,2.7418,0,0,0,0,1,cook a pasta bake to have for dinner,sketch and draw with my sister at the park,0.01,0.02,8.8,1,,,,
,,5e923888c38d4a574e72d716,6685aa9113c938e83b4f1ea0,671bd6ffc9180981c9c10604,2024-10-25_14h10.53.776,WTP_SM_Choice,2022.2.1,Win32,59.88023952,,,,,,,,,,,,,,,,,,32,,,,,,,,,,0.02,2,3.3597,0,1,1,1,1,browse online for outfit inspiration,go to build a bear with my sister to pick out new plushies on our birthdays,0.02,0.02,1.1,1,,,,
,,5e923888c38d4a574e72d716,6685aa9113c938e83b4f1ea0,671bd6ffc9180981c9c10604,2024-10-25_14h10.53.776,WTP_SM_Choice,2022.2.1,Win32,59.88023952,,,,,,,,,,,,,,,,,,33,,,,,,,,,,0.02,2,3.2132,0,2,2,2,1,re-watch henry danger with my siblings over the weekends,watch spongebob episodes before bed,0.03,0.02,4.4,0,,,,
,,5e923888c38d4a574e72d716,6685aa9113c938e83b4f1ea0,671bd6ffc9180981c9c10604,2024-10-25_14h10.53.776,WTP_SM_Choice,2022.2.1,Win32,59.88023952,,,,,,,,,,,,,,,,,,34,,,,,,,,,,0.02,2,2.6593,0,3,3,3,1,get tacos from rosas cafe with my siblings on tuesdays,watch spongebob episodes before bed,0.04,0.02,3.3,0,,,,
,,5e923888c38d4a574e72d716,6685aa9113c938e83b4f1ea0,671bd6ffc9180981c9c10604,2024-10-25_14h10.53.776,WTP_SM_Choice,2022.2.1,Win32,59.88023952,,,,,,,,,,,,,,,,,,35,,,,,,,,,,0.02,2,3.207,0,4,4,4,1,watch new movies with my siblings on Friday nights,go through my closet and coming up with fun outfits,0.05,0.02,1.1,0,,,,
,,5e923888c38d4a574e72d716,6685aa9113c938e83b4f1ea0,671bd6ffc9180981c9c10604,2024-10-25_14h10.53.776,WTP_SM_Choice,2022.2.1,Win32,59.88023952,,,,,,,NAN,,NAN,0.89,5.11,,0,34,34,34,1,35,Sam,Rej,Participant_Images/5e923888c38d4a574e72d716/5e923888c38d4a574e72d716_Images/5e923888c38d4a574e72d716_Image_18.jpeg,did not like,2.455989137,,,,,,,,,,,,,,,,,,,,,,
,,5e923888c38d4a574e72d716,6685aa9113c938e83b4f1ea0,671bd6ffc9180981c9c10604,2024-10-25_14h10.53.776,WTP_SM_Choice,2022.2.1,Win32,59.88023952,,,,,space,1.6536,NAN,,NAN,0.89,5.11,,0,35,35,35,1,36,Sam,Rej,Participant_Images/5e923888c38d4a574e72d716/5e923888c38d4a574e72d716_Images/5e923888c38d4a574e72d716_Image_8.jpeg,did not like,3.79605092,,,,,,,,,,,,,,,,,,,,,,
,,5e923888c38d4a574e72d716,6685aa9113c938e83b4f1ea0,671bd6ffc9180981c9c10604,2024-10-25_14h10.53.776,WTP_SM_Choice,2022.2.1,Win32,59.88023952,,,,,space,1.8167,NAN,,NAN,0.89,5.11,,0,36,36,36,1,37,Sam,Rej,Participant_Images/5e923888c38d4a574e72d716/5e923888c38d4a574e72d716_Images/5e923888c38d4a574e72d716_Image_25.jpeg,did not like,3.562416326,,,,,,,,,,,,,,,,,,,,,,
,,5e923888c38d4a574e72d716,6685aa9113c938e83b4f1ea0,671bd6ffc9180981c9c10604,2024-10-25_14h10.53.776,WTP_SM_Choice,2022.2.1,Win32,59.88023952,,,,,space,1.5845,NAN,,NAN,0.89,5.11,,0,37,37,37,1,38,Sam,Rej,Participant_Images/5e923888c38d4a574e72d716/5e923888c38d4a574e72d716_Images/5e923888c38d4a574e72d716_Image_24.jpeg,did not like,2.843822497,,,,,,,,,,,,,,,,,,,,,,
,,5e923888c38d4a574e72d716,6685aa9113c938e83b4f1ea0,671bd6ffc9180981c9c10604,2024-10-25_14h10.53.776,WTP_SM_Choice,2022.2.1,Win32,59.88023952,,,,,space,2.1757,NAN,,NAN,0.89,5.11,,0,38,38,38,1,39,Sam,Rej,Participant_Images/5e923888c38d4a574e72d716/5e923888c38d4a574e72d716_Images/5e923888c38d4a574e72d716_Image_23.jpeg,did not like,3.546495948,,,,,,,,,,,,,,,,,,,,,,
,,5e923888c38d4a574e72d716,6685aa9113c938e83b4f1ea0,671bd6ffc9180981c9c10604,2024-10-25_14h10.53.776,WTP_SM_Choice,2022.2.1,Win32,59.88023952,,,,,,,,,,,,,,,,,,36,,,,,,space,4.4294,space,1.6853,0.01,1,2.3205,0,0,0,0,1,bake cookies or cupcakes,get tacos from rosas cafe with my siblings on tuesdays,0.01,0.03,3.3,1,,,,
,,5e923888c38d4a574e72d716,6685aa9113c938e83b4f1ea0,671bd6ffc9180981c9c10604,2024-10-25_14h10.53.776,WTP_SM_Choice,2022.2.1,Win32,59.88023952,,,,,,,,,,,,,,,,,,37,,,,,,,,,,0.02,1,1.8242,0,1,1,1,1,watch spongebob episodes before bed,shop and thrift with my sister for new seasonal outfits,0.02,0.03,1.1,1,,,,
,,5e923888c38d4a574e72d716,6685aa9113c938e83b4f1ea0,671bd6ffc9180981c9c10604,2024-10-25_14h10.53.776,WTP_SM_Choice,2022.2.1,Win32,59.88023952,,,,,,,,,,,,,,,,,,38,,,,,,,,,,0.03,2,3.0908,0,2,2,2,1,go to the library and browsing the newly added books section,try new foods and restaurants with my sister,0.03,0.03,1.1,1,,,,
,,5e923888c38d4a574e72d716,6685aa9113c938e83b4f1ea0,671bd6ffc9180981c9c10604,2024-10-25_14h10.53.776,WTP_SM_Choice,2022.2.1,Win32,59.88023952,,,,,,,,,,,,,,,,,,39,,,,,,,,,,0.03,2,3.6333,0,3,3,3,1,catch up on anime series that i have yet to finish,try new foods and restaurants with my sister,0.04,0.03,3.3,1,,,,
,,5e923888c38d4a574e72d716,6685aa9113c938e83b4f1ea0,671bd6ffc9180981c9c10604,2024-10-25_14h10.53.776,WTP_SM_Choice,2022.2.1,Win32,59.88023952,,,,,,,,,,,,,,,,,,40,,,,,,,,,,0.03,2,2.9207,0,4,4,4,1,go to build a bear with my sister to pick out new plushies on our birthdays,read a book at the park when it is clear skies or partly cloudy,0.05,0.03,4.4,0,,,,
,,5e923888c38d4a574e72d716,6685aa9113c938e83b4f1ea0,671bd6ffc9180981c9c10604,2024-10-25_14h10.53.776,WTP_SM_Choice,2022.2.1,Win32,59.88023952,,,,,,,NAN,,NAN,1.01,4.99,,0,39,39,39,1,40,Sam,Rej,Participant_Images/5e923888c38d4a574e72d716/5e923888c38d4a574e72d716_Images/5e923888c38d4a574e72d716_Image_17.jpeg,did not like,1.672012706,,,,,,,,,,,,,,,,,,,,,,
,,5e923888c38d4a574e72d716,6685aa9113c938e83b4f1ea0,671bd6ffc9180981c9c10604,2024-10-25_14h10.53.776,WTP_SM_Choice,2022.2.1,Win32,59.88023952,,,,,space,2.3647,NAN,,NAN,1.01,4.99,,0,40,40,40,1,41,Sam,Rej,Participant_Images/5e923888c38d4a574e72d716/5e923888c38d4a574e72d716_Images/5e923888c38d4a574e72d716_Image_13.jpeg,liked,4.942172136,,,,,,,,,,,,,,,,,,,,,,
,,5e923888c38d4a574e72d716,6685aa9113c938e83b4f1ea0,671bd6ffc9180981c9c10604,2024-10-25_14h10.53.776,WTP_SM_Choice,2022.2.1,Win32,59.88023952,,,,,space,1.1065,NAN,,NAN,1.01,4.99,,0,41,41,41,1,42,Sam,Rej,Participant_Images/5e923888c38d4a574e72d716/5e923888c38d4a574e72d716_Images/5e923888c38d4a574e72d716_Image_5.jpeg,liked,2.50187214,,,,,,,,,,,,,,,,,,,,,,
,,5e923888c38d4a574e72d716,6685aa9113c938e83b4f1ea0,671bd6ffc9180981c9c10604,2024-10-25_14h10.53.776,WTP_SM_Choice,2022.2.1,Win32,59.88023952,,,,,space,0.9677,NAN,,NAN,1.01,4.99,,0,42,42,42,1,43,Sam,Rej,Participant_Images/5e923888c38d4a574e72d716/5e923888c38d4a574e72d716_Images/5e923888c38d4a574e72d716_Image_10.jpeg,did not like,2.071164779,,,,,,,,,,,,,,,,,,,,,,
,,5e923888c38d4a574e72d716,6685aa9113c938e83b4f1ea0,671bd6ffc9180981c9c10604,2024-10-25_14h10.53.776,WTP_SM_Choice,2022.2.1,Win32,59.88023952,,,,,space,0.7667,NAN,,NAN,1.01,4.99,,0,43,43,43,1,44,Sam,Rej,Participant_Images/5e923888c38d4a574e72d716/5e923888c38d4a574e72d716_Images/5e923888c38d4a574e72d716_Image_16.jpeg,did not like,5.336503566,,,,,,,,,,,,,,,,,,,,,,
,,5e923888c38d4a574e72d716,6685aa9113c938e83b4f1ea0,671bd6ffc9180981c9c10604,2024-10-25_14h10.53.776,WTP_SM_Choice,2022.2.1,Win32,59.88023952,,,,,,,,,,,,,,,,,,41,,,,,,space,1.0405,space,1.4338,0.01,1,5.2946,0,0,0,0,1,go to build a bear with my sister to pick out new plushies on our birthdays,listen to music while walking around the park,0.01,0.04,1.1,0,,,,
,,5e923888c38d4a574e72d716,6685aa9113c938e83b4f1ea0,671bd6ffc9180981c9c10604,2024-10-25_14h10.53.776,WTP_SM_Choice,2022.2.1,Win32,59.88023952,,,,,,,,,,,,,,,,,,42,,,,,,,,,,0.02,1,3.5466,0,1,1,1,1,go to church and then out to eat after with my siblings on Sundays,catch up on anime series that i have yet to finish,0.02,0.04,3.3,0,,,,
,,5e923888c38d4a574e72d716,6685aa9113c938e83b4f1ea0,671bd6ffc9180981c9c10604,2024-10-25_14h10.53.776,WTP_SM_Choice,2022.2.1,Win32,59.88023952,,,,,,,,,,,,,,,,,,43,,,,,,,,,,0.03,1,4.318,0,2,2,2,1,go through my closet and coming up with fun outfits,try new foods and restaurants with my sister,0.03,0.04,1.1,1,,,,
,,5e923888c38d4a574e72d716,6685aa9113c938e83b4f1ea0,671bd6ffc9180981c9c10604,2024-10-25_14h10.53.776,WTP_SM_Choice,2022.2.1,Win32,59.88023952,,,,,,,,,,,,,,,,,,44,,,,,,,,,,0.04,2,3.7002,0,3,3,3,1,watch new movies with my siblings on Friday nights,catch up on anime series that i have yet to finish,0.04,0.04,1.1,0,,,,
,,5e923888c38d4a574e72d716,6685aa9113c938e83b4f1ea0,671bd6ffc9180981c9c10604,2024-10-25_14h10.53.776,WTP_SM_Choice,2022.2.1,Win32,59.88023952,,,,,,,,,,,,,,,,,,45,,,,,,,,,,0.04,2,2.8744,0,4,4,4,1,browse online for outfit inspiration,get tacos from rosas cafe with my siblings on tuesdays,0.05,0.04,4.4,1,,,,
,,5e923888c38d4a574e72d716,6685aa9113c938e83b4f1ea0,671bd6ffc9180981c9c10604,2024-10-25_14h10.53.776,WTP_SM_Choice,2022.2.1,Win32,59.88023952,,,,,,,NAN,,NAN,1.15,4.85,,0,44,44,44,1,45,Sam,Rej,Participant_Images/5e923888c38d4a574e72d716/5e923888c38d4a574e72d716_Images/5e923888c38d4a574e72d716_Image_21.jpeg,liked,2.642157193,,,,,,,,,,,,,,,,,,,,,,
,,5e923888c38d4a574e72d716,6685aa9113c938e83b4f1ea0,671bd6ffc9180981c9c10604,2024-10-25_14h10.53.776,WTP_SM_Choice,2022.2.1,Win32,59.88023952,,,,,space,1.0679,NAN,,NAN,1.15,4.85,,0,45,45,45,1,46,Sam,Rej,Participant_Images/5e923888c38d4a574e72d716/5e923888c38d4a574e72d716_Images/5e923888c38d4a574e72d716_Image_14.jpeg,did not like,4.456234322,,,,,,,,,,,,,,,,,,,,,,
,,5e923888c38d4a574e72d716,6685aa9113c938e83b4f1ea0,671bd6ffc9180981c9c10604,2024-10-25_14h10.53.776,WTP_SM_Choice,2022.2.1,Win32,59.88023952,,,,,space,1.2382,NAN,,NAN,1.15,4.85,,0,46,46,46,1,47,Sam,Rej,Participant_Images/5e923888c38d4a574e72d716/5e923888c38d4a574e72d716_Images/5e923888c38d4a574e72d716_Image_7.jpeg,did not like,4.438512181,,,,,,,,,,,,,,,,,,,,,,
,,5e923888c38d4a574e72d716,6685aa9113c938e83b4f1ea0,671bd6ffc9180981c9c10604,2024-10-25_14h10.53.776,WTP_SM_Choice,2022.2.1,Win32,59.88023952,,,,,space,2.0677,NAN,,NAN,1.15,4.85,,0,47,47,47,1,48,Sam,Rej,Participant_Images/5e923888c38d4a574e72d716/5e923888c38d4a574e72d716_Images/5e923888c38d4a574e72d716_Image_2.jpeg,did not like,2.682944783,,,,,,,,,,,,,,,,,,,,,,
,,5e923888c38d4a574e72d716,6685aa9113c938e83b4f1ea0,671bd6ffc9180981c9c10604,2024-10-25_14h10.53.776,WTP_SM_Choice,2022.2.1,Win32,59.88023952,,,,,space,1.2507,NAN,,NAN,1.15,4.85,,0,48,48,48,1,49,Sam,Rej,Participant_Images/5e923888c38d4a574e72d716/5e923888c38d4a574e72d716_Images/5e923888c38d4a574e72d716_Image_11.jpeg,liked,4.51984296,,,,,,,,,,,,,,,,,,,,,,
,,5e923888c38d4a574e72d716,6685aa9113c938e83b4f1ea0,671bd6ffc9180981c9c10604,2024-10-25_14h10.53.776,WTP_SM_Choice,2022.2.1,Win32,59.88023952,,,,,,,,,,,,,,,,,,46,,,,,,space,21.1722,space,1.4851,0.01,1,2.9141,0,0,0,0,1,go to build a bear with my sister to pick out new plushies on our birthdays,go through my closet and coming up with fun outfits,0.01,0.05,8.8,0,,,,
,,5e923888c38d4a574e72d716,6685aa9113c938e83b4f1ea0,671bd6ffc9180981c9c10604,2024-10-25_14h10.53.776,WTP_SM_Choice,2022.2.1,Win32,59.88023952,,,,,,,,,,,,,,,,,,47,,,,,,,,,,0.05,2,4.0199,0,1,1,1,1,sketch and draw with my sister at the park,catch up on movies recently released on streaming,0.02,0.05,1.1,0,,,,
,,5e923888c38d4a574e72d716,6685aa9113c938e83b4f1ea0,671bd6ffc9180981c9c10604,2024-10-25_14h10.53.776,WTP_SM_Choice,2022.2.1,Win32,59.88023952,,,,,,,,,,,,,,,,,,48,,,,,,,,,,0.05,2,2.6345,0,2,2,2,1,shop and thrift with my sister for new seasonal outfits,catch up on anime series that i have yet to finish,0.03,0.05,4.4,0,,,,
,,5e923888c38d4a574e72d716,6685aa9113c938e83b4f1ea0,671bd6ffc9180981c9c10604,2024-10-25_14h10.53.776,WTP_SM_Choice,2022.2.1,Win32,59.88023952,,,,,,,,,,,,,,,,,,49,,,,,,,,,,0.04,1,2.9335,0,3,3,3,1,go through my closet and coming up with fun outfits,re-watch henry danger with my siblings over the weekends,0.04,0.05,3.3,1,,,,
,,5e923888c38d4a574e72d716,6685aa9113c938e83b4f1ea0,671bd6ffc9180981c9c10604,2024-10-25_14h10.53.776,WTP_SM_Choice,2022.2.1,Win32,59.88023952,,,,,,,,,,,,,,,,,,50,,,,,,,,,,0.05,1,3.4118,0,4,4,4,1,go to church and then out to eat after with my siblings on Sundays,go through my closet and coming up with fun outfits,0.05,0.05,1.1,0,,,,
,,5e923888c38d4a574e72d716,6685aa9113c938e83b4f1ea0,671bd6ffc9180981c9c10604,2024-10-25_14h10.53.776,WTP_SM_Choice,2022.2.1,Win32,59.88023952,,,,,,,4,,7,1.35,4.65,,0,49,49,49,1,50,Sam,Rej,Participant_Images/5e923888c38d4a574e72d716/5e923888c38d4a574e72d716_Images/5e923888c38d4a574e72d716_Image_3.jpeg,liked,3.195382774,,,,,,,,,,,,,,,,,,,space,1.1834,,
,,5e923888c38d4a574e72d716,6685aa9113c938e83b4f1ea0,671bd6ffc9180981c9c10604,2024-10-25_14h10.53.776,WTP_SM_Choice,2022.2.1,Win32,59.88023952,,,space,1.9909,space,1.5507,NAN,,NAN,1.35,4.65,,0,50,50,50,1,51,Riley,Rej,Participant_Images/5e923888c38d4a574e72d716/5e923888c38d4a574e72d716_Images/5e923888c38d4a574e72d716_Image_3.jpeg,did not like,1.779333479,,,,,,,,,,,,,,,,,,,,,,
,,5e923888c38d4a574e72d716,6685aa9113c938e83b4f1ea0,671bd6ffc9180981c9c10604,2024-10-25_14h10.53.776,WTP_SM_Choice,2022.2.1,Win32,59.88023952,,,,,space,0.8074,NAN,,NAN,1.35,4.65,,0,51,51,51,1,52,Riley,Rej,Participant_Images/5e923888c38d4a574e72d716/5e923888c38d4a574e72d716_Images/5e923888c38d4a574e72d716_Image_20.jpeg,did not like,4.312468682,,,,,,,,,,,,,,,,,,,,,,
,,5e923888c38d4a574e72d716,6685aa9113c938e83b4f1ea0,671bd6ffc9180981c9c10604,2024-10-25_14h10.53.776,WTP_SM_Choice,2022.2.1,Win32,59.88023952,,,,,space,0.624,NAN,,NAN,1.35,4.65,,0,52,52,52,1,53,Riley,Rej,Participant_Images/5e923888c38d4a574e72d716/5e923888c38d4a574e72d716_Images/5e923888c38d4a574e72d716_Image_21.jpeg,did not like,4.940433059,,,,,,,,,,,,,,,,,,,,,,
,,5e923888c38d4a574e72d716,6685aa9113c938e83b4f1ea0,671bd6ffc9180981c9c10604,2024-10-25_14h10.53.776,WTP_SM_Choice,2022.2.1,Win32,59.88023952,,,,,space,0.6736,NAN,,NAN,1.35,4.65,,0,53,53,53,1,54,Riley,Rej,Participant_Images/5e923888c38d4a574e72d716/5e923888c38d4a574e72d716_Images/5e923888c38d4a574e72d716_Image_22.jpeg,did not like,2.7105123,,,,,,,,,,,,,,,,,,,,,,
,,5e923888c38d4a574e72d716,6685aa9113c938e83b4f1ea0,671bd6ffc9180981c9c10604,2024-10-25_14h10.53.776,WTP_SM_Choice,2022.2.1,Win32,59.88023952,,,,,,,,,,,,,,,,,,51,,,,,,space,2.0994,space,0.8878,0.01,2,2.3162,0,0,0,0,1,try new foods and restaurants with my sister,watch spongebob episodes before bed,0.01,0.01,1.1,0,,,,
,,5e923888c38d4a574e72d716,6685aa9113c938e83b4f1ea0,671bd6ffc9180981c9c10604,2024-10-25_14h10.53.776,WTP_SM_Choice,2022.2.1,Win32,59.88023952,,,,,,,,,,,,,,,,,,52,,,,,,,,,,0.02,1,2.8224,0,1,1,1,1,catch up on anime series that i have yet to finish,get tacos from rosas cafe with my siblings on tuesdays,0.02,0.01,3.3,1,,,,
,,5e923888c38d4a574e72d716,6685aa9113c938e83b4f1ea0,671bd6ffc9180981c9c10604,2024-10-25_14h10.53.776,WTP_SM_Choice,2022.2.1,Win32,59.88023952,,,,,,,,,,,,,,,,,,53,,,,,,,,,,0.03,1,3.6914,0,2,2,2,1,read a book at the park when it is clear skies or partly cloudy,watch new movies with my siblings on Friday nights,0.03,0.01,1.1,1,,,,
,,5e923888c38d4a574e72d716,6685aa9113c938e83b4f1ea0,671bd6ffc9180981c9c10604,2024-10-25_14h10.53.776,WTP_SM_Choice,2022.2.1,Win32,59.88023952,,,,,,,,,,,,,,,,,,54,,,,,,,,,,0.01,2,2.2099,0,3,3,3,1,go to the park everyday with my siblings,cook a pasta bake to have for dinner,0.04,0.01,4.4,0,,,,
,,5e923888c38d4a574e72d716,6685aa9113c938e83b4f1ea0,671bd6ffc9180981c9c10604,2024-10-25_14h10.53.776,WTP_SM_Choice,2022.2.1,Win32,59.88023952,,,,,,,,,,,,,,,,,,55,,,,,,,,,,0.05,1,3.3861,0,4,4,4,1,bake cookies or cupcakes,shop and thrift with my sister for new seasonal outfits,0.05,0.01,1.1,1,,,,
,,5e923888c38d4a574e72d716,6685aa9113c938e83b4f1ea0,671bd6ffc9180981c9c10604,2024-10-25_14h10.53.776,WTP_SM_Choice,2022.2.1,Win32,59.88023952,,,,,,,NAN,,NAN,1.47,4.53,,0,54,54,54,1,55,Riley,Rej,Participant_Images/5e923888c38d4a574e72d716/5e923888c38d4a574e72d716_Images/5e923888c38d4a574e72d716_Image_1.jpeg,did not like,3.602308302,,,,,,,,,,,,,,,,,,,,,,
,,5e923888c38d4a574e72d716,6685aa9113c938e83b4f1ea0,671bd6ffc9180981c9c10604,2024-10-25_14h10.53.776,WTP_SM_Choice,2022.2.1,Win32,59.88023952,,,,,space,2.034,NAN,,NAN,1.47,4.53,,0,55,55,55,1,56,Riley,Rej,Participant_Images/5e923888c38d4a574e72d716/5e923888c38d4a574e72d716_Images/5e923888c38d4a574e72d716_Image_10.jpeg,did not like,4.106391878,,,,,,,,,,,,,,,,,,,,,,
,,5e923888c38d4a574e72d716,6685aa9113c938e83b4f1ea0,671bd6ffc9180981c9c10604,2024-10-25_14h10.53.776,WTP_SM_Choice,2022.2.1,Win32,59.88023952,,,,,space,1.2246,NAN,,NAN,1.47,4.53,,0,56,56,56,1,57,Riley,Rej,Participant_Images/5e923888c38d4a574e72d716/5e923888c38d4a574e72d716_Images/5e923888c38d4a574e72d716_Image_5.jpeg,did not like,3.799433026,,,,,,,,,,,,,,,,,,,,,,
,,5e923888c38d4a574e72d716,6685aa9113c938e83b4f1ea0,671bd6ffc9180981c9c10604,2024-10-25_14h10.53.776,WTP_SM_Choice,2022.2.1,Win32,59.88023952,,,,,space,1.3643,NAN,,NAN,1.47,4.53,,0,57,57,57,1,58,Riley,Rej,Participant_Images/5e923888c38d4a574e72d716/5e923888c38d4a574e72d716_Images/5e923888c38d4a574e72d716_Image_19.jpeg,did not like,5.246980764,,,,,,,,,,,,,,,,,,,,,,
,,5e923888c38d4a574e72d716,6685aa9113c938e83b4f1ea0,671bd6ffc9180981c9c10604,2024-10-25_14h10.53.776,WTP_SM_Choice,2022.2.1,Win32,59.88023952,,,,,space,1.4501,NAN,,NAN,1.47,4.53,,0,58,58,58,1,59,Riley,Rej,Participant_Images/5e923888c38d4a574e72d716/5e923888c38d4a574e72d716_Images/5e923888c38d4a574e72d716_Image_2.jpeg,liked,3.30081769,,,,,,,,,,,,,,,,,,,,,,
,,5e923888c38d4a574e72d716,6685aa9113c938e83b4f1ea0,671bd6ffc9180981c9c10604,2024-10-25_14h10.53.776,WTP_SM_Choice,2022.2.1,Win32,59.88023952,,,,,,,,,,,,,,,,,,56,,,,,,space,10.6813,space,0.916,0.01,1,4.4765,0,0,0,0,1,browse online for outfit inspiration,watch new movies with my siblings on Friday nights,0.01,0.02,8.8,1,,,,
,,5e923888c38d4a574e72d716,6685aa9113c938e83b4f1ea0,671bd6ffc9180981c9c10604,2024-10-25_14h10.53.776,WTP_SM_Choice,2022.2.1,Win32,59.88023952,,,,,,,,,,,,,,,,,,57,,,,,,,,,,0.02,1,4.3008,0,1,1,1,1,get tacos from rosas cafe with my siblings on tuesdays,go to the library and browsing the newly added books section,0.02,0.02,4.4,0,,,,
,,5e923888c38d4a574e72d716,6685aa9113c938e83b4f1ea0,671bd6ffc9180981c9c10604,2024-10-25_14h10.53.776,WTP_SM_Choice,2022.2.1,Win32,59.88023952,,,,,,,,,,,,,,,,,,58,,,,,,,,,,0.03,1,3.2754,0,2,2,2,1,go to the library and browsing the newly added books section,shop and thrift with my sister for new seasonal outfits,0.03,0.02,4.4,1,,,,
,,5e923888c38d4a574e72d716,6685aa9113c938e83b4f1ea0,671bd6ffc9180981c9c10604,2024-10-25_14h10.53.776,WTP_SM_Choice,2022.2.1,Win32,59.88023952,,,,,,,,,,,,,,,,,,59,,,,,,,,,,0.02,2,2.1175,0,3,3,3,1,watch new movies with my siblings on Friday nights,catch up on movies recently released on streaming,0.04,0.02,4.4,0,,,,
,,5e923888c38d4a574e72d716,6685aa9113c938e83b4f1ea0,671bd6ffc9180981c9c10604,2024-10-25_14h10.53.776,WTP_SM_Choice,2022.2.1,Win32,59.88023952,,,,,,,,,,,,,,,,,,60,,,,,,,,,,0.05,1,3.89,0,4,4,4,1,go to church and then out to eat after with my siblings on Sundays,browse online for outfit inspiration,0.05,0.02,1.1,0,,,,
,,5e923888c38d4a574e72d716,6685aa9113c938e83b4f1ea0,671bd6ffc9180981c9c10604,2024-10-25_14h10.53.776,WTP_SM_Choice,2022.2.1,Win32,59.88023952,,,,,,,NAN,,NAN,1.6,4.4,,0,59,59,59,1,60,Riley,Rej,Participant_Images/5e923888c38d4a574e72d716/5e923888c38d4a574e72d716_Images/5e923888c38d4a574e72d716_Image_4.jpeg,did not like,1.661473164,,,,,,,,,,,,,,,,,,,,,,
,,5e923888c38d4a574e72d716,6685aa9113c938e83b4f1ea0,671bd6ffc9180981c9c10604,2024-10-25_14h10.53.776,WTP_SM_Choice,2022.2.1,Win32,59.88023952,,,,,space,1.1073,NAN,,NAN,1.6,4.4,,0,60,60,60,1,61,Riley,Rej,Participant_Images/5e923888c38d4a574e72d716/5e923888c38d4a574e72d716_Images/5e923888c38d4a574e72d716_Image_8.jpeg,did not like,3.613205605,,,,,,,,,,,,,,,,,,,,,,
,,5e923888c38d4a574e72d716,6685aa9113c938e83b4f1ea0,671bd6ffc9180981c9c10604,2024-10-25_14h10.53.776,WTP_SM_Choice,2022.2.1,Win32,59.88023952,,,,,space,0.9882,NAN,,NAN,1.6,4.4,,0,61,61,61,1,62,Riley,Rej,Participant_Images/5e923888c38d4a574e72d716/5e923888c38d4a574e72d716_Images/5e923888c38d4a574e72d716_Image_9.jpeg,liked,4.988446431,,,,,,,,,,,,,,,,,,,,,,
,,5e923888c38d4a574e72d716,6685aa9113c938e83b4f1ea0,671bd6ffc9180981c9c10604,2024-10-25_14h10.53.776,WTP_SM_Choice,2022.2.1,Win32,59.88023952,,,,,space,1.1666,NAN,,NAN,1.6,4.4,,0,62,62,62,1,63,Riley,Rej,Participant_Images/5e923888c38d4a574e72d716/5e923888c38d4a574e72d716_Images/5e923888c38d4a574e72d716_Image_7.jpeg,liked,3.470791822,,,,,,,,,,,,,,,,,,,,,,
,,5e923888c38d4a574e72d716,6685aa9113c938e83b4f1ea0,671bd6ffc9180981c9c10604,2024-10-25_14h10.53.776,WTP_SM_Choice,2022.2.1,Win32,59.88023952,,,,,space,1.4222,NAN,,NAN,1.6,4.4,,0,63,63,63,1,64,Riley,Rej,Participant_Images/5e923888c38d4a574e72d716/5e923888c38d4a574e72d716_Images/5e923888c38d4a574e72d716_Image_12.jpeg,did not like,3.820572462,,,,,,,,,,,,,,,,,,,,,,
,,5e923888c38d4a574e72d716,6685aa9113c938e83b4f1ea0,671bd6ffc9180981c9c10604,2024-10-25_14h10.53.776,WTP_SM_Choice,2022.2.1,Win32,59.88023952,,,,,,,,,,,,,,,,,,61,,,,,,space,2.1032,space,0.9001,0.03,2,3.0885,0,0,0,0,1,go to the library and browsing the newly added books section,go to church and then out to eat after with my siblings on Sundays,0.01,0.03,3.3,1,,,,
,,5e923888c38d4a574e72d716,6685aa9113c938e83b4f1ea0,671bd6ffc9180981c9c10604,2024-10-25_14h10.53.776,WTP_SM_Choice,2022.2.1,Win32,59.88023952,,,,,,,,,,,,,,,,,,62,,,,,,,,,,0.03,2,4.9221,0,1,1,1,1,listen to music while walking around the park,go to church and then out to eat after with my siblings on Sundays,0.02,0.03,3.3,1,,,,
,,5e923888c38d4a574e72d716,6685aa9113c938e83b4f1ea0,671bd6ffc9180981c9c10604,2024-10-25_14h10.53.776,WTP_SM_Choice,2022.2.1,Win32,59.88023952,,,,,,,,,,,,,,,,,,63,,,,,,,,,,0.03,1,2.7209,0,2,2,2,1,bake cookies or cupcakes,go to the park everyday with my siblings,0.03,0.03,3.3,1,,,,
,,5e923888c38d4a574e72d716,6685aa9113c938e83b4f1ea0,671bd6ffc9180981c9c10604,2024-10-25_14h10.53.776,WTP_SM_Choice,2022.2.1,Win32,59.88023952,,,,,,,,,,,,,,,,,,64,,,,,,,,,,0.03,2,4.0515,0,3,3,3,1,go to build a bear with my sister to pick out new plushies on our birthdays,catch up on anime series that i have yet to finish,0.04,0.03,1.1,0,,,,
,,5e923888c38d4a574e72d716,6685aa9113c938e83b4f1ea0,671bd6ffc9180981c9c10604,2024-10-25_14h10.53.776,WTP_SM_Choice,2022.2.1,Win32,59.88023952,,,,,,,,,,,,,,,,,,65,,,,,,,,,,0.03,2,2.1018,0,4,4,4,1,cook a pasta bake to have for dinner,get tacos from rosas cafe with my siblings on tuesdays,0.05,0.03,1.1,1,,,,
,,5e923888c38d4a574e72d716,6685aa9113c938e83b4f1ea0,671bd6ffc9180981c9c10604,2024-10-25_14h10.53.776,WTP_SM_Choice,2022.2.1,Win32,59.88023952,,,,,,,NAN,,NAN,1.75,4.25,,0,64,64,64,1,65,Riley,Rej,Participant_Images/5e923888c38d4a574e72d716/5e923888c38d4a574e72d716_Images/5e923888c38d4a574e72d716_Image_23.jpeg,liked,2.455989137,,,,,,,,,,,,,,,,,,,,,,
,,5e923888c38d4a574e72d716,6685aa9113c938e83b4f1ea0,671bd6ffc9180981c9c10604,2024-10-25_14h10.53.776,WTP_SM_Choice,2022.2.1,Win32,59.88023952,,,,,space,1.4243,NAN,,NAN,1.75,4.25,,0,65,65,65,1,66,Riley,Rej,Participant_Images/5e923888c38d4a574e72d716/5e923888c38d4a574e72d716_Images/5e923888c38d4a574e72d716_Image_14.jpeg,did not like,3.79605092,,,,,,,,,,,,,,,,,,,,,,
,,5e923888c38d4a574e72d716,6685aa9113c938e83b4f1ea0,671bd6ffc9180981c9c10604,2024-10-25_14h10.53.776,WTP_SM_Choice,2022.2.1,Win32,59.88023952,,,,,space,1.4524,NAN,,NAN,1.75,4.25,,0,66,66,66,1,67,Riley,Rej,Participant_Images/5e923888c38d4a574e72d716/5e923888c38d4a574e72d716_Images/5e923888c38d4a574e72d716_Image_13.jpeg,did not like,3.562416326,,,,,,,,,,,,,,,,,,,,,,
,,5e923888c38d4a574e72d716,6685aa9113c938e83b4f1ea0,671bd6ffc9180981c9c10604,2024-10-25_14h10.53.776,WTP_SM_Choice,2022.2.1,Win32,59.88023952,,,,,space,1.739,NAN,,NAN,1.75,4.25,,0,67,67,67,1,68,Riley,Rej,Participant_Images/5e923888c38d4a574e72d716/5e923888c38d4a574e72d716_Images/5e923888c38d4a574e72d716_Image_6.jpeg,liked,2.843822497,,,,,,,,,,,,,,,,,,,,,,
,,5e923888c38d4a574e72d716,6685aa9113c938e83b4f1ea0,671bd6ffc9180981c9c10604,2024-10-25_14h10.53.776,WTP_SM_Choice,2022.2.1,Win32,59.88023952,,,,,space,1.767,NAN,,NAN,1.75,4.25,,0,68,68,68,1,69,Riley,Rej,Participant_Images/5e923888c38d4a574e72d716/5e923888c38d4a574e72d716_Images/5e923888c38d4a574e72d716_Image_18.jpeg,did not like,3.546495948,,,,,,,,,,,,,,,,,,,,,,
,,5e923888c38d4a574e72d716,6685aa9113c938e83b4f1ea0,671bd6ffc9180981c9c10604,2024-10-25_14h10.53.776,WTP_SM_Choice,2022.2.1,Win32,59.88023952,,,,,,,,,,,,,,,,,,66,,,,,,space,2.0235,space,0.8019,0.01,1,2.7353,0,0,0,0,1,play online video games with my sibingls over weekends,read a book at the park when it is clear skies or partly cloudy,0.01,0.04,1.1,0,,,,
,,5e923888c38d4a574e72d716,6685aa9113c938e83b4f1ea0,671bd6ffc9180981c9c10604,2024-10-25_14h10.53.776,WTP_SM_Choice,2022.2.1,Win32,59.88023952,,,,,,,,,,,,,,,,,,67,,,,,,,,,,0.02,1,2.731,0,1,1,1,1,read a book at the park when it is clear skies or partly cloudy,get tacos from rosas cafe with my siblings on tuesdays,0.02,0.04,8.8,1,,,,
,,5e923888c38d4a574e72d716,6685aa9113c938e83b4f1ea0,671bd6ffc9180981c9c10604,2024-10-25_14h10.53.776,WTP_SM_Choice,2022.2.1,Win32,59.88023952,,,,,,,,,,,,,,,,,,68,,,,,,,,,,0.03,1,3.0293,0,2,2,2,1,catch up on movies recently released on streaming,shop and thrift with my sister for new seasonal outfits,0.03,0.04,4.4,1,,,,
,,5e923888c38d4a574e72d716,6685aa9113c938e83b4f1ea0,671bd6ffc9180981c9c10604,2024-10-25_14h10.53.776,WTP_SM_Choice,2022.2.1,Win32,59.88023952,,,,,,,,,,,,,,,,,,69,,,,,,,,,,0.04,1,2.4831,0,3,3,3,1,browse online for outfit inspiration,sketch and draw with my sister at the park,0.04,0.04,1.1,1,,,,
,,5e923888c38d4a574e72d716,6685aa9113c938e83b4f1ea0,671bd6ffc9180981c9c10604,2024-10-25_14h10.53.776,WTP_SM_Choice,2022.2.1,Win32,59.88023952,,,,,,,,,,,,,,,,,,70,,,,,,,,,,0.04,2,3.808,0,4,4,4,1,watch new movies with my siblings on Friday nights,bake cookies or cupcakes,0.05,0.04,1.1,0,,,,
,,5e923888c38d4a574e72d716,6685aa9113c938e83b4f1ea0,671bd6ffc9180981c9c10604,2024-10-25_14h10.53.776,WTP_SM_Choice,2022.2.1,Win32,59.88023952,,,,,,,NAN,,NAN,1.89,4.11,,0,69,69,69,1,70,Riley,Rej,Participant_Images/5e923888c38d4a574e72d716/5e923888c38d4a574e72d716_Images/5e923888c38d4a574e72d716_Image_24.jpeg,liked,1.672012706,,,,,,,,,,,,,,,,,,,,,,
,,5e923888c38d4a574e72d716,6685aa9113c938e83b4f1ea0,671bd6ffc9180981c9c10604,2024-10-25_14h10.53.776,WTP_SM_Choice,2022.2.1,Win32,59.88023952,,,,,space,1.9162,NAN,,NAN,1.89,4.11,,0,70,70,70,1,71,Riley,Rej,Participant_Images/5e923888c38d4a574e72d716/5e923888c38d4a574e72d716_Images/5e923888c38d4a574e72d716_Image_16.jpeg,did not like,4.942172136,,,,,,,,,,,,,,,,,,,,,,
,,5e923888c38d4a574e72d716,6685aa9113c938e83b4f1ea0,671bd6ffc9180981c9c10604,2024-10-25_14h10.53.776,WTP_SM_Choice,2022.2.1,Win32,59.88023952,,,,,space,0.4512,NAN,,NAN,1.89,4.11,,0,71,71,71,1,72,Riley,Rej,Participant_Images/5e923888c38d4a574e72d716/5e923888c38d4a574e72d716_Images/5e923888c38d4a574e72d716_Image_15.jpeg,did not like,2.50187214,,,,,,,,,,,,,,,,,,,,,,
,,5e923888c38d4a574e72d716,6685aa9113c938e83b4f1ea0,671bd6ffc9180981c9c10604,2024-10-25_14h10.53.776,WTP_SM_Choice,2022.2.1,Win32,59.88023952,,,,,space,1.5646,NAN,,NAN,1.89,4.11,,0,72,72,72,1,73,Riley,Rej,Participant_Images/5e923888c38d4a574e72d716/5e923888c38d4a574e72d716_Images/5e923888c38d4a574e72d716_Image_17.jpeg,liked,2.071164779,,,,,,,,,,,,,,,,,,,,,,
,,5e923888c38d4a574e72d716,6685aa9113c938e83b4f1ea0,671bd6ffc9180981c9c10604,2024-10-25_14h10.53.776,WTP_SM_Choice,2022.2.1,Win32,59.88023952,,,,,space,1.7307,NAN,,NAN,1.89,4.11,,0,73,73,73,1,74,Riley,Rej,Participant_Images/5e923888c38d4a574e72d716/5e923888c38d4a574e72d716_Images/5e923888c38d4a574e72d716_Image_25.jpeg,did not like,5.336503566,,,,,,,,,,,,,,,,,,,,,,
,,5e923888c38d4a574e72d716,6685aa9113c938e83b4f1ea0,671bd6ffc9180981c9c10604,2024-10-25_14h10.53.776,WTP_SM_Choice,2022.2.1,Win32,59.88023952,,,,,,,,,,,,,,,,,,71,,,,,,space,1.4734,space,1.3972,0.01,1,3.168,0,0,0,0,1,catch up on movies recently released on streaming,play online video games with my sibingls over weekends,0.01,0.05,3.3,1,,,,
,,5e923888c38d4a574e72d716,6685aa9113c938e83b4f1ea0,671bd6ffc9180981c9c10604,2024-10-25_14h10.53.776,WTP_SM_Choice,2022.2.1,Win32,59.88023952,,,,,,,,,,,,,,,,,,72,,,,,,,,,,0.02,1,2.2564,0,1,1,1,1,browse online for outfit inspiration,go to the park everyday with my siblings,0.02,0.05,8.8,1,,,,
,,5e923888c38d4a574e72d716,6685aa9113c938e83b4f1ea0,671bd6ffc9180981c9c10604,2024-10-25_14h10.53.776,WTP_SM_Choice,2022.2.1,Win32,59.88023952,,,,,,,,,,,,,,,,,,73,,,,,,,,,,0.03,1,2.8477,0,2,2,2,1,go to church and then out to eat after with my siblings on Sundays,read a book at the park when it is clear skies or partly cloudy,0.03,0.05,3.3,0,,,,
,,5e923888c38d4a574e72d716,6685aa9113c938e83b4f1ea0,671bd6ffc9180981c9c10604,2024-10-25_14h10.53.776,WTP_SM_Choice,2022.2.1,Win32,59.88023952,,,,,,,,,,,,,,,,,,74,,,,,,,,,,0.05,2,3.8061,0,3,3,3,1,try new foods and restaurants with my sister,cook a pasta bake to have for dinner,0.04,0.05,4.4,0,,,,
,,5e923888c38d4a574e72d716,6685aa9113c938e83b4f1ea0,671bd6ffc9180981c9c10604,2024-10-25_14h10.53.776,WTP_SM_Choice,2022.2.1,Win32,59.88023952,,,,,,,,,,,,,,,,,,75,,,,,,,,,,0.05,1,4.5192,0,4,4,4,1,read a book at the park when it is clear skies or partly cloudy,sketch and draw with my sister at the park,0.05,0.05,3.3,1,,,,
,,5e923888c38d4a574e72d716,6685aa9113c938e83b4f1ea0,671bd6ffc9180981c9c10604,2024-10-25_14h10.53.776,WTP_SM_Choice,2022.2.1,Win32,59.88023952,,,,,,,4,,8,2.05,3.95,,0,74,74,74,1,75,Riley,Rej,Participant_Images/5e923888c38d4a574e72d716/5e923888c38d4a574e72d716_Images/5e923888c38d4a574e72d716_Image_11.jpeg,did not like,2.642157193,,,,,,,,,,,,,,,,,,,space,1.3065,,
,,5e923888c38d4a574e72d716,6685aa9113c938e83b4f1ea0,671bd6ffc9180981c9c10604,2024-10-25_14h10.53.776,WTP_SM_Choice,2022.2.1,Win32,59.88023952,,,space,1.8334,space,1.4842,NAN,,NAN,2.05,3.95,,0,75,75,75,1,76,Alex,Acc,Participant_Images/5e923888c38d4a574e72d716/5e923888c38d4a574e72d716_Images/5e923888c38d4a574e72d716_Image_2.jpeg,did not like,4.456234322,,,,,,,,,,,,,,,,,,,,,,
,,5e923888c38d4a574e72d716,6685aa9113c938e83b4f1ea0,671bd6ffc9180981c9c10604,2024-10-25_14h10.53.776,WTP_SM_Choice,2022.2.1,Win32,59.88023952,,,,,space,1.5809,NAN,,NAN,2.05,3.95,,0,76,76,76,1,77,Alex,Acc,Participant_Images/5e923888c38d4a574e72d716/5e923888c38d4a574e72d716_Images/5e923888c38d4a574e72d716_Image_6.jpeg,liked,4.438512181,,,,,,,,,,,,,,,,,,,,,,
,,5e923888c38d4a574e72d716,6685aa9113c938e83b4f1ea0,671bd6ffc9180981c9c10604,2024-10-25_14h10.53.776,WTP_SM_Choice,2022.2.1,Win32,59.88023952,,,,,space,0.8893,NAN,,NAN,2.05,3.95,,0,77,77,77,1,78,Alex,Acc,Participant_Images/5e923888c38d4a574e72d716/5e923888c38d4a574e72d716_Images/5e923888c38d4a574e72d716_Image_24.jpeg,liked,2.682944783,,,,,,,,,,,,,,,,,,,,,,
,,5e923888c38d4a574e72d716,6685aa9113c938e83b4f1ea0,671bd6ffc9180981c9c10604,2024-10-25_14h10.53.776,WTP_SM_Choice,2022.2.1,Win32,59.88023952,,,,,space,2.9008,NAN,,NAN,2.05,3.95,,0,78,78,78,1,79,Alex,Acc,Participant_Images/5e923888c38d4a574e72d716/5e923888c38d4a574e72d716_Images/5e923888c38d4a574e72d716_Image_21.jpeg,did not like,4.51984296,,,,,,,,,,,,,,,,,,,,,,
,,5e923888c38d4a574e72d716,6685aa9113c938e83b4f1ea0,671bd6ffc9180981c9c10604,2024-10-25_14h10.53.776,WTP_SM_Choice,2022.2.1,Win32,59.88023952,,,,,,,,,,,,,,,,,,76,,,,,,space,3.7688,space,1.1417,0.01,1,8.3504,0,0,0,0,1,try new foods and restaurants with my sister,listen to music while walking around the park,0.01,0.01,1.1,0,,,,
,,5e923888c38d4a574e72d716,6685aa9113c938e83b4f1ea0,671bd6ffc9180981c9c10604,2024-10-25_14h10.53.776,WTP_SM_Choice,2022.2.1,Win32,59.88023952,,,,,,,,,,,,,,,,,,77,,,,,,,,,,0.01,2,2.7073,0,1,1,1,1,shop and thrift with my sister for new seasonal outfits,browse online for outfit inspiration,0.02,0.01,8.8,0,,,,
,,5e923888c38d4a574e72d716,6685aa9113c938e83b4f1ea0,671bd6ffc9180981c9c10604,2024-10-25_14h10.53.776,WTP_SM_Choice,2022.2.1,Win32,59.88023952,,,,,,,,,,,,,,,,,,78,,,,,,,,,,0.03,1,3.5549,0,2,2,2,1,catch up on movies recently released on streaming,get tacos from rosas cafe with my siblings on tuesdays,0.03,0.01,1.1,1,,,,
,,5e923888c38d4a574e72d716,6685aa9113c938e83b4f1ea0,671bd6ffc9180981c9c10604,2024-10-25_14h10.53.776,WTP_SM_Choice,2022.2.1,Win32,59.88023952,,,,,,,,,,,,,,,,,,79,,,,,,,,,,0.01,2,3.578,0,3,3,3,1,re-watch henry danger with my siblings over the weekends,bake cookies or cupcakes,0.04,0.01,1.1,0,,,,
,,5e923888c38d4a574e72d716,6685aa9113c938e83b4f1ea0,671bd6ffc9180981c9c10604,2024-10-25_14h10.53.776,WTP_SM_Choice,2022.2.1,Win32,59.88023952,,,,,,,,,,,,,,,,,,80,,,,,,,,,,0.01,2,4.0322,0,4,4,4,1,browse online for outfit inspiration,re-watch henry danger with my siblings over the weekends,0.05,0.01,4.4,1,,,,
,,5e923888c38d4a574e72d716,6685aa9113c938e83b4f1ea0,671bd6ffc9180981c9c10604,2024-10-25_14h10.53.776,WTP_SM_Choice,2022.2.1,Win32,59.88023952,,,,,,,NAN,,NAN,2.12,3.88,,0,79,79,79,1,80,Alex,Acc,Participant_Images/5e923888c38d4a574e72d716/5e923888c38d4a574e72d716_Images/5e923888c38d4a574e72d716_Image_11.jpeg,did not like,3.195382774,,,,,,,,,,,,,,,,,,,,,,
,,5e923888c38d4a574e72d716,6685aa9113c938e83b4f1ea0,671bd6ffc9180981c9c10604,2024-10-25_14h10.53.776,WTP_SM_Choice,2022.2.1,Win32,59.88023952,,,,,space,3.037,NAN,,NAN,2.12,3.88,,0,80,80,80,1,81,Alex,Acc,Participant_Images/5e923888c38d4a574e72d716/5e923888c38d4a574e72d716_Images/5e923888c38d4a574e72d716_Image_13.jpeg,liked,1.779333479,,,,,,,,,,,,,,,,,,,,,,
,,5e923888c38d4a574e72d716,6685aa9113c938e83b4f1ea0,671bd6ffc9180981c9c10604,2024-10-25_14h10.53.776,WTP_SM_Choice,2022.2.1,Win32,59.88023952,,,,,space,0.9214,NAN,,NAN,2.12,3.88,,0,81,81,81,1,82,Alex,Acc,Participant_Images/5e923888c38d4a574e72d716/5e923888c38d4a574e72d716_Images/5e923888c38d4a574e72d716_Image_15.jpeg,liked,4.312468682,,,,,,,,,,,,,,,,,,,,,,
,,5e923888c38d4a574e72d716,6685aa9113c938e83b4f1ea0,671bd6ffc9180981c9c10604,2024-10-25_14h10.53.776,WTP_SM_Choice,2022.2.1,Win32,59.88023952,,,,,space,1.3379,NAN,,NAN,2.12,3.88,,0,82,82,82,1,83,Alex,Acc,Participant_Images/5e923888c38d4a574e72d716/5e923888c38d4a574e72d716_Images/5e923888c38d4a574e72d716_Image_22.jpeg,did not like,4.940433059,,,,,,,,,,,,,,,,,,,,,,
,,5e923888c38d4a574e72d716,6685aa9113c938e83b4f1ea0,671bd6ffc9180981c9c10604,2024-10-25_14h10.53.776,WTP_SM_Choice,2022.2.1,Win32,59.88023952,,,,,space,1.4899,NAN,,NAN,2.12,3.88,,0,83,83,83,1,84,Alex,Acc,Participant_Images/5e923888c38d4a574e72d716/5e923888c38d4a574e72d716_Images/5e923888c38d4a574e72d716_Image_19.jpeg,did not like,2.7105123,,,,,,,,,,,,,,,,,,,,,,
,,5e923888c38d4a574e72d716,6685aa9113c938e83b4f1ea0,671bd6ffc9180981c9c10604,2024-10-25_14h10.53.776,WTP_SM_Choice,2022.2.1,Win32,59.88023952,,,,,,,,,,,,,,,,,,81,,,,,,space,5.4462,space,7.4321,0.01,1,2.5213,0,0,0,0,1,browse online for outfit inspiration,try new foods and restaurants with my sister,0.01,0.02,3.3,1,,,,
,,5e923888c38d4a574e72d716,6685aa9113c938e83b4f1ea0,671bd6ffc9180981c9c10604,2024-10-25_14h10.53.776,WTP_SM_Choice,2022.2.1,Win32,59.88023952,,,,,,,,,,,,,,,,,,82,,,,,,,,,,0.02,2,3.5981,0,1,1,1,1,play online video games with my sibingls over weekends,bake cookies or cupcakes,0.02,0.02,4.4,0,,,,
,,5e923888c38d4a574e72d716,6685aa9113c938e83b4f1ea0,671bd6ffc9180981c9c10604,2024-10-25_14h10.53.776,WTP_SM_Choice,2022.2.1,Win32,59.88023952,,,,,,,,,,,,,,,,,,83,,,,,,,,,,0.02,2,2.1729,0,2,2,2,1,re-watch henry danger with my siblings over the weekends,cook a pasta bake to have for dinner,0.03,0.02,1.1,0,,,,
,,5e923888c38d4a574e72d716,6685aa9113c938e83b4f1ea0,671bd6ffc9180981c9c10604,2024-10-25_14h10.53.776,WTP_SM_Choice,2022.2.1,Win32,59.88023952,,,,,,,,,,,,,,,,,,84,,,,,,,,,,0.02,2,4.439,0,3,3,3,1,watch new movies with my siblings on Friday nights,go to the library and browsing the newly added books section,0.04,0.02,3.3,0,,,,
,,5e923888c38d4a574e72d716,6685aa9113c938e83b4f1ea0,671bd6ffc9180981c9c10604,2024-10-25_14h10.53.776,WTP_SM_Choice,2022.2.1,Win32,59.88023952,,,,,,,,,,,,,,,,,,85,,,,,,,,,,0.02,2,2.4491,0,4,4,4,1,shop and thrift with my sister for new seasonal outfits,read a book at the park when it is clear skies or partly cloudy,0.05,0.02,3.3,0,,,,
,,5e923888c38d4a574e72d716,6685aa9113c938e83b4f1ea0,671bd6ffc9180981c9c10604,2024-10-25_14h10.53.776,WTP_SM_Choice,2022.2.1,Win32,59.88023952,,,,,,,NAN,,NAN,2.21,3.79,,0,84,84,84,1,85,Alex,Acc,Participant_Images/5e923888c38d4a574e72d716/5e923888c38d4a574e72d716_Images/5e923888c38d4a574e72d716_Image_14.jpeg,liked,3.602308302,,,,,,,,,,,,,,,,,,,,,,
,,5e923888c38d4a574e72d716,6685aa9113c938e83b4f1ea0,671bd6ffc9180981c9c10604,2024-10-25_14h10.53.776,WTP_SM_Choice,2022.2.1,Win32,59.88023952,,,,,space,0.652,NAN,,NAN,2.21,3.79,,0,85,85,85,1,86,Alex,Acc,Participant_Images/5e923888c38d4a574e72d716/5e923888c38d4a574e72d716_Images/5e923888c38d4a574e72d716_Image_3.jpeg,liked,4.106391878,,,,,,,,,,,,,,,,,,,,,,
,,5e923888c38d4a574e72d716,6685aa9113c938e83b4f1ea0,671bd6ffc9180981c9c10604,2024-10-25_14h10.53.776,WTP_SM_Choice,2022.2.1,Win32,59.88023952,,,,,space,1.0994,NAN,,NAN,2.21,3.79,,0,86,86,86,1,87,Alex,Acc,Participant_Images/5e923888c38d4a574e72d716/5e923888c38d4a574e72d716_Images/5e923888c38d4a574e72d716_Image_16.jpeg,liked,3.799433026,,,,,,,,,,,,,,,,,,,,,,
,,5e923888c38d4a574e72d716,6685aa9113c938e83b4f1ea0,671bd6ffc9180981c9c10604,2024-10-25_14h10.53.776,WTP_SM_Choice,2022.2.1,Win32,59.88023952,,,,,space,0.7839,NAN,,NAN,2.21,3.79,,0,87,87,87,1,88,Alex,Acc,Participant_Images/5e923888c38d4a574e72d716/5e923888c38d4a574e72d716_Images/5e923888c38d4a574e72d716_Image_9.jpeg,liked,5.246980764,,,,,,,,,,,,,,,,,,,,,,
,,5e923888c38d4a574e72d716,6685aa9113c938e83b4f1ea0,671bd6ffc9180981c9c10604,2024-10-25_14h10.53.776,WTP_SM_Choice,2022.2.1,Win32,59.88023952,,,,,space,2.8215,NAN,,NAN,2.21,3.79,,0,88,88,88,1,89,Alex,Acc,Participant_Images/5e923888c38d4a574e72d716/5e923888c38d4a574e72d716_Images/5e923888c38d4a574e72d716_Image_7.jpeg,liked,3.30081769,,,,,,,,,,,,,,,,,,,,,,
,,5e923888c38d4a574e72d716,6685aa9113c938e83b4f1ea0,671bd6ffc9180981c9c10604,2024-10-25_14h10.53.776,WTP_SM_Choice,2022.2.1,Win32,59.88023952,,,,,,,,,,,,,,,,,,86,,,,,,space,1.5301,space,1.6006,0.01,1,2.4843,0,0,0,0,1,go through my closet and coming up with fun outfits,play online video games with my sibingls over weekends,0.01,0.03,1.1,1,,,,
,,5e923888c38d4a574e72d716,6685aa9113c938e83b4f1ea0,671bd6ffc9180981c9c10604,2024-10-25_14h10.53.776,WTP_SM_Choice,2022.2.1,Win32,59.88023952,,,,,,,,,,,,,,,,,,87,,,,,,,,,,0.02,1,2.3145,0,1,1,1,1,try new foods and restaurants with my sister,catch up on movies recently released on streaming,0.02,0.03,4.4,0,,,,
,,5e923888c38d4a574e72d716,6685aa9113c938e83b4f1ea0,671bd6ffc9180981c9c10604,2024-10-25_14h10.53.776,WTP_SM_Choice,2022.2.1,Win32,59.88023952,,,,,,,,,,,,,,,,,,88,,,,,,,,,,0.03,1,2.6216,0,2,2,2,1,cook a pasta bake to have for dinner,go to build a bear with my sister to pick out new plushies on our birthdays,0.03,0.03,1.1,1,,,,
,,5e923888c38d4a574e72d716,6685aa9113c938e83b4f1ea0,671bd6ffc9180981c9c10604,2024-10-25_14h10.53.776,WTP_SM_Choice,2022.2.1,Win32,59.88023952,,,,,,,,,,,,,,,,,,89,,,,,,,,,,0.04,1,2.5329,0,3,3,3,1,catch up on anime series that i have yet to finish,go to the park everyday with my siblings,0.04,0.03,3.3,1,,,,
,,5e923888c38d4a574e72d716,6685aa9113c938e83b4f1ea0,671bd6ffc9180981c9c10604,2024-10-25_14h10.53.776,WTP_SM_Choice,2022.2.1,Win32,59.88023952,,,,,,,,,,,,,,,,,,90,,,,,,,,,,0.03,2,3.5159,0,4,4,4,1,go to the park everyday with my siblings,listen to music while walking around the park,0.05,0.03,8.8,0,,,,
,,5e923888c38d4a574e72d716,6685aa9113c938e83b4f1ea0,671bd6ffc9180981c9c10604,2024-10-25_14h10.53.776,WTP_SM_Choice,2022.2.1,Win32,59.88023952,,,,,,,NAN,,NAN,2.34,3.66,,0,89,89,89,1,90,Alex,Acc,Participant_Images/5e923888c38d4a574e72d716/5e923888c38d4a574e72d716_Images/5e923888c38d4a574e72d716_Image_25.jpeg,liked,1.661473164,,,,,,,,,,,,,,,,,,,,,,
,,5e923888c38d4a574e72d716,6685aa9113c938e83b4f1ea0,671bd6ffc9180981c9c10604,2024-10-25_14h10.53.776,WTP_SM_Choice,2022.2.1,Win32,59.88023952,,,,,space,2.117,NAN,,NAN,2.34,3.66,,0,90,90,90,1,91,Alex,Acc,Participant_Images/5e923888c38d4a574e72d716/5e923888c38d4a574e72d716_Images/5e923888c38d4a574e72d716_Image_4.jpeg,liked,3.613205605,,,,,,,,,,,,,,,,,,,,,,
,,5e923888c38d4a574e72d716,6685aa9113c938e83b4f1ea0,671bd6ffc9180981c9c10604,2024-10-25_14h10.53.776,WTP_SM_Choice,2022.2.1,Win32,59.88023952,,,,,space,3.9849,NAN,,NAN,2.34,3.66,,0,91,91,91,1,92,Alex,Acc,Participant_Images/5e923888c38d4a574e72d716/5e923888c38d4a574e72d716_Images/5e923888c38d4a574e72d716_Image_17.jpeg,liked,4.988446431,,,,,,,,,,,,,,,,,,,,,,
,,5e923888c38d4a574e72d716,6685aa9113c938e83b4f1ea0,671bd6ffc9180981c9c10604,2024-10-25_14h10.53.776,WTP_SM_Choice,2022.2.1,Win32,59.88023952,,,,,space,1.3354,NAN,,NAN,2.34,3.66,,0,92,92,92,1,93,Alex,Acc,Participant_Images/5e923888c38d4a574e72d716/5e923888c38d4a574e72d716_Images/5e923888c38d4a574e72d716_Image_8.jpeg,liked,3.470791822,,,,,,,,,,,,,,,,,,,,,,
,,5e923888c38d4a574e72d716,6685aa9113c938e83b4f1ea0,671bd6ffc9180981c9c10604,2024-10-25_14h10.53.776,WTP_SM_Choice,2022.2.1,Win32,59.88023952,,,,,space,0.4184,NAN,,NAN,2.34,3.66,,0,93,93,93,1,94,Alex,Acc,Participant_Images/5e923888c38d4a574e72d716/5e923888c38d4a574e72d716_Images/5e923888c38d4a574e72d716_Image_1.jpeg,liked,3.820572462,,,,,,,,,,,,,,,,,,,,,,
,,5e923888c38d4a574e72d716,6685aa9113c938e83b4f1ea0,671bd6ffc9180981c9c10604,2024-10-25_14h10.53.776,WTP_SM_Choice,2022.2.1,Win32,59.88023952,,,,,,,,,,,,,,,,,,91,,,,,,space,1.633,space,1.5188,0.01,1,6.2376,0,0,0,0,1,sketch and draw with my sister at the park,watch spongebob episodes before bed,0.01,0.04,3.3,0,,,,
,,5e923888c38d4a574e72d716,6685aa9113c938e83b4f1ea0,671bd6ffc9180981c9c10604,2024-10-25_14h10.53.776,WTP_SM_Choice,2022.2.1,Win32,59.88023952,,,,,,,,,,,,,,,,,,92,,,,,,,,,,0.04,2,2.8959,0,1,1,1,1,shop and thrift with my sister for new seasonal outfits,go through my closet and coming up with fun outfits,0.02,0.04,8.8,0,,,,
,,5e923888c38d4a574e72d716,6685aa9113c938e83b4f1ea0,671bd6ffc9180981c9c10604,2024-10-25_14h10.53.776,WTP_SM_Choice,2022.2.1,Win32,59.88023952,,,,,,,,,,,,,,,,,,93,,,,,,,,,,0.04,2,2.658,0,2,2,2,1,go to the park everyday with my siblings,read a book at the park when it is clear skies or partly cloudy,0.03,0.04,1.1,0,,,,
,,5e923888c38d4a574e72d716,6685aa9113c938e83b4f1ea0,671bd6ffc9180981c9c10604,2024-10-25_14h10.53.776,WTP_SM_Choice,2022.2.1,Win32,59.88023952,,,,,,,,,,,,,,,,,,94,,,,,,,,,,0.04,2,2.1817,0,3,3,3,1,re-watch henry danger with my siblings over the weekends,catch up on anime series that i have yet to finish,0.04,0.04,4.4,0,,,,
,,5e923888c38d4a574e72d716,6685aa9113c938e83b4f1ea0,671bd6ffc9180981c9c10604,2024-10-25_14h10.53.776,WTP_SM_Choice,2022.2.1,Win32,59.88023952,,,,,,,,,,,,,,,,,,95,,,,,,,,,,0.05,1,2.6194,0,4,4,4,1,listen to music while walking around the park,play online video games with my sibingls over weekends,0.05,0.04,4.4,1,,,,
,,5e923888c38d4a574e72d716,6685aa9113c938e83b4f1ea0,671bd6ffc9180981c9c10604,2024-10-25_14h10.53.776,WTP_SM_Choice,2022.2.1,Win32,59.88023952,,,,,,,NAN,,NAN,2.52,3.48,,0,94,94,94,1,95,Alex,Acc,Participant_Images/5e923888c38d4a574e72d716/5e923888c38d4a574e72d716_Images/5e923888c38d4a574e72d716_Image_20.jpeg,did not like,2.455989137,,,,,,,,,,,,,,,,,,,,,,
,,5e923888c38d4a574e72d716,6685aa9113c938e83b4f1ea0,671bd6ffc9180981c9c10604,2024-10-25_14h10.53.776,WTP_SM_Choice,2022.2.1,Win32,59.88023952,,,,,space,1.4499,NAN,,NAN,2.52,3.48,,0,95,95,95,1,96,Alex,Acc,Participant_Images/5e923888c38d4a574e72d716/5e923888c38d4a574e72d716_Images/5e923888c38d4a574e72d716_Image_23.jpeg,did not like,3.79605092,,,,,,,,,,,,,,,,,,,,,,
,,5e923888c38d4a574e72d716,6685aa9113c938e83b4f1ea0,671bd6ffc9180981c9c10604,2024-10-25_14h10.53.776,WTP_SM_Choice,2022.2.1,Win32,59.88023952,,,,,space,1.7534,NAN,,NAN,2.52,3.48,,0,96,96,96,1,97,Alex,Acc,Participant_Images/5e923888c38d4a574e72d716/5e923888c38d4a574e72d716_Images/5e923888c38d4a574e72d716_Image_18.jpeg,liked,3.562416326,,,,,,,,,,,,,,,,,,,,,,
,,5e923888c38d4a574e72d716,6685aa9113c938e83b4f1ea0,671bd6ffc9180981c9c10604,2024-10-25_14h10.53.776,WTP_SM_Choice,2022.2.1,Win32,59.88023952,,,,,space,1.6738,NAN,,NAN,2.52,3.48,,0,97,97,97,1,98,Alex,Acc,Participant_Images/5e923888c38d4a574e72d716/5e923888c38d4a574e72d716_Images/5e923888c38d4a574e72d716_Image_12.jpeg,liked,2.843822497,,,,,,,,,,,,,,,,,,,,,,
,,5e923888c38d4a574e72d716,6685aa9113c938e83b4f1ea0,671bd6ffc9180981c9c10604,2024-10-25_14h10.53.776,WTP_SM_Choice,2022.2.1,Win32,59.88023952,,,,,space,1.7167,NAN,,NAN,2.52,3.48,,0,98,98,98,1,99,Alex,Acc,Participant_Images/5e923888c38d4a574e72d716/5e923888c38d4a574e72d716_Images/5e923888c38d4a574e72d716_Image_5.jpeg,liked,3.546495948,,,,,,,,,,,,,,,,,,,,,,
,,5e923888c38d4a574e72d716,6685aa9113c938e83b4f1ea0,671bd6ffc9180981c9c10604,2024-10-25_14h10.53.776,WTP_SM_Choice,2022.2.1,Win32,59.88023952,,,,,,,,,,,,,,,,,,96,,,,,,space,3.8061,space,1.4067,0.01,1,2.8044,0,0,0,0,1,watch spongebob episodes before bed,watch new movies with my siblings on Friday nights,0.01,0.05,3.3,1,,,,
,,5e923888c38d4a574e72d716,6685aa9113c938e83b4f1ea0,671bd6ffc9180981c9c10604,2024-10-25_14h10.53.776,WTP_SM_Choice,2022.2.1,Win32,59.88023952,,,,,,,,,,,,,,,,,,97,,,,,,,,,,0.05,2,3.4675,0,1,1,1,1,catch up on movies recently released on streaming,go to church and then out to eat after with my siblings on Sundays,0.02,0.05,1.1,1,,,,
,,5e923888c38d4a574e72d716,6685aa9113c938e83b4f1ea0,671bd6ffc9180981c9c10604,2024-10-25_14h10.53.776,WTP_SM_Choice,2022.2.1,Win32,59.88023952,,,,,,,,,,,,,,,,,,98,,,,,,,,,,0.03,1,3.3056,0,2,2,2,1,play online video games with my sibingls over weekends,go to the library and browsing the newly added books section,0.03,0.05,1.1,0,,,,
,,5e923888c38d4a574e72d716,6685aa9113c938e83b4f1ea0,671bd6ffc9180981c9c10604,2024-10-25_14h10.53.776,WTP_SM_Choice,2022.2.1,Win32,59.88023952,,,,,,,,,,,,,,,,,,99,,,,,,,,,,0.05,2,3.5997,0,3,3,3,1,try new foods and restaurants with my sister,read a book at the park when it is clear skies or partly cloudy,0.04,0.05,3.3,0,,,,
,,5e923888c38d4a574e72d716,6685aa9113c938e83b4f1ea0,671bd6ffc9180981c9c10604,2024-10-25_14h10.53.776,WTP_SM_Choice,2022.2.1,Win32,59.88023952,,,,,,,,,,,,,,,,,,100,,,,,,,,,,0.05,1,2.099,0,4,4,4,1,bake cookies or cupcakes,go to build a bear with my sister to pick out new plushies on our birthdays,0.05,0.05,4.4,1,,,,
,,5e923888c38d4a574e72d716,6685aa9113c938e83b4f1ea0,671bd6ffc9180981c9c10604,2024-10-25_14h10.53.776,WTP_SM_Choice,2022.2.1,Win32,59.88023952,,,,,,,4,,8,2.71,3.29,,0,99,99,99,1,100,Alex,Acc,Participant_Images/5e923888c38d4a574e72d716/5e923888c38d4a574e72d716_Images/5e923888c38d4a574e72d716_Image_10.jpeg,liked,1.672012706,,,,,,,,,,,,,,,,,,,space,0.9594,,
,,5e923888c38d4a574e72d716,6685aa9113c938e83b4f1ea0,671bd6ffc9180981c9c10604,2024-10-25_14h10.53.776,WTP_SM_Choice,2022.2.1,Win32,59.88023952,,,,,,,,,,,,,,,,,,,,,,,,,,,,,,,,,,,,,,,,,,,,space,4.0518
