endwelcomescreen_keys.keys,endwelcomescreen_keys.rt,participant,STUDY_ID,SESSION_ID,date,expName,psychopyVersion,OS,frameRate,endinstructionscreen_keys.keys,endinstructionscreen_keys.rt,endpartnermatch_keys.keys,endpartnermatch_keys.rt,sharenextphoto_key.keys,sharenextphoto_key.rt,salience_rating,key_resp.keys,stress_level,subtract_bonus,TOTAL_TASK_BONUS,stresslevel_keypress.keys,entiretaskloop.thisRepN,entiretaskloop.thisTrialN,entiretaskloop.thisN,entiretaskloop.thisIndex,entiretaskloop.ran,TrialNumber,Partner,Condition,Photos,Feedback,FeedbackWait,WTP_ins_keys1.keys,WTP_ins_keys1.rt,WTP_ins_keys2.keys,WTP_ins_keys2.rt,decision_price,responses.keys,responses.rt,WTPTaskLoop.thisRepN,WTPTaskLoop.thisTrialN,WTPTaskLoop.thisN,WTPTaskLoop.thisIndex,WTPTaskLoop.ran,right,left,leftmoney,rightmoney,WTP_ITI,social_left,Resume_keys.keys,Resume_keys.rt,end_screen_keys.keys,end_screen_keys.rt
space,1.7531,5efe8c25e921d23a9daec079,6685aa9113c938e83b4f1ea0,67158a63798cd468879bae8b,2024-10-20_19h00.59.402,WTP_SM_Choice,2022.2.1,Win32,59.88023952,,,,,,,,,,,,,,,,,,,,,,,,,,,,,,,,,,,,,,,,,,,,,
,,5efe8c25e921d23a9daec079,6685aa9113c938e83b4f1ea0,67158a63798cd468879bae8b,2024-10-20_19h00.59.402,WTP_SM_Choice,2022.2.1,Win32,59.88023952,space,12.4163,,,,,,,,,,,,,,,,,,,,,,,,,,,,,,,,,,,,,,,,,,,
,,5efe8c25e921d23a9daec079,6685aa9113c938e83b4f1ea0,67158a63798cd468879bae8b,2024-10-20_19h00.59.402,WTP_SM_Choice,2022.2.1,Win32,59.88023952,,,space,2.6335,space,2.0501,NAN,,NAN,0,6,,0,0,0,0,1,1,Sam,Rej,Participant_Images/5efe8c25e921d23a9daec079/5efe8c25e921d23a9daec079_Images/5efe8c25e921d23a9daec079_Image_20.jpeg,did not like,3.613205605,,,,,,,,,,,,,,,,,,,,,,
,,5efe8c25e921d23a9daec079,6685aa9113c938e83b4f1ea0,67158a63798cd468879bae8b,2024-10-20_19h00.59.402,WTP_SM_Choice,2022.2.1,Win32,59.88023952,,,,,space,4.5517,NAN,,NAN,0,6,,0,1,1,1,1,2,Sam,Rej,Participant_Images/5efe8c25e921d23a9daec079/5efe8c25e921d23a9daec079_Images/5efe8c25e921d23a9daec079_Image_19.jpeg,did not like,4.988446431,,,,,,,,,,,,,,,,,,,,,,
,,5efe8c25e921d23a9daec079,6685aa9113c938e83b4f1ea0,67158a63798cd468879bae8b,2024-10-20_19h00.59.402,WTP_SM_Choice,2022.2.1,Win32,59.88023952,,,,,space,2.6089,NAN,,NAN,0,6,,0,2,2,2,1,3,Sam,Rej,Participant_Images/5efe8c25e921d23a9daec079/5efe8c25e921d23a9daec079_Images/5efe8c25e921d23a9daec079_Image_10.jpeg,did not like,3.470791822,,,,,,,,,,,,,,,,,,,,,,
,,5efe8c25e921d23a9daec079,6685aa9113c938e83b4f1ea0,67158a63798cd468879bae8b,2024-10-20_19h00.59.402,WTP_SM_Choice,2022.2.1,Win32,59.88023952,,,,,space,1.3057,NAN,,NAN,0,6,,0,3,3,3,1,4,Sam,Rej,Participant_Images/5efe8c25e921d23a9daec079/5efe8c25e921d23a9daec079_Images/5efe8c25e921d23a9daec079_Image_16.jpeg,did not like,3.820572462,,,,,,,,,,,,,,,,,,,,,,
,,5efe8c25e921d23a9daec079,6685aa9113c938e83b4f1ea0,67158a63798cd468879bae8b,2024-10-20_19h00.59.402,WTP_SM_Choice,2022.2.1,Win32,59.88023952,,,,,,,,,,,,,,,,,,1,,,,,,space,8.5394,space,0.0689,0.01,1,4.3835,0,0,0,0,1,walk around the park with friends,walk in the park ,0.01,0.01,4.4,0,,,,
,,5efe8c25e921d23a9daec079,6685aa9113c938e83b4f1ea0,67158a63798cd468879bae8b,2024-10-20_19h00.59.402,WTP_SM_Choice,2022.2.1,Win32,59.88023952,,,,,,,,,,,,,,,,,,2,,,,,,,,,,0.01,2,6.9742,0,1,1,1,1,sit out & see the stars with my best friend,enjoy sewing,0.02,0.01,8.8,0,,,,
,,5efe8c25e921d23a9daec079,6685aa9113c938e83b4f1ea0,67158a63798cd468879bae8b,2024-10-20_19h00.59.402,WTP_SM_Choice,2022.2.1,Win32,59.88023952,,,,,,,,,,,,,,,,,,3,,,,,,,,,,0.01,2,5.8059,0,2,2,2,1,make food with my family,enjoy sewing,0.03,0.01,3.3,0,,,,
,,5efe8c25e921d23a9daec079,6685aa9113c938e83b4f1ea0,67158a63798cd468879bae8b,2024-10-20_19h00.59.402,WTP_SM_Choice,2022.2.1,Win32,59.88023952,,,,,,,,,,,,,,,,,,4,,,,,,,,,,0.04,1,4.7439,0,3,3,3,1,workout at the gym with my best friend,long baths to relax myself ,0.04,0.01,1.1,0,,,,
,,5efe8c25e921d23a9daec079,6685aa9113c938e83b4f1ea0,67158a63798cd468879bae8b,2024-10-20_19h00.59.402,WTP_SM_Choice,2022.2.1,Win32,59.88023952,,,,,,,,,,,,,,,,,,5,,,,,,,,,,0.01,2,4.3931,0,4,4,4,1,go to the spa with my cousins,watch history documentaries ,0.05,0.01,1.1,0,,,,
,,5efe8c25e921d23a9daec079,6685aa9113c938e83b4f1ea0,67158a63798cd468879bae8b,2024-10-20_19h00.59.402,WTP_SM_Choice,2022.2.1,Win32,59.88023952,,,,,,,NAN,,NAN,0.08,5.92,,0,4,4,4,1,5,Sam,Rej,Participant_Images/5efe8c25e921d23a9daec079/5efe8c25e921d23a9daec079_Images/5efe8c25e921d23a9daec079_Image_1.jpeg,liked,2.455989137,,,,,,,,,,,,,,,,,,,,,,
,,5efe8c25e921d23a9daec079,6685aa9113c938e83b4f1ea0,67158a63798cd468879bae8b,2024-10-20_19h00.59.402,WTP_SM_Choice,2022.2.1,Win32,59.88023952,,,,,space,2.5002,NAN,,NAN,0.08,5.92,,0,5,5,5,1,6,Sam,Rej,Participant_Images/5efe8c25e921d23a9daec079/5efe8c25e921d23a9daec079_Images/5efe8c25e921d23a9daec079_Image_14.jpeg,did not like,3.79605092,,,,,,,,,,,,,,,,,,,,,,
,,5efe8c25e921d23a9daec079,6685aa9113c938e83b4f1ea0,67158a63798cd468879bae8b,2024-10-20_19h00.59.402,WTP_SM_Choice,2022.2.1,Win32,59.88023952,,,,,space,4.4698,NAN,,NAN,0.08,5.92,,0,6,6,6,1,7,Sam,Rej,Participant_Images/5efe8c25e921d23a9daec079/5efe8c25e921d23a9daec079_Images/5efe8c25e921d23a9daec079_Image_21.jpeg,did not like,3.562416326,,,,,,,,,,,,,,,,,,,,,,
,,5efe8c25e921d23a9daec079,6685aa9113c938e83b4f1ea0,67158a63798cd468879bae8b,2024-10-20_19h00.59.402,WTP_SM_Choice,2022.2.1,Win32,59.88023952,,,,,space,0.9346,NAN,,NAN,0.08,5.92,,0,7,7,7,1,8,Sam,Rej,Participant_Images/5efe8c25e921d23a9daec079/5efe8c25e921d23a9daec079_Images/5efe8c25e921d23a9daec079_Image_8.jpeg,liked,2.843822497,,,,,,,,,,,,,,,,,,,,,,
,,5efe8c25e921d23a9daec079,6685aa9113c938e83b4f1ea0,67158a63798cd468879bae8b,2024-10-20_19h00.59.402,WTP_SM_Choice,2022.2.1,Win32,59.88023952,,,,,space,2.3044,NAN,,NAN,0.08,5.92,,0,8,8,8,1,9,Sam,Rej,Participant_Images/5efe8c25e921d23a9daec079/5efe8c25e921d23a9daec079_Images/5efe8c25e921d23a9daec079_Image_9.jpeg,did not like,3.546495948,,,,,,,,,,,,,,,,,,,,,,
,,5efe8c25e921d23a9daec079,6685aa9113c938e83b4f1ea0,67158a63798cd468879bae8b,2024-10-20_19h00.59.402,WTP_SM_Choice,2022.2.1,Win32,59.88023952,,,,,,,,,,,,,,,,,,6,,,,,,space,1.7571,space,8.2505,0.01,1,4.764,0,0,0,0,1,make videos  ,make food with my family,0.01,0.02,3.3,1,,,,
,,5efe8c25e921d23a9daec079,6685aa9113c938e83b4f1ea0,67158a63798cd468879bae8b,2024-10-20_19h00.59.402,WTP_SM_Choice,2022.2.1,Win32,59.88023952,,,,,,,,,,,,,,,,,,7,,,,,,,,,,0.02,1,4.1562,0,1,1,1,1,walk in the park ,go to the spa with my cousins,0.02,0.02,1.1,1,,,,
,,5efe8c25e921d23a9daec079,6685aa9113c938e83b4f1ea0,67158a63798cd468879bae8b,2024-10-20_19h00.59.402,WTP_SM_Choice,2022.2.1,Win32,59.88023952,,,,,,,,,,,,,,,,,,8,,,,,,,,,,0.02,2,5.2233,0,2,2,2,1,sit out & see the stars with my best friend,window watch sometimes,0.03,0.02,1.1,0,,,,
,,5efe8c25e921d23a9daec079,6685aa9113c938e83b4f1ea0,67158a63798cd468879bae8b,2024-10-20_19h00.59.402,WTP_SM_Choice,2022.2.1,Win32,59.88023952,,,,,,,,,,,,,,,,,,9,,,,,,,,,,0.04,1,4.7337,0,3,3,3,1,listen to music,go shopping at the mall with my mom,0.04,0.02,4.4,1,,,,
,,5efe8c25e921d23a9daec079,6685aa9113c938e83b4f1ea0,67158a63798cd468879bae8b,2024-10-20_19h00.59.402,WTP_SM_Choice,2022.2.1,Win32,59.88023952,,,,,,,,,,,,,,,,,,10,,,,,,,,,,0.05,1,3.9005,0,4,4,4,1,read books,hang out at home with friends ,0.05,0.02,1.1,1,,,,
,,5efe8c25e921d23a9daec079,6685aa9113c938e83b4f1ea0,67158a63798cd468879bae8b,2024-10-20_19h00.59.402,WTP_SM_Choice,2022.2.1,Win32,59.88023952,,,,,,,NAN,,NAN,0.22,5.78,,0,9,9,9,1,10,Sam,Rej,Participant_Images/5efe8c25e921d23a9daec079/5efe8c25e921d23a9daec079_Images/5efe8c25e921d23a9daec079_Image_2.jpeg,did not like,1.672012706,,,,,,,,,,,,,,,,,,,,,,
,,5efe8c25e921d23a9daec079,6685aa9113c938e83b4f1ea0,67158a63798cd468879bae8b,2024-10-20_19h00.59.402,WTP_SM_Choice,2022.2.1,Win32,59.88023952,,,,,space,1.7925,NAN,,NAN,0.22,5.78,,0,10,10,10,1,11,Sam,Rej,Participant_Images/5efe8c25e921d23a9daec079/5efe8c25e921d23a9daec079_Images/5efe8c25e921d23a9daec079_Image_23.jpeg,liked,4.942172136,,,,,,,,,,,,,,,,,,,,,,
,,5efe8c25e921d23a9daec079,6685aa9113c938e83b4f1ea0,67158a63798cd468879bae8b,2024-10-20_19h00.59.402,WTP_SM_Choice,2022.2.1,Win32,59.88023952,,,,,space,1.4243,NAN,,NAN,0.22,5.78,,0,11,11,11,1,12,Sam,Rej,Participant_Images/5efe8c25e921d23a9daec079/5efe8c25e921d23a9daec079_Images/5efe8c25e921d23a9daec079_Image_17.jpeg,did not like,2.50187214,,,,,,,,,,,,,,,,,,,,,,
,,5efe8c25e921d23a9daec079,6685aa9113c938e83b4f1ea0,67158a63798cd468879bae8b,2024-10-20_19h00.59.402,WTP_SM_Choice,2022.2.1,Win32,59.88023952,,,,,space,0.8693,NAN,,NAN,0.22,5.78,,0,12,12,12,1,13,Sam,Rej,Participant_Images/5efe8c25e921d23a9daec079/5efe8c25e921d23a9daec079_Images/5efe8c25e921d23a9daec079_Image_18.jpeg,liked,2.071164779,,,,,,,,,,,,,,,,,,,,,,
,,5efe8c25e921d23a9daec079,6685aa9113c938e83b4f1ea0,67158a63798cd468879bae8b,2024-10-20_19h00.59.402,WTP_SM_Choice,2022.2.1,Win32,59.88023952,,,,,space,1.935,NAN,,NAN,0.22,5.78,,0,13,13,13,1,14,Sam,Rej,Participant_Images/5efe8c25e921d23a9daec079/5efe8c25e921d23a9daec079_Images/5efe8c25e921d23a9daec079_Image_5.jpeg,did not like,5.336503566,,,,,,,,,,,,,,,,,,,,,,
,,5efe8c25e921d23a9daec079,6685aa9113c938e83b4f1ea0,67158a63798cd468879bae8b,2024-10-20_19h00.59.402,WTP_SM_Choice,2022.2.1,Win32,59.88023952,,,,,,,,,,,,,,,,,,11,,,,,,space,2.3345,space,1.7848,0.03,2,3.4641,0,0,0,0,1,hang out at home with friends ,enjoy sewing,0.01,0.03,3.3,0,,,,
,,5efe8c25e921d23a9daec079,6685aa9113c938e83b4f1ea0,67158a63798cd468879bae8b,2024-10-20_19h00.59.402,WTP_SM_Choice,2022.2.1,Win32,59.88023952,,,,,,,,,,,,,,,,,,12,,,,,,,,,,0.02,1,4.7494,0,1,1,1,1,enjoy sewing,go to the spa with my cousins,0.02,0.03,4.4,1,,,,
,,5efe8c25e921d23a9daec079,6685aa9113c938e83b4f1ea0,67158a63798cd468879bae8b,2024-10-20_19h00.59.402,WTP_SM_Choice,2022.2.1,Win32,59.88023952,,,,,,,,,,,,,,,,,,13,,,,,,,,,,0.03,2,4.9024,0,2,2,2,1,hang out at home with friends ,make videos  ,0.03,0.03,1.1,0,,,,
,,5efe8c25e921d23a9daec079,6685aa9113c938e83b4f1ea0,67158a63798cd468879bae8b,2024-10-20_19h00.59.402,WTP_SM_Choice,2022.2.1,Win32,59.88023952,,,,,,,,,,,,,,,,,,14,,,,,,,,,,0.04,1,4.6726,0,3,3,3,1,play sims 4 on my laptop ,sit out & see the stars with my best friend,0.04,0.03,3.3,1,,,,
,,5efe8c25e921d23a9daec079,6685aa9113c938e83b4f1ea0,67158a63798cd468879bae8b,2024-10-20_19h00.59.402,WTP_SM_Choice,2022.2.1,Win32,59.88023952,,,,,,,,,,,,,,,,,,15,,,,,,,,,,0.05,1,4.1726,0,4,4,4,1,read books,go to the beach with my partner,0.05,0.03,4.4,1,,,,
,,5efe8c25e921d23a9daec079,6685aa9113c938e83b4f1ea0,67158a63798cd468879bae8b,2024-10-20_19h00.59.402,WTP_SM_Choice,2022.2.1,Win32,59.88023952,,,,,,,NAN,,NAN,0.39,5.61,,0,14,14,14,1,15,Sam,Rej,Participant_Images/5efe8c25e921d23a9daec079/5efe8c25e921d23a9daec079_Images/5efe8c25e921d23a9daec079_Image_22.jpeg,did not like,2.642157193,,,,,,,,,,,,,,,,,,,,,,
,,5efe8c25e921d23a9daec079,6685aa9113c938e83b4f1ea0,67158a63798cd468879bae8b,2024-10-20_19h00.59.402,WTP_SM_Choice,2022.2.1,Win32,59.88023952,,,,,space,2.2017,NAN,,NAN,0.39,5.61,,0,15,15,15,1,16,Sam,Rej,Participant_Images/5efe8c25e921d23a9daec079/5efe8c25e921d23a9daec079_Images/5efe8c25e921d23a9daec079_Image_11.jpeg,liked,4.456234322,,,,,,,,,,,,,,,,,,,,,,
,,5efe8c25e921d23a9daec079,6685aa9113c938e83b4f1ea0,67158a63798cd468879bae8b,2024-10-20_19h00.59.402,WTP_SM_Choice,2022.2.1,Win32,59.88023952,,,,,space,1.4246,NAN,,NAN,0.39,5.61,,0,16,16,16,1,17,Sam,Rej,Participant_Images/5efe8c25e921d23a9daec079/5efe8c25e921d23a9daec079_Images/5efe8c25e921d23a9daec079_Image_3.jpeg,did not like,4.438512181,,,,,,,,,,,,,,,,,,,,,,
,,5efe8c25e921d23a9daec079,6685aa9113c938e83b4f1ea0,67158a63798cd468879bae8b,2024-10-20_19h00.59.402,WTP_SM_Choice,2022.2.1,Win32,59.88023952,,,,,space,2.247,NAN,,NAN,0.39,5.61,,0,17,17,17,1,18,Sam,Rej,Participant_Images/5efe8c25e921d23a9daec079/5efe8c25e921d23a9daec079_Images/5efe8c25e921d23a9daec079_Image_12.jpeg,did not like,2.682944783,,,,,,,,,,,,,,,,,,,,,,
,,5efe8c25e921d23a9daec079,6685aa9113c938e83b4f1ea0,67158a63798cd468879bae8b,2024-10-20_19h00.59.402,WTP_SM_Choice,2022.2.1,Win32,59.88023952,,,,,space,2.8727,NAN,,NAN,0.39,5.61,,0,18,18,18,1,19,Sam,Rej,Participant_Images/5efe8c25e921d23a9daec079/5efe8c25e921d23a9daec079_Images/5efe8c25e921d23a9daec079_Image_6.jpeg,did not like,4.51984296,,,,,,,,,,,,,,,,,,,,,,
,,5efe8c25e921d23a9daec079,6685aa9113c938e83b4f1ea0,67158a63798cd468879bae8b,2024-10-20_19h00.59.402,WTP_SM_Choice,2022.2.1,Win32,59.88023952,,,,,,,,,,,,,,,,,,16,,,,,,space,3.3845,space,1.6525,0.01,1,6.1838,0,0,0,0,1,walk in the park ,go to the beach with my partner,0.01,0.04,1.1,1,,,,
,,5efe8c25e921d23a9daec079,6685aa9113c938e83b4f1ea0,67158a63798cd468879bae8b,2024-10-20_19h00.59.402,WTP_SM_Choice,2022.2.1,Win32,59.88023952,,,,,,,,,,,,,,,,,,17,,,,,,,,,,0.02,1,4.2078,0,1,1,1,1,window watch sometimes,go shopping at the mall with my mom,0.02,0.04,8.8,1,,,,
,,5efe8c25e921d23a9daec079,6685aa9113c938e83b4f1ea0,67158a63798cd468879bae8b,2024-10-20_19h00.59.402,WTP_SM_Choice,2022.2.1,Win32,59.88023952,,,,,,,,,,,,,,,,,,18,,,,,,,,,,0.04,2,5.129,0,2,2,2,1,hang out at home with friends ,watch history documentaries ,0.03,0.04,3.3,0,,,,
,,5efe8c25e921d23a9daec079,6685aa9113c938e83b4f1ea0,67158a63798cd468879bae8b,2024-10-20_19h00.59.402,WTP_SM_Choice,2022.2.1,Win32,59.88023952,,,,,,,,,,,,,,,,,,19,,,,,,,,,,0.04,1,5.7959,0,3,3,3,1,play sims 4 on my laptop ,walk around the park with friends,0.04,0.04,3.3,1,,,,
,,5efe8c25e921d23a9daec079,6685aa9113c938e83b4f1ea0,67158a63798cd468879bae8b,2024-10-20_19h00.59.402,WTP_SM_Choice,2022.2.1,Win32,59.88023952,,,,,,,,,,,,,,,,,,20,,,,,,,,,,0.04,2,6.0791,0,4,4,4,1,hang out at home with friends ,play sims 4 on my laptop ,0.05,0.04,1.1,0,,,,
,,5efe8c25e921d23a9daec079,6685aa9113c938e83b4f1ea0,67158a63798cd468879bae8b,2024-10-20_19h00.59.402,WTP_SM_Choice,2022.2.1,Win32,59.88023952,,,,,,,NAN,,NAN,0.54,5.46,,0,19,19,19,1,20,Sam,Rej,Participant_Images/5efe8c25e921d23a9daec079/5efe8c25e921d23a9daec079_Images/5efe8c25e921d23a9daec079_Image_4.jpeg,did not like,3.195382774,,,,,,,,,,,,,,,,,,,,,,
,,5efe8c25e921d23a9daec079,6685aa9113c938e83b4f1ea0,67158a63798cd468879bae8b,2024-10-20_19h00.59.402,WTP_SM_Choice,2022.2.1,Win32,59.88023952,,,,,space,1.855,NAN,,NAN,0.54,5.46,,0,20,20,20,1,21,Sam,Rej,Participant_Images/5efe8c25e921d23a9daec079/5efe8c25e921d23a9daec079_Images/5efe8c25e921d23a9daec079_Image_7.jpeg,liked,1.779333479,,,,,,,,,,,,,,,,,,,,,,
,,5efe8c25e921d23a9daec079,6685aa9113c938e83b4f1ea0,67158a63798cd468879bae8b,2024-10-20_19h00.59.402,WTP_SM_Choice,2022.2.1,Win32,59.88023952,,,,,space,2.4458,NAN,,NAN,0.54,5.46,,0,21,21,21,1,22,Sam,Rej,Participant_Images/5efe8c25e921d23a9daec079/5efe8c25e921d23a9daec079_Images/5efe8c25e921d23a9daec079_Image_15.jpeg,did not like,4.312468682,,,,,,,,,,,,,,,,,,,,,,
,,5efe8c25e921d23a9daec079,6685aa9113c938e83b4f1ea0,67158a63798cd468879bae8b,2024-10-20_19h00.59.402,WTP_SM_Choice,2022.2.1,Win32,59.88023952,,,,,space,0.802,NAN,,NAN,0.54,5.46,,0,22,22,22,1,23,Sam,Rej,Participant_Images/5efe8c25e921d23a9daec079/5efe8c25e921d23a9daec079_Images/5efe8c25e921d23a9daec079_Image_25.jpeg,did not like,4.940433059,,,,,,,,,,,,,,,,,,,,,,
,,5efe8c25e921d23a9daec079,6685aa9113c938e83b4f1ea0,67158a63798cd468879bae8b,2024-10-20_19h00.59.402,WTP_SM_Choice,2022.2.1,Win32,59.88023952,,,,,space,1.0715,NAN,,NAN,0.54,5.46,,0,23,23,23,1,24,Sam,Rej,Participant_Images/5efe8c25e921d23a9daec079/5efe8c25e921d23a9daec079_Images/5efe8c25e921d23a9daec079_Image_24.jpeg,did not like,2.7105123,,,,,,,,,,,,,,,,,,,,,,
,,5efe8c25e921d23a9daec079,6685aa9113c938e83b4f1ea0,67158a63798cd468879bae8b,2024-10-20_19h00.59.402,WTP_SM_Choice,2022.2.1,Win32,59.88023952,,,,,,,,,,,,,,,,,,21,,,,,,space,1.7512,space,3.2153,0.01,1,3.6468,0,0,0,0,1,sit out & see the stars with my best friend,long baths to relax myself ,0.01,0.05,8.8,0,,,,
,,5efe8c25e921d23a9daec079,6685aa9113c938e83b4f1ea0,67158a63798cd468879bae8b,2024-10-20_19h00.59.402,WTP_SM_Choice,2022.2.1,Win32,59.88023952,,,,,,,,,,,,,,,,,,22,,,,,,,,,,0.02,1,3.5655,0,1,1,1,1,enjoy sewing,workout at the gym with my best friend,0.02,0.05,4.4,1,,,,
,,5efe8c25e921d23a9daec079,6685aa9113c938e83b4f1ea0,67158a63798cd468879bae8b,2024-10-20_19h00.59.402,WTP_SM_Choice,2022.2.1,Win32,59.88023952,,,,,,,,,,,,,,,,,,23,,,,,,,,,,0.05,2,4.0298,0,2,2,2,1,listen to music,make food with my family,0.03,0.05,1.1,1,,,,
,,5efe8c25e921d23a9daec079,6685aa9113c938e83b4f1ea0,67158a63798cd468879bae8b,2024-10-20_19h00.59.402,WTP_SM_Choice,2022.2.1,Win32,59.88023952,,,,,,,,,,,,,,,,,,24,,,,,,,,,,0.05,2,4.231,0,3,3,3,1,go to the movies with my mom,enjoy sewing,0.04,0.05,4.4,0,,,,
,,5efe8c25e921d23a9daec079,6685aa9113c938e83b4f1ea0,67158a63798cd468879bae8b,2024-10-20_19h00.59.402,WTP_SM_Choice,2022.2.1,Win32,59.88023952,,,,,,,,,,,,,,,,,,25,,,,,,,,,,,,,0,4,4,4,1,hang out at home with friends ,window watch sometimes,0.05,0.05,3.3,0,,,,
,,5efe8c25e921d23a9daec079,6685aa9113c938e83b4f1ea0,67158a63798cd468879bae8b,2024-10-20_19h00.59.402,WTP_SM_Choice,2022.2.1,Win32,59.88023952,,,,,,,1,,8,0.67,5.33,,0,24,24,24,1,25,Sam,Rej,Participant_Images/5efe8c25e921d23a9daec079/5efe8c25e921d23a9daec079_Images/5efe8c25e921d23a9daec079_Image_13.jpeg,liked,3.602308302,,,,,,,,,,,,,,,,,,,space,0.8676,,
,,5efe8c25e921d23a9daec079,6685aa9113c938e83b4f1ea0,67158a63798cd468879bae8b,2024-10-20_19h00.59.402,WTP_SM_Choice,2022.2.1,Win32,59.88023952,,,space,5.0506,space,2.5834,NAN,,NAN,0.67,5.33,,0,25,25,25,1,26,Alex,Rej,Participant_Images/5efe8c25e921d23a9daec079/5efe8c25e921d23a9daec079_Images/5efe8c25e921d23a9daec079_Image_4.jpeg,did not like,4.106391878,,,,,,,,,,,,,,,,,,,,,,
,,5efe8c25e921d23a9daec079,6685aa9113c938e83b4f1ea0,67158a63798cd468879bae8b,2024-10-20_19h00.59.402,WTP_SM_Choice,2022.2.1,Win32,59.88023952,,,,,space,3.9542,NAN,,NAN,0.67,5.33,,0,26,26,26,1,27,Alex,Rej,Participant_Images/5efe8c25e921d23a9daec079/5efe8c25e921d23a9daec079_Images/5efe8c25e921d23a9daec079_Image_16.jpeg,did not like,3.799433026,,,,,,,,,,,,,,,,,,,,,,
,,5efe8c25e921d23a9daec079,6685aa9113c938e83b4f1ea0,67158a63798cd468879bae8b,2024-10-20_19h00.59.402,WTP_SM_Choice,2022.2.1,Win32,59.88023952,,,,,space,4.6334,NAN,,NAN,0.67,5.33,,0,27,27,27,1,28,Alex,Rej,Participant_Images/5efe8c25e921d23a9daec079/5efe8c25e921d23a9daec079_Images/5efe8c25e921d23a9daec079_Image_13.jpeg,did not like,5.246980764,,,,,,,,,,,,,,,,,,,,,,
,,5efe8c25e921d23a9daec079,6685aa9113c938e83b4f1ea0,67158a63798cd468879bae8b,2024-10-20_19h00.59.402,WTP_SM_Choice,2022.2.1,Win32,59.88023952,,,,,space,2.269,NAN,,NAN,0.67,5.33,,0,28,28,28,1,29,Alex,Rej,Participant_Images/5efe8c25e921d23a9daec079/5efe8c25e921d23a9daec079_Images/5efe8c25e921d23a9daec079_Image_21.jpeg,liked,3.30081769,,,,,,,,,,,,,,,,,,,,,,
,,5efe8c25e921d23a9daec079,6685aa9113c938e83b4f1ea0,67158a63798cd468879bae8b,2024-10-20_19h00.59.402,WTP_SM_Choice,2022.2.1,Win32,59.88023952,,,,,,,,,,,,,,,,,,26,,,,,,space,7.4203,space,1.6845,0.01,1,3.5674,0,0,0,0,1,play sims 4 on my laptop ,make food with my family,0.01,0.01,4.4,1,,,,
,,5efe8c25e921d23a9daec079,6685aa9113c938e83b4f1ea0,67158a63798cd468879bae8b,2024-10-20_19h00.59.402,WTP_SM_Choice,2022.2.1,Win32,59.88023952,,,,,,,,,,,,,,,,,,27,,,,,,,,,,,,,0,1,1,1,1,make food with my family,window watch sometimes,0.02,0.01,3.3,0,,,,
,,5efe8c25e921d23a9daec079,6685aa9113c938e83b4f1ea0,67158a63798cd468879bae8b,2024-10-20_19h00.59.402,WTP_SM_Choice,2022.2.1,Win32,59.88023952,,,,,,,,,,,,,,,,,,28,,,,,,,,,,0.03,1,2.7604,0,2,2,2,1,go shopping at the mall with my mom,walk in the park ,0.03,0.01,3.3,0,,,,
,,5efe8c25e921d23a9daec079,6685aa9113c938e83b4f1ea0,67158a63798cd468879bae8b,2024-10-20_19h00.59.402,WTP_SM_Choice,2022.2.1,Win32,59.88023952,,,,,,,,,,,,,,,,,,29,,,,,,,,,,0.04,1,4.0627,0,3,3,3,1,make food with my family,read books,0.04,0.01,4.4,0,,,,
,,5efe8c25e921d23a9daec079,6685aa9113c938e83b4f1ea0,67158a63798cd468879bae8b,2024-10-20_19h00.59.402,WTP_SM_Choice,2022.2.1,Win32,59.88023952,,,,,,,,,,,,,,,,,,30,,,,,,,,,,0.01,2,4.2308,0,4,4,4,1,go to the beach with my partner,enjoy sewing,0.05,0.01,8.8,0,,,,
,,5efe8c25e921d23a9daec079,6685aa9113c938e83b4f1ea0,67158a63798cd468879bae8b,2024-10-20_19h00.59.402,WTP_SM_Choice,2022.2.1,Win32,59.88023952,,,,,,,NAN,,NAN,0.76,5.24,,0,29,29,29,1,30,Alex,Rej,Participant_Images/5efe8c25e921d23a9daec079/5efe8c25e921d23a9daec079_Images/5efe8c25e921d23a9daec079_Image_5.jpeg,did not like,1.661473164,,,,,,,,,,,,,,,,,,,,,,
,,5efe8c25e921d23a9daec079,6685aa9113c938e83b4f1ea0,67158a63798cd468879bae8b,2024-10-20_19h00.59.402,WTP_SM_Choice,2022.2.1,Win32,59.88023952,,,,,space,2.142,NAN,,NAN,0.76,5.24,,0,30,30,30,1,31,Alex,Rej,Participant_Images/5efe8c25e921d23a9daec079/5efe8c25e921d23a9daec079_Images/5efe8c25e921d23a9daec079_Image_18.jpeg,liked,3.613205605,,,,,,,,,,,,,,,,,,,,,,
,,5efe8c25e921d23a9daec079,6685aa9113c938e83b4f1ea0,67158a63798cd468879bae8b,2024-10-20_19h00.59.402,WTP_SM_Choice,2022.2.1,Win32,59.88023952,,,,,space,4.7014,NAN,,NAN,0.76,5.24,,0,31,31,31,1,32,Alex,Rej,Participant_Images/5efe8c25e921d23a9daec079/5efe8c25e921d23a9daec079_Images/5efe8c25e921d23a9daec079_Image_15.jpeg,did not like,4.988446431,,,,,,,,,,,,,,,,,,,,,,
,,5efe8c25e921d23a9daec079,6685aa9113c938e83b4f1ea0,67158a63798cd468879bae8b,2024-10-20_19h00.59.402,WTP_SM_Choice,2022.2.1,Win32,59.88023952,,,,,space,4.0354,NAN,,NAN,0.76,5.24,,0,32,32,32,1,33,Alex,Rej,Participant_Images/5efe8c25e921d23a9daec079/5efe8c25e921d23a9daec079_Images/5efe8c25e921d23a9daec079_Image_8.jpeg,did not like,3.470791822,,,,,,,,,,,,,,,,,,,,,,
,,5efe8c25e921d23a9daec079,6685aa9113c938e83b4f1ea0,67158a63798cd468879bae8b,2024-10-20_19h00.59.402,WTP_SM_Choice,2022.2.1,Win32,59.88023952,,,,,space,1.4351,NAN,,NAN,0.76,5.24,,0,33,33,33,1,34,Alex,Rej,Participant_Images/5efe8c25e921d23a9daec079/5efe8c25e921d23a9daec079_Images/5efe8c25e921d23a9daec079_Image_22.jpeg,did not like,3.820572462,,,,,,,,,,,,,,,,,,,,,,
,,5efe8c25e921d23a9daec079,6685aa9113c938e83b4f1ea0,67158a63798cd468879bae8b,2024-10-20_19h00.59.402,WTP_SM_Choice,2022.2.1,Win32,59.88023952,,,,,,,,,,,,,,,,,,31,,,,,,space,134.2709,space,2.0844,0.02,2,2.3485,0,0,0,0,1,go to the spa with my cousins,listen to music,0.01,0.02,8.8,0,,,,
,,5efe8c25e921d23a9daec079,6685aa9113c938e83b4f1ea0,67158a63798cd468879bae8b,2024-10-20_19h00.59.402,WTP_SM_Choice,2022.2.1,Win32,59.88023952,,,,,,,,,,,,,,,,,,32,,,,,,,,,,0.02,2,2.5342,0,1,1,1,1,go to the beach with my partner,watch history documentaries ,0.02,0.02,1.1,0,,,,
,,5efe8c25e921d23a9daec079,6685aa9113c938e83b4f1ea0,67158a63798cd468879bae8b,2024-10-20_19h00.59.402,WTP_SM_Choice,2022.2.1,Win32,59.88023952,,,,,,,,,,,,,,,,,,33,,,,,,,,,,0.03,1,5.366,0,2,2,2,1,read books,go out to eat with my family ,0.03,0.02,4.4,1,,,,
,,5efe8c25e921d23a9daec079,6685aa9113c938e83b4f1ea0,67158a63798cd468879bae8b,2024-10-20_19h00.59.402,WTP_SM_Choice,2022.2.1,Win32,59.88023952,,,,,,,,,,,,,,,,,,34,,,,,,,,,,0.04,1,3.8494,0,3,3,3,1,enjoy sewing,walk around the park with friends,0.04,0.02,3.3,1,,,,
,,5efe8c25e921d23a9daec079,6685aa9113c938e83b4f1ea0,67158a63798cd468879bae8b,2024-10-20_19h00.59.402,WTP_SM_Choice,2022.2.1,Win32,59.88023952,,,,,,,,,,,,,,,,,,35,,,,,,,,,,0.05,1,2.6282,0,4,4,4,1,listen to music,go to the movies with my mom,0.05,0.02,1.1,1,,,,
,,5efe8c25e921d23a9daec079,6685aa9113c938e83b4f1ea0,67158a63798cd468879bae8b,2024-10-20_19h00.59.402,WTP_SM_Choice,2022.2.1,Win32,59.88023952,,,,,,,NAN,,NAN,0.92,5.08,,0,34,34,34,1,35,Alex,Rej,Participant_Images/5efe8c25e921d23a9daec079/5efe8c25e921d23a9daec079_Images/5efe8c25e921d23a9daec079_Image_24.jpeg,did not like,2.455989137,,,,,,,,,,,,,,,,,,,,,,
,,5efe8c25e921d23a9daec079,6685aa9113c938e83b4f1ea0,67158a63798cd468879bae8b,2024-10-20_19h00.59.402,WTP_SM_Choice,2022.2.1,Win32,59.88023952,,,,,space,2.6686,NAN,,NAN,0.92,5.08,,0,35,35,35,1,36,Alex,Rej,Participant_Images/5efe8c25e921d23a9daec079/5efe8c25e921d23a9daec079_Images/5efe8c25e921d23a9daec079_Image_25.jpeg,did not like,3.79605092,,,,,,,,,,,,,,,,,,,,,,
,,5efe8c25e921d23a9daec079,6685aa9113c938e83b4f1ea0,67158a63798cd468879bae8b,2024-10-20_19h00.59.402,WTP_SM_Choice,2022.2.1,Win32,59.88023952,,,,,space,4.6514,NAN,,NAN,0.92,5.08,,0,36,36,36,1,37,Alex,Rej,Participant_Images/5efe8c25e921d23a9daec079/5efe8c25e921d23a9daec079_Images/5efe8c25e921d23a9daec079_Image_6.jpeg,liked,3.562416326,,,,,,,,,,,,,,,,,,,,,,
,,5efe8c25e921d23a9daec079,6685aa9113c938e83b4f1ea0,67158a63798cd468879bae8b,2024-10-20_19h00.59.402,WTP_SM_Choice,2022.2.1,Win32,59.88023952,,,,,space,2.6253,NAN,,NAN,0.92,5.08,,0,37,37,37,1,38,Alex,Rej,Participant_Images/5efe8c25e921d23a9daec079/5efe8c25e921d23a9daec079_Images/5efe8c25e921d23a9daec079_Image_9.jpeg,did not like,2.843822497,,,,,,,,,,,,,,,,,,,,,,
,,5efe8c25e921d23a9daec079,6685aa9113c938e83b4f1ea0,67158a63798cd468879bae8b,2024-10-20_19h00.59.402,WTP_SM_Choice,2022.2.1,Win32,59.88023952,,,,,space,6.7776,NAN,,NAN,0.92,5.08,,0,38,38,38,1,39,Alex,Rej,Participant_Images/5efe8c25e921d23a9daec079/5efe8c25e921d23a9daec079_Images/5efe8c25e921d23a9daec079_Image_23.jpeg,liked,3.546495948,,,,,,,,,,,,,,,,,,,,,,
,,5efe8c25e921d23a9daec079,6685aa9113c938e83b4f1ea0,67158a63798cd468879bae8b,2024-10-20_19h00.59.402,WTP_SM_Choice,2022.2.1,Win32,59.88023952,,,,,,,,,,,,,,,,,,36,,,,,,space,67.1547,space,2.1515,0.01,1,2.353,0,0,0,0,1,watch history documentaries ,make food with my family,0.01,0.03,3.3,1,,,,
,,5efe8c25e921d23a9daec079,6685aa9113c938e83b4f1ea0,67158a63798cd468879bae8b,2024-10-20_19h00.59.402,WTP_SM_Choice,2022.2.1,Win32,59.88023952,,,,,,,,,,,,,,,,,,37,,,,,,,,,,0.03,2,2.9848,0,1,1,1,1,workout at the gym with my best friend,watch history documentaries ,0.02,0.03,1.1,0,,,,
,,5efe8c25e921d23a9daec079,6685aa9113c938e83b4f1ea0,67158a63798cd468879bae8b,2024-10-20_19h00.59.402,WTP_SM_Choice,2022.2.1,Win32,59.88023952,,,,,,,,,,,,,,,,,,38,,,,,,,,,,0.03,1,5.6002,0,2,2,2,1,make pastries,go to the spa with my cousins,0.03,0.03,1.1,1,,,,
,,5efe8c25e921d23a9daec079,6685aa9113c938e83b4f1ea0,67158a63798cd468879bae8b,2024-10-20_19h00.59.402,WTP_SM_Choice,2022.2.1,Win32,59.88023952,,,,,,,,,,,,,,,,,,39,,,,,,,,,,0.03,2,4.162,0,3,3,3,1,sit out & see the stars with my best friend,watch history documentaries ,0.04,0.03,3.3,0,,,,
,,5efe8c25e921d23a9daec079,6685aa9113c938e83b4f1ea0,67158a63798cd468879bae8b,2024-10-20_19h00.59.402,WTP_SM_Choice,2022.2.1,Win32,59.88023952,,,,,,,,,,,,,,,,,,40,,,,,,,,,,0.05,1,3.4339,0,4,4,4,1,watch history documentaries ,go to the movies with my mom,0.05,0.03,4.4,1,,,,
,,5efe8c25e921d23a9daec079,6685aa9113c938e83b4f1ea0,67158a63798cd468879bae8b,2024-10-20_19h00.59.402,WTP_SM_Choice,2022.2.1,Win32,59.88023952,,,,,,,NAN,,NAN,1.07,4.93,,0,39,39,39,1,40,Alex,Rej,Participant_Images/5efe8c25e921d23a9daec079/5efe8c25e921d23a9daec079_Images/5efe8c25e921d23a9daec079_Image_7.jpeg,liked,1.672012706,,,,,,,,,,,,,,,,,,,,,,
,,5efe8c25e921d23a9daec079,6685aa9113c938e83b4f1ea0,67158a63798cd468879bae8b,2024-10-20_19h00.59.402,WTP_SM_Choice,2022.2.1,Win32,59.88023952,,,,,space,2.1354,NAN,,NAN,1.07,4.93,,0,40,40,40,1,41,Alex,Rej,Participant_Images/5efe8c25e921d23a9daec079/5efe8c25e921d23a9daec079_Images/5efe8c25e921d23a9daec079_Image_14.jpeg,did not like,4.942172136,,,,,,,,,,,,,,,,,,,,,,
,,5efe8c25e921d23a9daec079,6685aa9113c938e83b4f1ea0,67158a63798cd468879bae8b,2024-10-20_19h00.59.402,WTP_SM_Choice,2022.2.1,Win32,59.88023952,,,,,space,3.3682,NAN,,NAN,1.07,4.93,,0,41,41,41,1,42,Alex,Rej,Participant_Images/5efe8c25e921d23a9daec079/5efe8c25e921d23a9daec079_Images/5efe8c25e921d23a9daec079_Image_10.jpeg,did not like,2.50187214,,,,,,,,,,,,,,,,,,,,,,
,,5efe8c25e921d23a9daec079,6685aa9113c938e83b4f1ea0,67158a63798cd468879bae8b,2024-10-20_19h00.59.402,WTP_SM_Choice,2022.2.1,Win32,59.88023952,,,,,space,2.2019,NAN,,NAN,1.07,4.93,,0,42,42,42,1,43,Alex,Rej,Participant_Images/5efe8c25e921d23a9daec079/5efe8c25e921d23a9daec079_Images/5efe8c25e921d23a9daec079_Image_11.jpeg,did not like,2.071164779,,,,,,,,,,,,,,,,,,,,,,
,,5efe8c25e921d23a9daec079,6685aa9113c938e83b4f1ea0,67158a63798cd468879bae8b,2024-10-20_19h00.59.402,WTP_SM_Choice,2022.2.1,Win32,59.88023952,,,,,space,0.8007,NAN,,NAN,1.07,4.93,,0,43,43,43,1,44,Alex,Rej,Participant_Images/5efe8c25e921d23a9daec079/5efe8c25e921d23a9daec079_Images/5efe8c25e921d23a9daec079_Image_3.jpeg,liked,5.336503566,,,,,,,,,,,,,,,,,,,,,,
,,5efe8c25e921d23a9daec079,6685aa9113c938e83b4f1ea0,67158a63798cd468879bae8b,2024-10-20_19h00.59.402,WTP_SM_Choice,2022.2.1,Win32,59.88023952,,,,,,,,,,,,,,,,,,41,,,,,,space,1.6731,space,1.3657,0.04,2,2.7988,0,0,0,0,1,go out to eat with my family ,walk in the park ,0.01,0.04,1.1,0,,,,
,,5efe8c25e921d23a9daec079,6685aa9113c938e83b4f1ea0,67158a63798cd468879bae8b,2024-10-20_19h00.59.402,WTP_SM_Choice,2022.2.1,Win32,59.88023952,,,,,,,,,,,,,,,,,,42,,,,,,,,,,0.04,2,2.0128,0,1,1,1,1,go shopping at the mall with my mom,read books,0.02,0.04,3.3,0,,,,
,,5efe8c25e921d23a9daec079,6685aa9113c938e83b4f1ea0,67158a63798cd468879bae8b,2024-10-20_19h00.59.402,WTP_SM_Choice,2022.2.1,Win32,59.88023952,,,,,,,,,,,,,,,,,,43,,,,,,,,,,0.03,1,1.9299,0,2,2,2,1,window watch sometimes,workout at the gym with my best friend,0.03,0.04,1.1,1,,,,
,,5efe8c25e921d23a9daec079,6685aa9113c938e83b4f1ea0,67158a63798cd468879bae8b,2024-10-20_19h00.59.402,WTP_SM_Choice,2022.2.1,Win32,59.88023952,,,,,,,,,,,,,,,,,,44,,,,,,,,,,0.04,1,2.7751,0,3,3,3,1,make videos  ,sit out & see the stars with my best friend,0.04,0.04,1.1,1,,,,
,,5efe8c25e921d23a9daec079,6685aa9113c938e83b4f1ea0,67158a63798cd468879bae8b,2024-10-20_19h00.59.402,WTP_SM_Choice,2022.2.1,Win32,59.88023952,,,,,,,,,,,,,,,,,,45,,,,,,,,,,,,,0,4,4,4,1,walk in the park ,hang out at home with friends ,0.05,0.04,4.4,1,,,,
,,5efe8c25e921d23a9daec079,6685aa9113c938e83b4f1ea0,67158a63798cd468879bae8b,2024-10-20_19h00.59.402,WTP_SM_Choice,2022.2.1,Win32,59.88023952,,,,,,,NAN,,NAN,1.22,4.78,,0,44,44,44,1,45,Alex,Rej,Participant_Images/5efe8c25e921d23a9daec079/5efe8c25e921d23a9daec079_Images/5efe8c25e921d23a9daec079_Image_19.jpeg,did not like,2.642157193,,,,,,,,,,,,,,,,,,,,,,
,,5efe8c25e921d23a9daec079,6685aa9113c938e83b4f1ea0,67158a63798cd468879bae8b,2024-10-20_19h00.59.402,WTP_SM_Choice,2022.2.1,Win32,59.88023952,,,,,space,1.5353,NAN,,NAN,1.22,4.78,,0,45,45,45,1,46,Alex,Rej,Participant_Images/5efe8c25e921d23a9daec079/5efe8c25e921d23a9daec079_Images/5efe8c25e921d23a9daec079_Image_20.jpeg,did not like,4.456234322,,,,,,,,,,,,,,,,,,,,,,
,,5efe8c25e921d23a9daec079,6685aa9113c938e83b4f1ea0,67158a63798cd468879bae8b,2024-10-20_19h00.59.402,WTP_SM_Choice,2022.2.1,Win32,59.88023952,,,,,space,0.893,NAN,,NAN,1.22,4.78,,0,46,46,46,1,47,Alex,Rej,Participant_Images/5efe8c25e921d23a9daec079/5efe8c25e921d23a9daec079_Images/5efe8c25e921d23a9daec079_Image_2.jpeg,did not like,4.438512181,,,,,,,,,,,,,,,,,,,,,,
,,5efe8c25e921d23a9daec079,6685aa9113c938e83b4f1ea0,67158a63798cd468879bae8b,2024-10-20_19h00.59.402,WTP_SM_Choice,2022.2.1,Win32,59.88023952,,,,,space,1.5706,NAN,,NAN,1.22,4.78,,0,47,47,47,1,48,Alex,Rej,Participant_Images/5efe8c25e921d23a9daec079/5efe8c25e921d23a9daec079_Images/5efe8c25e921d23a9daec079_Image_12.jpeg,did not like,2.682944783,,,,,,,,,,,,,,,,,,,,,,
,,5efe8c25e921d23a9daec079,6685aa9113c938e83b4f1ea0,67158a63798cd468879bae8b,2024-10-20_19h00.59.402,WTP_SM_Choice,2022.2.1,Win32,59.88023952,,,,,space,1.8595,NAN,,NAN,1.22,4.78,,0,48,48,48,1,49,Alex,Rej,Participant_Images/5efe8c25e921d23a9daec079/5efe8c25e921d23a9daec079_Images/5efe8c25e921d23a9daec079_Image_17.jpeg,liked,4.51984296,,,,,,,,,,,,,,,,,,,,,,
,,5efe8c25e921d23a9daec079,6685aa9113c938e83b4f1ea0,67158a63798cd468879bae8b,2024-10-20_19h00.59.402,WTP_SM_Choice,2022.2.1,Win32,59.88023952,,,,,,,,,,,,,,,,,,46,,,,,,space,18.454,space,2.8747,,,,0,0,0,0,1,window watch sometimes,walk around the park with friends,0.01,0.05,8.8,1,,,,
,,5efe8c25e921d23a9daec079,6685aa9113c938e83b4f1ea0,67158a63798cd468879bae8b,2024-10-20_19h00.59.402,WTP_SM_Choice,2022.2.1,Win32,59.88023952,,,,,,,,,,,,,,,,,,47,,,,,,,,,,0.05,2,3.1573,0,1,1,1,1,long baths to relax myself ,go to the spa with my cousins,0.02,0.05,1.1,1,,,,
,,5efe8c25e921d23a9daec079,6685aa9113c938e83b4f1ea0,67158a63798cd468879bae8b,2024-10-20_19h00.59.402,WTP_SM_Choice,2022.2.1,Win32,59.88023952,,,,,,,,,,,,,,,,,,48,,,,,,,,,,0.05,2,3.9923,0,2,2,2,1,walk around the park with friends,listen to music,0.03,0.05,4.4,0,,,,
,,5efe8c25e921d23a9daec079,6685aa9113c938e83b4f1ea0,67158a63798cd468879bae8b,2024-10-20_19h00.59.402,WTP_SM_Choice,2022.2.1,Win32,59.88023952,,,,,,,,,,,,,,,,,,49,,,,,,,,,,0.05,2,3.5765,0,3,3,3,1,workout at the gym with my best friend,walk in the park ,0.04,0.05,3.3,0,,,,
,,5efe8c25e921d23a9daec079,6685aa9113c938e83b4f1ea0,67158a63798cd468879bae8b,2024-10-20_19h00.59.402,WTP_SM_Choice,2022.2.1,Win32,59.88023952,,,,,,,,,,,,,,,,,,50,,,,,,,,,,0.05,2,3.1739,0,4,4,4,1,go to the movies with my mom,read books,0.05,0.05,1.1,0,,,,
,,5efe8c25e921d23a9daec079,6685aa9113c938e83b4f1ea0,67158a63798cd468879bae8b,2024-10-20_19h00.59.402,WTP_SM_Choice,2022.2.1,Win32,59.88023952,,,,,,,2,,8,1.42,4.58,,0,49,49,49,1,50,Alex,Rej,Participant_Images/5efe8c25e921d23a9daec079/5efe8c25e921d23a9daec079_Images/5efe8c25e921d23a9daec079_Image_1.jpeg,did not like,3.195382774,,,,,,,,,,,,,,,,,,,space,1.5521,,
,,5efe8c25e921d23a9daec079,6685aa9113c938e83b4f1ea0,67158a63798cd468879bae8b,2024-10-20_19h00.59.402,WTP_SM_Choice,2022.2.1,Win32,59.88023952,,,space,1.4496,space,1.8017,NAN,,NAN,1.42,4.58,,0,50,50,50,1,51,Charlie,Acc,Participant_Images/5efe8c25e921d23a9daec079/5efe8c25e921d23a9daec079_Images/5efe8c25e921d23a9daec079_Image_12.jpeg,liked,1.779333479,,,,,,,,,,,,,,,,,,,,,,
,,5efe8c25e921d23a9daec079,6685aa9113c938e83b4f1ea0,67158a63798cd468879bae8b,2024-10-20_19h00.59.402,WTP_SM_Choice,2022.2.1,Win32,59.88023952,,,,,space,5.9343,NAN,,NAN,1.42,4.58,,0,51,51,51,1,52,Charlie,Acc,Participant_Images/5efe8c25e921d23a9daec079/5efe8c25e921d23a9daec079_Images/5efe8c25e921d23a9daec079_Image_10.jpeg,did not like,4.312468682,,,,,,,,,,,,,,,,,,,,,,
,,5efe8c25e921d23a9daec079,6685aa9113c938e83b4f1ea0,67158a63798cd468879bae8b,2024-10-20_19h00.59.402,WTP_SM_Choice,2022.2.1,Win32,59.88023952,,,,,space,1.61,NAN,,NAN,1.42,4.58,,0,52,52,52,1,53,Charlie,Acc,Participant_Images/5efe8c25e921d23a9daec079/5efe8c25e921d23a9daec079_Images/5efe8c25e921d23a9daec079_Image_20.jpeg,liked,4.940433059,,,,,,,,,,,,,,,,,,,,,,
,,5efe8c25e921d23a9daec079,6685aa9113c938e83b4f1ea0,67158a63798cd468879bae8b,2024-10-20_19h00.59.402,WTP_SM_Choice,2022.2.1,Win32,59.88023952,,,,,space,2.8899,NAN,,NAN,1.42,4.58,,0,53,53,53,1,54,Charlie,Acc,Participant_Images/5efe8c25e921d23a9daec079/5efe8c25e921d23a9daec079_Images/5efe8c25e921d23a9daec079_Image_16.jpeg,did not like,2.7105123,,,,,,,,,,,,,,,,,,,,,,
,,5efe8c25e921d23a9daec079,6685aa9113c938e83b4f1ea0,67158a63798cd468879bae8b,2024-10-20_19h00.59.402,WTP_SM_Choice,2022.2.1,Win32,59.88023952,,,,,,,,,,,,,,,,,,51,,,,,,space,1.4508,space,2.2263,0.01,1,2.4,0,0,0,0,1,make videos  ,go to the movies with my mom,0.01,0.01,1.1,1,,,,
,,5efe8c25e921d23a9daec079,6685aa9113c938e83b4f1ea0,67158a63798cd468879bae8b,2024-10-20_19h00.59.402,WTP_SM_Choice,2022.2.1,Win32,59.88023952,,,,,,,,,,,,,,,,,,52,,,,,,,,,,0.01,2,2.4657,0,1,1,1,1,go shopping at the mall with my mom,watch history documentaries ,0.02,0.01,3.3,0,,,,
,,5efe8c25e921d23a9daec079,6685aa9113c938e83b4f1ea0,67158a63798cd468879bae8b,2024-10-20_19h00.59.402,WTP_SM_Choice,2022.2.1,Win32,59.88023952,,,,,,,,,,,,,,,,,,53,,,,,,,,,,0.03,1,2.5831,0,2,2,2,1,go shopping at the mall with my mom,make pastries,0.03,0.01,1.1,0,,,,
,,5efe8c25e921d23a9daec079,6685aa9113c938e83b4f1ea0,67158a63798cd468879bae8b,2024-10-20_19h00.59.402,WTP_SM_Choice,2022.2.1,Win32,59.88023952,,,,,,,,,,,,,,,,,,54,,,,,,,,,,0.04,1,3.0629,0,3,3,3,1,make food with my family,walk in the park ,0.04,0.01,4.4,0,,,,
,,5efe8c25e921d23a9daec079,6685aa9113c938e83b4f1ea0,67158a63798cd468879bae8b,2024-10-20_19h00.59.402,WTP_SM_Choice,2022.2.1,Win32,59.88023952,,,,,,,,,,,,,,,,,,55,,,,,,,,,,0.05,1,2.6515,0,4,4,4,1,make pastries,workout at the gym with my best friend,0.05,0.01,1.1,1,,,,
,,5efe8c25e921d23a9daec079,6685aa9113c938e83b4f1ea0,67158a63798cd468879bae8b,2024-10-20_19h00.59.402,WTP_SM_Choice,2022.2.1,Win32,59.88023952,,,,,,,NAN,,NAN,1.56,4.44,,0,54,54,54,1,55,Charlie,Acc,Participant_Images/5efe8c25e921d23a9daec079/5efe8c25e921d23a9daec079_Images/5efe8c25e921d23a9daec079_Image_15.jpeg,did not like,3.602308302,,,,,,,,,,,,,,,,,,,,,,
,,5efe8c25e921d23a9daec079,6685aa9113c938e83b4f1ea0,67158a63798cd468879bae8b,2024-10-20_19h00.59.402,WTP_SM_Choice,2022.2.1,Win32,59.88023952,,,,,space,4.1995,NAN,,NAN,1.56,4.44,,0,55,55,55,1,56,Charlie,Acc,Participant_Images/5efe8c25e921d23a9daec079/5efe8c25e921d23a9daec079_Images/5efe8c25e921d23a9daec079_Image_2.jpeg,did not like,4.106391878,,,,,,,,,,,,,,,,,,,,,,
,,5efe8c25e921d23a9daec079,6685aa9113c938e83b4f1ea0,67158a63798cd468879bae8b,2024-10-20_19h00.59.402,WTP_SM_Choice,2022.2.1,Win32,59.88023952,,,,,space,3.9019,NAN,,NAN,1.56,4.44,,0,56,56,56,1,57,Charlie,Acc,Participant_Images/5efe8c25e921d23a9daec079/5efe8c25e921d23a9daec079_Images/5efe8c25e921d23a9daec079_Image_7.jpeg,liked,3.799433026,,,,,,,,,,,,,,,,,,,,,,
,,5efe8c25e921d23a9daec079,6685aa9113c938e83b4f1ea0,67158a63798cd468879bae8b,2024-10-20_19h00.59.402,WTP_SM_Choice,2022.2.1,Win32,59.88023952,,,,,space,1.7583,NAN,,NAN,1.56,4.44,,0,57,57,57,1,58,Charlie,Acc,Participant_Images/5efe8c25e921d23a9daec079/5efe8c25e921d23a9daec079_Images/5efe8c25e921d23a9daec079_Image_3.jpeg,liked,5.246980764,,,,,,,,,,,,,,,,,,,,,,
,,5efe8c25e921d23a9daec079,6685aa9113c938e83b4f1ea0,67158a63798cd468879bae8b,2024-10-20_19h00.59.402,WTP_SM_Choice,2022.2.1,Win32,59.88023952,,,,,space,1.8349,NAN,,NAN,1.56,4.44,,0,58,58,58,1,59,Charlie,Acc,Participant_Images/5efe8c25e921d23a9daec079/5efe8c25e921d23a9daec079_Images/5efe8c25e921d23a9daec079_Image_14.jpeg,liked,3.30081769,,,,,,,,,,,,,,,,,,,,,,
,,5efe8c25e921d23a9daec079,6685aa9113c938e83b4f1ea0,67158a63798cd468879bae8b,2024-10-20_19h00.59.402,WTP_SM_Choice,2022.2.1,Win32,59.88023952,,,,,,,,,,,,,,,,,,56,,,,,,space,2.0359,space,0.9525,0.02,2,2.3144,0,0,0,0,1,long baths to relax myself ,make food with my family,0.01,0.02,8.8,1,,,,
,,5efe8c25e921d23a9daec079,6685aa9113c938e83b4f1ea0,67158a63798cd468879bae8b,2024-10-20_19h00.59.402,WTP_SM_Choice,2022.2.1,Win32,59.88023952,,,,,,,,,,,,,,,,,,57,,,,,,,,,,0.02,1,3.9296,0,1,1,1,1,window watch sometimes,go to the beach with my partner,0.02,0.02,4.4,1,,,,
,,5efe8c25e921d23a9daec079,6685aa9113c938e83b4f1ea0,67158a63798cd468879bae8b,2024-10-20_19h00.59.402,WTP_SM_Choice,2022.2.1,Win32,59.88023952,,,,,,,,,,,,,,,,,,58,,,,,,,,,,0.03,1,3.5657,0,2,2,2,1,listen to music,go to the beach with my partner,0.03,0.02,4.4,1,,,,
,,5efe8c25e921d23a9daec079,6685aa9113c938e83b4f1ea0,67158a63798cd468879bae8b,2024-10-20_19h00.59.402,WTP_SM_Choice,2022.2.1,Win32,59.88023952,,,,,,,,,,,,,,,,,,59,,,,,,,,,,0.04,1,4.613,0,3,3,3,1,workout at the gym with my best friend,play sims 4 on my laptop ,0.04,0.02,4.4,0,,,,
,,5efe8c25e921d23a9daec079,6685aa9113c938e83b4f1ea0,67158a63798cd468879bae8b,2024-10-20_19h00.59.402,WTP_SM_Choice,2022.2.1,Win32,59.88023952,,,,,,,,,,,,,,,,,,60,,,,,,,,,,0.05,1,2.9596,0,4,4,4,1,watch history documentaries ,go out to eat with my family ,0.05,0.02,1.1,1,,,,
,,5efe8c25e921d23a9daec079,6685aa9113c938e83b4f1ea0,67158a63798cd468879bae8b,2024-10-20_19h00.59.402,WTP_SM_Choice,2022.2.1,Win32,59.88023952,,,,,,,NAN,,NAN,1.72,4.28,,0,59,59,59,1,60,Charlie,Acc,Participant_Images/5efe8c25e921d23a9daec079/5efe8c25e921d23a9daec079_Images/5efe8c25e921d23a9daec079_Image_24.jpeg,liked,1.661473164,,,,,,,,,,,,,,,,,,,,,,
,,5efe8c25e921d23a9daec079,6685aa9113c938e83b4f1ea0,67158a63798cd468879bae8b,2024-10-20_19h00.59.402,WTP_SM_Choice,2022.2.1,Win32,59.88023952,,,,,space,5.1617,NAN,,NAN,1.72,4.28,,0,60,60,60,1,61,Charlie,Acc,Participant_Images/5efe8c25e921d23a9daec079/5efe8c25e921d23a9daec079_Images/5efe8c25e921d23a9daec079_Image_11.jpeg,liked,3.613205605,,,,,,,,,,,,,,,,,,,,,,
,,5efe8c25e921d23a9daec079,6685aa9113c938e83b4f1ea0,67158a63798cd468879bae8b,2024-10-20_19h00.59.402,WTP_SM_Choice,2022.2.1,Win32,59.88023952,,,,,space,3.102,NAN,,NAN,1.72,4.28,,0,61,61,61,1,62,Charlie,Acc,Participant_Images/5efe8c25e921d23a9daec079/5efe8c25e921d23a9daec079_Images/5efe8c25e921d23a9daec079_Image_18.jpeg,liked,4.988446431,,,,,,,,,,,,,,,,,,,,,,
,,5efe8c25e921d23a9daec079,6685aa9113c938e83b4f1ea0,67158a63798cd468879bae8b,2024-10-20_19h00.59.402,WTP_SM_Choice,2022.2.1,Win32,59.88023952,,,,,space,2.0197,NAN,,NAN,1.72,4.28,,0,62,62,62,1,63,Charlie,Acc,Participant_Images/5efe8c25e921d23a9daec079/5efe8c25e921d23a9daec079_Images/5efe8c25e921d23a9daec079_Image_19.jpeg,liked,3.470791822,,,,,,,,,,,,,,,,,,,,,,
,,5efe8c25e921d23a9daec079,6685aa9113c938e83b4f1ea0,67158a63798cd468879bae8b,2024-10-20_19h00.59.402,WTP_SM_Choice,2022.2.1,Win32,59.88023952,,,,,space,3.0518,NAN,,NAN,1.72,4.28,,0,63,63,63,1,64,Charlie,Acc,Participant_Images/5efe8c25e921d23a9daec079/5efe8c25e921d23a9daec079_Images/5efe8c25e921d23a9daec079_Image_17.jpeg,liked,3.820572462,,,,,,,,,,,,,,,,,,,,,,
,,5efe8c25e921d23a9daec079,6685aa9113c938e83b4f1ea0,67158a63798cd468879bae8b,2024-10-20_19h00.59.402,WTP_SM_Choice,2022.2.1,Win32,59.88023952,,,,,,,,,,,,,,,,,,61,,,,,,space,2.3354,space,0.1759,0.03,2,2.4325,0,0,0,0,1,walk in the park ,sit out & see the stars with my best friend,0.01,0.03,3.3,1,,,,
,,5efe8c25e921d23a9daec079,6685aa9113c938e83b4f1ea0,67158a63798cd468879bae8b,2024-10-20_19h00.59.402,WTP_SM_Choice,2022.2.1,Win32,59.88023952,,,,,,,,,,,,,,,,,,62,,,,,,,,,,0.03,2,5.2846,0,1,1,1,1,go to the beach with my partner,play sims 4 on my laptop ,0.02,0.03,3.3,0,,,,
,,5efe8c25e921d23a9daec079,6685aa9113c938e83b4f1ea0,67158a63798cd468879bae8b,2024-10-20_19h00.59.402,WTP_SM_Choice,2022.2.1,Win32,59.88023952,,,,,,,,,,,,,,,,,,63,,,,,,,,,,0.03,2,4.4335,0,2,2,2,1,go out to eat with my family ,make pastries,0.03,0.03,3.3,0,,,,
,,5efe8c25e921d23a9daec079,6685aa9113c938e83b4f1ea0,67158a63798cd468879bae8b,2024-10-20_19h00.59.402,WTP_SM_Choice,2022.2.1,Win32,59.88023952,,,,,,,,,,,,,,,,,,64,,,,,,,,,,0.03,2,5.2503,0,3,3,3,1,long baths to relax myself ,go out to eat with my family ,0.04,0.03,1.1,1,,,,
,,5efe8c25e921d23a9daec079,6685aa9113c938e83b4f1ea0,67158a63798cd468879bae8b,2024-10-20_19h00.59.402,WTP_SM_Choice,2022.2.1,Win32,59.88023952,,,,,,,,,,,,,,,,,,65,,,,,,,,,,0.05,1,4.9742,0,4,4,4,1,workout at the gym with my best friend,listen to music,0.05,0.03,1.1,0,,,,
,,5efe8c25e921d23a9daec079,6685aa9113c938e83b4f1ea0,67158a63798cd468879bae8b,2024-10-20_19h00.59.402,WTP_SM_Choice,2022.2.1,Win32,59.88023952,,,,,,,NAN,,NAN,1.89,4.11,,0,64,64,64,1,65,Charlie,Acc,Participant_Images/5efe8c25e921d23a9daec079/5efe8c25e921d23a9daec079_Images/5efe8c25e921d23a9daec079_Image_8.jpeg,did not like,2.455989137,,,,,,,,,,,,,,,,,,,,,,
,,5efe8c25e921d23a9daec079,6685aa9113c938e83b4f1ea0,67158a63798cd468879bae8b,2024-10-20_19h00.59.402,WTP_SM_Choice,2022.2.1,Win32,59.88023952,,,,,space,1.8363,NAN,,NAN,1.89,4.11,,0,65,65,65,1,66,Charlie,Acc,Participant_Images/5efe8c25e921d23a9daec079/5efe8c25e921d23a9daec079_Images/5efe8c25e921d23a9daec079_Image_9.jpeg,liked,3.79605092,,,,,,,,,,,,,,,,,,,,,,
,,5efe8c25e921d23a9daec079,6685aa9113c938e83b4f1ea0,67158a63798cd468879bae8b,2024-10-20_19h00.59.402,WTP_SM_Choice,2022.2.1,Win32,59.88023952,,,,,space,1.2009,NAN,,NAN,1.89,4.11,,0,66,66,66,1,67,Charlie,Acc,Participant_Images/5efe8c25e921d23a9daec079/5efe8c25e921d23a9daec079_Images/5efe8c25e921d23a9daec079_Image_1.jpeg,liked,3.562416326,,,,,,,,,,,,,,,,,,,,,,
,,5efe8c25e921d23a9daec079,6685aa9113c938e83b4f1ea0,67158a63798cd468879bae8b,2024-10-20_19h00.59.402,WTP_SM_Choice,2022.2.1,Win32,59.88023952,,,,,space,0.8969,NAN,,NAN,1.89,4.11,,0,67,67,67,1,68,Charlie,Acc,Participant_Images/5efe8c25e921d23a9daec079/5efe8c25e921d23a9daec079_Images/5efe8c25e921d23a9daec079_Image_5.jpeg,liked,2.843822497,,,,,,,,,,,,,,,,,,,,,,
,,5efe8c25e921d23a9daec079,6685aa9113c938e83b4f1ea0,67158a63798cd468879bae8b,2024-10-20_19h00.59.402,WTP_SM_Choice,2022.2.1,Win32,59.88023952,,,,,space,3.0841,NAN,,NAN,1.89,4.11,,0,68,68,68,1,69,Charlie,Acc,Participant_Images/5efe8c25e921d23a9daec079/5efe8c25e921d23a9daec079_Images/5efe8c25e921d23a9daec079_Image_6.jpeg,liked,3.546495948,,,,,,,,,,,,,,,,,,,,,,
,,5efe8c25e921d23a9daec079,6685aa9113c938e83b4f1ea0,67158a63798cd468879bae8b,2024-10-20_19h00.59.402,WTP_SM_Choice,2022.2.1,Win32,59.88023952,,,,,,,,,,,,,,,,,,66,,,,,,space,5.6346,space,1.069,0.04,2,2.2016,0,0,0,0,1,go shopping at the mall with my mom,enjoy sewing,0.01,0.04,1.1,0,,,,
,,5efe8c25e921d23a9daec079,6685aa9113c938e83b4f1ea0,67158a63798cd468879bae8b,2024-10-20_19h00.59.402,WTP_SM_Choice,2022.2.1,Win32,59.88023952,,,,,,,,,,,,,,,,,,67,,,,,,,,,,0.02,1,3.9891,0,1,1,1,1,long baths to relax myself ,go shopping at the mall with my mom,0.02,0.04,8.8,1,,,,
,,5efe8c25e921d23a9daec079,6685aa9113c938e83b4f1ea0,67158a63798cd468879bae8b,2024-10-20_19h00.59.402,WTP_SM_Choice,2022.2.1,Win32,59.88023952,,,,,,,,,,,,,,,,,,68,,,,,,,,,,0.04,2,3.0321,0,2,2,2,1,go out to eat with my family ,enjoy sewing,0.03,0.04,4.4,0,,,,
,,5efe8c25e921d23a9daec079,6685aa9113c938e83b4f1ea0,67158a63798cd468879bae8b,2024-10-20_19h00.59.402,WTP_SM_Choice,2022.2.1,Win32,59.88023952,,,,,,,,,,,,,,,,,,69,,,,,,,,,,0.04,2,4.5152,0,3,3,3,1,long baths to relax myself ,hang out at home with friends ,0.04,0.04,1.1,1,,,,
,,5efe8c25e921d23a9daec079,6685aa9113c938e83b4f1ea0,67158a63798cd468879bae8b,2024-10-20_19h00.59.402,WTP_SM_Choice,2022.2.1,Win32,59.88023952,,,,,,,,,,,,,,,,,,70,,,,,,,,,,0.05,1,6.6832,0,4,4,4,1,window watch sometimes,go to the spa with my cousins,0.05,0.04,1.1,1,,,,
,,5efe8c25e921d23a9daec079,6685aa9113c938e83b4f1ea0,67158a63798cd468879bae8b,2024-10-20_19h00.59.402,WTP_SM_Choice,2022.2.1,Win32,59.88023952,,,,,,,NAN,,NAN,2.08,3.92,,0,69,69,69,1,70,Charlie,Acc,Participant_Images/5efe8c25e921d23a9daec079/5efe8c25e921d23a9daec079_Images/5efe8c25e921d23a9daec079_Image_23.jpeg,liked,1.672012706,,,,,,,,,,,,,,,,,,,,,,
,,5efe8c25e921d23a9daec079,6685aa9113c938e83b4f1ea0,67158a63798cd468879bae8b,2024-10-20_19h00.59.402,WTP_SM_Choice,2022.2.1,Win32,59.88023952,,,,,space,2.3708,NAN,,NAN,2.08,3.92,,0,70,70,70,1,71,Charlie,Acc,Participant_Images/5efe8c25e921d23a9daec079/5efe8c25e921d23a9daec079_Images/5efe8c25e921d23a9daec079_Image_4.jpeg,liked,4.942172136,,,,,,,,,,,,,,,,,,,,,,
,,5efe8c25e921d23a9daec079,6685aa9113c938e83b4f1ea0,67158a63798cd468879bae8b,2024-10-20_19h00.59.402,WTP_SM_Choice,2022.2.1,Win32,59.88023952,,,,,space,2.685,NAN,,NAN,2.08,3.92,,0,71,71,71,1,72,Charlie,Acc,Participant_Images/5efe8c25e921d23a9daec079/5efe8c25e921d23a9daec079_Images/5efe8c25e921d23a9daec079_Image_13.jpeg,did not like,2.50187214,,,,,,,,,,,,,,,,,,,,,,
,,5efe8c25e921d23a9daec079,6685aa9113c938e83b4f1ea0,67158a63798cd468879bae8b,2024-10-20_19h00.59.402,WTP_SM_Choice,2022.2.1,Win32,59.88023952,,,,,space,2.2851,NAN,,NAN,2.08,3.92,,0,72,72,72,1,73,Charlie,Acc,Participant_Images/5efe8c25e921d23a9daec079/5efe8c25e921d23a9daec079_Images/5efe8c25e921d23a9daec079_Image_21.jpeg,did not like,2.071164779,,,,,,,,,,,,,,,,,,,,,,
,,5efe8c25e921d23a9daec079,6685aa9113c938e83b4f1ea0,67158a63798cd468879bae8b,2024-10-20_19h00.59.402,WTP_SM_Choice,2022.2.1,Win32,59.88023952,,,,,space,1.8999,NAN,,NAN,2.08,3.92,,0,73,73,73,1,74,Charlie,Acc,Participant_Images/5efe8c25e921d23a9daec079/5efe8c25e921d23a9daec079_Images/5efe8c25e921d23a9daec079_Image_25.jpeg,liked,5.336503566,,,,,,,,,,,,,,,,,,,,,,
,,5efe8c25e921d23a9daec079,6685aa9113c938e83b4f1ea0,67158a63798cd468879bae8b,2024-10-20_19h00.59.402,WTP_SM_Choice,2022.2.1,Win32,59.88023952,,,,,,,,,,,,,,,,,,71,,,,,,space,4.1339,space,1.5024,0.05,2,2.0971,0,0,0,0,1,make videos  ,workout at the gym with my best friend,0.01,0.05,3.3,1,,,,
,,5efe8c25e921d23a9daec079,6685aa9113c938e83b4f1ea0,67158a63798cd468879bae8b,2024-10-20_19h00.59.402,WTP_SM_Choice,2022.2.1,Win32,59.88023952,,,,,,,,,,,,,,,,,,72,,,,,,,,,,0.05,2,2.01,0,1,1,1,1,make pastries,walk around the park with friends,0.02,0.05,8.8,1,,,,
,,5efe8c25e921d23a9daec079,6685aa9113c938e83b4f1ea0,67158a63798cd468879bae8b,2024-10-20_19h00.59.402,WTP_SM_Choice,2022.2.1,Win32,59.88023952,,,,,,,,,,,,,,,,,,73,,,,,,,,,,0.05,2,2.3484,0,2,2,2,1,read books,workout at the gym with my best friend,0.03,0.05,3.3,1,,,,
,,5efe8c25e921d23a9daec079,6685aa9113c938e83b4f1ea0,67158a63798cd468879bae8b,2024-10-20_19h00.59.402,WTP_SM_Choice,2022.2.1,Win32,59.88023952,,,,,,,,,,,,,,,,,,74,,,,,,,,,,0.05,2,3.4717,0,3,3,3,1,hang out at home with friends ,listen to music,0.04,0.05,4.4,0,,,,
,,5efe8c25e921d23a9daec079,6685aa9113c938e83b4f1ea0,67158a63798cd468879bae8b,2024-10-20_19h00.59.402,WTP_SM_Choice,2022.2.1,Win32,59.88023952,,,,,,,,,,,,,,,,,,75,,,,,,,,,,0.05,1,2.5522,0,4,4,4,1,read books,go to the spa with my cousins,0.05,0.05,3.3,1,,,,
,,5efe8c25e921d23a9daec079,6685aa9113c938e83b4f1ea0,67158a63798cd468879bae8b,2024-10-20_19h00.59.402,WTP_SM_Choice,2022.2.1,Win32,59.88023952,,,,,,,4,,8,2.33,3.67,,0,74,74,74,1,75,Charlie,Acc,Participant_Images/5efe8c25e921d23a9daec079/5efe8c25e921d23a9daec079_Images/5efe8c25e921d23a9daec079_Image_22.jpeg,liked,2.642157193,,,,,,,,,,,,,,,,,,,space,2.8016,,
,,5efe8c25e921d23a9daec079,6685aa9113c938e83b4f1ea0,67158a63798cd468879bae8b,2024-10-20_19h00.59.402,WTP_SM_Choice,2022.2.1,Win32,59.88023952,,,space,2.92,space,3.3698,NAN,,NAN,2.33,3.67,,0,75,75,75,1,76,Riley,Acc,Participant_Images/5efe8c25e921d23a9daec079/5efe8c25e921d23a9daec079_Images/5efe8c25e921d23a9daec079_Image_3.jpeg,liked,4.456234322,,,,,,,,,,,,,,,,,,,,,,
,,5efe8c25e921d23a9daec079,6685aa9113c938e83b4f1ea0,67158a63798cd468879bae8b,2024-10-20_19h00.59.402,WTP_SM_Choice,2022.2.1,Win32,59.88023952,,,,,space,8.7378,NAN,,NAN,2.33,3.67,,0,76,76,76,1,77,Riley,Acc,Participant_Images/5efe8c25e921d23a9daec079/5efe8c25e921d23a9daec079_Images/5efe8c25e921d23a9daec079_Image_25.jpeg,did not like,4.438512181,,,,,,,,,,,,,,,,,,,,,,
,,5efe8c25e921d23a9daec079,6685aa9113c938e83b4f1ea0,67158a63798cd468879bae8b,2024-10-20_19h00.59.402,WTP_SM_Choice,2022.2.1,Win32,59.88023952,,,,,space,5.3359,NAN,,NAN,2.33,3.67,,0,77,77,77,1,78,Riley,Acc,Participant_Images/5efe8c25e921d23a9daec079/5efe8c25e921d23a9daec079_Images/5efe8c25e921d23a9daec079_Image_15.jpeg,did not like,2.682944783,,,,,,,,,,,,,,,,,,,,,,
,,5efe8c25e921d23a9daec079,6685aa9113c938e83b4f1ea0,67158a63798cd468879bae8b,2024-10-20_19h00.59.402,WTP_SM_Choice,2022.2.1,Win32,59.88023952,,,,,space,1.6512,NAN,,NAN,2.33,3.67,,0,78,78,78,1,79,Riley,Acc,Participant_Images/5efe8c25e921d23a9daec079/5efe8c25e921d23a9daec079_Images/5efe8c25e921d23a9daec079_Image_2.jpeg,liked,4.51984296,,,,,,,,,,,,,,,,,,,,,,
,,5efe8c25e921d23a9daec079,6685aa9113c938e83b4f1ea0,67158a63798cd468879bae8b,2024-10-20_19h00.59.402,WTP_SM_Choice,2022.2.1,Win32,59.88023952,,,,,,,,,,,,,,,,,,76,,,,,,space,1.6782,space,1.2187,0.01,2,3.3828,0,0,0,0,1,long baths to relax myself ,go to the beach with my partner,0.01,0.01,1.1,1,,,,
,,5efe8c25e921d23a9daec079,6685aa9113c938e83b4f1ea0,67158a63798cd468879bae8b,2024-10-20_19h00.59.402,WTP_SM_Choice,2022.2.1,Win32,59.88023952,,,,,,,,,,,,,,,,,,77,,,,,,,,,,0.02,1,3.4008,0,1,1,1,1,play sims 4 on my laptop ,go shopping at the mall with my mom,0.02,0.01,8.8,1,,,,
,,5efe8c25e921d23a9daec079,6685aa9113c938e83b4f1ea0,67158a63798cd468879bae8b,2024-10-20_19h00.59.402,WTP_SM_Choice,2022.2.1,Win32,59.88023952,,,,,,,,,,,,,,,,,,78,,,,,,,,,,0.03,1,2.8168,0,2,2,2,1,sit out & see the stars with my best friend,make pastries,0.03,0.01,1.1,0,,,,
,,5efe8c25e921d23a9daec079,6685aa9113c938e83b4f1ea0,67158a63798cd468879bae8b,2024-10-20_19h00.59.402,WTP_SM_Choice,2022.2.1,Win32,59.88023952,,,,,,,,,,,,,,,,,,79,,,,,,,,,,0.04,1,6.235,0,3,3,3,1,go shopping at the mall with my mom,make videos  ,0.04,0.01,1.1,0,,,,
,,5efe8c25e921d23a9daec079,6685aa9113c938e83b4f1ea0,67158a63798cd468879bae8b,2024-10-20_19h00.59.402,WTP_SM_Choice,2022.2.1,Win32,59.88023952,,,,,,,,,,,,,,,,,,80,,,,,,,,,,0.01,2,3.085,0,4,4,4,1,read books,sit out & see the stars with my best friend,0.05,0.01,4.4,1,,,,
,,5efe8c25e921d23a9daec079,6685aa9113c938e83b4f1ea0,67158a63798cd468879bae8b,2024-10-20_19h00.59.402,WTP_SM_Choice,2022.2.1,Win32,59.88023952,,,,,,,NAN,,NAN,2.44,3.56,,0,79,79,79,1,80,Riley,Acc,Participant_Images/5efe8c25e921d23a9daec079/5efe8c25e921d23a9daec079_Images/5efe8c25e921d23a9daec079_Image_22.jpeg,liked,3.195382774,,,,,,,,,,,,,,,,,,,,,,
,,5efe8c25e921d23a9daec079,6685aa9113c938e83b4f1ea0,67158a63798cd468879bae8b,2024-10-20_19h00.59.402,WTP_SM_Choice,2022.2.1,Win32,59.88023952,,,,,space,2.0345,NAN,,NAN,2.44,3.56,,0,80,80,80,1,81,Riley,Acc,Participant_Images/5efe8c25e921d23a9daec079/5efe8c25e921d23a9daec079_Images/5efe8c25e921d23a9daec079_Image_12.jpeg,liked,1.779333479,,,,,,,,,,,,,,,,,,,,,,
,,5efe8c25e921d23a9daec079,6685aa9113c938e83b4f1ea0,67158a63798cd468879bae8b,2024-10-20_19h00.59.402,WTP_SM_Choice,2022.2.1,Win32,59.88023952,,,,,space,6.5657,NAN,,NAN,2.44,3.56,,0,81,81,81,1,82,Riley,Acc,Participant_Images/5efe8c25e921d23a9daec079/5efe8c25e921d23a9daec079_Images/5efe8c25e921d23a9daec079_Image_20.jpeg,liked,4.312468682,,,,,,,,,,,,,,,,,,,,,,
,,5efe8c25e921d23a9daec079,6685aa9113c938e83b4f1ea0,67158a63798cd468879bae8b,2024-10-20_19h00.59.402,WTP_SM_Choice,2022.2.1,Win32,59.88023952,,,,,space,2.0361,NAN,,NAN,2.44,3.56,,0,82,82,82,1,83,Riley,Acc,Participant_Images/5efe8c25e921d23a9daec079/5efe8c25e921d23a9daec079_Images/5efe8c25e921d23a9daec079_Image_5.jpeg,liked,4.940433059,,,,,,,,,,,,,,,,,,,,,,
,,5efe8c25e921d23a9daec079,6685aa9113c938e83b4f1ea0,67158a63798cd468879bae8b,2024-10-20_19h00.59.402,WTP_SM_Choice,2022.2.1,Win32,59.88023952,,,,,space,2.2015,NAN,,NAN,2.44,3.56,,0,83,83,83,1,84,Riley,Acc,Participant_Images/5efe8c25e921d23a9daec079/5efe8c25e921d23a9daec079_Images/5efe8c25e921d23a9daec079_Image_24.jpeg,liked,2.7105123,,,,,,,,,,,,,,,,,,,,,,
,,5efe8c25e921d23a9daec079,6685aa9113c938e83b4f1ea0,67158a63798cd468879bae8b,2024-10-20_19h00.59.402,WTP_SM_Choice,2022.2.1,Win32,59.88023952,,,,,,,,,,,,,,,,,,81,,,,,,space,0.7154,space,0.9375,0.02,2,3.2397,0,0,0,0,1,listen to music,go out to eat with my family ,0.01,0.02,3.3,1,,,,
,,5efe8c25e921d23a9daec079,6685aa9113c938e83b4f1ea0,67158a63798cd468879bae8b,2024-10-20_19h00.59.402,WTP_SM_Choice,2022.2.1,Win32,59.88023952,,,,,,,,,,,,,,,,,,82,,,,,,,,,,0.02,1,2.5124,0,1,1,1,1,go out to eat with my family ,play sims 4 on my laptop ,0.02,0.02,4.4,0,,,,
,,5efe8c25e921d23a9daec079,6685aa9113c938e83b4f1ea0,67158a63798cd468879bae8b,2024-10-20_19h00.59.402,WTP_SM_Choice,2022.2.1,Win32,59.88023952,,,,,,,,,,,,,,,,,,83,,,,,,,,,,0.03,1,1.5418,0,2,2,2,1,go to the beach with my partner,make pastries,0.03,0.02,1.1,0,,,,
,,5efe8c25e921d23a9daec079,6685aa9113c938e83b4f1ea0,67158a63798cd468879bae8b,2024-10-20_19h00.59.402,WTP_SM_Choice,2022.2.1,Win32,59.88023952,,,,,,,,,,,,,,,,,,84,,,,,,,,,,0.04,1,2.3765,0,3,3,3,1,watch history documentaries ,walk around the park with friends,0.04,0.02,3.3,1,,,,
,,5efe8c25e921d23a9daec079,6685aa9113c938e83b4f1ea0,67158a63798cd468879bae8b,2024-10-20_19h00.59.402,WTP_SM_Choice,2022.2.1,Win32,59.88023952,,,,,,,,,,,,,,,,,,85,,,,,,,,,,0.02,2,6.0521,0,4,4,4,1,make videos  ,go out to eat with my family ,0.05,0.02,3.3,1,,,,
,,5efe8c25e921d23a9daec079,6685aa9113c938e83b4f1ea0,67158a63798cd468879bae8b,2024-10-20_19h00.59.402,WTP_SM_Choice,2022.2.1,Win32,59.88023952,,,,,,,NAN,,NAN,2.57,3.43,,0,84,84,84,1,85,Riley,Acc,Participant_Images/5efe8c25e921d23a9daec079/5efe8c25e921d23a9daec079_Images/5efe8c25e921d23a9daec079_Image_21.jpeg,liked,3.602308302,,,,,,,,,,,,,,,,,,,,,,
,,5efe8c25e921d23a9daec079,6685aa9113c938e83b4f1ea0,67158a63798cd468879bae8b,2024-10-20_19h00.59.402,WTP_SM_Choice,2022.2.1,Win32,59.88023952,,,,,space,0.8832,NAN,,NAN,2.57,3.43,,0,85,85,85,1,86,Riley,Acc,Participant_Images/5efe8c25e921d23a9daec079/5efe8c25e921d23a9daec079_Images/5efe8c25e921d23a9daec079_Image_10.jpeg,liked,4.106391878,,,,,,,,,,,,,,,,,,,,,,
,,5efe8c25e921d23a9daec079,6685aa9113c938e83b4f1ea0,67158a63798cd468879bae8b,2024-10-20_19h00.59.402,WTP_SM_Choice,2022.2.1,Win32,59.88023952,,,,,space,1.6616,NAN,,NAN,2.57,3.43,,0,86,86,86,1,87,Riley,Acc,Participant_Images/5efe8c25e921d23a9daec079/5efe8c25e921d23a9daec079_Images/5efe8c25e921d23a9daec079_Image_6.jpeg,liked,3.799433026,,,,,,,,,,,,,,,,,,,,,,
,,5efe8c25e921d23a9daec079,6685aa9113c938e83b4f1ea0,67158a63798cd468879bae8b,2024-10-20_19h00.59.402,WTP_SM_Choice,2022.2.1,Win32,59.88023952,,,,,space,2.0185,NAN,,NAN,2.57,3.43,,0,87,87,87,1,88,Riley,Acc,Participant_Images/5efe8c25e921d23a9daec079/5efe8c25e921d23a9daec079_Images/5efe8c25e921d23a9daec079_Image_14.jpeg,liked,5.246980764,,,,,,,,,,,,,,,,,,,,,,
,,5efe8c25e921d23a9daec079,6685aa9113c938e83b4f1ea0,67158a63798cd468879bae8b,2024-10-20_19h00.59.402,WTP_SM_Choice,2022.2.1,Win32,59.88023952,,,,,space,3.81,NAN,,NAN,2.57,3.43,,0,88,88,88,1,89,Riley,Acc,Participant_Images/5efe8c25e921d23a9daec079/5efe8c25e921d23a9daec079_Images/5efe8c25e921d23a9daec079_Image_17.jpeg,liked,3.30081769,,,,,,,,,,,,,,,,,,,,,,
,,5efe8c25e921d23a9daec079,6685aa9113c938e83b4f1ea0,67158a63798cd468879bae8b,2024-10-20_19h00.59.402,WTP_SM_Choice,2022.2.1,Win32,59.88023952,,,,,,,,,,,,,,,,,,86,,,,,,space,2.5188,space,1.4843,0.01,1,3.7058,0,0,0,0,1,walk around the park with friends,make videos  ,0.01,0.03,1.1,0,,,,
,,5efe8c25e921d23a9daec079,6685aa9113c938e83b4f1ea0,67158a63798cd468879bae8b,2024-10-20_19h00.59.402,WTP_SM_Choice,2022.2.1,Win32,59.88023952,,,,,,,,,,,,,,,,,,87,,,,,,,,,,0.02,1,2.5971,0,1,1,1,1,make food with my family,make pastries,0.02,0.03,4.4,0,,,,
,,5efe8c25e921d23a9daec079,6685aa9113c938e83b4f1ea0,67158a63798cd468879bae8b,2024-10-20_19h00.59.402,WTP_SM_Choice,2022.2.1,Win32,59.88023952,,,,,,,,,,,,,,,,,,88,,,,,,,,,,0.03,2,6.9823,0,2,2,2,1,go to the movies with my mom,play sims 4 on my laptop ,0.03,0.03,1.1,0,,,,
,,5efe8c25e921d23a9daec079,6685aa9113c938e83b4f1ea0,67158a63798cd468879bae8b,2024-10-20_19h00.59.402,WTP_SM_Choice,2022.2.1,Win32,59.88023952,,,,,,,,,,,,,,,,,,89,,,,,,,,,,0.04,1,2.364,0,3,3,3,1,make videos  ,go to the beach with my partner,0.04,0.03,3.3,1,,,,
,,5efe8c25e921d23a9daec079,6685aa9113c938e83b4f1ea0,67158a63798cd468879bae8b,2024-10-20_19h00.59.402,WTP_SM_Choice,2022.2.1,Win32,59.88023952,,,,,,,,,,,,,,,,,,90,,,,,,,,,,0.05,1,1.3421,0,4,4,4,1,play sims 4 on my laptop ,go to the spa with my cousins,0.05,0.03,8.8,1,,,,
,,5efe8c25e921d23a9daec079,6685aa9113c938e83b4f1ea0,67158a63798cd468879bae8b,2024-10-20_19h00.59.402,WTP_SM_Choice,2022.2.1,Win32,59.88023952,,,,,,,NAN,,NAN,2.72,3.28,,0,89,89,89,1,90,Riley,Acc,Participant_Images/5efe8c25e921d23a9daec079/5efe8c25e921d23a9daec079_Images/5efe8c25e921d23a9daec079_Image_4.jpeg,liked,1.661473164,,,,,,,,,,,,,,,,,,,,,,
,,5efe8c25e921d23a9daec079,6685aa9113c938e83b4f1ea0,67158a63798cd468879bae8b,2024-10-20_19h00.59.402,WTP_SM_Choice,2022.2.1,Win32,59.88023952,,,,,space,5.2681,NAN,,NAN,2.72,3.28,,0,90,90,90,1,91,Riley,Acc,Participant_Images/5efe8c25e921d23a9daec079/5efe8c25e921d23a9daec079_Images/5efe8c25e921d23a9daec079_Image_16.jpeg,did not like,3.613205605,,,,,,,,,,,,,,,,,,,,,,
,,5efe8c25e921d23a9daec079,6685aa9113c938e83b4f1ea0,67158a63798cd468879bae8b,2024-10-20_19h00.59.402,WTP_SM_Choice,2022.2.1,Win32,59.88023952,,,,,space,0.9368,NAN,,NAN,2.72,3.28,,0,91,91,91,1,92,Riley,Acc,Participant_Images/5efe8c25e921d23a9daec079/5efe8c25e921d23a9daec079_Images/5efe8c25e921d23a9daec079_Image_13.jpeg,did not like,4.988446431,,,,,,,,,,,,,,,,,,,,,,
,,5efe8c25e921d23a9daec079,6685aa9113c938e83b4f1ea0,67158a63798cd468879bae8b,2024-10-20_19h00.59.402,WTP_SM_Choice,2022.2.1,Win32,59.88023952,,,,,space,2.288,NAN,,NAN,2.72,3.28,,0,92,92,92,1,93,Riley,Acc,Participant_Images/5efe8c25e921d23a9daec079/5efe8c25e921d23a9daec079_Images/5efe8c25e921d23a9daec079_Image_18.jpeg,did not like,3.470791822,,,,,,,,,,,,,,,,,,,,,,
,,5efe8c25e921d23a9daec079,6685aa9113c938e83b4f1ea0,67158a63798cd468879bae8b,2024-10-20_19h00.59.402,WTP_SM_Choice,2022.2.1,Win32,59.88023952,,,,,space,1.9038,NAN,,NAN,2.72,3.28,,0,93,93,93,1,94,Riley,Acc,Participant_Images/5efe8c25e921d23a9daec079/5efe8c25e921d23a9daec079_Images/5efe8c25e921d23a9daec079_Image_9.jpeg,did not like,3.820572462,,,,,,,,,,,,,,,,,,,,,,
,,5efe8c25e921d23a9daec079,6685aa9113c938e83b4f1ea0,67158a63798cd468879bae8b,2024-10-20_19h00.59.402,WTP_SM_Choice,2022.2.1,Win32,59.88023952,,,,,,,,,,,,,,,,,,91,,,,,,space,1.3999,space,0.5859,0.04,2,1.7981,0,0,0,0,1,long baths to relax myself ,go to the movies with my mom,0.01,0.04,3.3,1,,,,
,,5efe8c25e921d23a9daec079,6685aa9113c938e83b4f1ea0,67158a63798cd468879bae8b,2024-10-20_19h00.59.402,WTP_SM_Choice,2022.2.1,Win32,59.88023952,,,,,,,,,,,,,,,,,,92,,,,,,,,,,0.04,2,5.1354,0,1,1,1,1,go to the spa with my cousins,make videos  ,0.02,0.04,8.8,0,,,,
,,5efe8c25e921d23a9daec079,6685aa9113c938e83b4f1ea0,67158a63798cd468879bae8b,2024-10-20_19h00.59.402,WTP_SM_Choice,2022.2.1,Win32,59.88023952,,,,,,,,,,,,,,,,,,93,,,,,,,,,,0.04,2,2.8433,0,2,2,2,1,hang out at home with friends ,make pastries,0.03,0.04,1.1,0,,,,
,,5efe8c25e921d23a9daec079,6685aa9113c938e83b4f1ea0,67158a63798cd468879bae8b,2024-10-20_19h00.59.402,WTP_SM_Choice,2022.2.1,Win32,59.88023952,,,,,,,,,,,,,,,,,,94,,,,,,,,,,0.04,2,2.3654,0,3,3,3,1,sit out & see the stars with my best friend,listen to music,0.04,0.04,4.4,0,,,,
,,5efe8c25e921d23a9daec079,6685aa9113c938e83b4f1ea0,67158a63798cd468879bae8b,2024-10-20_19h00.59.402,WTP_SM_Choice,2022.2.1,Win32,59.88023952,,,,,,,,,,,,,,,,,,95,,,,,,,,,,0.05,1,3.2174,0,4,4,4,1,read books,walk around the park with friends,0.05,0.04,4.4,1,,,,
,,5efe8c25e921d23a9daec079,6685aa9113c938e83b4f1ea0,67158a63798cd468879bae8b,2024-10-20_19h00.59.402,WTP_SM_Choice,2022.2.1,Win32,59.88023952,,,,,,,NAN,,NAN,2.93,3.07,,0,94,94,94,1,95,Riley,Acc,Participant_Images/5efe8c25e921d23a9daec079/5efe8c25e921d23a9daec079_Images/5efe8c25e921d23a9daec079_Image_19.jpeg,did not like,2.455989137,,,,,,,,,,,,,,,,,,,,,,
,,5efe8c25e921d23a9daec079,6685aa9113c938e83b4f1ea0,67158a63798cd468879bae8b,2024-10-20_19h00.59.402,WTP_SM_Choice,2022.2.1,Win32,59.88023952,,,,,space,9.8197,NAN,,NAN,2.93,3.07,,0,95,95,95,1,96,Riley,Acc,Participant_Images/5efe8c25e921d23a9daec079/5efe8c25e921d23a9daec079_Images/5efe8c25e921d23a9daec079_Image_8.jpeg,liked,3.79605092,,,,,,,,,,,,,,,,,,,,,,
,,5efe8c25e921d23a9daec079,6685aa9113c938e83b4f1ea0,67158a63798cd468879bae8b,2024-10-20_19h00.59.402,WTP_SM_Choice,2022.2.1,Win32,59.88023952,,,,,space,4.6915,NAN,,NAN,2.93,3.07,,0,96,96,96,1,97,Riley,Acc,Participant_Images/5efe8c25e921d23a9daec079/5efe8c25e921d23a9daec079_Images/5efe8c25e921d23a9daec079_Image_1.jpeg,liked,3.562416326,,,,,,,,,,,,,,,,,,,,,,
,,5efe8c25e921d23a9daec079,6685aa9113c938e83b4f1ea0,67158a63798cd468879bae8b,2024-10-20_19h00.59.402,WTP_SM_Choice,2022.2.1,Win32,59.88023952,,,,,space,1.4019,NAN,,NAN,2.93,3.07,,0,97,97,97,1,98,Riley,Acc,Participant_Images/5efe8c25e921d23a9daec079/5efe8c25e921d23a9daec079_Images/5efe8c25e921d23a9daec079_Image_23.jpeg,liked,2.843822497,,,,,,,,,,,,,,,,,,,,,,
,,5efe8c25e921d23a9daec079,6685aa9113c938e83b4f1ea0,67158a63798cd468879bae8b,2024-10-20_19h00.59.402,WTP_SM_Choice,2022.2.1,Win32,59.88023952,,,,,space,1.3017,NAN,,NAN,2.93,3.07,,0,98,98,98,1,99,Riley,Acc,Participant_Images/5efe8c25e921d23a9daec079/5efe8c25e921d23a9daec079_Images/5efe8c25e921d23a9daec079_Image_7.jpeg,liked,3.546495948,,,,,,,,,,,,,,,,,,,,,,
,,5efe8c25e921d23a9daec079,6685aa9113c938e83b4f1ea0,67158a63798cd468879bae8b,2024-10-20_19h00.59.402,WTP_SM_Choice,2022.2.1,Win32,59.88023952,,,,,,,,,,,,,,,,,,96,,,,,,space,0.9183,space,0.7193,0.05,2,2.1337,0,0,0,0,1,go to the movies with my mom,window watch sometimes,0.01,0.05,3.3,0,,,,
,,5efe8c25e921d23a9daec079,6685aa9113c938e83b4f1ea0,67158a63798cd468879bae8b,2024-10-20_19h00.59.402,WTP_SM_Choice,2022.2.1,Win32,59.88023952,,,,,,,,,,,,,,,,,,97,,,,,,,,,,0.05,2,2.0539,0,1,1,1,1,go to the movies with my mom,walk in the park ,0.02,0.05,1.1,0,,,,
,,5efe8c25e921d23a9daec079,6685aa9113c938e83b4f1ea0,67158a63798cd468879bae8b,2024-10-20_19h00.59.402,WTP_SM_Choice,2022.2.1,Win32,59.88023952,,,,,,,,,,,,,,,,,,98,,,,,,,,,,0.05,2,2.7008,0,2,2,2,1,long baths to relax myself ,walk around the park with friends,0.03,0.05,1.1,1,,,,
,,5efe8c25e921d23a9daec079,6685aa9113c938e83b4f1ea0,67158a63798cd468879bae8b,2024-10-20_19h00.59.402,WTP_SM_Choice,2022.2.1,Win32,59.88023952,,,,,,,,,,,,,,,,,,99,,,,,,,,,,0.05,2,5.1534,0,3,3,3,1,go to the movies with my mom,make pastries,0.04,0.05,3.3,0,,,,
,,5efe8c25e921d23a9daec079,6685aa9113c938e83b4f1ea0,67158a63798cd468879bae8b,2024-10-20_19h00.59.402,WTP_SM_Choice,2022.2.1,Win32,59.88023952,,,,,,,,,,,,,,,,,,100,,,,,,,,,,0.05,2,1.7995,0,4,4,4,1,go out to eat with my family ,window watch sometimes,0.05,0.05,4.4,0,,,,
,,5efe8c25e921d23a9daec079,6685aa9113c938e83b4f1ea0,67158a63798cd468879bae8b,2024-10-20_19h00.59.402,WTP_SM_Choice,2022.2.1,Win32,59.88023952,,,,,,,4,,9,3.18,2.82,,0,99,99,99,1,100,Riley,Acc,Participant_Images/5efe8c25e921d23a9daec079/5efe8c25e921d23a9daec079_Images/5efe8c25e921d23a9daec079_Image_11.jpeg,liked,1.672012706,,,,,,,,,,,,,,,,,,,space,1.5199,,
,,5efe8c25e921d23a9daec079,6685aa9113c938e83b4f1ea0,67158a63798cd468879bae8b,2024-10-20_19h00.59.402,WTP_SM_Choice,2022.2.1,Win32,59.88023952,,,,,,,,,,,,,,,,,,,,,,,,,,,,,,,,,,,,,,,,,,,,space,2.0267
