endwelcomescreen_keys.keys,endwelcomescreen_keys.rt,participant,STUDY_ID,SESSION_ID,date,expName,psychopyVersion,OS,frameRate,endinstructionscreen_keys.keys,endinstructionscreen_keys.rt,endpartnermatch_keys.keys,endpartnermatch_keys.rt,sharenextphoto_key.keys,sharenextphoto_key.rt,salience_rating,key_resp.keys,stress_level,subtract_bonus,TOTAL_TASK_BONUS,stresslevel_keypress.keys,entiretaskloop.thisRepN,entiretaskloop.thisTrialN,entiretaskloop.thisN,entiretaskloop.thisIndex,entiretaskloop.ran,TrialNumber,Partner,Condition,Photos,Feedback,FeedbackWait,WTP_ins_keys1.keys,WTP_ins_keys1.rt,WTP_ins_keys2.keys,WTP_ins_keys2.rt,decision_price,responses.keys,responses.rt,WTPTaskLoop.thisRepN,WTPTaskLoop.thisTrialN,WTPTaskLoop.thisN,WTPTaskLoop.thisIndex,WTPTaskLoop.ran,right,left,leftmoney,rightmoney,WTP_ITI,social_left,Resume_keys.keys,Resume_keys.rt,end_screen_keys.keys,end_screen_keys.rt
space,3.6687,5f0f5df48a1b1a114c3dacc5,6685aa9113c938e83b4f1ea0,6708395deef82b5b9beb9155,2024-10-10_15h31.56.633,WTP_SM_Choice,2022.2.1,Win32,59.88023952,,,,,,,,,,,,,,,,,,,,,,,,,,,,,,,,,,,,,,,,,,,,,
,,5f0f5df48a1b1a114c3dacc5,6685aa9113c938e83b4f1ea0,6708395deef82b5b9beb9155,2024-10-10_15h31.56.633,WTP_SM_Choice,2022.2.1,Win32,59.88023952,space,13.2231,,,,,,,,,,,,,,,,,,,,,,,,,,,,,,,,,,,,,,,,,,,
,,5f0f5df48a1b1a114c3dacc5,6685aa9113c938e83b4f1ea0,6708395deef82b5b9beb9155,2024-10-10_15h31.56.633,WTP_SM_Choice,2022.2.1,Win32,59.88023952,,,space,6.0674,space,2.0032,NAN,,NAN,0,6,,0,0,0,0,1,1,Sam,Rej,Participant_Images/5f0f5df48a1b1a114c3dacc5/5f0f5df48a1b1a114c3dacc5_Images/5f0f5df48a1b1a114c3dacc5_Image_2.jpeg,did not like,3.613205605,,,,,,,,,,,,,,,,,,,,,,
,,5f0f5df48a1b1a114c3dacc5,6685aa9113c938e83b4f1ea0,6708395deef82b5b9beb9155,2024-10-10_15h31.56.633,WTP_SM_Choice,2022.2.1,Win32,59.88023952,,,,,space,1.4679,NAN,,NAN,0,6,,0,1,1,1,1,2,Sam,Rej,Participant_Images/5f0f5df48a1b1a114c3dacc5/5f0f5df48a1b1a114c3dacc5_Images/5f0f5df48a1b1a114c3dacc5_Image_22.jpeg,did not like,4.988446431,,,,,,,,,,,,,,,,,,,,,,
,,5f0f5df48a1b1a114c3dacc5,6685aa9113c938e83b4f1ea0,6708395deef82b5b9beb9155,2024-10-10_15h31.56.633,WTP_SM_Choice,2022.2.1,Win32,59.88023952,,,,,space,1.5261,NAN,,NAN,0,6,,0,2,2,2,1,3,Sam,Rej,Participant_Images/5f0f5df48a1b1a114c3dacc5/5f0f5df48a1b1a114c3dacc5_Images/5f0f5df48a1b1a114c3dacc5_Image_17.jpeg,did not like,3.470791822,,,,,,,,,,,,,,,,,,,,,,
,,5f0f5df48a1b1a114c3dacc5,6685aa9113c938e83b4f1ea0,6708395deef82b5b9beb9155,2024-10-10_15h31.56.633,WTP_SM_Choice,2022.2.1,Win32,59.88023952,,,,,space,0.9741,NAN,,NAN,0,6,,0,3,3,3,1,4,Sam,Rej,Participant_Images/5f0f5df48a1b1a114c3dacc5/5f0f5df48a1b1a114c3dacc5_Images/5f0f5df48a1b1a114c3dacc5_Image_13.jpeg,did not like,3.820572462,,,,,,,,,,,,,,,,,,,,,,
,,5f0f5df48a1b1a114c3dacc5,6685aa9113c938e83b4f1ea0,6708395deef82b5b9beb9155,2024-10-10_15h31.56.633,WTP_SM_Choice,2022.2.1,Win32,59.88023952,,,,,,,,,,,,,,,,,,1,,,,,,space,16.946,space,4.5499,0.01,1,8.9296,0,0,0,0,1,spend time crocheting,Laying infront of a big fan with my family,0.01,0.01,4.4,1,,,,
,,5f0f5df48a1b1a114c3dacc5,6685aa9113c938e83b4f1ea0,6708395deef82b5b9beb9155,2024-10-10_15h31.56.633,WTP_SM_Choice,2022.2.1,Win32,59.88023952,,,,,,,,,,,,,,,,,,2,,,,,,,,,,0.02,1,4.0248,0,1,1,1,1,learning new things with my husband,spend time crocheting,0.02,0.01,8.8,0,,,,
,,5f0f5df48a1b1a114c3dacc5,6685aa9113c938e83b4f1ea0,6708395deef82b5b9beb9155,2024-10-10_15h31.56.633,WTP_SM_Choice,2022.2.1,Win32,59.88023952,,,,,,,,,,,,,,,,,,3,,,,,,,,,,0.03,1,5.1855,0,2,2,2,1,making my bed with my husband,walk in the winter,0.03,0.01,3.3,0,,,,
,,5f0f5df48a1b1a114c3dacc5,6685aa9113c938e83b4f1ea0,6708395deef82b5b9beb9155,2024-10-10_15h31.56.633,WTP_SM_Choice,2022.2.1,Win32,59.88023952,,,,,,,,,,,,,,,,,,4,,,,,,,,,,0.04,1,3.4467,0,3,3,3,1,making my bed with my husband,spend time crocheting,0.04,0.01,1.1,0,,,,
,,5f0f5df48a1b1a114c3dacc5,6685aa9113c938e83b4f1ea0,6708395deef82b5b9beb9155,2024-10-10_15h31.56.633,WTP_SM_Choice,2022.2.1,Win32,59.88023952,,,,,,,,,,,,,,,,,,5,,,,,,,,,,0.05,1,4.1875,0,4,4,4,1,spend time crocheting,playing fun games with family,0.05,0.01,1.1,1,,,,
,,5f0f5df48a1b1a114c3dacc5,6685aa9113c938e83b4f1ea0,6708395deef82b5b9beb9155,2024-10-10_15h31.56.633,WTP_SM_Choice,2022.2.1,Win32,59.88023952,,,,,,,NAN,,NAN,0.15,5.85,,0,4,4,4,1,5,Sam,Rej,Participant_Images/5f0f5df48a1b1a114c3dacc5/5f0f5df48a1b1a114c3dacc5_Images/5f0f5df48a1b1a114c3dacc5_Image_7.jpeg,did not like,2.455989137,,,,,,,,,,,,,,,,,,,,,,
,,5f0f5df48a1b1a114c3dacc5,6685aa9113c938e83b4f1ea0,6708395deef82b5b9beb9155,2024-10-10_15h31.56.633,WTP_SM_Choice,2022.2.1,Win32,59.88023952,,,,,space,1.225,NAN,,NAN,0.15,5.85,,0,5,5,5,1,6,Sam,Rej,Participant_Images/5f0f5df48a1b1a114c3dacc5/5f0f5df48a1b1a114c3dacc5_Images/5f0f5df48a1b1a114c3dacc5_Image_25.jpeg,liked,3.79605092,,,,,,,,,,,,,,,,,,,,,,
,,5f0f5df48a1b1a114c3dacc5,6685aa9113c938e83b4f1ea0,6708395deef82b5b9beb9155,2024-10-10_15h31.56.633,WTP_SM_Choice,2022.2.1,Win32,59.88023952,,,,,space,1.3379,NAN,,NAN,0.15,5.85,,0,6,6,6,1,7,Sam,Rej,Participant_Images/5f0f5df48a1b1a114c3dacc5/5f0f5df48a1b1a114c3dacc5_Images/5f0f5df48a1b1a114c3dacc5_Image_1.jpeg,did not like,3.562416326,,,,,,,,,,,,,,,,,,,,,,
,,5f0f5df48a1b1a114c3dacc5,6685aa9113c938e83b4f1ea0,6708395deef82b5b9beb9155,2024-10-10_15h31.56.633,WTP_SM_Choice,2022.2.1,Win32,59.88023952,,,,,space,1.0404,NAN,,NAN,0.15,5.85,,0,7,7,7,1,8,Sam,Rej,Participant_Images/5f0f5df48a1b1a114c3dacc5/5f0f5df48a1b1a114c3dacc5_Images/5f0f5df48a1b1a114c3dacc5_Image_16.jpeg,liked,2.843822497,,,,,,,,,,,,,,,,,,,,,,
,,5f0f5df48a1b1a114c3dacc5,6685aa9113c938e83b4f1ea0,6708395deef82b5b9beb9155,2024-10-10_15h31.56.633,WTP_SM_Choice,2022.2.1,Win32,59.88023952,,,,,space,1.129,NAN,,NAN,0.15,5.85,,0,8,8,8,1,9,Sam,Rej,Participant_Images/5f0f5df48a1b1a114c3dacc5/5f0f5df48a1b1a114c3dacc5_Images/5f0f5df48a1b1a114c3dacc5_Image_20.jpeg,did not like,3.546495948,,,,,,,,,,,,,,,,,,,,,,
,,5f0f5df48a1b1a114c3dacc5,6685aa9113c938e83b4f1ea0,6708395deef82b5b9beb9155,2024-10-10_15h31.56.633,WTP_SM_Choice,2022.2.1,Win32,59.88023952,,,,,,,,,,,,,,,,,,6,,,,,,space,7.3966,space,7.2174,0.02,2,4.1305,0,0,0,0,1,hang out with my pet bird peepo,eating yummy snacks with family,0.01,0.02,3.3,1,,,,
,,5f0f5df48a1b1a114c3dacc5,6685aa9113c938e83b4f1ea0,6708395deef82b5b9beb9155,2024-10-10_15h31.56.633,WTP_SM_Choice,2022.2.1,Win32,59.88023952,,,,,,,,,,,,,,,,,,7,,,,,,,,,,0.02,2,4.8843,0,1,1,1,1,hang out with my pet bird peepo,sleep in my bed with mt husband,0.02,0.02,1.1,1,,,,
,,5f0f5df48a1b1a114c3dacc5,6685aa9113c938e83b4f1ea0,6708395deef82b5b9beb9155,2024-10-10_15h31.56.633,WTP_SM_Choice,2022.2.1,Win32,59.88023952,,,,,,,,,,,,,,,,,,8,,,,,,,,,,0.03,1,2.1442,0,2,2,2,1,learning new things with my husband,eat tasty jerky and watch movies,0.03,0.02,1.1,0,,,,
,,5f0f5df48a1b1a114c3dacc5,6685aa9113c938e83b4f1ea0,6708395deef82b5b9beb9155,2024-10-10_15h31.56.633,WTP_SM_Choice,2022.2.1,Win32,59.88023952,,,,,,,,,,,,,,,,,,9,,,,,,,,,,0.04,1,2.4842,0,3,3,3,1,take care of my animals ,learning new things with my husband,0.04,0.02,4.4,1,,,,
,,5f0f5df48a1b1a114c3dacc5,6685aa9113c938e83b4f1ea0,6708395deef82b5b9beb9155,2024-10-10_15h31.56.633,WTP_SM_Choice,2022.2.1,Win32,59.88023952,,,,,,,,,,,,,,,,,,10,,,,,,,,,,0.05,1,2.7396,0,4,4,4,1,watch tiktoks in bed,watching fun movies with friends,0.05,0.02,1.1,1,,,,
,,5f0f5df48a1b1a114c3dacc5,6685aa9113c938e83b4f1ea0,6708395deef82b5b9beb9155,2024-10-10_15h31.56.633,WTP_SM_Choice,2022.2.1,Win32,59.88023952,,,,,,,NAN,,NAN,0.31,5.69,,0,9,9,9,1,10,Sam,Rej,Participant_Images/5f0f5df48a1b1a114c3dacc5/5f0f5df48a1b1a114c3dacc5_Images/5f0f5df48a1b1a114c3dacc5_Image_4.jpeg,did not like,1.672012706,,,,,,,,,,,,,,,,,,,,,,
,,5f0f5df48a1b1a114c3dacc5,6685aa9113c938e83b4f1ea0,6708395deef82b5b9beb9155,2024-10-10_15h31.56.633,WTP_SM_Choice,2022.2.1,Win32,59.88023952,,,,,space,1.2143,NAN,,NAN,0.31,5.69,,0,10,10,10,1,11,Sam,Rej,Participant_Images/5f0f5df48a1b1a114c3dacc5/5f0f5df48a1b1a114c3dacc5_Images/5f0f5df48a1b1a114c3dacc5_Image_11.jpeg,did not like,4.942172136,,,,,,,,,,,,,,,,,,,,,,
,,5f0f5df48a1b1a114c3dacc5,6685aa9113c938e83b4f1ea0,6708395deef82b5b9beb9155,2024-10-10_15h31.56.633,WTP_SM_Choice,2022.2.1,Win32,59.88023952,,,,,space,3.5028,NAN,,NAN,0.31,5.69,,0,11,11,11,1,12,Sam,Rej,Participant_Images/5f0f5df48a1b1a114c3dacc5/5f0f5df48a1b1a114c3dacc5_Images/5f0f5df48a1b1a114c3dacc5_Image_5.jpeg,liked,2.50187214,,,,,,,,,,,,,,,,,,,,,,
,,5f0f5df48a1b1a114c3dacc5,6685aa9113c938e83b4f1ea0,6708395deef82b5b9beb9155,2024-10-10_15h31.56.633,WTP_SM_Choice,2022.2.1,Win32,59.88023952,,,,,space,1.2404,NAN,,NAN,0.31,5.69,,0,12,12,12,1,13,Sam,Rej,Participant_Images/5f0f5df48a1b1a114c3dacc5/5f0f5df48a1b1a114c3dacc5_Images/5f0f5df48a1b1a114c3dacc5_Image_8.jpeg,liked,2.071164779,,,,,,,,,,,,,,,,,,,,,,
,,5f0f5df48a1b1a114c3dacc5,6685aa9113c938e83b4f1ea0,6708395deef82b5b9beb9155,2024-10-10_15h31.56.633,WTP_SM_Choice,2022.2.1,Win32,59.88023952,,,,,space,1.2961,NAN,,NAN,0.31,5.69,,0,13,13,13,1,14,Sam,Rej,Participant_Images/5f0f5df48a1b1a114c3dacc5/5f0f5df48a1b1a114c3dacc5_Images/5f0f5df48a1b1a114c3dacc5_Image_24.jpeg,did not like,5.336503566,,,,,,,,,,,,,,,,,,,,,,
,,5f0f5df48a1b1a114c3dacc5,6685aa9113c938e83b4f1ea0,6708395deef82b5b9beb9155,2024-10-10_15h31.56.633,WTP_SM_Choice,2022.2.1,Win32,59.88023952,,,,,,,,,,,,,,,,,,11,,,,,,space,7.0042,space,5.0433,0.03,2,2.8181,0,0,0,0,1,draw on my drawing tablet,singing my heart out with my husband and family,0.01,0.03,3.3,1,,,,
,,5f0f5df48a1b1a114c3dacc5,6685aa9113c938e83b4f1ea0,6708395deef82b5b9beb9155,2024-10-10_15h31.56.633,WTP_SM_Choice,2022.2.1,Win32,59.88023952,,,,,,,,,,,,,,,,,,12,,,,,,,,,,0.03,2,2.4799,0,1,1,1,1,playing fun games with family,draw on my drawing tablet,0.02,0.03,4.4,0,,,,
,,5f0f5df48a1b1a114c3dacc5,6685aa9113c938e83b4f1ea0,6708395deef82b5b9beb9155,2024-10-10_15h31.56.633,WTP_SM_Choice,2022.2.1,Win32,59.88023952,,,,,,,,,,,,,,,,,,13,,,,,,,,,,0.03,2,3.3812,0,2,2,2,1,walk in the winter,learning new things with my husband,0.03,0.03,1.1,1,,,,
,,5f0f5df48a1b1a114c3dacc5,6685aa9113c938e83b4f1ea0,6708395deef82b5b9beb9155,2024-10-10_15h31.56.633,WTP_SM_Choice,2022.2.1,Win32,59.88023952,,,,,,,,,,,,,,,,,,14,,,,,,,,,,0.04,1,3.2422,0,3,3,3,1,playing fun games with family,walk in the winter,0.04,0.03,3.3,0,,,,
,,5f0f5df48a1b1a114c3dacc5,6685aa9113c938e83b4f1ea0,6708395deef82b5b9beb9155,2024-10-10_15h31.56.633,WTP_SM_Choice,2022.2.1,Win32,59.88023952,,,,,,,,,,,,,,,,,,15,,,,,,,,,,0.05,1,8.2908,0,4,4,4,1,take care of my animals ,trying new drinks with my husband,0.05,0.03,4.4,1,,,,
,,5f0f5df48a1b1a114c3dacc5,6685aa9113c938e83b4f1ea0,6708395deef82b5b9beb9155,2024-10-10_15h31.56.633,WTP_SM_Choice,2022.2.1,Win32,59.88023952,,,,,,,NAN,,NAN,0.49,5.51,,0,14,14,14,1,15,Sam,Rej,Participant_Images/5f0f5df48a1b1a114c3dacc5/5f0f5df48a1b1a114c3dacc5_Images/5f0f5df48a1b1a114c3dacc5_Image_12.jpeg,did not like,2.642157193,,,,,,,,,,,,,,,,,,,,,,
,,5f0f5df48a1b1a114c3dacc5,6685aa9113c938e83b4f1ea0,6708395deef82b5b9beb9155,2024-10-10_15h31.56.633,WTP_SM_Choice,2022.2.1,Win32,59.88023952,,,,,space,1.1896,NAN,,NAN,0.49,5.51,,0,15,15,15,1,16,Sam,Rej,Participant_Images/5f0f5df48a1b1a114c3dacc5/5f0f5df48a1b1a114c3dacc5_Images/5f0f5df48a1b1a114c3dacc5_Image_23.jpeg,did not like,4.456234322,,,,,,,,,,,,,,,,,,,,,,
,,5f0f5df48a1b1a114c3dacc5,6685aa9113c938e83b4f1ea0,6708395deef82b5b9beb9155,2024-10-10_15h31.56.633,WTP_SM_Choice,2022.2.1,Win32,59.88023952,,,,,space,3.3133,NAN,,NAN,0.49,5.51,,0,16,16,16,1,17,Sam,Rej,Participant_Images/5f0f5df48a1b1a114c3dacc5/5f0f5df48a1b1a114c3dacc5_Images/5f0f5df48a1b1a114c3dacc5_Image_3.jpeg,liked,4.438512181,,,,,,,,,,,,,,,,,,,,,,
,,5f0f5df48a1b1a114c3dacc5,6685aa9113c938e83b4f1ea0,6708395deef82b5b9beb9155,2024-10-10_15h31.56.633,WTP_SM_Choice,2022.2.1,Win32,59.88023952,,,,,space,1.0199,NAN,,NAN,0.49,5.51,,0,17,17,17,1,18,Sam,Rej,Participant_Images/5f0f5df48a1b1a114c3dacc5/5f0f5df48a1b1a114c3dacc5_Images/5f0f5df48a1b1a114c3dacc5_Image_21.jpeg,did not like,2.682944783,,,,,,,,,,,,,,,,,,,,,,
,,5f0f5df48a1b1a114c3dacc5,6685aa9113c938e83b4f1ea0,6708395deef82b5b9beb9155,2024-10-10_15h31.56.633,WTP_SM_Choice,2022.2.1,Win32,59.88023952,,,,,space,1.1554,NAN,,NAN,0.49,5.51,,0,18,18,18,1,19,Sam,Rej,Participant_Images/5f0f5df48a1b1a114c3dacc5/5f0f5df48a1b1a114c3dacc5_Images/5f0f5df48a1b1a114c3dacc5_Image_10.jpeg,did not like,4.51984296,,,,,,,,,,,,,,,,,,,,,,
,,5f0f5df48a1b1a114c3dacc5,6685aa9113c938e83b4f1ea0,6708395deef82b5b9beb9155,2024-10-10_15h31.56.633,WTP_SM_Choice,2022.2.1,Win32,59.88023952,,,,,,,,,,,,,,,,,,16,,,,,,space,2.3329,space,1.4302,0.01,1,2.8337,0,0,0,0,1,singing my heart out with my husband and family,hang out with my pet bird peepo,0.01,0.04,1.1,0,,,,
,,5f0f5df48a1b1a114c3dacc5,6685aa9113c938e83b4f1ea0,6708395deef82b5b9beb9155,2024-10-10_15h31.56.633,WTP_SM_Choice,2022.2.1,Win32,59.88023952,,,,,,,,,,,,,,,,,,17,,,,,,,,,,0.04,2,2.1851,0,1,1,1,1,play mmos,making my bed with my husband,0.02,0.04,8.8,1,,,,
,,5f0f5df48a1b1a114c3dacc5,6685aa9113c938e83b4f1ea0,6708395deef82b5b9beb9155,2024-10-10_15h31.56.633,WTP_SM_Choice,2022.2.1,Win32,59.88023952,,,,,,,,,,,,,,,,,,18,,,,,,,,,,0.04,2,8.9984,0,2,2,2,1,eat tasty jerky and watch movies,Laying infront of a big fan with my family,0.03,0.04,3.3,1,,,,
,,5f0f5df48a1b1a114c3dacc5,6685aa9113c938e83b4f1ea0,6708395deef82b5b9beb9155,2024-10-10_15h31.56.633,WTP_SM_Choice,2022.2.1,Win32,59.88023952,,,,,,,,,,,,,,,,,,19,,,,,,,,,,0.04,1,5.8139,0,3,3,3,1,watch tiktoks in bed,making my bed with my husband,0.04,0.04,3.3,1,,,,
,,5f0f5df48a1b1a114c3dacc5,6685aa9113c938e83b4f1ea0,6708395deef82b5b9beb9155,2024-10-10_15h31.56.633,WTP_SM_Choice,2022.2.1,Win32,59.88023952,,,,,,,,,,,,,,,,,,20,,,,,,,,,,0.05,1,2.6006,0,4,4,4,1,spend time crocheting,watching fun movies with friends,0.05,0.04,1.1,1,,,,
,,5f0f5df48a1b1a114c3dacc5,6685aa9113c938e83b4f1ea0,6708395deef82b5b9beb9155,2024-10-10_15h31.56.633,WTP_SM_Choice,2022.2.1,Win32,59.88023952,,,,,,,NAN,,NAN,0.67,5.33,,0,19,19,19,1,20,Sam,Rej,Participant_Images/5f0f5df48a1b1a114c3dacc5/5f0f5df48a1b1a114c3dacc5_Images/5f0f5df48a1b1a114c3dacc5_Image_15.jpeg,did not like,3.195382774,,,,,,,,,,,,,,,,,,,,,,
,,5f0f5df48a1b1a114c3dacc5,6685aa9113c938e83b4f1ea0,6708395deef82b5b9beb9155,2024-10-10_15h31.56.633,WTP_SM_Choice,2022.2.1,Win32,59.88023952,,,,,space,1.3264,NAN,,NAN,0.67,5.33,,0,20,20,20,1,21,Sam,Rej,Participant_Images/5f0f5df48a1b1a114c3dacc5/5f0f5df48a1b1a114c3dacc5_Images/5f0f5df48a1b1a114c3dacc5_Image_6.jpeg,liked,1.779333479,,,,,,,,,,,,,,,,,,,,,,
,,5f0f5df48a1b1a114c3dacc5,6685aa9113c938e83b4f1ea0,6708395deef82b5b9beb9155,2024-10-10_15h31.56.633,WTP_SM_Choice,2022.2.1,Win32,59.88023952,,,,,space,1.2246,NAN,,NAN,0.67,5.33,,0,21,21,21,1,22,Sam,Rej,Participant_Images/5f0f5df48a1b1a114c3dacc5/5f0f5df48a1b1a114c3dacc5_Images/5f0f5df48a1b1a114c3dacc5_Image_9.jpeg,did not like,4.312468682,,,,,,,,,,,,,,,,,,,,,,
,,5f0f5df48a1b1a114c3dacc5,6685aa9113c938e83b4f1ea0,6708395deef82b5b9beb9155,2024-10-10_15h31.56.633,WTP_SM_Choice,2022.2.1,Win32,59.88023952,,,,,space,1.0342,NAN,,NAN,0.67,5.33,,0,22,22,22,1,23,Sam,Rej,Participant_Images/5f0f5df48a1b1a114c3dacc5/5f0f5df48a1b1a114c3dacc5_Images/5f0f5df48a1b1a114c3dacc5_Image_19.jpeg,liked,4.940433059,,,,,,,,,,,,,,,,,,,,,,
,,5f0f5df48a1b1a114c3dacc5,6685aa9113c938e83b4f1ea0,6708395deef82b5b9beb9155,2024-10-10_15h31.56.633,WTP_SM_Choice,2022.2.1,Win32,59.88023952,,,,,space,0.9614,NAN,,NAN,0.67,5.33,,0,23,23,23,1,24,Sam,Rej,Participant_Images/5f0f5df48a1b1a114c3dacc5/5f0f5df48a1b1a114c3dacc5_Images/5f0f5df48a1b1a114c3dacc5_Image_14.jpeg,did not like,2.7105123,,,,,,,,,,,,,,,,,,,,,,
,,5f0f5df48a1b1a114c3dacc5,6685aa9113c938e83b4f1ea0,6708395deef82b5b9beb9155,2024-10-10_15h31.56.633,WTP_SM_Choice,2022.2.1,Win32,59.88023952,,,,,,,,,,,,,,,,,,21,,,,,,space,1.2921,space,3.2903,0.01,1,3.3118,0,0,0,0,1,playing fun games with family,eat tasty jerky and watch movies,0.01,0.05,8.8,0,,,,
,,5f0f5df48a1b1a114c3dacc5,6685aa9113c938e83b4f1ea0,6708395deef82b5b9beb9155,2024-10-10_15h31.56.633,WTP_SM_Choice,2022.2.1,Win32,59.88023952,,,,,,,,,,,,,,,,,,22,,,,,,,,,,0.05,2,2.2677,0,1,1,1,1,trying new drinks with my husband,sleep with the window open in the cold weather,0.02,0.05,4.4,0,,,,
,,5f0f5df48a1b1a114c3dacc5,6685aa9113c938e83b4f1ea0,6708395deef82b5b9beb9155,2024-10-10_15h31.56.633,WTP_SM_Choice,2022.2.1,Win32,59.88023952,,,,,,,,,,,,,,,,,,23,,,,,,,,,,,,,0,2,2,2,1,draw on my drawing tablet,making my bed with my husband,0.03,0.05,1.1,1,,,,
,,5f0f5df48a1b1a114c3dacc5,6685aa9113c938e83b4f1ea0,6708395deef82b5b9beb9155,2024-10-10_15h31.56.633,WTP_SM_Choice,2022.2.1,Win32,59.88023952,,,,,,,,,,,,,,,,,,24,,,,,,,,,,0.04,1,3.4391,0,3,3,3,1,watching fun movies with friends,hang out with my pet bird peepo,0.04,0.05,4.4,0,,,,
,,5f0f5df48a1b1a114c3dacc5,6685aa9113c938e83b4f1ea0,6708395deef82b5b9beb9155,2024-10-10_15h31.56.633,WTP_SM_Choice,2022.2.1,Win32,59.88023952,,,,,,,,,,,,,,,,,,25,,,,,,,,,,0.05,1,2.6283,0,4,4,4,1,watch tiktoks in bed,eating yummy snacks with family,0.05,0.05,3.3,1,,,,
,,5f0f5df48a1b1a114c3dacc5,6685aa9113c938e83b4f1ea0,6708395deef82b5b9beb9155,2024-10-10_15h31.56.633,WTP_SM_Choice,2022.2.1,Win32,59.88023952,,,,,,,1,,2,0.82,5.18,,0,24,24,24,1,25,Sam,Rej,Participant_Images/5f0f5df48a1b1a114c3dacc5/5f0f5df48a1b1a114c3dacc5_Images/5f0f5df48a1b1a114c3dacc5_Image_18.jpeg,did not like,3.602308302,,,,,,,,,,,,,,,,,,,space,14.7315,,
,,5f0f5df48a1b1a114c3dacc5,6685aa9113c938e83b4f1ea0,6708395deef82b5b9beb9155,2024-10-10_15h31.56.633,WTP_SM_Choice,2022.2.1,Win32,59.88023952,,,space,2.8427,space,1.0106,NAN,,NAN,0.82,5.18,,0,25,25,25,1,26,Riley,Rej,Participant_Images/5f0f5df48a1b1a114c3dacc5/5f0f5df48a1b1a114c3dacc5_Images/5f0f5df48a1b1a114c3dacc5_Image_6.jpeg,liked,4.106391878,,,,,,,,,,,,,,,,,,,,,,
,,5f0f5df48a1b1a114c3dacc5,6685aa9113c938e83b4f1ea0,6708395deef82b5b9beb9155,2024-10-10_15h31.56.633,WTP_SM_Choice,2022.2.1,Win32,59.88023952,,,,,space,8.2581,NAN,,NAN,0.82,5.18,,0,26,26,26,1,27,Riley,Rej,Participant_Images/5f0f5df48a1b1a114c3dacc5/5f0f5df48a1b1a114c3dacc5_Images/5f0f5df48a1b1a114c3dacc5_Image_9.jpeg,did not like,3.799433026,,,,,,,,,,,,,,,,,,,,,,
,,5f0f5df48a1b1a114c3dacc5,6685aa9113c938e83b4f1ea0,6708395deef82b5b9beb9155,2024-10-10_15h31.56.633,WTP_SM_Choice,2022.2.1,Win32,59.88023952,,,,,space,0.5817,NAN,,NAN,0.82,5.18,,0,27,27,27,1,28,Riley,Rej,Participant_Images/5f0f5df48a1b1a114c3dacc5/5f0f5df48a1b1a114c3dacc5_Images/5f0f5df48a1b1a114c3dacc5_Image_14.jpeg,liked,5.246980764,,,,,,,,,,,,,,,,,,,,,,
,,5f0f5df48a1b1a114c3dacc5,6685aa9113c938e83b4f1ea0,6708395deef82b5b9beb9155,2024-10-10_15h31.56.633,WTP_SM_Choice,2022.2.1,Win32,59.88023952,,,,,space,32.1217,NAN,,NAN,0.82,5.18,,0,28,28,28,1,29,Riley,Rej,Participant_Images/5f0f5df48a1b1a114c3dacc5/5f0f5df48a1b1a114c3dacc5_Images/5f0f5df48a1b1a114c3dacc5_Image_5.jpeg,did not like,3.30081769,,,,,,,,,,,,,,,,,,,,,,
,,5f0f5df48a1b1a114c3dacc5,6685aa9113c938e83b4f1ea0,6708395deef82b5b9beb9155,2024-10-10_15h31.56.633,WTP_SM_Choice,2022.2.1,Win32,59.88023952,,,,,,,,,,,,,,,,,,26,,,,,,space,2.1925,space,0.941,0.01,1,3.4605,0,0,0,0,1,Laying infront of a big fan with my family,cook food,0.01,0.01,4.4,0,,,,
,,5f0f5df48a1b1a114c3dacc5,6685aa9113c938e83b4f1ea0,6708395deef82b5b9beb9155,2024-10-10_15h31.56.633,WTP_SM_Choice,2022.2.1,Win32,59.88023952,,,,,,,,,,,,,,,,,,27,,,,,,,,,,0.01,2,4.28,0,1,1,1,1,hang out with my pet bird peepo,making my bed with my husband,0.02,0.01,3.3,1,,,,
,,5f0f5df48a1b1a114c3dacc5,6685aa9113c938e83b4f1ea0,6708395deef82b5b9beb9155,2024-10-10_15h31.56.633,WTP_SM_Choice,2022.2.1,Win32,59.88023952,,,,,,,,,,,,,,,,,,28,,,,,,,,,,0.03,1,2.4626,0,2,2,2,1,watching fun movies with friends,play mmos,0.03,0.01,3.3,0,,,,
,,5f0f5df48a1b1a114c3dacc5,6685aa9113c938e83b4f1ea0,6708395deef82b5b9beb9155,2024-10-10_15h31.56.633,WTP_SM_Choice,2022.2.1,Win32,59.88023952,,,,,,,,,,,,,,,,,,29,,,,,,,,,,0.04,1,1.9363,0,3,3,3,1,watch tiktoks in bed,sleep in my bed with mt husband,0.04,0.01,4.4,1,,,,
,,5f0f5df48a1b1a114c3dacc5,6685aa9113c938e83b4f1ea0,6708395deef82b5b9beb9155,2024-10-10_15h31.56.633,WTP_SM_Choice,2022.2.1,Win32,59.88023952,,,,,,,,,,,,,,,,,,30,,,,,,,,,,,,,0,4,4,4,1,learning new things with my husband,watch tiktoks in bed,0.05,0.01,8.8,0,,,,
,,5f0f5df48a1b1a114c3dacc5,6685aa9113c938e83b4f1ea0,6708395deef82b5b9beb9155,2024-10-10_15h31.56.633,WTP_SM_Choice,2022.2.1,Win32,59.88023952,,,,,,,NAN,,NAN,0.91,5.09,,0,29,29,29,1,30,Riley,Rej,Participant_Images/5f0f5df48a1b1a114c3dacc5/5f0f5df48a1b1a114c3dacc5_Images/5f0f5df48a1b1a114c3dacc5_Image_11.jpeg,did not like,1.661473164,,,,,,,,,,,,,,,,,,,,,,
,,5f0f5df48a1b1a114c3dacc5,6685aa9113c938e83b4f1ea0,6708395deef82b5b9beb9155,2024-10-10_15h31.56.633,WTP_SM_Choice,2022.2.1,Win32,59.88023952,,,,,space,0.9719,NAN,,NAN,0.91,5.09,,0,30,30,30,1,31,Riley,Rej,Participant_Images/5f0f5df48a1b1a114c3dacc5/5f0f5df48a1b1a114c3dacc5_Images/5f0f5df48a1b1a114c3dacc5_Image_16.jpeg,liked,3.613205605,,,,,,,,,,,,,,,,,,,,,,
,,5f0f5df48a1b1a114c3dacc5,6685aa9113c938e83b4f1ea0,6708395deef82b5b9beb9155,2024-10-10_15h31.56.633,WTP_SM_Choice,2022.2.1,Win32,59.88023952,,,,,space,1.3684,NAN,,NAN,0.91,5.09,,0,31,31,31,1,32,Riley,Rej,Participant_Images/5f0f5df48a1b1a114c3dacc5/5f0f5df48a1b1a114c3dacc5_Images/5f0f5df48a1b1a114c3dacc5_Image_20.jpeg,did not like,4.988446431,,,,,,,,,,,,,,,,,,,,,,
,,5f0f5df48a1b1a114c3dacc5,6685aa9113c938e83b4f1ea0,6708395deef82b5b9beb9155,2024-10-10_15h31.56.633,WTP_SM_Choice,2022.2.1,Win32,59.88023952,,,,,space,4.2342,NAN,,NAN,0.91,5.09,,0,32,32,32,1,33,Riley,Rej,Participant_Images/5f0f5df48a1b1a114c3dacc5/5f0f5df48a1b1a114c3dacc5_Images/5f0f5df48a1b1a114c3dacc5_Image_2.jpeg,did not like,3.470791822,,,,,,,,,,,,,,,,,,,,,,
,,5f0f5df48a1b1a114c3dacc5,6685aa9113c938e83b4f1ea0,6708395deef82b5b9beb9155,2024-10-10_15h31.56.633,WTP_SM_Choice,2022.2.1,Win32,59.88023952,,,,,space,1.3029,NAN,,NAN,0.91,5.09,,0,33,33,33,1,34,Riley,Rej,Participant_Images/5f0f5df48a1b1a114c3dacc5/5f0f5df48a1b1a114c3dacc5_Images/5f0f5df48a1b1a114c3dacc5_Image_24.jpeg,did not like,3.820572462,,,,,,,,,,,,,,,,,,,,,,
,,5f0f5df48a1b1a114c3dacc5,6685aa9113c938e83b4f1ea0,6708395deef82b5b9beb9155,2024-10-10_15h31.56.633,WTP_SM_Choice,2022.2.1,Win32,59.88023952,,,,,,,,,,,,,,,,,,31,,,,,,space,5.9661,space,1.7699,0.02,2,2.2161,0,0,0,0,1,eat tasty jerky and watch movies,sleep in my bed with mt husband,0.01,0.02,8.8,1,,,,
,,5f0f5df48a1b1a114c3dacc5,6685aa9113c938e83b4f1ea0,6708395deef82b5b9beb9155,2024-10-10_15h31.56.633,WTP_SM_Choice,2022.2.1,Win32,59.88023952,,,,,,,,,,,,,,,,,,32,,,,,,,,,,,,,0,1,1,1,1,learning new things with my husband,cook food,0.02,0.02,1.1,0,,,,
,,5f0f5df48a1b1a114c3dacc5,6685aa9113c938e83b4f1ea0,6708395deef82b5b9beb9155,2024-10-10_15h31.56.633,WTP_SM_Choice,2022.2.1,Win32,59.88023952,,,,,,,,,,,,,,,,,,33,,,,,,,,,,0.03,1,1.2834,0,2,2,2,1,making my bed with my husband,sleep with the window open in the cold weather,0.03,0.02,4.4,0,,,,
,,5f0f5df48a1b1a114c3dacc5,6685aa9113c938e83b4f1ea0,6708395deef82b5b9beb9155,2024-10-10_15h31.56.633,WTP_SM_Choice,2022.2.1,Win32,59.88023952,,,,,,,,,,,,,,,,,,34,,,,,,,,,,0.04,1,0.9238,0,3,3,3,1,sleep with the window open in the cold weather,decorating my room nicely with my husband,0.04,0.02,3.3,1,,,,
,,5f0f5df48a1b1a114c3dacc5,6685aa9113c938e83b4f1ea0,6708395deef82b5b9beb9155,2024-10-10_15h31.56.633,WTP_SM_Choice,2022.2.1,Win32,59.88023952,,,,,,,,,,,,,,,,,,35,,,,,,,,,,0.05,1,1.9685,0,4,4,4,1,sleep with the window open in the cold weather,learning new things with my husband,0.05,0.02,1.1,1,,,,
,,5f0f5df48a1b1a114c3dacc5,6685aa9113c938e83b4f1ea0,6708395deef82b5b9beb9155,2024-10-10_15h31.56.633,WTP_SM_Choice,2022.2.1,Win32,59.88023952,,,,,,,NAN,,NAN,1.05,4.95,,0,34,34,34,1,35,Riley,Rej,Participant_Images/5f0f5df48a1b1a114c3dacc5/5f0f5df48a1b1a114c3dacc5_Images/5f0f5df48a1b1a114c3dacc5_Image_19.jpeg,did not like,2.455989137,,,,,,,,,,,,,,,,,,,,,,
,,5f0f5df48a1b1a114c3dacc5,6685aa9113c938e83b4f1ea0,6708395deef82b5b9beb9155,2024-10-10_15h31.56.633,WTP_SM_Choice,2022.2.1,Win32,59.88023952,,,,,space,1.4903,NAN,,NAN,1.05,4.95,,0,35,35,35,1,36,Riley,Rej,Participant_Images/5f0f5df48a1b1a114c3dacc5/5f0f5df48a1b1a114c3dacc5_Images/5f0f5df48a1b1a114c3dacc5_Image_23.jpeg,did not like,3.79605092,,,,,,,,,,,,,,,,,,,,,,
,,5f0f5df48a1b1a114c3dacc5,6685aa9113c938e83b4f1ea0,6708395deef82b5b9beb9155,2024-10-10_15h31.56.633,WTP_SM_Choice,2022.2.1,Win32,59.88023952,,,,,space,0.8788,NAN,,NAN,1.05,4.95,,0,36,36,36,1,37,Riley,Rej,Participant_Images/5f0f5df48a1b1a114c3dacc5/5f0f5df48a1b1a114c3dacc5_Images/5f0f5df48a1b1a114c3dacc5_Image_7.jpeg,did not like,3.562416326,,,,,,,,,,,,,,,,,,,,,,
,,5f0f5df48a1b1a114c3dacc5,6685aa9113c938e83b4f1ea0,6708395deef82b5b9beb9155,2024-10-10_15h31.56.633,WTP_SM_Choice,2022.2.1,Win32,59.88023952,,,,,space,0.8181,NAN,,NAN,1.05,4.95,,0,37,37,37,1,38,Riley,Rej,Participant_Images/5f0f5df48a1b1a114c3dacc5/5f0f5df48a1b1a114c3dacc5_Images/5f0f5df48a1b1a114c3dacc5_Image_10.jpeg,did not like,2.843822497,,,,,,,,,,,,,,,,,,,,,,
,,5f0f5df48a1b1a114c3dacc5,6685aa9113c938e83b4f1ea0,6708395deef82b5b9beb9155,2024-10-10_15h31.56.633,WTP_SM_Choice,2022.2.1,Win32,59.88023952,,,,,space,0.9925,NAN,,NAN,1.05,4.95,,0,38,38,38,1,39,Riley,Rej,Participant_Images/5f0f5df48a1b1a114c3dacc5/5f0f5df48a1b1a114c3dacc5_Images/5f0f5df48a1b1a114c3dacc5_Image_22.jpeg,did not like,3.546495948,,,,,,,,,,,,,,,,,,,,,,
,,5f0f5df48a1b1a114c3dacc5,6685aa9113c938e83b4f1ea0,6708395deef82b5b9beb9155,2024-10-10_15h31.56.633,WTP_SM_Choice,2022.2.1,Win32,59.88023952,,,,,,,,,,,,,,,,,,36,,,,,,space,1.0545,space,0.7355,0.03,2,1.6789,0,0,0,0,1,playing fun games with family,take care of my animals ,0.01,0.03,3.3,0,,,,
,,5f0f5df48a1b1a114c3dacc5,6685aa9113c938e83b4f1ea0,6708395deef82b5b9beb9155,2024-10-10_15h31.56.633,WTP_SM_Choice,2022.2.1,Win32,59.88023952,,,,,,,,,,,,,,,,,,37,,,,,,,,,,0.03,2,1.8562,0,1,1,1,1,Laying infront of a big fan with my family,watch tiktoks in bed,0.02,0.03,1.1,0,,,,
,,5f0f5df48a1b1a114c3dacc5,6685aa9113c938e83b4f1ea0,6708395deef82b5b9beb9155,2024-10-10_15h31.56.633,WTP_SM_Choice,2022.2.1,Win32,59.88023952,,,,,,,,,,,,,,,,,,38,,,,,,,,,,0.03,2,2.2024,0,2,2,2,1,eat tasty jerky and watch movies,singing my heart out with my husband and family,0.03,0.03,1.1,1,,,,
,,5f0f5df48a1b1a114c3dacc5,6685aa9113c938e83b4f1ea0,6708395deef82b5b9beb9155,2024-10-10_15h31.56.633,WTP_SM_Choice,2022.2.1,Win32,59.88023952,,,,,,,,,,,,,,,,,,39,,,,,,,,,,0.04,1,9.8712,0,3,3,3,1,decorating my room nicely with my husband,take care of my animals ,0.04,0.03,3.3,0,,,,
,,5f0f5df48a1b1a114c3dacc5,6685aa9113c938e83b4f1ea0,6708395deef82b5b9beb9155,2024-10-10_15h31.56.633,WTP_SM_Choice,2022.2.1,Win32,59.88023952,,,,,,,,,,,,,,,,,,40,,,,,,,,,,,,,0,4,4,4,1,sleep with the window open in the cold weather,Laying infront of a big fan with my family,0.05,0.03,4.4,1,,,,
,,5f0f5df48a1b1a114c3dacc5,6685aa9113c938e83b4f1ea0,6708395deef82b5b9beb9155,2024-10-10_15h31.56.633,WTP_SM_Choice,2022.2.1,Win32,59.88023952,,,,,,,NAN,,NAN,1.18,4.82,,0,39,39,39,1,40,Riley,Rej,Participant_Images/5f0f5df48a1b1a114c3dacc5/5f0f5df48a1b1a114c3dacc5_Images/5f0f5df48a1b1a114c3dacc5_Image_13.jpeg,did not like,1.672012706,,,,,,,,,,,,,,,,,,,,,,
,,5f0f5df48a1b1a114c3dacc5,6685aa9113c938e83b4f1ea0,6708395deef82b5b9beb9155,2024-10-10_15h31.56.633,WTP_SM_Choice,2022.2.1,Win32,59.88023952,,,,,space,1.134,NAN,,NAN,1.18,4.82,,0,40,40,40,1,41,Riley,Rej,Participant_Images/5f0f5df48a1b1a114c3dacc5/5f0f5df48a1b1a114c3dacc5_Images/5f0f5df48a1b1a114c3dacc5_Image_12.jpeg,did not like,4.942172136,,,,,,,,,,,,,,,,,,,,,,
,,5f0f5df48a1b1a114c3dacc5,6685aa9113c938e83b4f1ea0,6708395deef82b5b9beb9155,2024-10-10_15h31.56.633,WTP_SM_Choice,2022.2.1,Win32,59.88023952,,,,,space,16.5297,NAN,,NAN,1.18,4.82,,0,41,41,41,1,42,Riley,Rej,Participant_Images/5f0f5df48a1b1a114c3dacc5/5f0f5df48a1b1a114c3dacc5_Images/5f0f5df48a1b1a114c3dacc5_Image_17.jpeg,did not like,2.50187214,,,,,,,,,,,,,,,,,,,,,,
,,5f0f5df48a1b1a114c3dacc5,6685aa9113c938e83b4f1ea0,6708395deef82b5b9beb9155,2024-10-10_15h31.56.633,WTP_SM_Choice,2022.2.1,Win32,59.88023952,,,,,space,1.3798,NAN,,NAN,1.18,4.82,,0,42,42,42,1,43,Riley,Rej,Participant_Images/5f0f5df48a1b1a114c3dacc5/5f0f5df48a1b1a114c3dacc5_Images/5f0f5df48a1b1a114c3dacc5_Image_25.jpeg,liked,2.071164779,,,,,,,,,,,,,,,,,,,,,,
,,5f0f5df48a1b1a114c3dacc5,6685aa9113c938e83b4f1ea0,6708395deef82b5b9beb9155,2024-10-10_15h31.56.633,WTP_SM_Choice,2022.2.1,Win32,59.88023952,,,,,space,1.4836,NAN,,NAN,1.18,4.82,,0,43,43,43,1,44,Riley,Rej,Participant_Images/5f0f5df48a1b1a114c3dacc5/5f0f5df48a1b1a114c3dacc5_Images/5f0f5df48a1b1a114c3dacc5_Image_4.jpeg,did not like,5.336503566,,,,,,,,,,,,,,,,,,,,,,
,,5f0f5df48a1b1a114c3dacc5,6685aa9113c938e83b4f1ea0,6708395deef82b5b9beb9155,2024-10-10_15h31.56.633,WTP_SM_Choice,2022.2.1,Win32,59.88023952,,,,,,,,,,,,,,,,,,41,,,,,,space,1.1759,space,1.2434,0.04,2,1.648,0,0,0,0,1,eating yummy snacks with family,play mmos,0.01,0.04,1.1,0,,,,
,,5f0f5df48a1b1a114c3dacc5,6685aa9113c938e83b4f1ea0,6708395deef82b5b9beb9155,2024-10-10_15h31.56.633,WTP_SM_Choice,2022.2.1,Win32,59.88023952,,,,,,,,,,,,,,,,,,42,,,,,,,,,,0.04,2,2.0362,0,1,1,1,1,sleep in my bed with mt husband,sleep with the window open in the cold weather,0.02,0.04,3.3,0,,,,
,,5f0f5df48a1b1a114c3dacc5,6685aa9113c938e83b4f1ea0,6708395deef82b5b9beb9155,2024-10-10_15h31.56.633,WTP_SM_Choice,2022.2.1,Win32,59.88023952,,,,,,,,,,,,,,,,,,43,,,,,,,,,,,,,0,2,2,2,1,making my bed with my husband,eat tasty jerky and watch movies,0.03,0.04,1.1,0,,,,
,,5f0f5df48a1b1a114c3dacc5,6685aa9113c938e83b4f1ea0,6708395deef82b5b9beb9155,2024-10-10_15h31.56.633,WTP_SM_Choice,2022.2.1,Win32,59.88023952,,,,,,,,,,,,,,,,,,44,,,,,,,,,,0.04,2,1.7454,0,3,3,3,1,trying new drinks with my husband,play mmos,0.04,0.04,1.1,0,,,,
,,5f0f5df48a1b1a114c3dacc5,6685aa9113c938e83b4f1ea0,6708395deef82b5b9beb9155,2024-10-10_15h31.56.633,WTP_SM_Choice,2022.2.1,Win32,59.88023952,,,,,,,,,,,,,,,,,,45,,,,,,,,,,0.05,1,1.1947,0,4,4,4,1,walk in the winter,watching fun movies with friends,0.05,0.04,4.4,1,,,,
,,5f0f5df48a1b1a114c3dacc5,6685aa9113c938e83b4f1ea0,6708395deef82b5b9beb9155,2024-10-10_15h31.56.633,WTP_SM_Choice,2022.2.1,Win32,59.88023952,,,,,,,NAN,,NAN,1.35,4.65,,0,44,44,44,1,45,Riley,Rej,Participant_Images/5f0f5df48a1b1a114c3dacc5/5f0f5df48a1b1a114c3dacc5_Images/5f0f5df48a1b1a114c3dacc5_Image_3.jpeg,liked,2.642157193,,,,,,,,,,,,,,,,,,,,,,
,,5f0f5df48a1b1a114c3dacc5,6685aa9113c938e83b4f1ea0,6708395deef82b5b9beb9155,2024-10-10_15h31.56.633,WTP_SM_Choice,2022.2.1,Win32,59.88023952,,,,,space,14.4591,NAN,,NAN,1.35,4.65,,0,45,45,45,1,46,Riley,Rej,Participant_Images/5f0f5df48a1b1a114c3dacc5/5f0f5df48a1b1a114c3dacc5_Images/5f0f5df48a1b1a114c3dacc5_Image_8.jpeg,did not like,4.456234322,,,,,,,,,,,,,,,,,,,,,,
,,5f0f5df48a1b1a114c3dacc5,6685aa9113c938e83b4f1ea0,6708395deef82b5b9beb9155,2024-10-10_15h31.56.633,WTP_SM_Choice,2022.2.1,Win32,59.88023952,,,,,space,1.4847,NAN,,NAN,1.35,4.65,,0,46,46,46,1,47,Riley,Rej,Participant_Images/5f0f5df48a1b1a114c3dacc5/5f0f5df48a1b1a114c3dacc5_Images/5f0f5df48a1b1a114c3dacc5_Image_15.jpeg,did not like,4.438512181,,,,,,,,,,,,,,,,,,,,,,
,,5f0f5df48a1b1a114c3dacc5,6685aa9113c938e83b4f1ea0,6708395deef82b5b9beb9155,2024-10-10_15h31.56.633,WTP_SM_Choice,2022.2.1,Win32,59.88023952,,,,,space,1.0834,NAN,,NAN,1.35,4.65,,0,47,47,47,1,48,Riley,Rej,Participant_Images/5f0f5df48a1b1a114c3dacc5/5f0f5df48a1b1a114c3dacc5_Images/5f0f5df48a1b1a114c3dacc5_Image_21.jpeg,liked,2.682944783,,,,,,,,,,,,,,,,,,,,,,
,,5f0f5df48a1b1a114c3dacc5,6685aa9113c938e83b4f1ea0,6708395deef82b5b9beb9155,2024-10-10_15h31.56.633,WTP_SM_Choice,2022.2.1,Win32,59.88023952,,,,,space,2.2349,NAN,,NAN,1.35,4.65,,0,48,48,48,1,49,Riley,Rej,Participant_Images/5f0f5df48a1b1a114c3dacc5/5f0f5df48a1b1a114c3dacc5_Images/5f0f5df48a1b1a114c3dacc5_Image_1.jpeg,liked,4.51984296,,,,,,,,,,,,,,,,,,,,,,
,,5f0f5df48a1b1a114c3dacc5,6685aa9113c938e83b4f1ea0,6708395deef82b5b9beb9155,2024-10-10_15h31.56.633,WTP_SM_Choice,2022.2.1,Win32,59.88023952,,,,,,,,,,,,,,,,,,46,,,,,,space,1.6272,space,0.9349,0.05,2,1.5469,0,0,0,0,1,watching fun movies with friends,take care of my animals ,0.01,0.05,8.8,0,,,,
,,5f0f5df48a1b1a114c3dacc5,6685aa9113c938e83b4f1ea0,6708395deef82b5b9beb9155,2024-10-10_15h31.56.633,WTP_SM_Choice,2022.2.1,Win32,59.88023952,,,,,,,,,,,,,,,,,,47,,,,,,,,,,0.05,2,2.0711,0,1,1,1,1,eating yummy snacks with family,draw on my drawing tablet,0.02,0.05,1.1,0,,,,
,,5f0f5df48a1b1a114c3dacc5,6685aa9113c938e83b4f1ea0,6708395deef82b5b9beb9155,2024-10-10_15h31.56.633,WTP_SM_Choice,2022.2.1,Win32,59.88023952,,,,,,,,,,,,,,,,,,48,,,,,,,,,,,,,0,2,2,2,1,making my bed with my husband,take care of my animals ,0.03,0.05,4.4,0,,,,
,,5f0f5df48a1b1a114c3dacc5,6685aa9113c938e83b4f1ea0,6708395deef82b5b9beb9155,2024-10-10_15h31.56.633,WTP_SM_Choice,2022.2.1,Win32,59.88023952,,,,,,,,,,,,,,,,,,49,,,,,,,,,,0.05,2,4.1794,0,3,3,3,1,spend time crocheting,eating yummy snacks with family,0.04,0.05,3.3,1,,,,
,,5f0f5df48a1b1a114c3dacc5,6685aa9113c938e83b4f1ea0,6708395deef82b5b9beb9155,2024-10-10_15h31.56.633,WTP_SM_Choice,2022.2.1,Win32,59.88023952,,,,,,,,,,,,,,,,,,50,,,,,,,,,,0.05,1,2.4062,0,4,4,4,1,playing fun games with family,hang out with my pet bird peepo,0.05,0.05,1.1,0,,,,
,,5f0f5df48a1b1a114c3dacc5,6685aa9113c938e83b4f1ea0,6708395deef82b5b9beb9155,2024-10-10_15h31.56.633,WTP_SM_Choice,2022.2.1,Win32,59.88023952,,,,,,,1,,2,1.55,4.45,,0,49,49,49,1,50,Riley,Rej,Participant_Images/5f0f5df48a1b1a114c3dacc5/5f0f5df48a1b1a114c3dacc5_Images/5f0f5df48a1b1a114c3dacc5_Image_18.jpeg,did not like,3.195382774,,,,,,,,,,,,,,,,,,,space,1.2591,,
,,5f0f5df48a1b1a114c3dacc5,6685aa9113c938e83b4f1ea0,6708395deef82b5b9beb9155,2024-10-10_15h31.56.633,WTP_SM_Choice,2022.2.1,Win32,59.88023952,,,space,1.6096,space,28.5096,NAN,,NAN,1.55,4.45,,0,50,50,50,1,51,Alex,Acc,Participant_Images/5f0f5df48a1b1a114c3dacc5/5f0f5df48a1b1a114c3dacc5_Images/5f0f5df48a1b1a114c3dacc5_Image_5.jpeg,liked,1.779333479,,,,,,,,,,,,,,,,,,,,,,
,,5f0f5df48a1b1a114c3dacc5,6685aa9113c938e83b4f1ea0,6708395deef82b5b9beb9155,2024-10-10_15h31.56.633,WTP_SM_Choice,2022.2.1,Win32,59.88023952,,,,,space,0.5129,NAN,,NAN,1.55,4.45,,0,51,51,51,1,52,Alex,Acc,Participant_Images/5f0f5df48a1b1a114c3dacc5/5f0f5df48a1b1a114c3dacc5_Images/5f0f5df48a1b1a114c3dacc5_Image_9.jpeg,liked,4.312468682,,,,,,,,,,,,,,,,,,,,,,
,,5f0f5df48a1b1a114c3dacc5,6685aa9113c938e83b4f1ea0,6708395deef82b5b9beb9155,2024-10-10_15h31.56.633,WTP_SM_Choice,2022.2.1,Win32,59.88023952,,,,,space,4.8141,NAN,,NAN,1.55,4.45,,0,52,52,52,1,53,Alex,Acc,Participant_Images/5f0f5df48a1b1a114c3dacc5/5f0f5df48a1b1a114c3dacc5_Images/5f0f5df48a1b1a114c3dacc5_Image_12.jpeg,liked,4.940433059,,,,,,,,,,,,,,,,,,,,,,
,,5f0f5df48a1b1a114c3dacc5,6685aa9113c938e83b4f1ea0,6708395deef82b5b9beb9155,2024-10-10_15h31.56.633,WTP_SM_Choice,2022.2.1,Win32,59.88023952,,,,,space,4.0001,NAN,,NAN,1.55,4.45,,0,53,53,53,1,54,Alex,Acc,Participant_Images/5f0f5df48a1b1a114c3dacc5/5f0f5df48a1b1a114c3dacc5_Images/5f0f5df48a1b1a114c3dacc5_Image_18.jpeg,liked,2.7105123,,,,,,,,,,,,,,,,,,,,,,
,,5f0f5df48a1b1a114c3dacc5,6685aa9113c938e83b4f1ea0,6708395deef82b5b9beb9155,2024-10-10_15h31.56.633,WTP_SM_Choice,2022.2.1,Win32,59.88023952,,,,,,,,,,,,,,,,,,51,,,,,,space,14.7598,space,0.9681,0.01,1,2.106,0,0,0,0,1,play mmos,Laying infront of a big fan with my family,0.01,0.01,1.1,1,,,,
,,5f0f5df48a1b1a114c3dacc5,6685aa9113c938e83b4f1ea0,6708395deef82b5b9beb9155,2024-10-10_15h31.56.633,WTP_SM_Choice,2022.2.1,Win32,59.88023952,,,,,,,,,,,,,,,,,,52,,,,,,,,,,,,,0,1,1,1,1,take care of my animals ,eating yummy snacks with family,0.02,0.01,3.3,1,,,,
,,5f0f5df48a1b1a114c3dacc5,6685aa9113c938e83b4f1ea0,6708395deef82b5b9beb9155,2024-10-10_15h31.56.633,WTP_SM_Choice,2022.2.1,Win32,59.88023952,,,,,,,,,,,,,,,,,,53,,,,,,,,,,0.03,1,4.1531,0,2,2,2,1,decorating my room nicely with my husband,cook food,0.03,0.01,1.1,0,,,,
,,5f0f5df48a1b1a114c3dacc5,6685aa9113c938e83b4f1ea0,6708395deef82b5b9beb9155,2024-10-10_15h31.56.633,WTP_SM_Choice,2022.2.1,Win32,59.88023952,,,,,,,,,,,,,,,,,,54,,,,,,,,,,0.04,1,7.7503,0,3,3,3,1,sleep with the window open in the cold weather,singing my heart out with my husband and family,0.04,0.01,4.4,1,,,,
,,5f0f5df48a1b1a114c3dacc5,6685aa9113c938e83b4f1ea0,6708395deef82b5b9beb9155,2024-10-10_15h31.56.633,WTP_SM_Choice,2022.2.1,Win32,59.88023952,,,,,,,,,,,,,,,,,,55,,,,,,,,,,0.05,1,4.6107,0,4,4,4,1,sleep with the window open in the cold weather,playing fun games with family,0.05,0.01,1.1,1,,,,
,,5f0f5df48a1b1a114c3dacc5,6685aa9113c938e83b4f1ea0,6708395deef82b5b9beb9155,2024-10-10_15h31.56.633,WTP_SM_Choice,2022.2.1,Win32,59.88023952,,,,,,,NAN,,NAN,1.68,4.32,,0,54,54,54,1,55,Alex,Acc,Participant_Images/5f0f5df48a1b1a114c3dacc5/5f0f5df48a1b1a114c3dacc5_Images/5f0f5df48a1b1a114c3dacc5_Image_1.jpeg,liked,3.602308302,,,,,,,,,,,,,,,,,,,,,,
,,5f0f5df48a1b1a114c3dacc5,6685aa9113c938e83b4f1ea0,6708395deef82b5b9beb9155,2024-10-10_15h31.56.633,WTP_SM_Choice,2022.2.1,Win32,59.88023952,,,,,space,13.2044,NAN,,NAN,1.68,4.32,,0,55,55,55,1,56,Alex,Acc,Participant_Images/5f0f5df48a1b1a114c3dacc5/5f0f5df48a1b1a114c3dacc5_Images/5f0f5df48a1b1a114c3dacc5_Image_24.jpeg,liked,4.106391878,,,,,,,,,,,,,,,,,,,,,,
,,5f0f5df48a1b1a114c3dacc5,6685aa9113c938e83b4f1ea0,6708395deef82b5b9beb9155,2024-10-10_15h31.56.633,WTP_SM_Choice,2022.2.1,Win32,59.88023952,,,,,space,7.6017,NAN,,NAN,1.68,4.32,,0,56,56,56,1,57,Alex,Acc,Participant_Images/5f0f5df48a1b1a114c3dacc5/5f0f5df48a1b1a114c3dacc5_Images/5f0f5df48a1b1a114c3dacc5_Image_6.jpeg,did not like,3.799433026,,,,,,,,,,,,,,,,,,,,,,
,,5f0f5df48a1b1a114c3dacc5,6685aa9113c938e83b4f1ea0,6708395deef82b5b9beb9155,2024-10-10_15h31.56.633,WTP_SM_Choice,2022.2.1,Win32,59.88023952,,,,,space,1.4929,NAN,,NAN,1.68,4.32,,0,57,57,57,1,58,Alex,Acc,Participant_Images/5f0f5df48a1b1a114c3dacc5/5f0f5df48a1b1a114c3dacc5_Images/5f0f5df48a1b1a114c3dacc5_Image_25.jpeg,did not like,5.246980764,,,,,,,,,,,,,,,,,,,,,,
,,5f0f5df48a1b1a114c3dacc5,6685aa9113c938e83b4f1ea0,6708395deef82b5b9beb9155,2024-10-10_15h31.56.633,WTP_SM_Choice,2022.2.1,Win32,59.88023952,,,,,space,23.9018,NAN,,NAN,1.68,4.32,,0,58,58,58,1,59,Alex,Acc,Participant_Images/5f0f5df48a1b1a114c3dacc5/5f0f5df48a1b1a114c3dacc5_Images/5f0f5df48a1b1a114c3dacc5_Image_2.jpeg,liked,3.30081769,,,,,,,,,,,,,,,,,,,,,,
,,5f0f5df48a1b1a114c3dacc5,6685aa9113c938e83b4f1ea0,6708395deef82b5b9beb9155,2024-10-10_15h31.56.633,WTP_SM_Choice,2022.2.1,Win32,59.88023952,,,,,,,,,,,,,,,,,,56,,,,,,space,2.184,space,3.2617,0.02,2,1.4421,0,0,0,0,1,making my bed with my husband,cook food,0.01,0.02,8.8,0,,,,
,,5f0f5df48a1b1a114c3dacc5,6685aa9113c938e83b4f1ea0,6708395deef82b5b9beb9155,2024-10-10_15h31.56.633,WTP_SM_Choice,2022.2.1,Win32,59.88023952,,,,,,,,,,,,,,,,,,57,,,,,,,,,,0.02,1,1.8327,0,1,1,1,1,hang out with my pet bird peepo,learning new things with my husband,0.02,0.02,4.4,1,,,,
,,5f0f5df48a1b1a114c3dacc5,6685aa9113c938e83b4f1ea0,6708395deef82b5b9beb9155,2024-10-10_15h31.56.633,WTP_SM_Choice,2022.2.1,Win32,59.88023952,,,,,,,,,,,,,,,,,,58,,,,,,,,,,0.03,1,1.4686,0,2,2,2,1,decorating my room nicely with my husband,play mmos,0.03,0.02,4.4,0,,,,
,,5f0f5df48a1b1a114c3dacc5,6685aa9113c938e83b4f1ea0,6708395deef82b5b9beb9155,2024-10-10_15h31.56.633,WTP_SM_Choice,2022.2.1,Win32,59.88023952,,,,,,,,,,,,,,,,,,59,,,,,,,,,,0.04,1,7.9181,0,3,3,3,1,sleep in my bed with mt husband,spend time crocheting,0.04,0.02,4.4,0,,,,
,,5f0f5df48a1b1a114c3dacc5,6685aa9113c938e83b4f1ea0,6708395deef82b5b9beb9155,2024-10-10_15h31.56.633,WTP_SM_Choice,2022.2.1,Win32,59.88023952,,,,,,,,,,,,,,,,,,60,,,,,,,,,,0.05,1,1.3984,0,4,4,4,1,sleep in my bed with mt husband,play mmos,0.05,0.02,1.1,0,,,,
,,5f0f5df48a1b1a114c3dacc5,6685aa9113c938e83b4f1ea0,6708395deef82b5b9beb9155,2024-10-10_15h31.56.633,WTP_SM_Choice,2022.2.1,Win32,59.88023952,,,,,,,NAN,,NAN,1.84,4.16,,0,59,59,59,1,60,Alex,Acc,Participant_Images/5f0f5df48a1b1a114c3dacc5/5f0f5df48a1b1a114c3dacc5_Images/5f0f5df48a1b1a114c3dacc5_Image_21.jpeg,liked,1.661473164,,,,,,,,,,,,,,,,,,,,,,
,,5f0f5df48a1b1a114c3dacc5,6685aa9113c938e83b4f1ea0,6708395deef82b5b9beb9155,2024-10-10_15h31.56.633,WTP_SM_Choice,2022.2.1,Win32,59.88023952,,,,,space,3.492,NAN,,NAN,1.84,4.16,,0,60,60,60,1,61,Alex,Acc,Participant_Images/5f0f5df48a1b1a114c3dacc5/5f0f5df48a1b1a114c3dacc5_Images/5f0f5df48a1b1a114c3dacc5_Image_20.jpeg,liked,3.613205605,,,,,,,,,,,,,,,,,,,,,,
,,5f0f5df48a1b1a114c3dacc5,6685aa9113c938e83b4f1ea0,6708395deef82b5b9beb9155,2024-10-10_15h31.56.633,WTP_SM_Choice,2022.2.1,Win32,59.88023952,,,,,space,48.5143,NAN,,NAN,1.84,4.16,,0,61,61,61,1,62,Alex,Acc,Participant_Images/5f0f5df48a1b1a114c3dacc5/5f0f5df48a1b1a114c3dacc5_Images/5f0f5df48a1b1a114c3dacc5_Image_16.jpeg,liked,4.988446431,,,,,,,,,,,,,,,,,,,,,,
,,5f0f5df48a1b1a114c3dacc5,6685aa9113c938e83b4f1ea0,6708395deef82b5b9beb9155,2024-10-10_15h31.56.633,WTP_SM_Choice,2022.2.1,Win32,59.88023952,,,,,space,10.0045,NAN,,NAN,1.84,4.16,,0,62,62,62,1,63,Alex,Acc,Participant_Images/5f0f5df48a1b1a114c3dacc5/5f0f5df48a1b1a114c3dacc5_Images/5f0f5df48a1b1a114c3dacc5_Image_8.jpeg,liked,3.470791822,,,,,,,,,,,,,,,,,,,,,,
,,5f0f5df48a1b1a114c3dacc5,6685aa9113c938e83b4f1ea0,6708395deef82b5b9beb9155,2024-10-10_15h31.56.633,WTP_SM_Choice,2022.2.1,Win32,59.88023952,,,,,space,48.1086,NAN,,NAN,1.84,4.16,,0,63,63,63,1,64,Alex,Acc,Participant_Images/5f0f5df48a1b1a114c3dacc5/5f0f5df48a1b1a114c3dacc5_Images/5f0f5df48a1b1a114c3dacc5_Image_22.jpeg,liked,3.820572462,,,,,,,,,,,,,,,,,,,,,,
,,5f0f5df48a1b1a114c3dacc5,6685aa9113c938e83b4f1ea0,6708395deef82b5b9beb9155,2024-10-10_15h31.56.633,WTP_SM_Choice,2022.2.1,Win32,59.88023952,,,,,,,,,,,,,,,,,,61,,,,,,space,2.1344,space,2.4384,0.03,2,1.0356,0,0,0,0,1,eating yummy snacks with family,cook food,0.01,0.03,3.3,0,,,,
,,5f0f5df48a1b1a114c3dacc5,6685aa9113c938e83b4f1ea0,6708395deef82b5b9beb9155,2024-10-10_15h31.56.633,WTP_SM_Choice,2022.2.1,Win32,59.88023952,,,,,,,,,,,,,,,,,,62,,,,,,,,,,0.03,2,1.223,0,1,1,1,1,cook food,singing my heart out with my husband and family,0.02,0.03,3.3,1,,,,
,,5f0f5df48a1b1a114c3dacc5,6685aa9113c938e83b4f1ea0,6708395deef82b5b9beb9155,2024-10-10_15h31.56.633,WTP_SM_Choice,2022.2.1,Win32,59.88023952,,,,,,,,,,,,,,,,,,63,,,,,,,,,,0.03,2,1.9697,0,2,2,2,1,sleep with the window open in the cold weather,watching fun movies with friends,0.03,0.03,3.3,1,,,,
,,5f0f5df48a1b1a114c3dacc5,6685aa9113c938e83b4f1ea0,6708395deef82b5b9beb9155,2024-10-10_15h31.56.633,WTP_SM_Choice,2022.2.1,Win32,59.88023952,,,,,,,,,,,,,,,,,,64,,,,,,,,,,0.04,1,2.4776,0,3,3,3,1,watching fun movies with friends,draw on my drawing tablet,0.04,0.03,1.1,0,,,,
,,5f0f5df48a1b1a114c3dacc5,6685aa9113c938e83b4f1ea0,6708395deef82b5b9beb9155,2024-10-10_15h31.56.633,WTP_SM_Choice,2022.2.1,Win32,59.88023952,,,,,,,,,,,,,,,,,,65,,,,,,,,,,0.05,1,2.9023,0,4,4,4,1,eating yummy snacks with family,eat tasty jerky and watch movies,0.05,0.03,1.1,0,,,,
,,5f0f5df48a1b1a114c3dacc5,6685aa9113c938e83b4f1ea0,6708395deef82b5b9beb9155,2024-10-10_15h31.56.633,WTP_SM_Choice,2022.2.1,Win32,59.88023952,,,,,,,NAN,,NAN,2.02,3.98,,0,64,64,64,1,65,Alex,Acc,Participant_Images/5f0f5df48a1b1a114c3dacc5/5f0f5df48a1b1a114c3dacc5_Images/5f0f5df48a1b1a114c3dacc5_Image_7.jpeg,did not like,2.455989137,,,,,,,,,,,,,,,,,,,,,,
,,5f0f5df48a1b1a114c3dacc5,6685aa9113c938e83b4f1ea0,6708395deef82b5b9beb9155,2024-10-10_15h31.56.633,WTP_SM_Choice,2022.2.1,Win32,59.88023952,,,,,space,0.5048,NAN,,NAN,2.02,3.98,,0,65,65,65,1,66,Alex,Acc,Participant_Images/5f0f5df48a1b1a114c3dacc5/5f0f5df48a1b1a114c3dacc5_Images/5f0f5df48a1b1a114c3dacc5_Image_10.jpeg,did not like,3.79605092,,,,,,,,,,,,,,,,,,,,,,
,,5f0f5df48a1b1a114c3dacc5,6685aa9113c938e83b4f1ea0,6708395deef82b5b9beb9155,2024-10-10_15h31.56.633,WTP_SM_Choice,2022.2.1,Win32,59.88023952,,,,,space,13.8233,NAN,,NAN,2.02,3.98,,0,66,66,66,1,67,Alex,Acc,Participant_Images/5f0f5df48a1b1a114c3dacc5/5f0f5df48a1b1a114c3dacc5_Images/5f0f5df48a1b1a114c3dacc5_Image_19.jpeg,did not like,3.562416326,,,,,,,,,,,,,,,,,,,,,,
,,5f0f5df48a1b1a114c3dacc5,6685aa9113c938e83b4f1ea0,6708395deef82b5b9beb9155,2024-10-10_15h31.56.633,WTP_SM_Choice,2022.2.1,Win32,59.88023952,,,,,space,1.2713,NAN,,NAN,2.02,3.98,,0,67,67,67,1,68,Alex,Acc,Participant_Images/5f0f5df48a1b1a114c3dacc5/5f0f5df48a1b1a114c3dacc5_Images/5f0f5df48a1b1a114c3dacc5_Image_11.jpeg,did not like,2.843822497,,,,,,,,,,,,,,,,,,,,,,
,,5f0f5df48a1b1a114c3dacc5,6685aa9113c938e83b4f1ea0,6708395deef82b5b9beb9155,2024-10-10_15h31.56.633,WTP_SM_Choice,2022.2.1,Win32,59.88023952,,,,,space,0.9174,NAN,,NAN,2.02,3.98,,0,68,68,68,1,69,Alex,Acc,Participant_Images/5f0f5df48a1b1a114c3dacc5/5f0f5df48a1b1a114c3dacc5_Images/5f0f5df48a1b1a114c3dacc5_Image_4.jpeg,liked,3.546495948,,,,,,,,,,,,,,,,,,,,,,
,,5f0f5df48a1b1a114c3dacc5,6685aa9113c938e83b4f1ea0,6708395deef82b5b9beb9155,2024-10-10_15h31.56.633,WTP_SM_Choice,2022.2.1,Win32,59.88023952,,,,,,,,,,,,,,,,,,66,,,,,,space,1.1291,space,1.0792,0.04,2,1.216,0,0,0,0,1,walk in the winter,eating yummy snacks with family,0.01,0.04,1.1,1,,,,
,,5f0f5df48a1b1a114c3dacc5,6685aa9113c938e83b4f1ea0,6708395deef82b5b9beb9155,2024-10-10_15h31.56.633,WTP_SM_Choice,2022.2.1,Win32,59.88023952,,,,,,,,,,,,,,,,,,67,,,,,,,,,,0.04,2,1.2793,0,1,1,1,1,singing my heart out with my husband and family,watch tiktoks in bed,0.02,0.04,8.8,0,,,,
,,5f0f5df48a1b1a114c3dacc5,6685aa9113c938e83b4f1ea0,6708395deef82b5b9beb9155,2024-10-10_15h31.56.633,WTP_SM_Choice,2022.2.1,Win32,59.88023952,,,,,,,,,,,,,,,,,,68,,,,,,,,,,0.04,2,9.2805,0,2,2,2,1,trying new drinks with my husband,cook food,0.03,0.04,4.4,0,,,,
,,5f0f5df48a1b1a114c3dacc5,6685aa9113c938e83b4f1ea0,6708395deef82b5b9beb9155,2024-10-10_15h31.56.633,WTP_SM_Choice,2022.2.1,Win32,59.88023952,,,,,,,,,,,,,,,,,,69,,,,,,,,,,0.04,2,4.3217,0,3,3,3,1,draw on my drawing tablet,Laying infront of a big fan with my family,0.04,0.04,1.1,1,,,,
,,5f0f5df48a1b1a114c3dacc5,6685aa9113c938e83b4f1ea0,6708395deef82b5b9beb9155,2024-10-10_15h31.56.633,WTP_SM_Choice,2022.2.1,Win32,59.88023952,,,,,,,,,,,,,,,,,,70,,,,,,,,,,0.04,2,1.4641,0,4,4,4,1,playing fun games with family,cook food,0.05,0.04,1.1,0,,,,
,,5f0f5df48a1b1a114c3dacc5,6685aa9113c938e83b4f1ea0,6708395deef82b5b9beb9155,2024-10-10_15h31.56.633,WTP_SM_Choice,2022.2.1,Win32,59.88023952,,,,,,,NAN,,NAN,2.22,3.78,,0,69,69,69,1,70,Alex,Acc,Participant_Images/5f0f5df48a1b1a114c3dacc5/5f0f5df48a1b1a114c3dacc5_Images/5f0f5df48a1b1a114c3dacc5_Image_17.jpeg,liked,1.672012706,,,,,,,,,,,,,,,,,,,,,,
,,5f0f5df48a1b1a114c3dacc5,6685aa9113c938e83b4f1ea0,6708395deef82b5b9beb9155,2024-10-10_15h31.56.633,WTP_SM_Choice,2022.2.1,Win32,59.88023952,,,,,space,0.7995,NAN,,NAN,2.22,3.78,,0,70,70,70,1,71,Alex,Acc,Participant_Images/5f0f5df48a1b1a114c3dacc5/5f0f5df48a1b1a114c3dacc5_Images/5f0f5df48a1b1a114c3dacc5_Image_3.jpeg,liked,4.942172136,,,,,,,,,,,,,,,,,,,,,,
,,5f0f5df48a1b1a114c3dacc5,6685aa9113c938e83b4f1ea0,6708395deef82b5b9beb9155,2024-10-10_15h31.56.633,WTP_SM_Choice,2022.2.1,Win32,59.88023952,,,,,space,2.0733,NAN,,NAN,2.22,3.78,,0,71,71,71,1,72,Alex,Acc,Participant_Images/5f0f5df48a1b1a114c3dacc5/5f0f5df48a1b1a114c3dacc5_Images/5f0f5df48a1b1a114c3dacc5_Image_13.jpeg,did not like,2.50187214,,,,,,,,,,,,,,,,,,,,,,
,,5f0f5df48a1b1a114c3dacc5,6685aa9113c938e83b4f1ea0,6708395deef82b5b9beb9155,2024-10-10_15h31.56.633,WTP_SM_Choice,2022.2.1,Win32,59.88023952,,,,,space,35.9964,NAN,,NAN,2.22,3.78,,0,72,72,72,1,73,Alex,Acc,Participant_Images/5f0f5df48a1b1a114c3dacc5/5f0f5df48a1b1a114c3dacc5_Images/5f0f5df48a1b1a114c3dacc5_Image_15.jpeg,liked,2.071164779,,,,,,,,,,,,,,,,,,,,,,
,,5f0f5df48a1b1a114c3dacc5,6685aa9113c938e83b4f1ea0,6708395deef82b5b9beb9155,2024-10-10_15h31.56.633,WTP_SM_Choice,2022.2.1,Win32,59.88023952,,,,,space,1.4869,NAN,,NAN,2.22,3.78,,0,73,73,73,1,74,Alex,Acc,Participant_Images/5f0f5df48a1b1a114c3dacc5/5f0f5df48a1b1a114c3dacc5_Images/5f0f5df48a1b1a114c3dacc5_Image_23.jpeg,liked,5.336503566,,,,,,,,,,,,,,,,,,,,,,
,,5f0f5df48a1b1a114c3dacc5,6685aa9113c938e83b4f1ea0,6708395deef82b5b9beb9155,2024-10-10_15h31.56.633,WTP_SM_Choice,2022.2.1,Win32,59.88023952,,,,,,,,,,,,,,,,,,71,,,,,,space,2.6102,space,1.5956,0.05,2,1.2268,0,0,0,0,1,singing my heart out with my husband and family,walk in the winter,0.01,0.05,3.3,0,,,,
,,5f0f5df48a1b1a114c3dacc5,6685aa9113c938e83b4f1ea0,6708395deef82b5b9beb9155,2024-10-10_15h31.56.633,WTP_SM_Choice,2022.2.1,Win32,59.88023952,,,,,,,,,,,,,,,,,,72,,,,,,,,,,0.05,2,1.1557,0,1,1,1,1,take care of my animals ,sleep in my bed with mt husband,0.02,0.05,8.8,1,,,,
,,5f0f5df48a1b1a114c3dacc5,6685aa9113c938e83b4f1ea0,6708395deef82b5b9beb9155,2024-10-10_15h31.56.633,WTP_SM_Choice,2022.2.1,Win32,59.88023952,,,,,,,,,,,,,,,,,,73,,,,,,,,,,0.05,2,1.0321,0,2,2,2,1,Laying infront of a big fan with my family,walk in the winter,0.03,0.05,3.3,0,,,,
,,5f0f5df48a1b1a114c3dacc5,6685aa9113c938e83b4f1ea0,6708395deef82b5b9beb9155,2024-10-10_15h31.56.633,WTP_SM_Choice,2022.2.1,Win32,59.88023952,,,,,,,,,,,,,,,,,,74,,,,,,,,,,0.05,2,1.612,0,3,3,3,1,play mmos,playing fun games with family,0.04,0.05,4.4,1,,,,
,,5f0f5df48a1b1a114c3dacc5,6685aa9113c938e83b4f1ea0,6708395deef82b5b9beb9155,2024-10-10_15h31.56.633,WTP_SM_Choice,2022.2.1,Win32,59.88023952,,,,,,,,,,,,,,,,,,75,,,,,,,,,,0.05,1,3.4529,0,4,4,4,1,draw on my drawing tablet,sleep in my bed with mt husband,0.05,0.05,3.3,1,,,,
,,5f0f5df48a1b1a114c3dacc5,6685aa9113c938e83b4f1ea0,6708395deef82b5b9beb9155,2024-10-10_15h31.56.633,WTP_SM_Choice,2022.2.1,Win32,59.88023952,,,,,,,2,,3,2.47,3.53,,0,74,74,74,1,75,Alex,Acc,Participant_Images/5f0f5df48a1b1a114c3dacc5/5f0f5df48a1b1a114c3dacc5_Images/5f0f5df48a1b1a114c3dacc5_Image_14.jpeg,liked,2.642157193,,,,,,,,,,,,,,,,,,,space,4.0023,,
,,5f0f5df48a1b1a114c3dacc5,6685aa9113c938e83b4f1ea0,6708395deef82b5b9beb9155,2024-10-10_15h31.56.633,WTP_SM_Choice,2022.2.1,Win32,59.88023952,,,space,1.5002,space,5.9096,NAN,,NAN,2.47,3.53,,0,75,75,75,1,76,Charlie,Acc,Participant_Images/5f0f5df48a1b1a114c3dacc5/5f0f5df48a1b1a114c3dacc5_Images/5f0f5df48a1b1a114c3dacc5_Image_17.jpeg,liked,4.456234322,,,,,,,,,,,,,,,,,,,,,,
,,5f0f5df48a1b1a114c3dacc5,6685aa9113c938e83b4f1ea0,6708395deef82b5b9beb9155,2024-10-10_15h31.56.633,WTP_SM_Choice,2022.2.1,Win32,59.88023952,,,,,space,6.7437,NAN,,NAN,2.47,3.53,,0,76,76,76,1,77,Charlie,Acc,Participant_Images/5f0f5df48a1b1a114c3dacc5/5f0f5df48a1b1a114c3dacc5_Images/5f0f5df48a1b1a114c3dacc5_Image_23.jpeg,liked,4.438512181,,,,,,,,,,,,,,,,,,,,,,
,,5f0f5df48a1b1a114c3dacc5,6685aa9113c938e83b4f1ea0,6708395deef82b5b9beb9155,2024-10-10_15h31.56.633,WTP_SM_Choice,2022.2.1,Win32,59.88023952,,,,,space,1.4605,NAN,,NAN,2.47,3.53,,0,77,77,77,1,78,Charlie,Acc,Participant_Images/5f0f5df48a1b1a114c3dacc5/5f0f5df48a1b1a114c3dacc5_Images/5f0f5df48a1b1a114c3dacc5_Image_13.jpeg,liked,2.682944783,,,,,,,,,,,,,,,,,,,,,,
,,5f0f5df48a1b1a114c3dacc5,6685aa9113c938e83b4f1ea0,6708395deef82b5b9beb9155,2024-10-10_15h31.56.633,WTP_SM_Choice,2022.2.1,Win32,59.88023952,,,,,space,2.0084,NAN,,NAN,2.47,3.53,,0,78,78,78,1,79,Charlie,Acc,Participant_Images/5f0f5df48a1b1a114c3dacc5/5f0f5df48a1b1a114c3dacc5_Images/5f0f5df48a1b1a114c3dacc5_Image_20.jpeg,liked,4.51984296,,,,,,,,,,,,,,,,,,,,,,
,,5f0f5df48a1b1a114c3dacc5,6685aa9113c938e83b4f1ea0,6708395deef82b5b9beb9155,2024-10-10_15h31.56.633,WTP_SM_Choice,2022.2.1,Win32,59.88023952,,,,,,,,,,,,,,,,,,76,,,,,,space,2.1783,space,1.1868,0.01,2,2.435,0,0,0,0,1,hang out with my pet bird peepo,trying new drinks with my husband,0.01,0.01,1.1,1,,,,
,,5f0f5df48a1b1a114c3dacc5,6685aa9113c938e83b4f1ea0,6708395deef82b5b9beb9155,2024-10-10_15h31.56.633,WTP_SM_Choice,2022.2.1,Win32,59.88023952,,,,,,,,,,,,,,,,,,77,,,,,,,,,,0.02,1,1.7599,0,1,1,1,1,trying new drinks with my husband,spend time crocheting,0.02,0.01,8.8,0,,,,
,,5f0f5df48a1b1a114c3dacc5,6685aa9113c938e83b4f1ea0,6708395deef82b5b9beb9155,2024-10-10_15h31.56.633,WTP_SM_Choice,2022.2.1,Win32,59.88023952,,,,,,,,,,,,,,,,,,78,,,,,,,,,,0.03,1,1.9292,0,2,2,2,1,play mmos,singing my heart out with my husband and family,0.03,0.01,1.1,1,,,,
,,5f0f5df48a1b1a114c3dacc5,6685aa9113c938e83b4f1ea0,6708395deef82b5b9beb9155,2024-10-10_15h31.56.633,WTP_SM_Choice,2022.2.1,Win32,59.88023952,,,,,,,,,,,,,,,,,,79,,,,,,,,,,0.04,1,3.5636,0,3,3,3,1,draw on my drawing tablet,trying new drinks with my husband,0.04,0.01,1.1,1,,,,
,,5f0f5df48a1b1a114c3dacc5,6685aa9113c938e83b4f1ea0,6708395deef82b5b9beb9155,2024-10-10_15h31.56.633,WTP_SM_Choice,2022.2.1,Win32,59.88023952,,,,,,,,,,,,,,,,,,80,,,,,,,,,,0.05,1,6.3158,0,4,4,4,1,take care of my animals ,singing my heart out with my husband and family,0.05,0.01,4.4,1,,,,
,,5f0f5df48a1b1a114c3dacc5,6685aa9113c938e83b4f1ea0,6708395deef82b5b9beb9155,2024-10-10_15h31.56.633,WTP_SM_Choice,2022.2.1,Win32,59.88023952,,,,,,,NAN,,NAN,2.62,3.38,,0,79,79,79,1,80,Charlie,Acc,Participant_Images/5f0f5df48a1b1a114c3dacc5/5f0f5df48a1b1a114c3dacc5_Images/5f0f5df48a1b1a114c3dacc5_Image_12.jpeg,liked,3.195382774,,,,,,,,,,,,,,,,,,,,,,
,,5f0f5df48a1b1a114c3dacc5,6685aa9113c938e83b4f1ea0,6708395deef82b5b9beb9155,2024-10-10_15h31.56.633,WTP_SM_Choice,2022.2.1,Win32,59.88023952,,,,,space,2.5885,NAN,,NAN,2.62,3.38,,0,80,80,80,1,81,Charlie,Acc,Participant_Images/5f0f5df48a1b1a114c3dacc5/5f0f5df48a1b1a114c3dacc5_Images/5f0f5df48a1b1a114c3dacc5_Image_6.jpeg,did not like,1.779333479,,,,,,,,,,,,,,,,,,,,,,
,,5f0f5df48a1b1a114c3dacc5,6685aa9113c938e83b4f1ea0,6708395deef82b5b9beb9155,2024-10-10_15h31.56.633,WTP_SM_Choice,2022.2.1,Win32,59.88023952,,,,,space,2.3644,NAN,,NAN,2.62,3.38,,0,81,81,81,1,82,Charlie,Acc,Participant_Images/5f0f5df48a1b1a114c3dacc5/5f0f5df48a1b1a114c3dacc5_Images/5f0f5df48a1b1a114c3dacc5_Image_24.jpeg,liked,4.312468682,,,,,,,,,,,,,,,,,,,,,,
,,5f0f5df48a1b1a114c3dacc5,6685aa9113c938e83b4f1ea0,6708395deef82b5b9beb9155,2024-10-10_15h31.56.633,WTP_SM_Choice,2022.2.1,Win32,59.88023952,,,,,space,1.0699,NAN,,NAN,2.62,3.38,,0,82,82,82,1,83,Charlie,Acc,Participant_Images/5f0f5df48a1b1a114c3dacc5/5f0f5df48a1b1a114c3dacc5_Images/5f0f5df48a1b1a114c3dacc5_Image_16.jpeg,liked,4.940433059,,,,,,,,,,,,,,,,,,,,,,
,,5f0f5df48a1b1a114c3dacc5,6685aa9113c938e83b4f1ea0,6708395deef82b5b9beb9155,2024-10-10_15h31.56.633,WTP_SM_Choice,2022.2.1,Win32,59.88023952,,,,,space,2.97,NAN,,NAN,2.62,3.38,,0,83,83,83,1,84,Charlie,Acc,Participant_Images/5f0f5df48a1b1a114c3dacc5/5f0f5df48a1b1a114c3dacc5_Images/5f0f5df48a1b1a114c3dacc5_Image_5.jpeg,liked,2.7105123,,,,,,,,,,,,,,,,,,,,,,
,,5f0f5df48a1b1a114c3dacc5,6685aa9113c938e83b4f1ea0,6708395deef82b5b9beb9155,2024-10-10_15h31.56.633,WTP_SM_Choice,2022.2.1,Win32,59.88023952,,,,,,,,,,,,,,,,,,81,,,,,,space,21.7513,space,1.0178,0.02,2,2.1608,0,0,0,0,1,decorating my room nicely with my husband,hang out with my pet bird peepo,0.01,0.02,3.3,0,,,,
,,5f0f5df48a1b1a114c3dacc5,6685aa9113c938e83b4f1ea0,6708395deef82b5b9beb9155,2024-10-10_15h31.56.633,WTP_SM_Choice,2022.2.1,Win32,59.88023952,,,,,,,,,,,,,,,,,,82,,,,,,,,,,0.02,1,3.1019,0,1,1,1,1,cook food,sleep in my bed with mt husband,0.02,0.02,4.4,1,,,,
,,5f0f5df48a1b1a114c3dacc5,6685aa9113c938e83b4f1ea0,6708395deef82b5b9beb9155,2024-10-10_15h31.56.633,WTP_SM_Choice,2022.2.1,Win32,59.88023952,,,,,,,,,,,,,,,,,,83,,,,,,,,,,0.03,1,1.3255,0,2,2,2,1,draw on my drawing tablet,learning new things with my husband,0.03,0.02,1.1,1,,,,
,,5f0f5df48a1b1a114c3dacc5,6685aa9113c938e83b4f1ea0,6708395deef82b5b9beb9155,2024-10-10_15h31.56.633,WTP_SM_Choice,2022.2.1,Win32,59.88023952,,,,,,,,,,,,,,,,,,84,,,,,,,,,,0.04,1,5.3921,0,3,3,3,1,walk in the winter,trying new drinks with my husband,0.04,0.02,3.3,1,,,,
,,5f0f5df48a1b1a114c3dacc5,6685aa9113c938e83b4f1ea0,6708395deef82b5b9beb9155,2024-10-10_15h31.56.633,WTP_SM_Choice,2022.2.1,Win32,59.88023952,,,,,,,,,,,,,,,,,,85,,,,,,,,,,0.05,1,1.4232,0,4,4,4,1,watching fun movies with friends,eat tasty jerky and watch movies,0.05,0.02,3.3,0,,,,
,,5f0f5df48a1b1a114c3dacc5,6685aa9113c938e83b4f1ea0,6708395deef82b5b9beb9155,2024-10-10_15h31.56.633,WTP_SM_Choice,2022.2.1,Win32,59.88023952,,,,,,,NAN,,NAN,2.78,3.22,,0,84,84,84,1,85,Charlie,Acc,Participant_Images/5f0f5df48a1b1a114c3dacc5/5f0f5df48a1b1a114c3dacc5_Images/5f0f5df48a1b1a114c3dacc5_Image_8.jpeg,liked,3.602308302,,,,,,,,,,,,,,,,,,,,,,
,,5f0f5df48a1b1a114c3dacc5,6685aa9113c938e83b4f1ea0,6708395deef82b5b9beb9155,2024-10-10_15h31.56.633,WTP_SM_Choice,2022.2.1,Win32,59.88023952,,,,,space,5.5807,NAN,,NAN,2.78,3.22,,0,85,85,85,1,86,Charlie,Acc,Participant_Images/5f0f5df48a1b1a114c3dacc5/5f0f5df48a1b1a114c3dacc5_Images/5f0f5df48a1b1a114c3dacc5_Image_10.jpeg,liked,4.106391878,,,,,,,,,,,,,,,,,,,,,,
,,5f0f5df48a1b1a114c3dacc5,6685aa9113c938e83b4f1ea0,6708395deef82b5b9beb9155,2024-10-10_15h31.56.633,WTP_SM_Choice,2022.2.1,Win32,59.88023952,,,,,space,14.0948,NAN,,NAN,2.78,3.22,,0,86,86,86,1,87,Charlie,Acc,Participant_Images/5f0f5df48a1b1a114c3dacc5/5f0f5df48a1b1a114c3dacc5_Images/5f0f5df48a1b1a114c3dacc5_Image_2.jpeg,liked,3.799433026,,,,,,,,,,,,,,,,,,,,,,
,,5f0f5df48a1b1a114c3dacc5,6685aa9113c938e83b4f1ea0,6708395deef82b5b9beb9155,2024-10-10_15h31.56.633,WTP_SM_Choice,2022.2.1,Win32,59.88023952,,,,,space,1.0408,NAN,,NAN,2.78,3.22,,0,87,87,87,1,88,Charlie,Acc,Participant_Images/5f0f5df48a1b1a114c3dacc5/5f0f5df48a1b1a114c3dacc5_Images/5f0f5df48a1b1a114c3dacc5_Image_11.jpeg,did not like,5.246980764,,,,,,,,,,,,,,,,,,,,,,
,,5f0f5df48a1b1a114c3dacc5,6685aa9113c938e83b4f1ea0,6708395deef82b5b9beb9155,2024-10-10_15h31.56.633,WTP_SM_Choice,2022.2.1,Win32,59.88023952,,,,,space,43.5728,NAN,,NAN,2.78,3.22,,0,88,88,88,1,89,Charlie,Acc,Participant_Images/5f0f5df48a1b1a114c3dacc5/5f0f5df48a1b1a114c3dacc5_Images/5f0f5df48a1b1a114c3dacc5_Image_22.jpeg,liked,3.30081769,,,,,,,,,,,,,,,,,,,,,,
,,5f0f5df48a1b1a114c3dacc5,6685aa9113c938e83b4f1ea0,6708395deef82b5b9beb9155,2024-10-10_15h31.56.633,WTP_SM_Choice,2022.2.1,Win32,59.88023952,,,,,,,,,,,,,,,,,,86,,,,,,space,4.8414,space,1.0177,0.03,2,1.792,0,0,0,0,1,sleep in my bed with mt husband,walk in the winter,0.01,0.03,1.1,0,,,,
,,5f0f5df48a1b1a114c3dacc5,6685aa9113c938e83b4f1ea0,6708395deef82b5b9beb9155,2024-10-10_15h31.56.633,WTP_SM_Choice,2022.2.1,Win32,59.88023952,,,,,,,,,,,,,,,,,,87,,,,,,,,,,0.03,2,6.4709,0,1,1,1,1,cook food,watching fun movies with friends,0.02,0.03,4.4,1,,,,
,,5f0f5df48a1b1a114c3dacc5,6685aa9113c938e83b4f1ea0,6708395deef82b5b9beb9155,2024-10-10_15h31.56.633,WTP_SM_Choice,2022.2.1,Win32,59.88023952,,,,,,,,,,,,,,,,,,88,,,,,,,,,,0.03,2,7.3361,0,2,2,2,1,walk in the winter,decorating my room nicely with my husband,0.03,0.03,1.1,1,,,,
,,5f0f5df48a1b1a114c3dacc5,6685aa9113c938e83b4f1ea0,6708395deef82b5b9beb9155,2024-10-10_15h31.56.633,WTP_SM_Choice,2022.2.1,Win32,59.88023952,,,,,,,,,,,,,,,,,,89,,,,,,,,,,0.04,1,3.8781,0,3,3,3,1,decorating my room nicely with my husband,draw on my drawing tablet,0.04,0.03,3.3,0,,,,
,,5f0f5df48a1b1a114c3dacc5,6685aa9113c938e83b4f1ea0,6708395deef82b5b9beb9155,2024-10-10_15h31.56.633,WTP_SM_Choice,2022.2.1,Win32,59.88023952,,,,,,,,,,,,,,,,,,90,,,,,,,,,,,,,0,4,4,4,1,playing fun games with family,watch tiktoks in bed,0.05,0.03,8.8,0,,,,
,,5f0f5df48a1b1a114c3dacc5,6685aa9113c938e83b4f1ea0,6708395deef82b5b9beb9155,2024-10-10_15h31.56.633,WTP_SM_Choice,2022.2.1,Win32,59.88023952,,,,,,,NAN,,NAN,2.91,3.09,,0,89,89,89,1,90,Charlie,Acc,Participant_Images/5f0f5df48a1b1a114c3dacc5/5f0f5df48a1b1a114c3dacc5_Images/5f0f5df48a1b1a114c3dacc5_Image_18.jpeg,liked,1.661473164,,,,,,,,,,,,,,,,,,,,,,
,,5f0f5df48a1b1a114c3dacc5,6685aa9113c938e83b4f1ea0,6708395deef82b5b9beb9155,2024-10-10_15h31.56.633,WTP_SM_Choice,2022.2.1,Win32,59.88023952,,,,,space,1.6606,NAN,,NAN,2.91,3.09,,0,90,90,90,1,91,Charlie,Acc,Participant_Images/5f0f5df48a1b1a114c3dacc5/5f0f5df48a1b1a114c3dacc5_Images/5f0f5df48a1b1a114c3dacc5_Image_25.jpeg,did not like,3.613205605,,,,,,,,,,,,,,,,,,,,,,
,,5f0f5df48a1b1a114c3dacc5,6685aa9113c938e83b4f1ea0,6708395deef82b5b9beb9155,2024-10-10_15h31.56.633,WTP_SM_Choice,2022.2.1,Win32,59.88023952,,,,,space,3.8542,NAN,,NAN,2.91,3.09,,0,91,91,91,1,92,Charlie,Acc,Participant_Images/5f0f5df48a1b1a114c3dacc5/5f0f5df48a1b1a114c3dacc5_Images/5f0f5df48a1b1a114c3dacc5_Image_21.jpeg,liked,4.988446431,,,,,,,,,,,,,,,,,,,,,,
,,5f0f5df48a1b1a114c3dacc5,6685aa9113c938e83b4f1ea0,6708395deef82b5b9beb9155,2024-10-10_15h31.56.633,WTP_SM_Choice,2022.2.1,Win32,59.88023952,,,,,space,8.7936,NAN,,NAN,2.91,3.09,,0,92,92,92,1,93,Charlie,Acc,Participant_Images/5f0f5df48a1b1a114c3dacc5/5f0f5df48a1b1a114c3dacc5_Images/5f0f5df48a1b1a114c3dacc5_Image_15.jpeg,did not like,3.470791822,,,,,,,,,,,,,,,,,,,,,,
,,5f0f5df48a1b1a114c3dacc5,6685aa9113c938e83b4f1ea0,6708395deef82b5b9beb9155,2024-10-10_15h31.56.633,WTP_SM_Choice,2022.2.1,Win32,59.88023952,,,,,space,0.7685,NAN,,NAN,2.91,3.09,,0,93,93,93,1,94,Charlie,Acc,Participant_Images/5f0f5df48a1b1a114c3dacc5/5f0f5df48a1b1a114c3dacc5_Images/5f0f5df48a1b1a114c3dacc5_Image_1.jpeg,liked,3.820572462,,,,,,,,,,,,,,,,,,,,,,
,,5f0f5df48a1b1a114c3dacc5,6685aa9113c938e83b4f1ea0,6708395deef82b5b9beb9155,2024-10-10_15h31.56.633,WTP_SM_Choice,2022.2.1,Win32,59.88023952,,,,,,,,,,,,,,,,,,91,,,,,,space,6.3204,space,1.0228,0.04,2,1.4997,0,0,0,0,1,trying new drinks with my husband,eat tasty jerky and watch movies,0.01,0.04,3.3,0,,,,
,,5f0f5df48a1b1a114c3dacc5,6685aa9113c938e83b4f1ea0,6708395deef82b5b9beb9155,2024-10-10_15h31.56.633,WTP_SM_Choice,2022.2.1,Win32,59.88023952,,,,,,,,,,,,,,,,,,92,,,,,,,,,,0.04,2,2.2553,0,1,1,1,1,Laying infront of a big fan with my family,hang out with my pet bird peepo,0.02,0.04,8.8,0,,,,
,,5f0f5df48a1b1a114c3dacc5,6685aa9113c938e83b4f1ea0,6708395deef82b5b9beb9155,2024-10-10_15h31.56.633,WTP_SM_Choice,2022.2.1,Win32,59.88023952,,,,,,,,,,,,,,,,,,93,,,,,,,,,,0.04,2,6.618,0,2,2,2,1,trying new drinks with my husband,watch tiktoks in bed,0.03,0.04,1.1,0,,,,
,,5f0f5df48a1b1a114c3dacc5,6685aa9113c938e83b4f1ea0,6708395deef82b5b9beb9155,2024-10-10_15h31.56.633,WTP_SM_Choice,2022.2.1,Win32,59.88023952,,,,,,,,,,,,,,,,,,94,,,,,,,,,,0.04,1,6.7017,0,3,3,3,1,take care of my animals ,Laying infront of a big fan with my family,0.04,0.04,4.4,1,,,,
,,5f0f5df48a1b1a114c3dacc5,6685aa9113c938e83b4f1ea0,6708395deef82b5b9beb9155,2024-10-10_15h31.56.633,WTP_SM_Choice,2022.2.1,Win32,59.88023952,,,,,,,,,,,,,,,,,,95,,,,,,,,,,0.05,1,8.3797,0,4,4,4,1,singing my heart out with my husband and family,spend time crocheting,0.05,0.04,4.4,0,,,,
,,5f0f5df48a1b1a114c3dacc5,6685aa9113c938e83b4f1ea0,6708395deef82b5b9beb9155,2024-10-10_15h31.56.633,WTP_SM_Choice,2022.2.1,Win32,59.88023952,,,,,,,NAN,,NAN,3.12,2.88,,0,94,94,94,1,95,Charlie,Acc,Participant_Images/5f0f5df48a1b1a114c3dacc5/5f0f5df48a1b1a114c3dacc5_Images/5f0f5df48a1b1a114c3dacc5_Image_3.jpeg,did not like,2.455989137,,,,,,,,,,,,,,,,,,,,,,
,,5f0f5df48a1b1a114c3dacc5,6685aa9113c938e83b4f1ea0,6708395deef82b5b9beb9155,2024-10-10_15h31.56.633,WTP_SM_Choice,2022.2.1,Win32,59.88023952,,,,,space,1.3775,NAN,,NAN,3.12,2.88,,0,95,95,95,1,96,Charlie,Acc,Participant_Images/5f0f5df48a1b1a114c3dacc5/5f0f5df48a1b1a114c3dacc5_Images/5f0f5df48a1b1a114c3dacc5_Image_4.jpeg,liked,3.79605092,,,,,,,,,,,,,,,,,,,,,,
,,5f0f5df48a1b1a114c3dacc5,6685aa9113c938e83b4f1ea0,6708395deef82b5b9beb9155,2024-10-10_15h31.56.633,WTP_SM_Choice,2022.2.1,Win32,59.88023952,,,,,space,1.1399,NAN,,NAN,3.12,2.88,,0,96,96,96,1,97,Charlie,Acc,Participant_Images/5f0f5df48a1b1a114c3dacc5/5f0f5df48a1b1a114c3dacc5_Images/5f0f5df48a1b1a114c3dacc5_Image_9.jpeg,did not like,3.562416326,,,,,,,,,,,,,,,,,,,,,,
,,5f0f5df48a1b1a114c3dacc5,6685aa9113c938e83b4f1ea0,6708395deef82b5b9beb9155,2024-10-10_15h31.56.633,WTP_SM_Choice,2022.2.1,Win32,59.88023952,,,,,space,1.4499,NAN,,NAN,3.12,2.88,,0,97,97,97,1,98,Charlie,Acc,Participant_Images/5f0f5df48a1b1a114c3dacc5/5f0f5df48a1b1a114c3dacc5_Images/5f0f5df48a1b1a114c3dacc5_Image_19.jpeg,liked,2.843822497,,,,,,,,,,,,,,,,,,,,,,
,,5f0f5df48a1b1a114c3dacc5,6685aa9113c938e83b4f1ea0,6708395deef82b5b9beb9155,2024-10-10_15h31.56.633,WTP_SM_Choice,2022.2.1,Win32,59.88023952,,,,,space,1.3219,NAN,,NAN,3.12,2.88,,0,98,98,98,1,99,Charlie,Acc,Participant_Images/5f0f5df48a1b1a114c3dacc5/5f0f5df48a1b1a114c3dacc5_Images/5f0f5df48a1b1a114c3dacc5_Image_7.jpeg,did not like,3.546495948,,,,,,,,,,,,,,,,,,,,,,
,,5f0f5df48a1b1a114c3dacc5,6685aa9113c938e83b4f1ea0,6708395deef82b5b9beb9155,2024-10-10_15h31.56.633,WTP_SM_Choice,2022.2.1,Win32,59.88023952,,,,,,,,,,,,,,,,,,96,,,,,,space,1.717,space,2.3431,0.05,2,1.5665,0,0,0,0,1,eat tasty jerky and watch movies,decorating my room nicely with my husband,0.01,0.05,3.3,1,,,,
,,5f0f5df48a1b1a114c3dacc5,6685aa9113c938e83b4f1ea0,6708395deef82b5b9beb9155,2024-10-10_15h31.56.633,WTP_SM_Choice,2022.2.1,Win32,59.88023952,,,,,,,,,,,,,,,,,,97,,,,,,,,,,0.05,2,1.7341,0,1,1,1,1,play mmos,learning new things with my husband,0.02,0.05,1.1,1,,,,
,,5f0f5df48a1b1a114c3dacc5,6685aa9113c938e83b4f1ea0,6708395deef82b5b9beb9155,2024-10-10_15h31.56.633,WTP_SM_Choice,2022.2.1,Win32,59.88023952,,,,,,,,,,,,,,,,,,98,,,,,,,,,,0.05,2,1.4327,0,2,2,2,1,sleep with the window open in the cold weather,eating yummy snacks with family,0.03,0.05,1.1,1,,,,
,,5f0f5df48a1b1a114c3dacc5,6685aa9113c938e83b4f1ea0,6708395deef82b5b9beb9155,2024-10-10_15h31.56.633,WTP_SM_Choice,2022.2.1,Win32,59.88023952,,,,,,,,,,,,,,,,,,99,,,,,,,,,,0.05,2,1.8376,0,3,3,3,1,watch tiktoks in bed,decorating my room nicely with my husband,0.04,0.05,3.3,1,,,,
,,5f0f5df48a1b1a114c3dacc5,6685aa9113c938e83b4f1ea0,6708395deef82b5b9beb9155,2024-10-10_15h31.56.633,WTP_SM_Choice,2022.2.1,Win32,59.88023952,,,,,,,,,,,,,,,,,,100,,,,,,,,,,0.05,2,1.5565,0,4,4,4,1,decorating my room nicely with my husband,spend time crocheting,0.05,0.05,4.4,0,,,,
,,5f0f5df48a1b1a114c3dacc5,6685aa9113c938e83b4f1ea0,6708395deef82b5b9beb9155,2024-10-10_15h31.56.633,WTP_SM_Choice,2022.2.1,Win32,59.88023952,,,,,,,3,,4,3.37,2.63,,0,99,99,99,1,100,Charlie,Acc,Participant_Images/5f0f5df48a1b1a114c3dacc5/5f0f5df48a1b1a114c3dacc5_Images/5f0f5df48a1b1a114c3dacc5_Image_14.jpeg,liked,1.672012706,,,,,,,,,,,,,,,,,,,space,0.8802,,
,,5f0f5df48a1b1a114c3dacc5,6685aa9113c938e83b4f1ea0,6708395deef82b5b9beb9155,2024-10-10_15h31.56.633,WTP_SM_Choice,2022.2.1,Win32,59.88023952,,,,,,,,,,,,,,,,,,,,,,,,,,,,,,,,,,,,,,,,,,,,space,2.8566
