endwelcomescreen_keys.keys,endwelcomescreen_keys.rt,participant,STUDY_ID,SESSION_ID,date,expName,psychopyVersion,OS,frameRate,endinstructionscreen_keys.keys,endinstructionscreen_keys.rt,endpartnermatch_keys.keys,endpartnermatch_keys.rt,sharenextphoto_key.keys,sharenextphoto_key.rt,salience_rating,key_resp.keys,stress_level,subtract_bonus,TOTAL_TASK_BONUS,stresslevel_keypress.keys,entiretaskloop.thisRepN,entiretaskloop.thisTrialN,entiretaskloop.thisN,entiretaskloop.thisIndex,entiretaskloop.ran,TrialNumber,Partner,Condition,Photos,Feedback,FeedbackWait,WTP_ins_keys1.keys,WTP_ins_keys1.rt,WTP_ins_keys2.keys,WTP_ins_keys2.rt,responses.keys,WTPTaskLoop.thisRepN,WTPTaskLoop.thisTrialN,WTPTaskLoop.thisN,WTPTaskLoop.thisIndex,WTPTaskLoop.ran,right,left,leftmoney,rightmoney,WTP_ITI,social_left,Resume_keys.keys,decision_price,responses.rt,Resume_keys.rt,end_screen_keys.keys,end_screen_keys.rt
space,4.1028,5f247332e02337051dc208aa,6685aa9113c938e83b4f1ea0,6723b54d8b0d1dc4b39513d7,2024-10-31_11h50.48.295,WTP_SM_Choice,2022.2.1,Win32,101.010101,,,,,,,,,,,,,,,,,,,,,,,,,,,,,,,,,,,,,,,,,,,,,
,,5f247332e02337051dc208aa,6685aa9113c938e83b4f1ea0,6723b54d8b0d1dc4b39513d7,2024-10-31_11h50.48.295,WTP_SM_Choice,2022.2.1,Win32,101.010101,space,3.9165,,,,,,,,,,,,,,,,,,,,,,,,,,,,,,,,,,,,,,,,,,,
,,5f247332e02337051dc208aa,6685aa9113c938e83b4f1ea0,6723b54d8b0d1dc4b39513d7,2024-10-31_11h50.48.295,WTP_SM_Choice,2022.2.1,Win32,101.010101,,,space,2.5139,space,0.4308,NAN,,NAN,0,6,,0,0,0,0,1,1,Sam,Rej,Participant_Images/5f247332e02337051dc208aa/5f247332e02337051dc208aa_Images/5f247332e02337051dc208aa_Image_22.jpeg,liked,3.613205605,,,,,,,,,,,,,,,,,,,,,,
,,5f247332e02337051dc208aa,6685aa9113c938e83b4f1ea0,6723b54d8b0d1dc4b39513d7,2024-10-31_11h50.48.295,WTP_SM_Choice,2022.2.1,Win32,101.010101,,,,,space,0.178,NAN,,NAN,0,6,,0,1,1,1,1,2,Sam,Rej,Participant_Images/5f247332e02337051dc208aa/5f247332e02337051dc208aa_Images/5f247332e02337051dc208aa_Image_1.jpeg,liked,4.988446431,,,,,,,,,,,,,,,,,,,,,,
,,5f247332e02337051dc208aa,6685aa9113c938e83b4f1ea0,6723b54d8b0d1dc4b39513d7,2024-10-31_11h50.48.295,WTP_SM_Choice,2022.2.1,Win32,101.010101,,,,,space,0.0203,NAN,,NAN,0,6,,0,2,2,2,1,3,Sam,Rej,Participant_Images/5f247332e02337051dc208aa/5f247332e02337051dc208aa_Images/5f247332e02337051dc208aa_Image_12.jpeg,liked,3.470791822,,,,,,,,,,,,,,,,,,,,,,
,,5f247332e02337051dc208aa,6685aa9113c938e83b4f1ea0,6723b54d8b0d1dc4b39513d7,2024-10-31_11h50.48.295,WTP_SM_Choice,2022.2.1,Win32,101.010101,,,,,space,0.2679,NAN,,NAN,0,6,,0,3,3,3,1,4,Sam,Rej,Participant_Images/5f247332e02337051dc208aa/5f247332e02337051dc208aa_Images/5f247332e02337051dc208aa_Image_6.jpeg,did not like,3.820572462,,,,,,,,,,,,,,,,,,,,,,
,,5f247332e02337051dc208aa,6685aa9113c938e83b4f1ea0,6723b54d8b0d1dc4b39513d7,2024-10-31_11h50.48.295,WTP_SM_Choice,2022.2.1,Win32,101.010101,,,,,,,,,,,,,,,,,,1,,,,,,space,0.1438,space,0.2543,,0,0,0,0,1,Take my dog for a walk on cooler days,Play my favorite games with my close friends,0.01,0.01,4.4,1,,,,,,
,,5f247332e02337051dc208aa,6685aa9113c938e83b4f1ea0,6723b54d8b0d1dc4b39513d7,2024-10-31_11h50.48.295,WTP_SM_Choice,2022.2.1,Win32,101.010101,,,,,,,,,,,,,,,,,,2,,,,,,,,,,,0,1,1,1,1,On drunk nights with my friends going to get food,Research and learn about global issues,0.02,0.01,8.8,0,,,,,,
,,5f247332e02337051dc208aa,6685aa9113c938e83b4f1ea0,6723b54d8b0d1dc4b39513d7,2024-10-31_11h50.48.295,WTP_SM_Choice,2022.2.1,Win32,101.010101,,,,,,,,,,,,,,,,,,3,,,,,,,,,,,0,2,2,2,1,Do the dishes after cooking my favorite meals,Watch funny tiktoks with my friends while we are hanging out,0.03,0.01,3.3,1,,,,,,
,,5f247332e02337051dc208aa,6685aa9113c938e83b4f1ea0,6723b54d8b0d1dc4b39513d7,2024-10-31_11h50.48.295,WTP_SM_Choice,2022.2.1,Win32,101.010101,,,,,,,,,,,,,,,,,,4,,,,,,,,,,,0,3,3,3,1,Play my favorite games with my close friends,Research and learn about global issues,0.04,0.01,1.1,0,,,,,,
,,5f247332e02337051dc208aa,6685aa9113c938e83b4f1ea0,6723b54d8b0d1dc4b39513d7,2024-10-31_11h50.48.295,WTP_SM_Choice,2022.2.1,Win32,101.010101,,,,,,,,,,,,,,,,,,5,,,,,,,,,,,0,4,4,4,1,Go on road trips to new places with my best friend,Walk in the park,0.05,0.01,1.1,0,,,,,,
,,5f247332e02337051dc208aa,6685aa9113c938e83b4f1ea0,6723b54d8b0d1dc4b39513d7,2024-10-31_11h50.48.295,WTP_SM_Choice,2022.2.1,Win32,101.010101,,,,,,,NAN,,NAN,0,6,,0,4,4,4,1,5,Sam,Rej,Participant_Images/5f247332e02337051dc208aa/5f247332e02337051dc208aa_Images/5f247332e02337051dc208aa_Image_17.jpeg,did not like,2.455989137,,,,,,,,,,,,,,,,,,,,,,
,,5f247332e02337051dc208aa,6685aa9113c938e83b4f1ea0,6723b54d8b0d1dc4b39513d7,2024-10-31_11h50.48.295,WTP_SM_Choice,2022.2.1,Win32,101.010101,,,,,space,0.0249,NAN,,NAN,0,6,,0,5,5,5,1,6,Sam,Rej,Participant_Images/5f247332e02337051dc208aa/5f247332e02337051dc208aa_Images/5f247332e02337051dc208aa_Image_15.jpeg,did not like,3.79605092,,,,,,,,,,,,,,,,,,,,,,
,,5f247332e02337051dc208aa,6685aa9113c938e83b4f1ea0,6723b54d8b0d1dc4b39513d7,2024-10-31_11h50.48.295,WTP_SM_Choice,2022.2.1,Win32,101.010101,,,,,space,7.9733,NAN,,NAN,0,6,,0,6,6,6,1,7,Sam,Rej,Participant_Images/5f247332e02337051dc208aa/5f247332e02337051dc208aa_Images/5f247332e02337051dc208aa_Image_14.jpeg,liked,3.562416326,,,,,,,,,,,,,,,,,,,,,,
,,5f247332e02337051dc208aa,6685aa9113c938e83b4f1ea0,6723b54d8b0d1dc4b39513d7,2024-10-31_11h50.48.295,WTP_SM_Choice,2022.2.1,Win32,101.010101,,,,,space,1.6186,NAN,,NAN,0,6,,0,7,7,7,1,8,Sam,Rej,Participant_Images/5f247332e02337051dc208aa/5f247332e02337051dc208aa_Images/5f247332e02337051dc208aa_Image_9.jpeg,liked,2.843822497,,,,,,,,,,,,,,,,,,,,,,
,,5f247332e02337051dc208aa,6685aa9113c938e83b4f1ea0,6723b54d8b0d1dc4b39513d7,2024-10-31_11h50.48.295,WTP_SM_Choice,2022.2.1,Win32,101.010101,,,,,space,0.1696,NAN,,NAN,0,6,,0,8,8,8,1,9,Sam,Rej,Participant_Images/5f247332e02337051dc208aa/5f247332e02337051dc208aa_Images/5f247332e02337051dc208aa_Image_4.jpeg,did not like,3.546495948,,,,,,,,,,,,,,,,,,,,,,
,,5f247332e02337051dc208aa,6685aa9113c938e83b4f1ea0,6723b54d8b0d1dc4b39513d7,2024-10-31_11h50.48.295,WTP_SM_Choice,2022.2.1,Win32,101.010101,,,,,,,,,,,,,,,,,,6,,,,,,space,13.0411,space,6.9012,1,0,0,0,0,1,Talk with my co workers about new changes at work,Listen to music and relaxing,0.01,0.02,3.3,0,,0.01,2.6574,,,
,,5f247332e02337051dc208aa,6685aa9113c938e83b4f1ea0,6723b54d8b0d1dc4b39513d7,2024-10-31_11h50.48.295,WTP_SM_Choice,2022.2.1,Win32,101.010101,,,,,,,,,,,,,,,,,,7,,,,,,,,,,1,0,1,1,1,1,Talk with my co workers about new changes at work,Go to the gym,0.02,0.02,1.1,0,,0.02,2.7027,,,
,,5f247332e02337051dc208aa,6685aa9113c938e83b4f1ea0,6723b54d8b0d1dc4b39513d7,2024-10-31_11h50.48.295,WTP_SM_Choice,2022.2.1,Win32,101.010101,,,,,,,,,,,,,,,,,,8,,,,,,,,,,2,0,2,2,2,1,On drunk nights with my friends going to get food,Go to the gym,0.03,0.02,1.1,0,,0.02,2.4518,,,
,,5f247332e02337051dc208aa,6685aa9113c938e83b4f1ea0,6723b54d8b0d1dc4b39513d7,2024-10-31_11h50.48.295,WTP_SM_Choice,2022.2.1,Win32,101.010101,,,,,,,,,,,,,,,,,,9,,,,,,,,,,2,0,3,3,3,1,Brainstorm ideas with my friends to make funny tiktoks,Practice classical songs on my piano,0.04,0.02,4.4,0,,0.02,4.0841,,,
,,5f247332e02337051dc208aa,6685aa9113c938e83b4f1ea0,6723b54d8b0d1dc4b39513d7,2024-10-31_11h50.48.295,WTP_SM_Choice,2022.2.1,Win32,101.010101,,,,,,,,,,,,,,,,,,10,,,,,,,,,,2,0,4,4,4,1,Cook food and enjoy podcasts,Suggest policy changes at work with my managers,0.05,0.02,1.1,1,,0.02,2.9084,,,
,,5f247332e02337051dc208aa,6685aa9113c938e83b4f1ea0,6723b54d8b0d1dc4b39513d7,2024-10-31_11h50.48.295,WTP_SM_Choice,2022.2.1,Win32,101.010101,,,,,,,NAN,,NAN,0.09,5.91,,0,9,9,9,1,10,Sam,Rej,Participant_Images/5f247332e02337051dc208aa/5f247332e02337051dc208aa_Images/5f247332e02337051dc208aa_Image_2.jpeg,did not like,1.672012706,,,,,,,,,,,,,,,,,,,,,,
,,5f247332e02337051dc208aa,6685aa9113c938e83b4f1ea0,6723b54d8b0d1dc4b39513d7,2024-10-31_11h50.48.295,WTP_SM_Choice,2022.2.1,Win32,101.010101,,,,,space,0.8949,NAN,,NAN,0.09,5.91,,0,10,10,10,1,11,Sam,Rej,Participant_Images/5f247332e02337051dc208aa/5f247332e02337051dc208aa_Images/5f247332e02337051dc208aa_Image_3.jpeg,liked,4.942172136,,,,,,,,,,,,,,,,,,,,,,
,,5f247332e02337051dc208aa,6685aa9113c938e83b4f1ea0,6723b54d8b0d1dc4b39513d7,2024-10-31_11h50.48.295,WTP_SM_Choice,2022.2.1,Win32,101.010101,,,,,space,2.0835,NAN,,NAN,0.09,5.91,,0,11,11,11,1,12,Sam,Rej,Participant_Images/5f247332e02337051dc208aa/5f247332e02337051dc208aa_Images/5f247332e02337051dc208aa_Image_11.jpeg,did not like,2.50187214,,,,,,,,,,,,,,,,,,,,,,
,,5f247332e02337051dc208aa,6685aa9113c938e83b4f1ea0,6723b54d8b0d1dc4b39513d7,2024-10-31_11h50.48.295,WTP_SM_Choice,2022.2.1,Win32,101.010101,,,,,space,0.8063,NAN,,NAN,0.09,5.91,,0,12,12,12,1,13,Sam,Rej,Participant_Images/5f247332e02337051dc208aa/5f247332e02337051dc208aa_Images/5f247332e02337051dc208aa_Image_25.jpeg,did not like,2.071164779,,,,,,,,,,,,,,,,,,,,,,
,,5f247332e02337051dc208aa,6685aa9113c938e83b4f1ea0,6723b54d8b0d1dc4b39513d7,2024-10-31_11h50.48.295,WTP_SM_Choice,2022.2.1,Win32,101.010101,,,,,space,0.8269,NAN,,NAN,0.09,5.91,,0,13,13,13,1,14,Sam,Rej,Participant_Images/5f247332e02337051dc208aa/5f247332e02337051dc208aa_Images/5f247332e02337051dc208aa_Image_16.jpeg,did not like,5.336503566,,,,,,,,,,,,,,,,,,,,,,
,,5f247332e02337051dc208aa,6685aa9113c938e83b4f1ea0,6723b54d8b0d1dc4b39513d7,2024-10-31_11h50.48.295,WTP_SM_Choice,2022.2.1,Win32,101.010101,,,,,,,,,,,,,,,,,,11,,,,,,space,5.9911,space,1.3261,1,0,0,0,0,1,Wash my car on a sunny day,Play my favorite games with my close friends,0.01,0.03,3.3,1,,0.01,2.6184,,,
,,5f247332e02337051dc208aa,6685aa9113c938e83b4f1ea0,6723b54d8b0d1dc4b39513d7,2024-10-31_11h50.48.295,WTP_SM_Choice,2022.2.1,Win32,101.010101,,,,,,,,,,,,,,,,,,12,,,,,,,,,,2,0,1,1,1,1,Cook food and enjoy podcasts,Watch funny tiktoks with my friends while we are hanging out,0.02,0.03,4.4,1,,0.03,3.3643,,,
,,5f247332e02337051dc208aa,6685aa9113c938e83b4f1ea0,6723b54d8b0d1dc4b39513d7,2024-10-31_11h50.48.295,WTP_SM_Choice,2022.2.1,Win32,101.010101,,,,,,,,,,,,,,,,,,13,,,,,,,,,,2,0,2,2,2,1,Practice classical songs on my piano,Talk with my co workers about new changes at work,0.03,0.03,1.1,1,,0.03,2.9698,,,
,,5f247332e02337051dc208aa,6685aa9113c938e83b4f1ea0,6723b54d8b0d1dc4b39513d7,2024-10-31_11h50.48.295,WTP_SM_Choice,2022.2.1,Win32,101.010101,,,,,,,,,,,,,,,,,,14,,,,,,,,,,1,0,3,3,3,1,Do the dishes after cooking my favorite meals,Play my favorite games with my close friends,0.04,0.03,3.3,1,,0.04,3.6774,,,
,,5f247332e02337051dc208aa,6685aa9113c938e83b4f1ea0,6723b54d8b0d1dc4b39513d7,2024-10-31_11h50.48.295,WTP_SM_Choice,2022.2.1,Win32,101.010101,,,,,,,,,,,,,,,,,,15,,,,,,,,,,1,0,4,4,4,1,Talk with my co workers about new changes at work,Walk in the park,0.05,0.03,4.4,0,,0.05,2.2683,,,
,,5f247332e02337051dc208aa,6685aa9113c938e83b4f1ea0,6723b54d8b0d1dc4b39513d7,2024-10-31_11h50.48.295,WTP_SM_Choice,2022.2.1,Win32,101.010101,,,,,,,NAN,,NAN,0.25,5.75,,0,14,14,14,1,15,Sam,Rej,Participant_Images/5f247332e02337051dc208aa/5f247332e02337051dc208aa_Images/5f247332e02337051dc208aa_Image_18.jpeg,did not like,2.642157193,,,,,,,,,,,,,,,,,,,,,,
,,5f247332e02337051dc208aa,6685aa9113c938e83b4f1ea0,6723b54d8b0d1dc4b39513d7,2024-10-31_11h50.48.295,WTP_SM_Choice,2022.2.1,Win32,101.010101,,,,,space,0.7073,NAN,,NAN,0.25,5.75,,0,15,15,15,1,16,Sam,Rej,Participant_Images/5f247332e02337051dc208aa/5f247332e02337051dc208aa_Images/5f247332e02337051dc208aa_Image_13.jpeg,did not like,4.456234322,,,,,,,,,,,,,,,,,,,,,,
,,5f247332e02337051dc208aa,6685aa9113c938e83b4f1ea0,6723b54d8b0d1dc4b39513d7,2024-10-31_11h50.48.295,WTP_SM_Choice,2022.2.1,Win32,101.010101,,,,,space,0.7088,NAN,,NAN,0.25,5.75,,0,16,16,16,1,17,Sam,Rej,Participant_Images/5f247332e02337051dc208aa/5f247332e02337051dc208aa_Images/5f247332e02337051dc208aa_Image_19.jpeg,did not like,4.438512181,,,,,,,,,,,,,,,,,,,,,,
,,5f247332e02337051dc208aa,6685aa9113c938e83b4f1ea0,6723b54d8b0d1dc4b39513d7,2024-10-31_11h50.48.295,WTP_SM_Choice,2022.2.1,Win32,101.010101,,,,,space,0.0353,NAN,,NAN,0.25,5.75,,0,17,17,17,1,18,Sam,Rej,Participant_Images/5f247332e02337051dc208aa/5f247332e02337051dc208aa_Images/5f247332e02337051dc208aa_Image_23.jpeg,liked,2.682944783,,,,,,,,,,,,,,,,,,,,,,
,,5f247332e02337051dc208aa,6685aa9113c938e83b4f1ea0,6723b54d8b0d1dc4b39513d7,2024-10-31_11h50.48.295,WTP_SM_Choice,2022.2.1,Win32,101.010101,,,,,space,0.7772,NAN,,NAN,0.25,5.75,,0,18,18,18,1,19,Sam,Rej,Participant_Images/5f247332e02337051dc208aa/5f247332e02337051dc208aa_Images/5f247332e02337051dc208aa_Image_21.jpeg,did not like,4.51984296,,,,,,,,,,,,,,,,,,,,,,
,,5f247332e02337051dc208aa,6685aa9113c938e83b4f1ea0,6723b54d8b0d1dc4b39513d7,2024-10-31_11h50.48.295,WTP_SM_Choice,2022.2.1,Win32,101.010101,,,,,,,,,,,,,,,,,,16,,,,,,space,2.9628,space,1.0501,2,0,0,0,0,1,Wash my car on a sunny day,Go live on twitch with my friend,0.01,0.04,1.1,1,,0.04,2.5379,,,
,,5f247332e02337051dc208aa,6685aa9113c938e83b4f1ea0,6723b54d8b0d1dc4b39513d7,2024-10-31_11h50.48.295,WTP_SM_Choice,2022.2.1,Win32,101.010101,,,,,,,,,,,,,,,,,,17,,,,,,,,,,1,0,1,1,1,1,Talk with my co workers about new changes at work,Practice coffee art in the morning,0.02,0.04,8.8,0,,0.02,1.7775,,,
,,5f247332e02337051dc208aa,6685aa9113c938e83b4f1ea0,6723b54d8b0d1dc4b39513d7,2024-10-31_11h50.48.295,WTP_SM_Choice,2022.2.1,Win32,101.010101,,,,,,,,,,,,,,,,,,18,,,,,,,,,,2,0,2,2,2,1,Listen to music and relaxing,Go on road trips to new places with my best friend,0.03,0.04,3.3,1,,0.04,3.6118,,,
,,5f247332e02337051dc208aa,6685aa9113c938e83b4f1ea0,6723b54d8b0d1dc4b39513d7,2024-10-31_11h50.48.295,WTP_SM_Choice,2022.2.1,Win32,101.010101,,,,,,,,,,,,,,,,,,19,,,,,,,,,,2,0,3,3,3,1,Listen to music and relaxing,Go live on twitch with my friend,0.04,0.04,3.3,1,,0.04,2.0282,,,
,,5f247332e02337051dc208aa,6685aa9113c938e83b4f1ea0,6723b54d8b0d1dc4b39513d7,2024-10-31_11h50.48.295,WTP_SM_Choice,2022.2.1,Win32,101.010101,,,,,,,,,,,,,,,,,,20,,,,,,,,,,2,0,4,4,4,1,Play my favorite games with my close friends,Walk in the park,0.05,0.04,1.1,0,,0.04,2.1609,,,
,,5f247332e02337051dc208aa,6685aa9113c938e83b4f1ea0,6723b54d8b0d1dc4b39513d7,2024-10-31_11h50.48.295,WTP_SM_Choice,2022.2.1,Win32,101.010101,,,,,,,NAN,,NAN,0.43,5.57,,0,19,19,19,1,20,Sam,Rej,Participant_Images/5f247332e02337051dc208aa/5f247332e02337051dc208aa_Images/5f247332e02337051dc208aa_Image_10.jpeg,did not like,3.195382774,,,,,,,,,,,,,,,,,,,,,,
,,5f247332e02337051dc208aa,6685aa9113c938e83b4f1ea0,6723b54d8b0d1dc4b39513d7,2024-10-31_11h50.48.295,WTP_SM_Choice,2022.2.1,Win32,101.010101,,,,,space,1.2588,NAN,,NAN,0.43,5.57,,0,20,20,20,1,21,Sam,Rej,Participant_Images/5f247332e02337051dc208aa/5f247332e02337051dc208aa_Images/5f247332e02337051dc208aa_Image_7.jpeg,did not like,1.779333479,,,,,,,,,,,,,,,,,,,,,,
,,5f247332e02337051dc208aa,6685aa9113c938e83b4f1ea0,6723b54d8b0d1dc4b39513d7,2024-10-31_11h50.48.295,WTP_SM_Choice,2022.2.1,Win32,101.010101,,,,,space,0.6155,NAN,,NAN,0.43,5.57,,0,21,21,21,1,22,Sam,Rej,Participant_Images/5f247332e02337051dc208aa/5f247332e02337051dc208aa_Images/5f247332e02337051dc208aa_Image_8.jpeg,did not like,4.312468682,,,,,,,,,,,,,,,,,,,,,,
,,5f247332e02337051dc208aa,6685aa9113c938e83b4f1ea0,6723b54d8b0d1dc4b39513d7,2024-10-31_11h50.48.295,WTP_SM_Choice,2022.2.1,Win32,101.010101,,,,,space,0.6277,NAN,,NAN,0.43,5.57,,0,22,22,22,1,23,Sam,Rej,Participant_Images/5f247332e02337051dc208aa/5f247332e02337051dc208aa_Images/5f247332e02337051dc208aa_Image_5.jpeg,did not like,4.940433059,,,,,,,,,,,,,,,,,,,,,,
,,5f247332e02337051dc208aa,6685aa9113c938e83b4f1ea0,6723b54d8b0d1dc4b39513d7,2024-10-31_11h50.48.295,WTP_SM_Choice,2022.2.1,Win32,101.010101,,,,,space,2.5566,NAN,,NAN,0.43,5.57,,0,23,23,23,1,24,Sam,Rej,Participant_Images/5f247332e02337051dc208aa/5f247332e02337051dc208aa_Images/5f247332e02337051dc208aa_Image_20.jpeg,did not like,2.7105123,,,,,,,,,,,,,,,,,,,,,,
,,5f247332e02337051dc208aa,6685aa9113c938e83b4f1ea0,6723b54d8b0d1dc4b39513d7,2024-10-31_11h50.48.295,WTP_SM_Choice,2022.2.1,Win32,101.010101,,,,,,,,,,,,,,,,,,21,,,,,,space,0.6637,space,1.25,1,0,0,0,0,1,Walk in the park,Go on a starbucks run on lunch break with my friends,0.01,0.05,8.8,1,,0.01,3.1508,,,
,,5f247332e02337051dc208aa,6685aa9113c938e83b4f1ea0,6723b54d8b0d1dc4b39513d7,2024-10-31_11h50.48.295,WTP_SM_Choice,2022.2.1,Win32,101.010101,,,,,,,,,,,,,,,,,,22,,,,,,,,,,1,0,1,1,1,1,Suggest policy changes at work with my managers,Walk in the park,0.02,0.05,4.4,0,,0.02,1.6028,,,
,,5f247332e02337051dc208aa,6685aa9113c938e83b4f1ea0,6723b54d8b0d1dc4b39513d7,2024-10-31_11h50.48.295,WTP_SM_Choice,2022.2.1,Win32,101.010101,,,,,,,,,,,,,,,,,,23,,,,,,,,,,1,0,2,2,2,1,On drunk nights with my friends going to get food,Take my dog for a walk on cooler days,0.03,0.05,1.1,0,,0.03,1.4694,,,
,,5f247332e02337051dc208aa,6685aa9113c938e83b4f1ea0,6723b54d8b0d1dc4b39513d7,2024-10-31_11h50.48.295,WTP_SM_Choice,2022.2.1,Win32,101.010101,,,,,,,,,,,,,,,,,,24,,,,,,,,,,1,0,3,3,3,1,Brainstorm ideas with my friends to make funny tiktoks,Take my dog for a walk on cooler days,0.04,0.05,4.4,0,,0.04,5.1844,,,
,,5f247332e02337051dc208aa,6685aa9113c938e83b4f1ea0,6723b54d8b0d1dc4b39513d7,2024-10-31_11h50.48.295,WTP_SM_Choice,2022.2.1,Win32,101.010101,,,,,,,,,,,,,,,,,,25,,,,,,,,,,2,0,4,4,4,1,Do the dishes after cooking my favorite meals,Suggest policy changes at work with my managers,0.05,0.05,3.3,1,,0.05,2.655,,,
,,5f247332e02337051dc208aa,6685aa9113c938e83b4f1ea0,6723b54d8b0d1dc4b39513d7,2024-10-31_11h50.48.295,WTP_SM_Choice,2022.2.1,Win32,101.010101,,,,,,,3,,7,0.58,5.42,,0,24,24,24,1,25,Sam,Rej,Participant_Images/5f247332e02337051dc208aa/5f247332e02337051dc208aa_Images/5f247332e02337051dc208aa_Image_24.jpeg,did not like,3.602308302,,,,,,,,,,,,,,,,,space,,,1.7997,,
,,5f247332e02337051dc208aa,6685aa9113c938e83b4f1ea0,6723b54d8b0d1dc4b39513d7,2024-10-31_11h50.48.295,WTP_SM_Choice,2022.2.1,Win32,101.010101,,,space,1.0884,space,0.6024,NAN,,NAN,0.58,5.42,,0,25,25,25,1,26,Riley,Acc,Participant_Images/5f247332e02337051dc208aa/5f247332e02337051dc208aa_Images/5f247332e02337051dc208aa_Image_23.jpeg,liked,4.106391878,,,,,,,,,,,,,,,,,,,,,,
,,5f247332e02337051dc208aa,6685aa9113c938e83b4f1ea0,6723b54d8b0d1dc4b39513d7,2024-10-31_11h50.48.295,WTP_SM_Choice,2022.2.1,Win32,101.010101,,,,,space,0.6624,NAN,,NAN,0.58,5.42,,0,26,26,26,1,27,Riley,Acc,Participant_Images/5f247332e02337051dc208aa/5f247332e02337051dc208aa_Images/5f247332e02337051dc208aa_Image_25.jpeg,did not like,3.799433026,,,,,,,,,,,,,,,,,,,,,,
,,5f247332e02337051dc208aa,6685aa9113c938e83b4f1ea0,6723b54d8b0d1dc4b39513d7,2024-10-31_11h50.48.295,WTP_SM_Choice,2022.2.1,Win32,101.010101,,,,,space,0.3536,NAN,,NAN,0.58,5.42,,0,27,27,27,1,28,Riley,Acc,Participant_Images/5f247332e02337051dc208aa/5f247332e02337051dc208aa_Images/5f247332e02337051dc208aa_Image_3.jpeg,did not like,5.246980764,,,,,,,,,,,,,,,,,,,,,,
,,5f247332e02337051dc208aa,6685aa9113c938e83b4f1ea0,6723b54d8b0d1dc4b39513d7,2024-10-31_11h50.48.295,WTP_SM_Choice,2022.2.1,Win32,101.010101,,,,,space,6.0203,NAN,,NAN,0.58,5.42,,0,28,28,28,1,29,Riley,Acc,Participant_Images/5f247332e02337051dc208aa/5f247332e02337051dc208aa_Images/5f247332e02337051dc208aa_Image_20.jpeg,did not like,3.30081769,,,,,,,,,,,,,,,,,,,,,,
,,5f247332e02337051dc208aa,6685aa9113c938e83b4f1ea0,6723b54d8b0d1dc4b39513d7,2024-10-31_11h50.48.295,WTP_SM_Choice,2022.2.1,Win32,101.010101,,,,,,,,,,,,,,,,,,26,,,,,,space,0.324,space,1.8808,1,0,0,0,0,1,Practice coffee art in the morning,Go live on twitch with my friend,0.01,0.01,4.4,1,,0.01,2.7589,,,
,,5f247332e02337051dc208aa,6685aa9113c938e83b4f1ea0,6723b54d8b0d1dc4b39513d7,2024-10-31_11h50.48.295,WTP_SM_Choice,2022.2.1,Win32,101.010101,,,,,,,,,,,,,,,,,,27,,,,,,,,,,2,0,1,1,1,1,Watch funny tiktoks with my friends while we are hanging out,Research and learn about global issues,0.02,0.01,3.3,0,,0.01,1.9691,,,
,,5f247332e02337051dc208aa,6685aa9113c938e83b4f1ea0,6723b54d8b0d1dc4b39513d7,2024-10-31_11h50.48.295,WTP_SM_Choice,2022.2.1,Win32,101.010101,,,,,,,,,,,,,,,,,,28,,,,,,,,,,2,0,2,2,2,1,Brainstorm ideas with my friends to make funny tiktoks,Walk in the park,0.03,0.01,3.3,0,,0.01,1.9298,,,
,,5f247332e02337051dc208aa,6685aa9113c938e83b4f1ea0,6723b54d8b0d1dc4b39513d7,2024-10-31_11h50.48.295,WTP_SM_Choice,2022.2.1,Win32,101.010101,,,,,,,,,,,,,,,,,,29,,,,,,,,,,2,0,3,3,3,1,Wash my car on a sunny day,Go on road trips to new places with my best friend,0.04,0.01,4.4,1,,0.01,1.405,,,
,,5f247332e02337051dc208aa,6685aa9113c938e83b4f1ea0,6723b54d8b0d1dc4b39513d7,2024-10-31_11h50.48.295,WTP_SM_Choice,2022.2.1,Win32,101.010101,,,,,,,,,,,,,,,,,,30,,,,,,,,,,2,0,4,4,4,1,Walk in the park,On drunk nights with my friends going to get food,0.05,0.01,8.8,1,,0.01,1.6794,,,
,,5f247332e02337051dc208aa,6685aa9113c938e83b4f1ea0,6723b54d8b0d1dc4b39513d7,2024-10-31_11h50.48.295,WTP_SM_Choice,2022.2.1,Win32,101.010101,,,,,,,NAN,,NAN,0.63,5.37,,0,29,29,29,1,30,Riley,Acc,Participant_Images/5f247332e02337051dc208aa/5f247332e02337051dc208aa_Images/5f247332e02337051dc208aa_Image_5.jpeg,liked,1.661473164,,,,,,,,,,,,,,,,,,,,,,
,,5f247332e02337051dc208aa,6685aa9113c938e83b4f1ea0,6723b54d8b0d1dc4b39513d7,2024-10-31_11h50.48.295,WTP_SM_Choice,2022.2.1,Win32,101.010101,,,,,space,0.6957,NAN,,NAN,0.63,5.37,,0,30,30,30,1,31,Riley,Acc,Participant_Images/5f247332e02337051dc208aa/5f247332e02337051dc208aa_Images/5f247332e02337051dc208aa_Image_16.jpeg,liked,3.613205605,,,,,,,,,,,,,,,,,,,,,,
,,5f247332e02337051dc208aa,6685aa9113c938e83b4f1ea0,6723b54d8b0d1dc4b39513d7,2024-10-31_11h50.48.295,WTP_SM_Choice,2022.2.1,Win32,101.010101,,,,,space,0.8557,NAN,,NAN,0.63,5.37,,0,31,31,31,1,32,Riley,Acc,Participant_Images/5f247332e02337051dc208aa/5f247332e02337051dc208aa_Images/5f247332e02337051dc208aa_Image_15.jpeg,did not like,4.988446431,,,,,,,,,,,,,,,,,,,,,,
,,5f247332e02337051dc208aa,6685aa9113c938e83b4f1ea0,6723b54d8b0d1dc4b39513d7,2024-10-31_11h50.48.295,WTP_SM_Choice,2022.2.1,Win32,101.010101,,,,,space,1.064,NAN,,NAN,0.63,5.37,,0,32,32,32,1,33,Riley,Acc,Participant_Images/5f247332e02337051dc208aa/5f247332e02337051dc208aa_Images/5f247332e02337051dc208aa_Image_4.jpeg,liked,3.470791822,,,,,,,,,,,,,,,,,,,,,,
,,5f247332e02337051dc208aa,6685aa9113c938e83b4f1ea0,6723b54d8b0d1dc4b39513d7,2024-10-31_11h50.48.295,WTP_SM_Choice,2022.2.1,Win32,101.010101,,,,,space,1.0301,NAN,,NAN,0.63,5.37,,0,33,33,33,1,34,Riley,Acc,Participant_Images/5f247332e02337051dc208aa/5f247332e02337051dc208aa_Images/5f247332e02337051dc208aa_Image_12.jpeg,liked,3.820572462,,,,,,,,,,,,,,,,,,,,,,
,,5f247332e02337051dc208aa,6685aa9113c938e83b4f1ea0,6723b54d8b0d1dc4b39513d7,2024-10-31_11h50.48.295,WTP_SM_Choice,2022.2.1,Win32,101.010101,,,,,,,,,,,,,,,,,,31,,,,,,space,1.5618,space,0.7825,1,0,0,0,0,1,Listen to music and relaxing,Watch new movies I think id enjoy with friends,0.01,0.02,8.8,1,,0.01,2.7912,,,
,,5f247332e02337051dc208aa,6685aa9113c938e83b4f1ea0,6723b54d8b0d1dc4b39513d7,2024-10-31_11h50.48.295,WTP_SM_Choice,2022.2.1,Win32,101.010101,,,,,,,,,,,,,,,,,,32,,,,,,,,,,2,0,1,1,1,1,Watch new movies I think id enjoy with friends,Wash my car on a sunny day,0.02,0.02,1.1,0,,0.02,1.8315,,,
,,5f247332e02337051dc208aa,6685aa9113c938e83b4f1ea0,6723b54d8b0d1dc4b39513d7,2024-10-31_11h50.48.295,WTP_SM_Choice,2022.2.1,Win32,101.010101,,,,,,,,,,,,,,,,,,33,,,,,,,,,,2,0,2,2,2,1,Watch funny tiktoks with my friends while we are hanging out,Wash my car on a sunny day,0.03,0.02,4.4,0,,0.02,1.879,,,
,,5f247332e02337051dc208aa,6685aa9113c938e83b4f1ea0,6723b54d8b0d1dc4b39513d7,2024-10-31_11h50.48.295,WTP_SM_Choice,2022.2.1,Win32,101.010101,,,,,,,,,,,,,,,,,,34,,,,,,,,,,1,0,3,3,3,1,Cook food and enjoy podcasts,Go on road trips to new places with my best friend,0.04,0.02,3.3,1,,0.04,3.5381,,,
,,5f247332e02337051dc208aa,6685aa9113c938e83b4f1ea0,6723b54d8b0d1dc4b39513d7,2024-10-31_11h50.48.295,WTP_SM_Choice,2022.2.1,Win32,101.010101,,,,,,,,,,,,,,,,,,35,,,,,,,,,,2,0,4,4,4,1,Watch new movies I think id enjoy with friends,Research and learn about global issues,0.05,0.02,1.1,0,,0.02,1.9154,,,
,,5f247332e02337051dc208aa,6685aa9113c938e83b4f1ea0,6723b54d8b0d1dc4b39513d7,2024-10-31_11h50.48.295,WTP_SM_Choice,2022.2.1,Win32,101.010101,,,,,,,NAN,,NAN,0.74,5.26,,0,34,34,34,1,35,Riley,Acc,Participant_Images/5f247332e02337051dc208aa/5f247332e02337051dc208aa_Images/5f247332e02337051dc208aa_Image_9.jpeg,liked,2.455989137,,,,,,,,,,,,,,,,,,,,,,
,,5f247332e02337051dc208aa,6685aa9113c938e83b4f1ea0,6723b54d8b0d1dc4b39513d7,2024-10-31_11h50.48.295,WTP_SM_Choice,2022.2.1,Win32,101.010101,,,,,space,0.1524,NAN,,NAN,0.74,5.26,,0,35,35,35,1,36,Riley,Acc,Participant_Images/5f247332e02337051dc208aa/5f247332e02337051dc208aa_Images/5f247332e02337051dc208aa_Image_19.jpeg,did not like,3.79605092,,,,,,,,,,,,,,,,,,,,,,
,,5f247332e02337051dc208aa,6685aa9113c938e83b4f1ea0,6723b54d8b0d1dc4b39513d7,2024-10-31_11h50.48.295,WTP_SM_Choice,2022.2.1,Win32,101.010101,,,,,space,0.9569,NAN,,NAN,0.74,5.26,,0,36,36,36,1,37,Riley,Acc,Participant_Images/5f247332e02337051dc208aa/5f247332e02337051dc208aa_Images/5f247332e02337051dc208aa_Image_10.jpeg,liked,3.562416326,,,,,,,,,,,,,,,,,,,,,,
,,5f247332e02337051dc208aa,6685aa9113c938e83b4f1ea0,6723b54d8b0d1dc4b39513d7,2024-10-31_11h50.48.295,WTP_SM_Choice,2022.2.1,Win32,101.010101,,,,,space,0.589,NAN,,NAN,0.74,5.26,,0,37,37,37,1,38,Riley,Acc,Participant_Images/5f247332e02337051dc208aa/5f247332e02337051dc208aa_Images/5f247332e02337051dc208aa_Image_13.jpeg,did not like,2.843822497,,,,,,,,,,,,,,,,,,,,,,
,,5f247332e02337051dc208aa,6685aa9113c938e83b4f1ea0,6723b54d8b0d1dc4b39513d7,2024-10-31_11h50.48.295,WTP_SM_Choice,2022.2.1,Win32,101.010101,,,,,space,1.0131,NAN,,NAN,0.74,5.26,,0,38,38,38,1,39,Riley,Acc,Participant_Images/5f247332e02337051dc208aa/5f247332e02337051dc208aa_Images/5f247332e02337051dc208aa_Image_11.jpeg,did not like,3.546495948,,,,,,,,,,,,,,,,,,,,,,
,,5f247332e02337051dc208aa,6685aa9113c938e83b4f1ea0,6723b54d8b0d1dc4b39513d7,2024-10-31_11h50.48.295,WTP_SM_Choice,2022.2.1,Win32,101.010101,,,,,,,,,,,,,,,,,,36,,,,,,space,1.0536,space,0.9684,1,0,0,0,0,1,Research and learn about global issues,Brainstorm ideas with my friends to make funny tiktoks,0.01,0.03,3.3,1,,0.01,1.4435,,,
,,5f247332e02337051dc208aa,6685aa9113c938e83b4f1ea0,6723b54d8b0d1dc4b39513d7,2024-10-31_11h50.48.295,WTP_SM_Choice,2022.2.1,Win32,101.010101,,,,,,,,,,,,,,,,,,37,,,,,,,,,,1,0,1,1,1,1,Take my dog for a walk on cooler days,Watch new movies I think id enjoy with friends,0.02,0.03,1.1,1,,0.02,3.0407,,,
,,5f247332e02337051dc208aa,6685aa9113c938e83b4f1ea0,6723b54d8b0d1dc4b39513d7,2024-10-31_11h50.48.295,WTP_SM_Choice,2022.2.1,Win32,101.010101,,,,,,,,,,,,,,,,,,38,,,,,,,,,,1,0,2,2,2,1,Talk with my co workers about new changes at work,Cook food and enjoy podcasts,0.03,0.03,1.1,0,,0.03,5.6675,,,
,,5f247332e02337051dc208aa,6685aa9113c938e83b4f1ea0,6723b54d8b0d1dc4b39513d7,2024-10-31_11h50.48.295,WTP_SM_Choice,2022.2.1,Win32,101.010101,,,,,,,,,,,,,,,,,,39,,,,,,,,,,2,0,3,3,3,1,Take my dog for a walk on cooler days,Go on road trips to new places with my best friend,0.04,0.03,3.3,1,,0.03,3.5397,,,
,,5f247332e02337051dc208aa,6685aa9113c938e83b4f1ea0,6723b54d8b0d1dc4b39513d7,2024-10-31_11h50.48.295,WTP_SM_Choice,2022.2.1,Win32,101.010101,,,,,,,,,,,,,,,,,,40,,,,,,,,,,2,0,4,4,4,1,Research and learn about global issues,Go on road trips to new places with my best friend,0.05,0.03,4.4,1,,0.03,4.7496,,,
,,5f247332e02337051dc208aa,6685aa9113c938e83b4f1ea0,6723b54d8b0d1dc4b39513d7,2024-10-31_11h50.48.295,WTP_SM_Choice,2022.2.1,Win32,101.010101,,,,,,,NAN,,NAN,0.86,5.14,,0,39,39,39,1,40,Riley,Acc,Participant_Images/5f247332e02337051dc208aa/5f247332e02337051dc208aa_Images/5f247332e02337051dc208aa_Image_8.jpeg,liked,1.672012706,,,,,,,,,,,,,,,,,,,,,,
,,5f247332e02337051dc208aa,6685aa9113c938e83b4f1ea0,6723b54d8b0d1dc4b39513d7,2024-10-31_11h50.48.295,WTP_SM_Choice,2022.2.1,Win32,101.010101,,,,,space,0.7761,NAN,,NAN,0.86,5.14,,0,40,40,40,1,41,Riley,Acc,Participant_Images/5f247332e02337051dc208aa/5f247332e02337051dc208aa_Images/5f247332e02337051dc208aa_Image_2.jpeg,liked,4.942172136,,,,,,,,,,,,,,,,,,,,,,
,,5f247332e02337051dc208aa,6685aa9113c938e83b4f1ea0,6723b54d8b0d1dc4b39513d7,2024-10-31_11h50.48.295,WTP_SM_Choice,2022.2.1,Win32,101.010101,,,,,space,1.0333,NAN,,NAN,0.86,5.14,,0,41,41,41,1,42,Riley,Acc,Participant_Images/5f247332e02337051dc208aa/5f247332e02337051dc208aa_Images/5f247332e02337051dc208aa_Image_17.jpeg,liked,2.50187214,,,,,,,,,,,,,,,,,,,,,,
,,5f247332e02337051dc208aa,6685aa9113c938e83b4f1ea0,6723b54d8b0d1dc4b39513d7,2024-10-31_11h50.48.295,WTP_SM_Choice,2022.2.1,Win32,101.010101,,,,,space,1.0737,NAN,,NAN,0.86,5.14,,0,42,42,42,1,43,Riley,Acc,Participant_Images/5f247332e02337051dc208aa/5f247332e02337051dc208aa_Images/5f247332e02337051dc208aa_Image_7.jpeg,liked,2.071164779,,,,,,,,,,,,,,,,,,,,,,
,,5f247332e02337051dc208aa,6685aa9113c938e83b4f1ea0,6723b54d8b0d1dc4b39513d7,2024-10-31_11h50.48.295,WTP_SM_Choice,2022.2.1,Win32,101.010101,,,,,space,0.7602,NAN,,NAN,0.86,5.14,,0,43,43,43,1,44,Riley,Acc,Participant_Images/5f247332e02337051dc208aa/5f247332e02337051dc208aa_Images/5f247332e02337051dc208aa_Image_22.jpeg,liked,5.336503566,,,,,,,,,,,,,,,,,,,,,,
,,5f247332e02337051dc208aa,6685aa9113c938e83b4f1ea0,6723b54d8b0d1dc4b39513d7,2024-10-31_11h50.48.295,WTP_SM_Choice,2022.2.1,Win32,101.010101,,,,,,,,,,,,,,,,,,41,,,,,,space,2.0878,space,0.7301,1,0,0,0,0,1,Go on a starbucks run on lunch break with my friends,Go to the gym,0.01,0.04,1.1,0,,0.01,1.3099,,,
,,5f247332e02337051dc208aa,6685aa9113c938e83b4f1ea0,6723b54d8b0d1dc4b39513d7,2024-10-31_11h50.48.295,WTP_SM_Choice,2022.2.1,Win32,101.010101,,,,,,,,,,,,,,,,,,42,,,,,,,,,,1,0,1,1,1,1,Take my dog for a walk on cooler days,Go on a starbucks run on lunch break with my friends,0.02,0.04,3.3,1,,0.02,2.1098,,,
,,5f247332e02337051dc208aa,6685aa9113c938e83b4f1ea0,6723b54d8b0d1dc4b39513d7,2024-10-31_11h50.48.295,WTP_SM_Choice,2022.2.1,Win32,101.010101,,,,,,,,,,,,,,,,,,43,,,,,,,,,,1,0,2,2,2,1,Go on road trips to new places with my best friend,Practice coffee art in the morning,0.03,0.04,1.1,0,,0.03,2.78,,,
,,5f247332e02337051dc208aa,6685aa9113c938e83b4f1ea0,6723b54d8b0d1dc4b39513d7,2024-10-31_11h50.48.295,WTP_SM_Choice,2022.2.1,Win32,101.010101,,,,,,,,,,,,,,,,,,44,,,,,,,,,,1,0,3,3,3,1,Cook food and enjoy podcasts,Go on a starbucks run on lunch break with my friends,0.04,0.04,1.1,1,,0.04,2.4501,,,
,,5f247332e02337051dc208aa,6685aa9113c938e83b4f1ea0,6723b54d8b0d1dc4b39513d7,2024-10-31_11h50.48.295,WTP_SM_Choice,2022.2.1,Win32,101.010101,,,,,,,,,,,,,,,,,,45,,,,,,,,,,2,0,4,4,4,1,Go to the gym,Go on road trips to new places with my best friend,0.05,0.04,4.4,1,,0.04,1.7404,,,
,,5f247332e02337051dc208aa,6685aa9113c938e83b4f1ea0,6723b54d8b0d1dc4b39513d7,2024-10-31_11h50.48.295,WTP_SM_Choice,2022.2.1,Win32,101.010101,,,,,,,NAN,,NAN,1,5,,0,44,44,44,1,45,Riley,Acc,Participant_Images/5f247332e02337051dc208aa/5f247332e02337051dc208aa_Images/5f247332e02337051dc208aa_Image_14.jpeg,liked,2.642157193,,,,,,,,,,,,,,,,,,,,,,
,,5f247332e02337051dc208aa,6685aa9113c938e83b4f1ea0,6723b54d8b0d1dc4b39513d7,2024-10-31_11h50.48.295,WTP_SM_Choice,2022.2.1,Win32,101.010101,,,,,space,0.7783,NAN,,NAN,1,5,,0,45,45,45,1,46,Riley,Acc,Participant_Images/5f247332e02337051dc208aa/5f247332e02337051dc208aa_Images/5f247332e02337051dc208aa_Image_18.jpeg,liked,4.456234322,,,,,,,,,,,,,,,,,,,,,,
,,5f247332e02337051dc208aa,6685aa9113c938e83b4f1ea0,6723b54d8b0d1dc4b39513d7,2024-10-31_11h50.48.295,WTP_SM_Choice,2022.2.1,Win32,101.010101,,,,,space,2.5546,NAN,,NAN,1,5,,0,46,46,46,1,47,Riley,Acc,Participant_Images/5f247332e02337051dc208aa/5f247332e02337051dc208aa_Images/5f247332e02337051dc208aa_Image_1.jpeg,liked,4.438512181,,,,,,,,,,,,,,,,,,,,,,
,,5f247332e02337051dc208aa,6685aa9113c938e83b4f1ea0,6723b54d8b0d1dc4b39513d7,2024-10-31_11h50.48.295,WTP_SM_Choice,2022.2.1,Win32,101.010101,,,,,space,0.9933,NAN,,NAN,1,5,,0,47,47,47,1,48,Riley,Acc,Participant_Images/5f247332e02337051dc208aa/5f247332e02337051dc208aa_Images/5f247332e02337051dc208aa_Image_24.jpeg,liked,2.682944783,,,,,,,,,,,,,,,,,,,,,,
,,5f247332e02337051dc208aa,6685aa9113c938e83b4f1ea0,6723b54d8b0d1dc4b39513d7,2024-10-31_11h50.48.295,WTP_SM_Choice,2022.2.1,Win32,101.010101,,,,,space,0.9762,NAN,,NAN,1,5,,0,48,48,48,1,49,Riley,Acc,Participant_Images/5f247332e02337051dc208aa/5f247332e02337051dc208aa_Images/5f247332e02337051dc208aa_Image_21.jpeg,liked,4.51984296,,,,,,,,,,,,,,,,,,,,,,
,,5f247332e02337051dc208aa,6685aa9113c938e83b4f1ea0,6723b54d8b0d1dc4b39513d7,2024-10-31_11h50.48.295,WTP_SM_Choice,2022.2.1,Win32,101.010101,,,,,,,,,,,,,,,,,,46,,,,,,space,3.1617,space,2.0587,1,0,0,0,0,1,Go live on twitch with my friend,Cook food and enjoy podcasts,0.01,0.05,8.8,0,,0.01,1.5978,,,
,,5f247332e02337051dc208aa,6685aa9113c938e83b4f1ea0,6723b54d8b0d1dc4b39513d7,2024-10-31_11h50.48.295,WTP_SM_Choice,2022.2.1,Win32,101.010101,,,,,,,,,,,,,,,,,,47,,,,,,,,,,2,0,1,1,1,1,Do the dishes after cooking my favorite meals,On drunk nights with my friends going to get food,0.02,0.05,1.1,1,,0.05,3.6145,,,
,,5f247332e02337051dc208aa,6685aa9113c938e83b4f1ea0,6723b54d8b0d1dc4b39513d7,2024-10-31_11h50.48.295,WTP_SM_Choice,2022.2.1,Win32,101.010101,,,,,,,,,,,,,,,,,,48,,,,,,,,,,1,0,2,2,2,1,Talk with my co workers about new changes at work,Wash my car on a sunny day,0.03,0.05,4.4,0,,0.03,3.2775,,,
,,5f247332e02337051dc208aa,6685aa9113c938e83b4f1ea0,6723b54d8b0d1dc4b39513d7,2024-10-31_11h50.48.295,WTP_SM_Choice,2022.2.1,Win32,101.010101,,,,,,,,,,,,,,,,,,49,,,,,,,,,,2,0,3,3,3,1,On drunk nights with my friends going to get food,Practice coffee art in the morning,0.04,0.05,3.3,0,,0.05,1.6875,,,
,,5f247332e02337051dc208aa,6685aa9113c938e83b4f1ea0,6723b54d8b0d1dc4b39513d7,2024-10-31_11h50.48.295,WTP_SM_Choice,2022.2.1,Win32,101.010101,,,,,,,,,,,,,,,,,,50,,,,,,,,,,1,0,4,4,4,1,On drunk nights with my friends going to get food,Listen to music and relaxing,0.05,0.05,1.1,0,,0.05,0.5918,,,
,,5f247332e02337051dc208aa,6685aa9113c938e83b4f1ea0,6723b54d8b0d1dc4b39513d7,2024-10-31_11h50.48.295,WTP_SM_Choice,2022.2.1,Win32,101.010101,,,,,,,3,,8,1.19,4.81,,0,49,49,49,1,50,Riley,Acc,Participant_Images/5f247332e02337051dc208aa/5f247332e02337051dc208aa_Images/5f247332e02337051dc208aa_Image_6.jpeg,liked,3.195382774,,,,,,,,,,,,,,,,,space,,,0.8003,,
,,5f247332e02337051dc208aa,6685aa9113c938e83b4f1ea0,6723b54d8b0d1dc4b39513d7,2024-10-31_11h50.48.295,WTP_SM_Choice,2022.2.1,Win32,101.010101,,,space,0.9279,space,0.6603,NAN,,NAN,1.19,4.81,,0,50,50,50,1,51,Alex,Acc,Participant_Images/5f247332e02337051dc208aa/5f247332e02337051dc208aa_Images/5f247332e02337051dc208aa_Image_16.jpeg,liked,1.779333479,,,,,,,,,,,,,,,,,,,,,,
,,5f247332e02337051dc208aa,6685aa9113c938e83b4f1ea0,6723b54d8b0d1dc4b39513d7,2024-10-31_11h50.48.295,WTP_SM_Choice,2022.2.1,Win32,101.010101,,,,,space,0.6502,NAN,,NAN,1.19,4.81,,0,51,51,51,1,52,Alex,Acc,Participant_Images/5f247332e02337051dc208aa/5f247332e02337051dc208aa_Images/5f247332e02337051dc208aa_Image_20.jpeg,liked,4.312468682,,,,,,,,,,,,,,,,,,,,,,
,,5f247332e02337051dc208aa,6685aa9113c938e83b4f1ea0,6723b54d8b0d1dc4b39513d7,2024-10-31_11h50.48.295,WTP_SM_Choice,2022.2.1,Win32,101.010101,,,,,space,6.5903,NAN,,NAN,1.19,4.81,,0,52,52,52,1,53,Alex,Acc,Participant_Images/5f247332e02337051dc208aa/5f247332e02337051dc208aa_Images/5f247332e02337051dc208aa_Image_18.jpeg,did not like,4.940433059,,,,,,,,,,,,,,,,,,,,,,
,,5f247332e02337051dc208aa,6685aa9113c938e83b4f1ea0,6723b54d8b0d1dc4b39513d7,2024-10-31_11h50.48.295,WTP_SM_Choice,2022.2.1,Win32,101.010101,,,,,space,0.6302,NAN,,NAN,1.19,4.81,,0,53,53,53,1,54,Alex,Acc,Participant_Images/5f247332e02337051dc208aa/5f247332e02337051dc208aa_Images/5f247332e02337051dc208aa_Image_24.jpeg,liked,2.7105123,,,,,,,,,,,,,,,,,,,,,,
,,5f247332e02337051dc208aa,6685aa9113c938e83b4f1ea0,6723b54d8b0d1dc4b39513d7,2024-10-31_11h50.48.295,WTP_SM_Choice,2022.2.1,Win32,101.010101,,,,,,,,,,,,,,,,,,51,,,,,,space,0.6906,space,0.5737,1,0,0,0,0,1,Play my favorite games with my close friends,Listen to music and relaxing,0.01,0.01,1.1,0,,0.01,2.0214,,,
,,5f247332e02337051dc208aa,6685aa9113c938e83b4f1ea0,6723b54d8b0d1dc4b39513d7,2024-10-31_11h50.48.295,WTP_SM_Choice,2022.2.1,Win32,101.010101,,,,,,,,,,,,,,,,,,52,,,,,,,,,,2,0,1,1,1,1,Go on a starbucks run on lunch break with my friends,Practice classical songs on my piano,0.02,0.01,3.3,0,,0.01,1.7261,,,
,,5f247332e02337051dc208aa,6685aa9113c938e83b4f1ea0,6723b54d8b0d1dc4b39513d7,2024-10-31_11h50.48.295,WTP_SM_Choice,2022.2.1,Win32,101.010101,,,,,,,,,,,,,,,,,,53,,,,,,,,,,2,0,2,2,2,1,Watch new movies I think id enjoy with friends,Practice coffee art in the morning,0.03,0.01,1.1,0,,0.01,1.4006,,,
,,5f247332e02337051dc208aa,6685aa9113c938e83b4f1ea0,6723b54d8b0d1dc4b39513d7,2024-10-31_11h50.48.295,WTP_SM_Choice,2022.2.1,Win32,101.010101,,,,,,,,,,,,,,,,,,54,,,,,,,,,,2,0,3,3,3,1,Talk with my co workers about new changes at work,Do the dishes after cooking my favorite meals,0.04,0.01,4.4,0,,0.01,1.2877,,,
,,5f247332e02337051dc208aa,6685aa9113c938e83b4f1ea0,6723b54d8b0d1dc4b39513d7,2024-10-31_11h50.48.295,WTP_SM_Choice,2022.2.1,Win32,101.010101,,,,,,,,,,,,,,,,,,55,,,,,,,,,,1,0,4,4,4,1,Cook food and enjoy podcasts,Play my favorite games with my close friends,0.05,0.01,1.1,1,,0.05,0.8645,,,
,,5f247332e02337051dc208aa,6685aa9113c938e83b4f1ea0,6723b54d8b0d1dc4b39513d7,2024-10-31_11h50.48.295,WTP_SM_Choice,2022.2.1,Win32,101.010101,,,,,,,NAN,,NAN,1.28,4.72,,0,54,54,54,1,55,Alex,Acc,Participant_Images/5f247332e02337051dc208aa/5f247332e02337051dc208aa_Images/5f247332e02337051dc208aa_Image_13.jpeg,liked,3.602308302,,,,,,,,,,,,,,,,,,,,,,
,,5f247332e02337051dc208aa,6685aa9113c938e83b4f1ea0,6723b54d8b0d1dc4b39513d7,2024-10-31_11h50.48.295,WTP_SM_Choice,2022.2.1,Win32,101.010101,,,,,space,0.7362,NAN,,NAN,1.28,4.72,,0,55,55,55,1,56,Alex,Acc,Participant_Images/5f247332e02337051dc208aa/5f247332e02337051dc208aa_Images/5f247332e02337051dc208aa_Image_1.jpeg,liked,4.106391878,,,,,,,,,,,,,,,,,,,,,,
,,5f247332e02337051dc208aa,6685aa9113c938e83b4f1ea0,6723b54d8b0d1dc4b39513d7,2024-10-31_11h50.48.295,WTP_SM_Choice,2022.2.1,Win32,101.010101,,,,,space,0.6125,NAN,,NAN,1.28,4.72,,0,56,56,56,1,57,Alex,Acc,Participant_Images/5f247332e02337051dc208aa/5f247332e02337051dc208aa_Images/5f247332e02337051dc208aa_Image_12.jpeg,liked,3.799433026,,,,,,,,,,,,,,,,,,,,,,
,,5f247332e02337051dc208aa,6685aa9113c938e83b4f1ea0,6723b54d8b0d1dc4b39513d7,2024-10-31_11h50.48.295,WTP_SM_Choice,2022.2.1,Win32,101.010101,,,,,space,0.5163,NAN,,NAN,1.28,4.72,,0,57,57,57,1,58,Alex,Acc,Participant_Images/5f247332e02337051dc208aa/5f247332e02337051dc208aa_Images/5f247332e02337051dc208aa_Image_6.jpeg,liked,5.246980764,,,,,,,,,,,,,,,,,,,,,,
,,5f247332e02337051dc208aa,6685aa9113c938e83b4f1ea0,6723b54d8b0d1dc4b39513d7,2024-10-31_11h50.48.295,WTP_SM_Choice,2022.2.1,Win32,101.010101,,,,,space,0.4641,NAN,,NAN,1.28,4.72,,0,58,58,58,1,59,Alex,Acc,Participant_Images/5f247332e02337051dc208aa/5f247332e02337051dc208aa_Images/5f247332e02337051dc208aa_Image_15.jpeg,liked,3.30081769,,,,,,,,,,,,,,,,,,,,,,
,,5f247332e02337051dc208aa,6685aa9113c938e83b4f1ea0,6723b54d8b0d1dc4b39513d7,2024-10-31_11h50.48.295,WTP_SM_Choice,2022.2.1,Win32,101.010101,,,,,,,,,,,,,,,,,,56,,,,,,space,0.2501,space,1.2632,1,0,0,0,0,1,On drunk nights with my friends going to get food,Wash my car on a sunny day,0.01,0.02,8.8,0,,0.01,1.5077,,,
,,5f247332e02337051dc208aa,6685aa9113c938e83b4f1ea0,6723b54d8b0d1dc4b39513d7,2024-10-31_11h50.48.295,WTP_SM_Choice,2022.2.1,Win32,101.010101,,,,,,,,,,,,,,,,,,57,,,,,,,,,,1,0,1,1,1,1,Research and learn about global issues,Talk with my co workers about new changes at work,0.02,0.02,4.4,1,,0.02,1.2108,,,
,,5f247332e02337051dc208aa,6685aa9113c938e83b4f1ea0,6723b54d8b0d1dc4b39513d7,2024-10-31_11h50.48.295,WTP_SM_Choice,2022.2.1,Win32,101.010101,,,,,,,,,,,,,,,,,,58,,,,,,,,,,1,0,2,2,2,1,Brainstorm ideas with my friends to make funny tiktoks,Go to the gym,0.03,0.02,4.4,0,,0.03,1.1581,,,
,,5f247332e02337051dc208aa,6685aa9113c938e83b4f1ea0,6723b54d8b0d1dc4b39513d7,2024-10-31_11h50.48.295,WTP_SM_Choice,2022.2.1,Win32,101.010101,,,,,,,,,,,,,,,,,,59,,,,,,,,,,1,0,3,3,3,1,Talk with my co workers about new changes at work,Take my dog for a walk on cooler days,0.04,0.02,4.4,0,,0.04,0.7619,,,
,,5f247332e02337051dc208aa,6685aa9113c938e83b4f1ea0,6723b54d8b0d1dc4b39513d7,2024-10-31_11h50.48.295,WTP_SM_Choice,2022.2.1,Win32,101.010101,,,,,,,,,,,,,,,,,,60,,,,,,,,,,2,0,4,4,4,1,Brainstorm ideas with my friends to make funny tiktoks,Practice coffee art in the morning,0.05,0.02,1.1,0,,0.02,0.75,,,
,,5f247332e02337051dc208aa,6685aa9113c938e83b4f1ea0,6723b54d8b0d1dc4b39513d7,2024-10-31_11h50.48.295,WTP_SM_Choice,2022.2.1,Win32,101.010101,,,,,,,NAN,,NAN,1.4,4.6,,0,59,59,59,1,60,Alex,Acc,Participant_Images/5f247332e02337051dc208aa/5f247332e02337051dc208aa_Images/5f247332e02337051dc208aa_Image_17.jpeg,liked,1.661473164,,,,,,,,,,,,,,,,,,,,,,
,,5f247332e02337051dc208aa,6685aa9113c938e83b4f1ea0,6723b54d8b0d1dc4b39513d7,2024-10-31_11h50.48.295,WTP_SM_Choice,2022.2.1,Win32,101.010101,,,,,space,0.7401,NAN,,NAN,1.4,4.6,,0,60,60,60,1,61,Alex,Acc,Participant_Images/5f247332e02337051dc208aa/5f247332e02337051dc208aa_Images/5f247332e02337051dc208aa_Image_23.jpeg,liked,3.613205605,,,,,,,,,,,,,,,,,,,,,,
,,5f247332e02337051dc208aa,6685aa9113c938e83b4f1ea0,6723b54d8b0d1dc4b39513d7,2024-10-31_11h50.48.295,WTP_SM_Choice,2022.2.1,Win32,101.010101,,,,,space,0.5656,NAN,,NAN,1.4,4.6,,0,61,61,61,1,62,Alex,Acc,Participant_Images/5f247332e02337051dc208aa/5f247332e02337051dc208aa_Images/5f247332e02337051dc208aa_Image_2.jpeg,liked,4.988446431,,,,,,,,,,,,,,,,,,,,,,
,,5f247332e02337051dc208aa,6685aa9113c938e83b4f1ea0,6723b54d8b0d1dc4b39513d7,2024-10-31_11h50.48.295,WTP_SM_Choice,2022.2.1,Win32,101.010101,,,,,space,0.2346,NAN,,NAN,1.4,4.6,,0,62,62,62,1,63,Alex,Acc,Participant_Images/5f247332e02337051dc208aa/5f247332e02337051dc208aa_Images/5f247332e02337051dc208aa_Image_11.jpeg,liked,3.470791822,,,,,,,,,,,,,,,,,,,,,,
,,5f247332e02337051dc208aa,6685aa9113c938e83b4f1ea0,6723b54d8b0d1dc4b39513d7,2024-10-31_11h50.48.295,WTP_SM_Choice,2022.2.1,Win32,101.010101,,,,,space,0.5291,NAN,,NAN,1.4,4.6,,0,63,63,63,1,64,Alex,Acc,Participant_Images/5f247332e02337051dc208aa/5f247332e02337051dc208aa_Images/5f247332e02337051dc208aa_Image_14.jpeg,did not like,3.820572462,,,,,,,,,,,,,,,,,,,,,,
,,5f247332e02337051dc208aa,6685aa9113c938e83b4f1ea0,6723b54d8b0d1dc4b39513d7,2024-10-31_11h50.48.295,WTP_SM_Choice,2022.2.1,Win32,101.010101,,,,,,,,,,,,,,,,,,61,,,,,,space,0.5736,space,0.4792,2,0,0,0,0,1,Go to the gym,Suggest policy changes at work with my managers,0.01,0.03,3.3,1,,0.03,1.5929,,,
,,5f247332e02337051dc208aa,6685aa9113c938e83b4f1ea0,6723b54d8b0d1dc4b39513d7,2024-10-31_11h50.48.295,WTP_SM_Choice,2022.2.1,Win32,101.010101,,,,,,,,,,,,,,,,,,62,,,,,,,,,,2,0,1,1,1,1,Do the dishes after cooking my favorite meals,Watch new movies I think id enjoy with friends,0.02,0.03,3.3,1,,0.03,1.8222,,,
,,5f247332e02337051dc208aa,6685aa9113c938e83b4f1ea0,6723b54d8b0d1dc4b39513d7,2024-10-31_11h50.48.295,WTP_SM_Choice,2022.2.1,Win32,101.010101,,,,,,,,,,,,,,,,,,63,,,,,,,,,,1,0,2,2,2,1,Brainstorm ideas with my friends to make funny tiktoks,Do the dishes after cooking my favorite meals,0.03,0.03,3.3,0,,0.03,0.9222,,,
,,5f247332e02337051dc208aa,6685aa9113c938e83b4f1ea0,6723b54d8b0d1dc4b39513d7,2024-10-31_11h50.48.295,WTP_SM_Choice,2022.2.1,Win32,101.010101,,,,,,,,,,,,,,,,,,64,,,,,,,,,,2,0,3,3,3,1,Do the dishes after cooking my favorite meals,Go on a starbucks run on lunch break with my friends,0.04,0.03,1.1,1,,0.03,2.1399,,,
,,5f247332e02337051dc208aa,6685aa9113c938e83b4f1ea0,6723b54d8b0d1dc4b39513d7,2024-10-31_11h50.48.295,WTP_SM_Choice,2022.2.1,Win32,101.010101,,,,,,,,,,,,,,,,,,65,,,,,,,,,,1,0,4,4,4,1,Practice classical songs on my piano,Suggest policy changes at work with my managers,0.05,0.03,1.1,1,,0.05,0.9817,,,
,,5f247332e02337051dc208aa,6685aa9113c938e83b4f1ea0,6723b54d8b0d1dc4b39513d7,2024-10-31_11h50.48.295,WTP_SM_Choice,2022.2.1,Win32,101.010101,,,,,,,NAN,,NAN,1.57,4.43,,0,64,64,64,1,65,Alex,Acc,Participant_Images/5f247332e02337051dc208aa/5f247332e02337051dc208aa_Images/5f247332e02337051dc208aa_Image_19.jpeg,liked,2.455989137,,,,,,,,,,,,,,,,,,,,,,
,,5f247332e02337051dc208aa,6685aa9113c938e83b4f1ea0,6723b54d8b0d1dc4b39513d7,2024-10-31_11h50.48.295,WTP_SM_Choice,2022.2.1,Win32,101.010101,,,,,space,0.5286,NAN,,NAN,1.57,4.43,,0,65,65,65,1,66,Alex,Acc,Participant_Images/5f247332e02337051dc208aa/5f247332e02337051dc208aa_Images/5f247332e02337051dc208aa_Image_3.jpeg,did not like,3.79605092,,,,,,,,,,,,,,,,,,,,,,
,,5f247332e02337051dc208aa,6685aa9113c938e83b4f1ea0,6723b54d8b0d1dc4b39513d7,2024-10-31_11h50.48.295,WTP_SM_Choice,2022.2.1,Win32,101.010101,,,,,space,0.53,NAN,,NAN,1.57,4.43,,0,66,66,66,1,67,Alex,Acc,Participant_Images/5f247332e02337051dc208aa/5f247332e02337051dc208aa_Images/5f247332e02337051dc208aa_Image_5.jpeg,liked,3.562416326,,,,,,,,,,,,,,,,,,,,,,
,,5f247332e02337051dc208aa,6685aa9113c938e83b4f1ea0,6723b54d8b0d1dc4b39513d7,2024-10-31_11h50.48.295,WTP_SM_Choice,2022.2.1,Win32,101.010101,,,,,space,0.3262,NAN,,NAN,1.57,4.43,,0,67,67,67,1,68,Alex,Acc,Participant_Images/5f247332e02337051dc208aa/5f247332e02337051dc208aa_Images/5f247332e02337051dc208aa_Image_4.jpeg,did not like,2.843822497,,,,,,,,,,,,,,,,,,,,,,
,,5f247332e02337051dc208aa,6685aa9113c938e83b4f1ea0,6723b54d8b0d1dc4b39513d7,2024-10-31_11h50.48.295,WTP_SM_Choice,2022.2.1,Win32,101.010101,,,,,space,0.8678,NAN,,NAN,1.57,4.43,,0,68,68,68,1,69,Alex,Acc,Participant_Images/5f247332e02337051dc208aa/5f247332e02337051dc208aa_Images/5f247332e02337051dc208aa_Image_8.jpeg,did not like,3.546495948,,,,,,,,,,,,,,,,,,,,,,
,,5f247332e02337051dc208aa,6685aa9113c938e83b4f1ea0,6723b54d8b0d1dc4b39513d7,2024-10-31_11h50.48.295,WTP_SM_Choice,2022.2.1,Win32,101.010101,,,,,,,,,,,,,,,,,,66,,,,,,space,1.8079,space,0.5901,1,0,0,0,0,1,On drunk nights with my friends going to get food,Practice classical songs on my piano,0.01,0.04,1.1,0,,0.01,1.112,,,
,,5f247332e02337051dc208aa,6685aa9113c938e83b4f1ea0,6723b54d8b0d1dc4b39513d7,2024-10-31_11h50.48.295,WTP_SM_Choice,2022.2.1,Win32,101.010101,,,,,,,,,,,,,,,,,,67,,,,,,,,,,2,0,1,1,1,1,Cook food and enjoy podcasts,Brainstorm ideas with my friends to make funny tiktoks,0.02,0.04,8.8,1,,0.04,2.794,,,
,,5f247332e02337051dc208aa,6685aa9113c938e83b4f1ea0,6723b54d8b0d1dc4b39513d7,2024-10-31_11h50.48.295,WTP_SM_Choice,2022.2.1,Win32,101.010101,,,,,,,,,,,,,,,,,,68,,,,,,,,,,1,0,2,2,2,1,Watch funny tiktoks with my friends while we are hanging out,Listen to music and relaxing,0.03,0.04,4.4,0,,0.03,0.4005,,,
,,5f247332e02337051dc208aa,6685aa9113c938e83b4f1ea0,6723b54d8b0d1dc4b39513d7,2024-10-31_11h50.48.295,WTP_SM_Choice,2022.2.1,Win32,101.010101,,,,,,,,,,,,,,,,,,69,,,,,,,,,,2,0,3,3,3,1,Listen to music and relaxing,Brainstorm ideas with my friends to make funny tiktoks,0.04,0.04,1.1,1,,0.04,0.5576,,,
,,5f247332e02337051dc208aa,6685aa9113c938e83b4f1ea0,6723b54d8b0d1dc4b39513d7,2024-10-31_11h50.48.295,WTP_SM_Choice,2022.2.1,Win32,101.010101,,,,,,,,,,,,,,,,,,70,,,,,,,,,,1,0,4,4,4,1,Brainstorm ideas with my friends to make funny tiktoks,Wash my car on a sunny day,0.05,0.04,1.1,0,,0.05,0.7349,,,
,,5f247332e02337051dc208aa,6685aa9113c938e83b4f1ea0,6723b54d8b0d1dc4b39513d7,2024-10-31_11h50.48.295,WTP_SM_Choice,2022.2.1,Win32,101.010101,,,,,,,NAN,,NAN,1.74,4.26,,0,69,69,69,1,70,Alex,Acc,Participant_Images/5f247332e02337051dc208aa/5f247332e02337051dc208aa_Images/5f247332e02337051dc208aa_Image_10.jpeg,liked,1.672012706,,,,,,,,,,,,,,,,,,,,,,
,,5f247332e02337051dc208aa,6685aa9113c938e83b4f1ea0,6723b54d8b0d1dc4b39513d7,2024-10-31_11h50.48.295,WTP_SM_Choice,2022.2.1,Win32,101.010101,,,,,space,0.4207,NAN,,NAN,1.74,4.26,,0,70,70,70,1,71,Alex,Acc,Participant_Images/5f247332e02337051dc208aa/5f247332e02337051dc208aa_Images/5f247332e02337051dc208aa_Image_22.jpeg,liked,4.942172136,,,,,,,,,,,,,,,,,,,,,,
,,5f247332e02337051dc208aa,6685aa9113c938e83b4f1ea0,6723b54d8b0d1dc4b39513d7,2024-10-31_11h50.48.295,WTP_SM_Choice,2022.2.1,Win32,101.010101,,,,,space,0.0084,NAN,,NAN,1.74,4.26,,0,71,71,71,1,72,Alex,Acc,Participant_Images/5f247332e02337051dc208aa/5f247332e02337051dc208aa_Images/5f247332e02337051dc208aa_Image_7.jpeg,liked,2.50187214,,,,,,,,,,,,,,,,,,,,,,
,,5f247332e02337051dc208aa,6685aa9113c938e83b4f1ea0,6723b54d8b0d1dc4b39513d7,2024-10-31_11h50.48.295,WTP_SM_Choice,2022.2.1,Win32,101.010101,,,,,space,0.3633,NAN,,NAN,1.74,4.26,,0,72,72,72,1,73,Alex,Acc,Participant_Images/5f247332e02337051dc208aa/5f247332e02337051dc208aa_Images/5f247332e02337051dc208aa_Image_21.jpeg,did not like,2.071164779,,,,,,,,,,,,,,,,,,,,,,
,,5f247332e02337051dc208aa,6685aa9113c938e83b4f1ea0,6723b54d8b0d1dc4b39513d7,2024-10-31_11h50.48.295,WTP_SM_Choice,2022.2.1,Win32,101.010101,,,,,space,0.3043,NAN,,NAN,1.74,4.26,,0,73,73,73,1,74,Alex,Acc,Participant_Images/5f247332e02337051dc208aa/5f247332e02337051dc208aa_Images/5f247332e02337051dc208aa_Image_25.jpeg,liked,5.336503566,,,,,,,,,,,,,,,,,,,,,,
,,5f247332e02337051dc208aa,6685aa9113c938e83b4f1ea0,6723b54d8b0d1dc4b39513d7,2024-10-31_11h50.48.295,WTP_SM_Choice,2022.2.1,Win32,101.010101,,,,,,,,,,,,,,,,,,71,,,,,,space,0.1225,space,0.5923,2,0,0,0,0,1,Cook food and enjoy podcasts,On drunk nights with my friends going to get food,0.01,0.05,3.3,1,,0.05,0.8308,,,
,,5f247332e02337051dc208aa,6685aa9113c938e83b4f1ea0,6723b54d8b0d1dc4b39513d7,2024-10-31_11h50.48.295,WTP_SM_Choice,2022.2.1,Win32,101.010101,,,,,,,,,,,,,,,,,,72,,,,,,,,,,2,0,1,1,1,1,Play my favorite games with my close friends,Practice classical songs on my piano,0.02,0.05,8.8,0,,0.05,0.9078,,,
,,5f247332e02337051dc208aa,6685aa9113c938e83b4f1ea0,6723b54d8b0d1dc4b39513d7,2024-10-31_11h50.48.295,WTP_SM_Choice,2022.2.1,Win32,101.010101,,,,,,,,,,,,,,,,,,73,,,,,,,,,,1,0,2,2,2,1,Watch new movies I think id enjoy with friends,Cook food and enjoy podcasts,0.03,0.05,3.3,0,,0.03,0.9474,,,
,,5f247332e02337051dc208aa,6685aa9113c938e83b4f1ea0,6723b54d8b0d1dc4b39513d7,2024-10-31_11h50.48.295,WTP_SM_Choice,2022.2.1,Win32,101.010101,,,,,,,,,,,,,,,,,,74,,,,,,,,,,2,0,3,3,3,1,Walk in the park,Watch new movies I think id enjoy with friends,0.04,0.05,4.4,1,,0.05,0.9119,,,
,,5f247332e02337051dc208aa,6685aa9113c938e83b4f1ea0,6723b54d8b0d1dc4b39513d7,2024-10-31_11h50.48.295,WTP_SM_Choice,2022.2.1,Win32,101.010101,,,,,,,,,,,,,,,,,,75,,,,,,,,,,1,0,4,4,4,1,Research and learn about global issues,Go live on twitch with my friend,0.05,0.05,3.3,1,,0.05,0.9942,,,
,,5f247332e02337051dc208aa,6685aa9113c938e83b4f1ea0,6723b54d8b0d1dc4b39513d7,2024-10-31_11h50.48.295,WTP_SM_Choice,2022.2.1,Win32,101.010101,,,,,,,2,,3,1.97,4.03,,0,74,74,74,1,75,Alex,Acc,Participant_Images/5f247332e02337051dc208aa/5f247332e02337051dc208aa_Images/5f247332e02337051dc208aa_Image_9.jpeg,did not like,2.642157193,,,,,,,,,,,,,,,,,space,,,6.0562,,
,,5f247332e02337051dc208aa,6685aa9113c938e83b4f1ea0,6723b54d8b0d1dc4b39513d7,2024-10-31_11h50.48.295,WTP_SM_Choice,2022.2.1,Win32,101.010101,,,space,0.5792,space,0.5915,NAN,,NAN,1.97,4.03,,0,75,75,75,1,76,Charlie,Rej,Participant_Images/5f247332e02337051dc208aa/5f247332e02337051dc208aa_Images/5f247332e02337051dc208aa_Image_24.jpeg,did not like,4.456234322,,,,,,,,,,,,,,,,,,,,,,
,,5f247332e02337051dc208aa,6685aa9113c938e83b4f1ea0,6723b54d8b0d1dc4b39513d7,2024-10-31_11h50.48.295,WTP_SM_Choice,2022.2.1,Win32,101.010101,,,,,space,0.0001,NAN,,NAN,1.97,4.03,,0,76,76,76,1,77,Charlie,Rej,Participant_Images/5f247332e02337051dc208aa/5f247332e02337051dc208aa_Images/5f247332e02337051dc208aa_Image_14.jpeg,did not like,4.438512181,,,,,,,,,,,,,,,,,,,,,,
,,5f247332e02337051dc208aa,6685aa9113c938e83b4f1ea0,6723b54d8b0d1dc4b39513d7,2024-10-31_11h50.48.295,WTP_SM_Choice,2022.2.1,Win32,101.010101,,,,,space,0.6419,NAN,,NAN,1.97,4.03,,0,77,77,77,1,78,Charlie,Rej,Participant_Images/5f247332e02337051dc208aa/5f247332e02337051dc208aa_Images/5f247332e02337051dc208aa_Image_11.jpeg,did not like,2.682944783,,,,,,,,,,,,,,,,,,,,,,
,,5f247332e02337051dc208aa,6685aa9113c938e83b4f1ea0,6723b54d8b0d1dc4b39513d7,2024-10-31_11h50.48.295,WTP_SM_Choice,2022.2.1,Win32,101.010101,,,,,space,0.0151,NAN,,NAN,1.97,4.03,,0,78,78,78,1,79,Charlie,Rej,Participant_Images/5f247332e02337051dc208aa/5f247332e02337051dc208aa_Images/5f247332e02337051dc208aa_Image_17.jpeg,liked,4.51984296,,,,,,,,,,,,,,,,,,,,,,
,,5f247332e02337051dc208aa,6685aa9113c938e83b4f1ea0,6723b54d8b0d1dc4b39513d7,2024-10-31_11h50.48.295,WTP_SM_Choice,2022.2.1,Win32,101.010101,,,,,,,,,,,,,,,,,,76,,,,,,space,0.7048,space,2.8161,2,0,0,0,0,1,Go to the gym,Watch new movies I think id enjoy with friends,0.01,0.01,1.1,1,,0.01,0.8632,,,
,,5f247332e02337051dc208aa,6685aa9113c938e83b4f1ea0,6723b54d8b0d1dc4b39513d7,2024-10-31_11h50.48.295,WTP_SM_Choice,2022.2.1,Win32,101.010101,,,,,,,,,,,,,,,,,,77,,,,,,,,,,1,0,1,1,1,1,Go live on twitch with my friend,Do the dishes after cooking my favorite meals,0.02,0.01,8.8,0,,0.02,1.7402,,,
,,5f247332e02337051dc208aa,6685aa9113c938e83b4f1ea0,6723b54d8b0d1dc4b39513d7,2024-10-31_11h50.48.295,WTP_SM_Choice,2022.2.1,Win32,101.010101,,,,,,,,,,,,,,,,,,78,,,,,,,,,,2,0,2,2,2,1,Wash my car on a sunny day,Go on a starbucks run on lunch break with my friends,0.03,0.01,1.1,1,,0.01,0.4767,,,
,,5f247332e02337051dc208aa,6685aa9113c938e83b4f1ea0,6723b54d8b0d1dc4b39513d7,2024-10-31_11h50.48.295,WTP_SM_Choice,2022.2.1,Win32,101.010101,,,,,,,,,,,,,,,,,,79,,,,,,,,,,2,0,3,3,3,1,Suggest policy changes at work with my managers,Research and learn about global issues,0.04,0.01,1.1,0,,0.01,1.2467,,,
,,5f247332e02337051dc208aa,6685aa9113c938e83b4f1ea0,6723b54d8b0d1dc4b39513d7,2024-10-31_11h50.48.295,WTP_SM_Choice,2022.2.1,Win32,101.010101,,,,,,,,,,,,,,,,,,80,,,,,,,,,,2,0,4,4,4,1,Watch funny tiktoks with my friends while we are hanging out,Walk in the park,0.05,0.01,4.4,0,,0.01,0.8201,,,
,,5f247332e02337051dc208aa,6685aa9113c938e83b4f1ea0,6723b54d8b0d1dc4b39513d7,2024-10-31_11h50.48.295,WTP_SM_Choice,2022.2.1,Win32,101.010101,,,,,,,NAN,,NAN,2.03,3.97,,0,79,79,79,1,80,Charlie,Rej,Participant_Images/5f247332e02337051dc208aa/5f247332e02337051dc208aa_Images/5f247332e02337051dc208aa_Image_3.jpeg,did not like,3.195382774,,,,,,,,,,,,,,,,,,,,,,
,,5f247332e02337051dc208aa,6685aa9113c938e83b4f1ea0,6723b54d8b0d1dc4b39513d7,2024-10-31_11h50.48.295,WTP_SM_Choice,2022.2.1,Win32,101.010101,,,,,space,0.5781,NAN,,NAN,2.03,3.97,,0,80,80,80,1,81,Charlie,Rej,Participant_Images/5f247332e02337051dc208aa/5f247332e02337051dc208aa_Images/5f247332e02337051dc208aa_Image_6.jpeg,did not like,1.779333479,,,,,,,,,,,,,,,,,,,,,,
,,5f247332e02337051dc208aa,6685aa9113c938e83b4f1ea0,6723b54d8b0d1dc4b39513d7,2024-10-31_11h50.48.295,WTP_SM_Choice,2022.2.1,Win32,101.010101,,,,,space,1.0706,NAN,,NAN,2.03,3.97,,0,81,81,81,1,82,Charlie,Rej,Participant_Images/5f247332e02337051dc208aa/5f247332e02337051dc208aa_Images/5f247332e02337051dc208aa_Image_23.jpeg,liked,4.312468682,,,,,,,,,,,,,,,,,,,,,,
,,5f247332e02337051dc208aa,6685aa9113c938e83b4f1ea0,6723b54d8b0d1dc4b39513d7,2024-10-31_11h50.48.295,WTP_SM_Choice,2022.2.1,Win32,101.010101,,,,,space,0.6976,NAN,,NAN,2.03,3.97,,0,82,82,82,1,83,Charlie,Rej,Participant_Images/5f247332e02337051dc208aa/5f247332e02337051dc208aa_Images/5f247332e02337051dc208aa_Image_18.jpeg,did not like,4.940433059,,,,,,,,,,,,,,,,,,,,,,
,,5f247332e02337051dc208aa,6685aa9113c938e83b4f1ea0,6723b54d8b0d1dc4b39513d7,2024-10-31_11h50.48.295,WTP_SM_Choice,2022.2.1,Win32,101.010101,,,,,space,0.4307,NAN,,NAN,2.03,3.97,,0,83,83,83,1,84,Charlie,Rej,Participant_Images/5f247332e02337051dc208aa/5f247332e02337051dc208aa_Images/5f247332e02337051dc208aa_Image_7.jpeg,liked,2.7105123,,,,,,,,,,,,,,,,,,,,,,
,,5f247332e02337051dc208aa,6685aa9113c938e83b4f1ea0,6723b54d8b0d1dc4b39513d7,2024-10-31_11h50.48.295,WTP_SM_Choice,2022.2.1,Win32,101.010101,,,,,,,,,,,,,,,,,,81,,,,,,space,0.7437,space,0.7298,1,0,0,0,0,1,Go live on twitch with my friend,Take my dog for a walk on cooler days,0.01,0.02,3.3,0,,0.01,0.9565,,,
,,5f247332e02337051dc208aa,6685aa9113c938e83b4f1ea0,6723b54d8b0d1dc4b39513d7,2024-10-31_11h50.48.295,WTP_SM_Choice,2022.2.1,Win32,101.010101,,,,,,,,,,,,,,,,,,82,,,,,,,,,,2,0,1,1,1,1,Go on a starbucks run on lunch break with my friends,Practice coffee art in the morning,0.02,0.02,4.4,0,,0.02,0.7392,,,
,,5f247332e02337051dc208aa,6685aa9113c938e83b4f1ea0,6723b54d8b0d1dc4b39513d7,2024-10-31_11h50.48.295,WTP_SM_Choice,2022.2.1,Win32,101.010101,,,,,,,,,,,,,,,,,,83,,,,,,,,,,1,0,2,2,2,1,Practice coffee art in the morning,Watch funny tiktoks with my friends while we are hanging out,0.03,0.02,1.1,1,,0.03,0.6075,,,
,,5f247332e02337051dc208aa,6685aa9113c938e83b4f1ea0,6723b54d8b0d1dc4b39513d7,2024-10-31_11h50.48.295,WTP_SM_Choice,2022.2.1,Win32,101.010101,,,,,,,,,,,,,,,,,,84,,,,,,,,,,2,0,3,3,3,1,Go to the gym,Watch funny tiktoks with my friends while we are hanging out,0.04,0.02,3.3,1,,0.02,1.1309,,,
,,5f247332e02337051dc208aa,6685aa9113c938e83b4f1ea0,6723b54d8b0d1dc4b39513d7,2024-10-31_11h50.48.295,WTP_SM_Choice,2022.2.1,Win32,101.010101,,,,,,,,,,,,,,,,,,85,,,,,,,,,,1,0,4,4,4,1,Suggest policy changes at work with my managers,Take my dog for a walk on cooler days,0.05,0.02,3.3,0,,0.05,0.7689,,,
,,5f247332e02337051dc208aa,6685aa9113c938e83b4f1ea0,6723b54d8b0d1dc4b39513d7,2024-10-31_11h50.48.295,WTP_SM_Choice,2022.2.1,Win32,101.010101,,,,,,,NAN,,NAN,2.16,3.84,,0,84,84,84,1,85,Charlie,Rej,Participant_Images/5f247332e02337051dc208aa/5f247332e02337051dc208aa_Images/5f247332e02337051dc208aa_Image_9.jpeg,did not like,3.602308302,,,,,,,,,,,,,,,,,,,,,,
,,5f247332e02337051dc208aa,6685aa9113c938e83b4f1ea0,6723b54d8b0d1dc4b39513d7,2024-10-31_11h50.48.295,WTP_SM_Choice,2022.2.1,Win32,101.010101,,,,,space,0.9524,NAN,,NAN,2.16,3.84,,0,85,85,85,1,86,Charlie,Rej,Participant_Images/5f247332e02337051dc208aa/5f247332e02337051dc208aa_Images/5f247332e02337051dc208aa_Image_25.jpeg,did not like,4.106391878,,,,,,,,,,,,,,,,,,,,,,
,,5f247332e02337051dc208aa,6685aa9113c938e83b4f1ea0,6723b54d8b0d1dc4b39513d7,2024-10-31_11h50.48.295,WTP_SM_Choice,2022.2.1,Win32,101.010101,,,,,space,0.5665,NAN,,NAN,2.16,3.84,,0,86,86,86,1,87,Charlie,Rej,Participant_Images/5f247332e02337051dc208aa/5f247332e02337051dc208aa_Images/5f247332e02337051dc208aa_Image_16.jpeg,liked,3.799433026,,,,,,,,,,,,,,,,,,,,,,
,,5f247332e02337051dc208aa,6685aa9113c938e83b4f1ea0,6723b54d8b0d1dc4b39513d7,2024-10-31_11h50.48.295,WTP_SM_Choice,2022.2.1,Win32,101.010101,,,,,space,0.7501,NAN,,NAN,2.16,3.84,,0,87,87,87,1,88,Charlie,Rej,Participant_Images/5f247332e02337051dc208aa/5f247332e02337051dc208aa_Images/5f247332e02337051dc208aa_Image_13.jpeg,liked,5.246980764,,,,,,,,,,,,,,,,,,,,,,
,,5f247332e02337051dc208aa,6685aa9113c938e83b4f1ea0,6723b54d8b0d1dc4b39513d7,2024-10-31_11h50.48.295,WTP_SM_Choice,2022.2.1,Win32,101.010101,,,,,space,0.6379,NAN,,NAN,2.16,3.84,,0,88,88,88,1,89,Charlie,Rej,Participant_Images/5f247332e02337051dc208aa/5f247332e02337051dc208aa_Images/5f247332e02337051dc208aa_Image_12.jpeg,did not like,3.30081769,,,,,,,,,,,,,,,,,,,,,,
,,5f247332e02337051dc208aa,6685aa9113c938e83b4f1ea0,6723b54d8b0d1dc4b39513d7,2024-10-31_11h50.48.295,WTP_SM_Choice,2022.2.1,Win32,101.010101,,,,,,,,,,,,,,,,,,86,,,,,,space,2.6206,space,0.6586,1,0,0,0,0,1,Play my favorite games with my close friends,Practice coffee art in the morning,0.01,0.03,1.1,0,,0.01,0.7749,,,
,,5f247332e02337051dc208aa,6685aa9113c938e83b4f1ea0,6723b54d8b0d1dc4b39513d7,2024-10-31_11h50.48.295,WTP_SM_Choice,2022.2.1,Win32,101.010101,,,,,,,,,,,,,,,,,,87,,,,,,,,,,2,0,1,1,1,1,Listen to music and relaxing,Suggest policy changes at work with my managers,0.02,0.03,4.4,1,,0.03,0.9048,,,
,,5f247332e02337051dc208aa,6685aa9113c938e83b4f1ea0,6723b54d8b0d1dc4b39513d7,2024-10-31_11h50.48.295,WTP_SM_Choice,2022.2.1,Win32,101.010101,,,,,,,,,,,,,,,,,,88,,,,,,,,,,1,0,2,2,2,1,Go to the gym,Play my favorite games with my close friends,0.03,0.03,1.1,1,,0.03,0.9568,,,
,,5f247332e02337051dc208aa,6685aa9113c938e83b4f1ea0,6723b54d8b0d1dc4b39513d7,2024-10-31_11h50.48.295,WTP_SM_Choice,2022.2.1,Win32,101.010101,,,,,,,,,,,,,,,,,,89,,,,,,,,,,2,0,3,3,3,1,Go live on twitch with my friend,Walk in the park,0.04,0.03,3.3,0,,0.03,0.5285,,,
,,5f247332e02337051dc208aa,6685aa9113c938e83b4f1ea0,6723b54d8b0d1dc4b39513d7,2024-10-31_11h50.48.295,WTP_SM_Choice,2022.2.1,Win32,101.010101,,,,,,,,,,,,,,,,,,90,,,,,,,,,,2,0,4,4,4,1,Practice coffee art in the morning,Suggest policy changes at work with my managers,0.05,0.03,8.8,1,,0.03,0.4099,,,
,,5f247332e02337051dc208aa,6685aa9113c938e83b4f1ea0,6723b54d8b0d1dc4b39513d7,2024-10-31_11h50.48.295,WTP_SM_Choice,2022.2.1,Win32,101.010101,,,,,,,NAN,,NAN,2.29,3.71,,0,89,89,89,1,90,Charlie,Rej,Participant_Images/5f247332e02337051dc208aa/5f247332e02337051dc208aa_Images/5f247332e02337051dc208aa_Image_15.jpeg,liked,1.661473164,,,,,,,,,,,,,,,,,,,,,,
,,5f247332e02337051dc208aa,6685aa9113c938e83b4f1ea0,6723b54d8b0d1dc4b39513d7,2024-10-31_11h50.48.295,WTP_SM_Choice,2022.2.1,Win32,101.010101,,,,,space,0.9897,NAN,,NAN,2.29,3.71,,0,90,90,90,1,91,Charlie,Rej,Participant_Images/5f247332e02337051dc208aa/5f247332e02337051dc208aa_Images/5f247332e02337051dc208aa_Image_20.jpeg,did not like,3.613205605,,,,,,,,,,,,,,,,,,,,,,
,,5f247332e02337051dc208aa,6685aa9113c938e83b4f1ea0,6723b54d8b0d1dc4b39513d7,2024-10-31_11h50.48.295,WTP_SM_Choice,2022.2.1,Win32,101.010101,,,,,space,1.5443,NAN,,NAN,2.29,3.71,,0,91,91,91,1,92,Charlie,Rej,Participant_Images/5f247332e02337051dc208aa/5f247332e02337051dc208aa_Images/5f247332e02337051dc208aa_Image_4.jpeg,did not like,4.988446431,,,,,,,,,,,,,,,,,,,,,,
,,5f247332e02337051dc208aa,6685aa9113c938e83b4f1ea0,6723b54d8b0d1dc4b39513d7,2024-10-31_11h50.48.295,WTP_SM_Choice,2022.2.1,Win32,101.010101,,,,,space,1.2169,NAN,,NAN,2.29,3.71,,0,92,92,92,1,93,Charlie,Rej,Participant_Images/5f247332e02337051dc208aa/5f247332e02337051dc208aa_Images/5f247332e02337051dc208aa_Image_21.jpeg,did not like,3.470791822,,,,,,,,,,,,,,,,,,,,,,
,,5f247332e02337051dc208aa,6685aa9113c938e83b4f1ea0,6723b54d8b0d1dc4b39513d7,2024-10-31_11h50.48.295,WTP_SM_Choice,2022.2.1,Win32,101.010101,,,,,space,0.5569,NAN,,NAN,2.29,3.71,,0,93,93,93,1,94,Charlie,Rej,Participant_Images/5f247332e02337051dc208aa/5f247332e02337051dc208aa_Images/5f247332e02337051dc208aa_Image_1.jpeg,did not like,3.820572462,,,,,,,,,,,,,,,,,,,,,,
,,5f247332e02337051dc208aa,6685aa9113c938e83b4f1ea0,6723b54d8b0d1dc4b39513d7,2024-10-31_11h50.48.295,WTP_SM_Choice,2022.2.1,Win32,101.010101,,,,,,,,,,,,,,,,,,91,,,,,,space,0.5974,space,0.7275,1,0,0,0,0,1,Go on road trips to new places with my best friend,Practice classical songs on my piano,0.01,0.04,3.3,0,,0.01,0.7004,,,
,,5f247332e02337051dc208aa,6685aa9113c938e83b4f1ea0,6723b54d8b0d1dc4b39513d7,2024-10-31_11h50.48.295,WTP_SM_Choice,2022.2.1,Win32,101.010101,,,,,,,,,,,,,,,,,,92,,,,,,,,,,1,0,1,1,1,1,Suggest policy changes at work with my managers,Wash my car on a sunny day,0.02,0.04,8.8,0,,0.02,0.7732,,,
,,5f247332e02337051dc208aa,6685aa9113c938e83b4f1ea0,6723b54d8b0d1dc4b39513d7,2024-10-31_11h50.48.295,WTP_SM_Choice,2022.2.1,Win32,101.010101,,,,,,,,,,,,,,,,,,93,,,,,,,,,,2,0,2,2,2,1,Listen to music and relaxing,Go on a starbucks run on lunch break with my friends,0.03,0.04,1.1,1,,0.04,0.7357,,,
,,5f247332e02337051dc208aa,6685aa9113c938e83b4f1ea0,6723b54d8b0d1dc4b39513d7,2024-10-31_11h50.48.295,WTP_SM_Choice,2022.2.1,Win32,101.010101,,,,,,,,,,,,,,,,,,94,,,,,,,,,,1,0,3,3,3,1,Watch funny tiktoks with my friends while we are hanging out,Practice classical songs on my piano,0.04,0.04,4.4,0,,0.04,1.2621,,,
,,5f247332e02337051dc208aa,6685aa9113c938e83b4f1ea0,6723b54d8b0d1dc4b39513d7,2024-10-31_11h50.48.295,WTP_SM_Choice,2022.2.1,Win32,101.010101,,,,,,,,,,,,,,,,,,95,,,,,,,,,,1,0,4,4,4,1,Do the dishes after cooking my favorite meals,Go on road trips to new places with my best friend,0.05,0.04,4.4,1,,0.05,1.1615,,,
,,5f247332e02337051dc208aa,6685aa9113c938e83b4f1ea0,6723b54d8b0d1dc4b39513d7,2024-10-31_11h50.48.295,WTP_SM_Choice,2022.2.1,Win32,101.010101,,,,,,,NAN,,NAN,2.45,3.55,,0,94,94,94,1,95,Charlie,Rej,Participant_Images/5f247332e02337051dc208aa/5f247332e02337051dc208aa_Images/5f247332e02337051dc208aa_Image_10.jpeg,did not like,2.455989137,,,,,,,,,,,,,,,,,,,,,,
,,5f247332e02337051dc208aa,6685aa9113c938e83b4f1ea0,6723b54d8b0d1dc4b39513d7,2024-10-31_11h50.48.295,WTP_SM_Choice,2022.2.1,Win32,101.010101,,,,,space,0.5699,NAN,,NAN,2.45,3.55,,0,95,95,95,1,96,Charlie,Rej,Participant_Images/5f247332e02337051dc208aa/5f247332e02337051dc208aa_Images/5f247332e02337051dc208aa_Image_19.jpeg,did not like,3.79605092,,,,,,,,,,,,,,,,,,,,,,
,,5f247332e02337051dc208aa,6685aa9113c938e83b4f1ea0,6723b54d8b0d1dc4b39513d7,2024-10-31_11h50.48.295,WTP_SM_Choice,2022.2.1,Win32,101.010101,,,,,space,0.492,NAN,,NAN,2.45,3.55,,0,96,96,96,1,97,Charlie,Rej,Participant_Images/5f247332e02337051dc208aa/5f247332e02337051dc208aa_Images/5f247332e02337051dc208aa_Image_8.jpeg,liked,3.562416326,,,,,,,,,,,,,,,,,,,,,,
,,5f247332e02337051dc208aa,6685aa9113c938e83b4f1ea0,6723b54d8b0d1dc4b39513d7,2024-10-31_11h50.48.295,WTP_SM_Choice,2022.2.1,Win32,101.010101,,,,,space,0.7498,NAN,,NAN,2.45,3.55,,0,97,97,97,1,98,Charlie,Rej,Participant_Images/5f247332e02337051dc208aa/5f247332e02337051dc208aa_Images/5f247332e02337051dc208aa_Image_5.jpeg,did not like,2.843822497,,,,,,,,,,,,,,,,,,,,,,
,,5f247332e02337051dc208aa,6685aa9113c938e83b4f1ea0,6723b54d8b0d1dc4b39513d7,2024-10-31_11h50.48.295,WTP_SM_Choice,2022.2.1,Win32,101.010101,,,,,space,0.8102,NAN,,NAN,2.45,3.55,,0,98,98,98,1,99,Charlie,Rej,Participant_Images/5f247332e02337051dc208aa/5f247332e02337051dc208aa_Images/5f247332e02337051dc208aa_Image_2.jpeg,did not like,3.546495948,,,,,,,,,,,,,,,,,,,,,,
,,5f247332e02337051dc208aa,6685aa9113c938e83b4f1ea0,6723b54d8b0d1dc4b39513d7,2024-10-31_11h50.48.295,WTP_SM_Choice,2022.2.1,Win32,101.010101,,,,,,,,,,,,,,,,,,96,,,,,,space,0.5412,space,0.5315,1,0,0,0,0,1,Go to the gym,Go live on twitch with my friend,0.01,0.05,3.3,1,,0.01,0.9529,,,
,,5f247332e02337051dc208aa,6685aa9113c938e83b4f1ea0,6723b54d8b0d1dc4b39513d7,2024-10-31_11h50.48.295,WTP_SM_Choice,2022.2.1,Win32,101.010101,,,,,,,,,,,,,,,,,,97,,,,,,,,,,1,0,1,1,1,1,Research and learn about global issues,Go on a starbucks run on lunch break with my friends,0.02,0.05,1.1,1,,0.02,0.9796,,,
,,5f247332e02337051dc208aa,6685aa9113c938e83b4f1ea0,6723b54d8b0d1dc4b39513d7,2024-10-31_11h50.48.295,WTP_SM_Choice,2022.2.1,Win32,101.010101,,,,,,,,,,,,,,,,,,98,,,,,,,,,,1,0,2,2,2,1,Take my dog for a walk on cooler days,Watch funny tiktoks with my friends while we are hanging out,0.03,0.05,1.1,1,,0.03,1.4666,,,
,,5f247332e02337051dc208aa,6685aa9113c938e83b4f1ea0,6723b54d8b0d1dc4b39513d7,2024-10-31_11h50.48.295,WTP_SM_Choice,2022.2.1,Win32,101.010101,,,,,,,,,,,,,,,,,,99,,,,,,,,,,1,0,3,3,3,1,Practice classical songs on my piano,Go live on twitch with my friend,0.04,0.05,3.3,1,,0.04,1.8406,,,
,,5f247332e02337051dc208aa,6685aa9113c938e83b4f1ea0,6723b54d8b0d1dc4b39513d7,2024-10-31_11h50.48.295,WTP_SM_Choice,2022.2.1,Win32,101.010101,,,,,,,,,,,,,,,,,,100,,,,,,,,,,2,0,4,4,4,1,Practice classical songs on my piano,Watch new movies I think id enjoy with friends,0.05,0.05,4.4,1,,0.05,1.6363,,,
,,5f247332e02337051dc208aa,6685aa9113c938e83b4f1ea0,6723b54d8b0d1dc4b39513d7,2024-10-31_11h50.48.295,WTP_SM_Choice,2022.2.1,Win32,101.010101,,,,,,,3,,4,2.6,3.4,,0,99,99,99,1,100,Charlie,Rej,Participant_Images/5f247332e02337051dc208aa/5f247332e02337051dc208aa_Images/5f247332e02337051dc208aa_Image_22.jpeg,did not like,1.672012706,,,,,,,,,,,,,,,,,space,,,0.9517,,
,,5f247332e02337051dc208aa,6685aa9113c938e83b4f1ea0,6723b54d8b0d1dc4b39513d7,2024-10-31_11h50.48.295,WTP_SM_Choice,2022.2.1,Win32,101.010101,,,,,,,,,,,,,,,,,,,,,,,,,,,,,,,,,,,,,,,,,,,,space,2.0326
