endwelcomescreen_keys.keys,endwelcomescreen_keys.rt,participant,STUDY_ID,SESSION_ID,date,expName,psychopyVersion,OS,frameRate,endinstructionscreen_keys.keys,endinstructionscreen_keys.rt,endpartnermatch_keys.keys,endpartnermatch_keys.rt,sharenextphoto_key.keys,sharenextphoto_key.rt,salience_rating,key_resp.keys,stress_level,subtract_bonus,TOTAL_TASK_BONUS,stresslevel_keypress.keys,entiretaskloop.thisRepN,entiretaskloop.thisTrialN,entiretaskloop.thisN,entiretaskloop.thisIndex,entiretaskloop.ran,TrialNumber,Partner,Condition,Photos,Feedback,FeedbackWait,WTP_ins_keys1.keys,WTP_ins_keys1.rt,WTP_ins_keys2.keys,WTP_ins_keys2.rt,decision_price,responses.keys,responses.rt,WTPTaskLoop.thisRepN,WTPTaskLoop.thisTrialN,WTPTaskLoop.thisN,WTPTaskLoop.thisIndex,WTPTaskLoop.ran,right,left,leftmoney,rightmoney,WTP_ITI,social_left,Resume_keys.keys,Resume_keys.rt,key_resp.rt,end_screen_keys.keys,end_screen_keys.rt
space,8.0908,5f32e865bd94490a64d9c9f5,6685aa9113c938e83b4f1ea0,6707f2fa13d0d785038a7ac3,2024-10-10_10h30.29.161,WTP_SM_Choice,2022.2.1,Win32,142.8571429,,,,,,,,,,,,,,,,,,,,,,,,,,,,,,,,,,,,,,,,,,,,,,
,,5f32e865bd94490a64d9c9f5,6685aa9113c938e83b4f1ea0,6707f2fa13d0d785038a7ac3,2024-10-10_10h30.29.161,WTP_SM_Choice,2022.2.1,Win32,142.8571429,space,22.6924,,,,,,,,,,,,,,,,,,,,,,,,,,,,,,,,,,,,,,,,,,,,
,,5f32e865bd94490a64d9c9f5,6685aa9113c938e83b4f1ea0,6707f2fa13d0d785038a7ac3,2024-10-10_10h30.29.161,WTP_SM_Choice,2022.2.1,Win32,142.8571429,,,space,2.1108,space,0.8682,NAN,,NAN,0,6,,0,0,0,0,1,1,Riley,Rej,Participant_Images/5f32e865bd94490a64d9c9f5/5f32e865bd94490a64d9c9f5_Images/5f32e865bd94490a64d9c9f5_Image_4.jpeg,liked,3.613205605,,,,,,,,,,,,,,,,,,,,,,,
,,5f32e865bd94490a64d9c9f5,6685aa9113c938e83b4f1ea0,6707f2fa13d0d785038a7ac3,2024-10-10_10h30.29.161,WTP_SM_Choice,2022.2.1,Win32,142.8571429,,,,,space,0.7428,NAN,,NAN,0,6,,0,1,1,1,1,2,Riley,Rej,Participant_Images/5f32e865bd94490a64d9c9f5/5f32e865bd94490a64d9c9f5_Images/5f32e865bd94490a64d9c9f5_Image_3.jpeg,did not like,4.988446431,,,,,,,,,,,,,,,,,,,,,,,
,,5f32e865bd94490a64d9c9f5,6685aa9113c938e83b4f1ea0,6707f2fa13d0d785038a7ac3,2024-10-10_10h30.29.161,WTP_SM_Choice,2022.2.1,Win32,142.8571429,,,,,space,1.1564,NAN,,NAN,0,6,,0,2,2,2,1,3,Riley,Rej,Participant_Images/5f32e865bd94490a64d9c9f5/5f32e865bd94490a64d9c9f5_Images/5f32e865bd94490a64d9c9f5_Image_7.jpeg,did not like,3.470791822,,,,,,,,,,,,,,,,,,,,,,,
,,5f32e865bd94490a64d9c9f5,6685aa9113c938e83b4f1ea0,6707f2fa13d0d785038a7ac3,2024-10-10_10h30.29.161,WTP_SM_Choice,2022.2.1,Win32,142.8571429,,,,,space,0.8404,NAN,,NAN,0,6,,0,3,3,3,1,4,Riley,Rej,Participant_Images/5f32e865bd94490a64d9c9f5/5f32e865bd94490a64d9c9f5_Images/5f32e865bd94490a64d9c9f5_Image_21.jpeg,liked,3.820572462,,,,,,,,,,,,,,,,,,,,,,,
,,5f32e865bd94490a64d9c9f5,6685aa9113c938e83b4f1ea0,6707f2fa13d0d785038a7ac3,2024-10-10_10h30.29.161,WTP_SM_Choice,2022.2.1,Win32,142.8571429,,,,,,,,,,,,,,,,,,1,,,,,,space,17.7027,space,10.7498,0.01,2,6.3368,0,0,0,0,1,Playing music with friends,Watch tv,0.01,0.01,4.4,0,,,,,
,,5f32e865bd94490a64d9c9f5,6685aa9113c938e83b4f1ea0,6707f2fa13d0d785038a7ac3,2024-10-10_10h30.29.161,WTP_SM_Choice,2022.2.1,Win32,142.8571429,,,,,,,,,,,,,,,,,,2,,,,,,,,,,0.02,1,4.4553,0,1,1,1,1,Watch movies,Camp with friends,0.02,0.01,8.8,1,,,,,
,,5f32e865bd94490a64d9c9f5,6685aa9113c938e83b4f1ea0,6707f2fa13d0d785038a7ac3,2024-10-10_10h30.29.161,WTP_SM_Choice,2022.2.1,Win32,142.8571429,,,,,,,,,,,,,,,,,,3,,,,,,,,,,0.01,2,3.2439,0,2,2,2,1,Go to the park with friends,Watch tv,0.03,0.01,3.3,0,,,,,
,,5f32e865bd94490a64d9c9f5,6685aa9113c938e83b4f1ea0,6707f2fa13d0d785038a7ac3,2024-10-10_10h30.29.161,WTP_SM_Choice,2022.2.1,Win32,142.8571429,,,,,,,,,,,,,,,,,,4,,,,,,,,,,0.01,2,4.114,0,3,3,3,1,Watch tv,Play basektball with friends,0.04,0.01,1.1,1,,,,,
,,5f32e865bd94490a64d9c9f5,6685aa9113c938e83b4f1ea0,6707f2fa13d0d785038a7ac3,2024-10-10_10h30.29.161,WTP_SM_Choice,2022.2.1,Win32,142.8571429,,,,,,,,,,,,,,,,,,5,,,,,,,,,,0.01,2,2.7358,0,4,4,4,1,Playing Cards with friends,Play guitar,0.05,0.01,1.1,0,,,,,
,,5f32e865bd94490a64d9c9f5,6685aa9113c938e83b4f1ea0,6707f2fa13d0d785038a7ac3,2024-10-10_10h30.29.161,WTP_SM_Choice,2022.2.1,Win32,142.8571429,,,,,,,NAN,,NAN,0.06,5.94,,0,4,4,4,1,5,Riley,Rej,Participant_Images/5f32e865bd94490a64d9c9f5/5f32e865bd94490a64d9c9f5_Images/5f32e865bd94490a64d9c9f5_Image_12.jpeg,liked,2.455989137,,,,,,,,,,,,,,,,,,,,,,,
,,5f32e865bd94490a64d9c9f5,6685aa9113c938e83b4f1ea0,6707f2fa13d0d785038a7ac3,2024-10-10_10h30.29.161,WTP_SM_Choice,2022.2.1,Win32,142.8571429,,,,,space,1.1361,NAN,,NAN,0.06,5.94,,0,5,5,5,1,6,Riley,Rej,Participant_Images/5f32e865bd94490a64d9c9f5/5f32e865bd94490a64d9c9f5_Images/5f32e865bd94490a64d9c9f5_Image_11.jpeg,did not like,3.79605092,,,,,,,,,,,,,,,,,,,,,,,
,,5f32e865bd94490a64d9c9f5,6685aa9113c938e83b4f1ea0,6707f2fa13d0d785038a7ac3,2024-10-10_10h30.29.161,WTP_SM_Choice,2022.2.1,Win32,142.8571429,,,,,space,0.8801,NAN,,NAN,0.06,5.94,,0,6,6,6,1,7,Riley,Rej,Participant_Images/5f32e865bd94490a64d9c9f5/5f32e865bd94490a64d9c9f5_Images/5f32e865bd94490a64d9c9f5_Image_15.jpeg,liked,3.562416326,,,,,,,,,,,,,,,,,,,,,,,
,,5f32e865bd94490a64d9c9f5,6685aa9113c938e83b4f1ea0,6707f2fa13d0d785038a7ac3,2024-10-10_10h30.29.161,WTP_SM_Choice,2022.2.1,Win32,142.8571429,,,,,space,0.8658,NAN,,NAN,0.06,5.94,,0,7,7,7,1,8,Riley,Rej,Participant_Images/5f32e865bd94490a64d9c9f5/5f32e865bd94490a64d9c9f5_Images/5f32e865bd94490a64d9c9f5_Image_5.jpeg,did not like,2.843822497,,,,,,,,,,,,,,,,,,,,,,,
,,5f32e865bd94490a64d9c9f5,6685aa9113c938e83b4f1ea0,6707f2fa13d0d785038a7ac3,2024-10-10_10h30.29.161,WTP_SM_Choice,2022.2.1,Win32,142.8571429,,,,,space,1.5491,NAN,,NAN,0.06,5.94,,0,8,8,8,1,9,Riley,Rej,Participant_Images/5f32e865bd94490a64d9c9f5/5f32e865bd94490a64d9c9f5_Images/5f32e865bd94490a64d9c9f5_Image_2.jpeg,did not like,3.546495948,,,,,,,,,,,,,,,,,,,,,,,
,,5f32e865bd94490a64d9c9f5,6685aa9113c938e83b4f1ea0,6707f2fa13d0d785038a7ac3,2024-10-10_10h30.29.161,WTP_SM_Choice,2022.2.1,Win32,142.8571429,,,,,,,,,,,,,,,,,,6,,,,,,space,13.2608,space,10.5273,0.01,1,1.6766,0,0,0,0,1,Go to the park with friends,Swim,0.01,0.02,3.3,0,,,,,
,,5f32e865bd94490a64d9c9f5,6685aa9113c938e83b4f1ea0,6707f2fa13d0d785038a7ac3,2024-10-10_10h30.29.161,WTP_SM_Choice,2022.2.1,Win32,142.8571429,,,,,,,,,,,,,,,,,,7,,,,,,,,,,0.02,1,2.5374,0,1,1,1,1,Camp,Swim with friends,0.02,0.02,1.1,1,,,,,
,,5f32e865bd94490a64d9c9f5,6685aa9113c938e83b4f1ea0,6707f2fa13d0d785038a7ac3,2024-10-10_10h30.29.161,WTP_SM_Choice,2022.2.1,Win32,142.8571429,,,,,,,,,,,,,,,,,,8,,,,,,,,,,0.02,2,2.7624,0,2,2,2,1,Watch movies,Swim with friends,0.03,0.02,1.1,1,,,,,
,,5f32e865bd94490a64d9c9f5,6685aa9113c938e83b4f1ea0,6707f2fa13d0d785038a7ac3,2024-10-10_10h30.29.161,WTP_SM_Choice,2022.2.1,Win32,142.8571429,,,,,,,,,,,,,,,,,,9,,,,,,,,,,0.02,2,1.8552,0,3,3,3,1,Playing music with friends,Camp,0.04,0.02,4.4,0,,,,,
,,5f32e865bd94490a64d9c9f5,6685aa9113c938e83b4f1ea0,6707f2fa13d0d785038a7ac3,2024-10-10_10h30.29.161,WTP_SM_Choice,2022.2.1,Win32,142.8571429,,,,,,,,,,,,,,,,,,10,,,,,,,,,,0.02,2,2.1486,0,4,4,4,1,Watch tv,Run with friends,0.05,0.02,1.1,1,,,,,
,,5f32e865bd94490a64d9c9f5,6685aa9113c938e83b4f1ea0,6707f2fa13d0d785038a7ac3,2024-10-10_10h30.29.161,WTP_SM_Choice,2022.2.1,Win32,142.8571429,,,,,,,NAN,,NAN,0.15,5.85,,0,9,9,9,1,10,Riley,Rej,Participant_Images/5f32e865bd94490a64d9c9f5/5f32e865bd94490a64d9c9f5_Images/5f32e865bd94490a64d9c9f5_Image_14.jpeg,did not like,1.672012706,,,,,,,,,,,,,,,,,,,,,,,
,,5f32e865bd94490a64d9c9f5,6685aa9113c938e83b4f1ea0,6707f2fa13d0d785038a7ac3,2024-10-10_10h30.29.161,WTP_SM_Choice,2022.2.1,Win32,142.8571429,,,,,space,1.2033,NAN,,NAN,0.15,5.85,,0,10,10,10,1,11,Riley,Rej,Participant_Images/5f32e865bd94490a64d9c9f5/5f32e865bd94490a64d9c9f5_Images/5f32e865bd94490a64d9c9f5_Image_10.jpeg,did not like,4.942172136,,,,,,,,,,,,,,,,,,,,,,,
,,5f32e865bd94490a64d9c9f5,6685aa9113c938e83b4f1ea0,6707f2fa13d0d785038a7ac3,2024-10-10_10h30.29.161,WTP_SM_Choice,2022.2.1,Win32,142.8571429,,,,,space,1.0511,NAN,,NAN,0.15,5.85,,0,11,11,11,1,12,Riley,Rej,Participant_Images/5f32e865bd94490a64d9c9f5/5f32e865bd94490a64d9c9f5_Images/5f32e865bd94490a64d9c9f5_Image_18.jpeg,did not like,2.50187214,,,,,,,,,,,,,,,,,,,,,,,
,,5f32e865bd94490a64d9c9f5,6685aa9113c938e83b4f1ea0,6707f2fa13d0d785038a7ac3,2024-10-10_10h30.29.161,WTP_SM_Choice,2022.2.1,Win32,142.8571429,,,,,space,1,NAN,,NAN,0.15,5.85,,0,12,12,12,1,13,Riley,Rej,Participant_Images/5f32e865bd94490a64d9c9f5/5f32e865bd94490a64d9c9f5_Images/5f32e865bd94490a64d9c9f5_Image_17.jpeg,did not like,2.071164779,,,,,,,,,,,,,,,,,,,,,,,
,,5f32e865bd94490a64d9c9f5,6685aa9113c938e83b4f1ea0,6707f2fa13d0d785038a7ac3,2024-10-10_10h30.29.161,WTP_SM_Choice,2022.2.1,Win32,142.8571429,,,,,space,1.3705,NAN,,NAN,0.15,5.85,,0,13,13,13,1,14,Riley,Rej,Participant_Images/5f32e865bd94490a64d9c9f5/5f32e865bd94490a64d9c9f5_Images/5f32e865bd94490a64d9c9f5_Image_23.jpeg,did not like,5.336503566,,,,,,,,,,,,,,,,,,,,,,,
,,5f32e865bd94490a64d9c9f5,6685aa9113c938e83b4f1ea0,6707f2fa13d0d785038a7ac3,2024-10-10_10h30.29.161,WTP_SM_Choice,2022.2.1,Win32,142.8571429,,,,,,,,,,,,,,,,,,11,,,,,,space,13.2774,space,5.3554,0.01,1,1.4664,0,0,0,0,1,Run with friends,Run,0.01,0.03,3.3,0,,,,,
,,5f32e865bd94490a64d9c9f5,6685aa9113c938e83b4f1ea0,6707f2fa13d0d785038a7ac3,2024-10-10_10h30.29.161,WTP_SM_Choice,2022.2.1,Win32,142.8571429,,,,,,,,,,,,,,,,,,12,,,,,,,,,,0.02,1,2.3876,0,1,1,1,1,Listen to music,Playing music with friends,0.02,0.03,4.4,1,,,,,
,,5f32e865bd94490a64d9c9f5,6685aa9113c938e83b4f1ea0,6707f2fa13d0d785038a7ac3,2024-10-10_10h30.29.161,WTP_SM_Choice,2022.2.1,Win32,142.8571429,,,,,,,,,,,,,,,,,,13,,,,,,,,,,0.03,2,1.8287,0,2,2,2,1,Play video games with friends,Play basketball,0.03,0.03,1.1,0,,,,,
,,5f32e865bd94490a64d9c9f5,6685aa9113c938e83b4f1ea0,6707f2fa13d0d785038a7ac3,2024-10-10_10h30.29.161,WTP_SM_Choice,2022.2.1,Win32,142.8571429,,,,,,,,,,,,,,,,,,14,,,,,,,,,,0.04,1,2.0124,0,3,3,3,1,Playing Cards with friends,Video games,0.04,0.03,3.3,0,,,,,
,,5f32e865bd94490a64d9c9f5,6685aa9113c938e83b4f1ea0,6707f2fa13d0d785038a7ac3,2024-10-10_10h30.29.161,WTP_SM_Choice,2022.2.1,Win32,142.8571429,,,,,,,,,,,,,,,,,,15,,,,,,,,,,0.03,2,1.6427,0,4,4,4,1,Watch movies with friends,Watch tv,0.05,0.03,4.4,0,,,,,
,,5f32e865bd94490a64d9c9f5,6685aa9113c938e83b4f1ea0,6707f2fa13d0d785038a7ac3,2024-10-10_10h30.29.161,WTP_SM_Choice,2022.2.1,Win32,142.8571429,,,,,,,NAN,,NAN,0.28,5.72,,0,14,14,14,1,15,Riley,Rej,Participant_Images/5f32e865bd94490a64d9c9f5/5f32e865bd94490a64d9c9f5_Images/5f32e865bd94490a64d9c9f5_Image_19.jpeg,did not like,2.642157193,,,,,,,,,,,,,,,,,,,,,,,
,,5f32e865bd94490a64d9c9f5,6685aa9113c938e83b4f1ea0,6707f2fa13d0d785038a7ac3,2024-10-10_10h30.29.161,WTP_SM_Choice,2022.2.1,Win32,142.8571429,,,,,space,0.9432,NAN,,NAN,0.28,5.72,,0,15,15,15,1,16,Riley,Rej,Participant_Images/5f32e865bd94490a64d9c9f5/5f32e865bd94490a64d9c9f5_Images/5f32e865bd94490a64d9c9f5_Image_24.jpeg,did not like,4.456234322,,,,,,,,,,,,,,,,,,,,,,,
,,5f32e865bd94490a64d9c9f5,6685aa9113c938e83b4f1ea0,6707f2fa13d0d785038a7ac3,2024-10-10_10h30.29.161,WTP_SM_Choice,2022.2.1,Win32,142.8571429,,,,,space,1.1327,NAN,,NAN,0.28,5.72,,0,16,16,16,1,17,Riley,Rej,Participant_Images/5f32e865bd94490a64d9c9f5/5f32e865bd94490a64d9c9f5_Images/5f32e865bd94490a64d9c9f5_Image_20.jpeg,liked,4.438512181,,,,,,,,,,,,,,,,,,,,,,,
,,5f32e865bd94490a64d9c9f5,6685aa9113c938e83b4f1ea0,6707f2fa13d0d785038a7ac3,2024-10-10_10h30.29.161,WTP_SM_Choice,2022.2.1,Win32,142.8571429,,,,,space,1.0141,NAN,,NAN,0.28,5.72,,0,17,17,17,1,18,Riley,Rej,Participant_Images/5f32e865bd94490a64d9c9f5/5f32e865bd94490a64d9c9f5_Images/5f32e865bd94490a64d9c9f5_Image_1.jpeg,liked,2.682944783,,,,,,,,,,,,,,,,,,,,,,,
,,5f32e865bd94490a64d9c9f5,6685aa9113c938e83b4f1ea0,6707f2fa13d0d785038a7ac3,2024-10-10_10h30.29.161,WTP_SM_Choice,2022.2.1,Win32,142.8571429,,,,,space,0.9438,NAN,,NAN,0.28,5.72,,0,18,18,18,1,19,Riley,Rej,Participant_Images/5f32e865bd94490a64d9c9f5/5f32e865bd94490a64d9c9f5_Images/5f32e865bd94490a64d9c9f5_Image_9.jpeg,did not like,4.51984296,,,,,,,,,,,,,,,,,,,,,,,
,,5f32e865bd94490a64d9c9f5,6685aa9113c938e83b4f1ea0,6707f2fa13d0d785038a7ac3,2024-10-10_10h30.29.161,WTP_SM_Choice,2022.2.1,Win32,142.8571429,,,,,,,,,,,,,,,,,,16,,,,,,space,10.8931,space,6.1942,0.01,1,1.8595,0,0,0,0,1,Play basketball,Camp with friends,0.01,0.04,1.1,1,,,,,
,,5f32e865bd94490a64d9c9f5,6685aa9113c938e83b4f1ea0,6707f2fa13d0d785038a7ac3,2024-10-10_10h30.29.161,WTP_SM_Choice,2022.2.1,Win32,142.8571429,,,,,,,,,,,,,,,,,,17,,,,,,,,,,0.02,1,1.8002,0,1,1,1,1,Play guitar,Play video games with friends,0.02,0.04,8.8,1,,,,,
,,5f32e865bd94490a64d9c9f5,6685aa9113c938e83b4f1ea0,6707f2fa13d0d785038a7ac3,2024-10-10_10h30.29.161,WTP_SM_Choice,2022.2.1,Win32,142.8571429,,,,,,,,,,,,,,,,,,18,,,,,,,,,,0.04,2,2.1529,0,2,2,2,1,Eat good food,Playing music with friends,0.03,0.04,3.3,1,,,,,
,,5f32e865bd94490a64d9c9f5,6685aa9113c938e83b4f1ea0,6707f2fa13d0d785038a7ac3,2024-10-10_10h30.29.161,WTP_SM_Choice,2022.2.1,Win32,142.8571429,,,,,,,,,,,,,,,,,,19,,,,,,,,,,0.04,1,2.1754,0,3,3,3,1,Watch movies,Play video games with friends,0.04,0.04,3.3,1,,,,,
,,5f32e865bd94490a64d9c9f5,6685aa9113c938e83b4f1ea0,6707f2fa13d0d785038a7ac3,2024-10-10_10h30.29.161,WTP_SM_Choice,2022.2.1,Win32,142.8571429,,,,,,,,,,,,,,,,,,20,,,,,,,,,,0.05,1,1.9966,0,4,4,4,1,Run,eat food with friends,0.05,0.04,1.1,1,,,,,
,,5f32e865bd94490a64d9c9f5,6685aa9113c938e83b4f1ea0,6707f2fa13d0d785038a7ac3,2024-10-10_10h30.29.161,WTP_SM_Choice,2022.2.1,Win32,142.8571429,,,,,,,NAN,,NAN,0.44,5.56,,0,19,19,19,1,20,Riley,Rej,Participant_Images/5f32e865bd94490a64d9c9f5/5f32e865bd94490a64d9c9f5_Images/5f32e865bd94490a64d9c9f5_Image_6.jpeg,did not like,3.195382774,,,,,,,,,,,,,,,,,,,,,,,
,,5f32e865bd94490a64d9c9f5,6685aa9113c938e83b4f1ea0,6707f2fa13d0d785038a7ac3,2024-10-10_10h30.29.161,WTP_SM_Choice,2022.2.1,Win32,142.8571429,,,,,space,1.2596,NAN,,NAN,0.44,5.56,,0,20,20,20,1,21,Riley,Rej,Participant_Images/5f32e865bd94490a64d9c9f5/5f32e865bd94490a64d9c9f5_Images/5f32e865bd94490a64d9c9f5_Image_25.jpeg,did not like,1.779333479,,,,,,,,,,,,,,,,,,,,,,,
,,5f32e865bd94490a64d9c9f5,6685aa9113c938e83b4f1ea0,6707f2fa13d0d785038a7ac3,2024-10-10_10h30.29.161,WTP_SM_Choice,2022.2.1,Win32,142.8571429,,,,,space,1.2276,NAN,,NAN,0.44,5.56,,0,21,21,21,1,22,Riley,Rej,Participant_Images/5f32e865bd94490a64d9c9f5/5f32e865bd94490a64d9c9f5_Images/5f32e865bd94490a64d9c9f5_Image_16.jpeg,did not like,4.312468682,,,,,,,,,,,,,,,,,,,,,,,
,,5f32e865bd94490a64d9c9f5,6685aa9113c938e83b4f1ea0,6707f2fa13d0d785038a7ac3,2024-10-10_10h30.29.161,WTP_SM_Choice,2022.2.1,Win32,142.8571429,,,,,space,1.0877,NAN,,NAN,0.44,5.56,,0,22,22,22,1,23,Riley,Rej,Participant_Images/5f32e865bd94490a64d9c9f5/5f32e865bd94490a64d9c9f5_Images/5f32e865bd94490a64d9c9f5_Image_8.jpeg,liked,4.940433059,,,,,,,,,,,,,,,,,,,,,,,
,,5f32e865bd94490a64d9c9f5,6685aa9113c938e83b4f1ea0,6707f2fa13d0d785038a7ac3,2024-10-10_10h30.29.161,WTP_SM_Choice,2022.2.1,Win32,142.8571429,,,,,space,1.2522,NAN,,NAN,0.44,5.56,,0,23,23,23,1,24,Riley,Rej,Participant_Images/5f32e865bd94490a64d9c9f5/5f32e865bd94490a64d9c9f5_Images/5f32e865bd94490a64d9c9f5_Image_13.jpeg,did not like,2.7105123,,,,,,,,,,,,,,,,,,,,,,,
,,5f32e865bd94490a64d9c9f5,6685aa9113c938e83b4f1ea0,6707f2fa13d0d785038a7ac3,2024-10-10_10h30.29.161,WTP_SM_Choice,2022.2.1,Win32,142.8571429,,,,,,,,,,,,,,,,,,21,,,,,,space,1.8264,space,2.0873,0.05,2,1.8546,0,0,0,0,1,eat food with friends,Watch movies,0.01,0.05,8.8,0,,,,,
,,5f32e865bd94490a64d9c9f5,6685aa9113c938e83b4f1ea0,6707f2fa13d0d785038a7ac3,2024-10-10_10h30.29.161,WTP_SM_Choice,2022.2.1,Win32,142.8571429,,,,,,,,,,,,,,,,,,22,,,,,,,,,,0.02,1,1.6494,0,1,1,1,1,Playing Cards with friends,Listen to music,0.02,0.05,4.4,0,,,,,
,,5f32e865bd94490a64d9c9f5,6685aa9113c938e83b4f1ea0,6707f2fa13d0d785038a7ac3,2024-10-10_10h30.29.161,WTP_SM_Choice,2022.2.1,Win32,142.8571429,,,,,,,,,,,,,,,,,,23,,,,,,,,,,0.05,2,1.423,0,2,2,2,1,Eat good food,Camp with friends,0.03,0.05,1.1,1,,,,,
,,5f32e865bd94490a64d9c9f5,6685aa9113c938e83b4f1ea0,6707f2fa13d0d785038a7ac3,2024-10-10_10h30.29.161,WTP_SM_Choice,2022.2.1,Win32,142.8571429,,,,,,,,,,,,,,,,,,24,,,,,,,,,,0.04,1,1.458,0,3,3,3,1,Swim with friends,Video games,0.04,0.05,4.4,0,,,,,
,,5f32e865bd94490a64d9c9f5,6685aa9113c938e83b4f1ea0,6707f2fa13d0d785038a7ac3,2024-10-10_10h30.29.161,WTP_SM_Choice,2022.2.1,Win32,142.8571429,,,,,,,,,,,,,,,,,,25,,,,,,,,,,0.05,1,1.8328,0,4,4,4,1,Playing Cards with friends,Watch tv,0.05,0.05,3.3,0,,,,,
,,5f32e865bd94490a64d9c9f5,6685aa9113c938e83b4f1ea0,6707f2fa13d0d785038a7ac3,2024-10-10_10h30.29.161,WTP_SM_Choice,2022.2.1,Win32,142.8571429,,,,,,,1,space,4,0.65,5.35,,0,24,24,24,1,25,Riley,Rej,Participant_Images/5f32e865bd94490a64d9c9f5/5f32e865bd94490a64d9c9f5_Images/5f32e865bd94490a64d9c9f5_Image_22.jpeg,did not like,3.602308302,,,,,,,,,,,,,,,,,,,space,0.9381,14.7774,,
,,5f32e865bd94490a64d9c9f5,6685aa9113c938e83b4f1ea0,6707f2fa13d0d785038a7ac3,2024-10-10_10h30.29.161,WTP_SM_Choice,2022.2.1,Win32,142.8571429,,,space,2.0374,space,0.91,NAN,,NAN,0.65,5.35,,0,25,25,25,1,26,Charlie,Rej,Participant_Images/5f32e865bd94490a64d9c9f5/5f32e865bd94490a64d9c9f5_Images/5f32e865bd94490a64d9c9f5_Image_17.jpeg,did not like,4.106391878,,,,,,,,,,,,,,,,,,,,,,,
,,5f32e865bd94490a64d9c9f5,6685aa9113c938e83b4f1ea0,6707f2fa13d0d785038a7ac3,2024-10-10_10h30.29.161,WTP_SM_Choice,2022.2.1,Win32,142.8571429,,,,,space,0.7968,NAN,,NAN,0.65,5.35,,0,26,26,26,1,27,Charlie,Rej,Participant_Images/5f32e865bd94490a64d9c9f5/5f32e865bd94490a64d9c9f5_Images/5f32e865bd94490a64d9c9f5_Image_11.jpeg,did not like,3.799433026,,,,,,,,,,,,,,,,,,,,,,,
,,5f32e865bd94490a64d9c9f5,6685aa9113c938e83b4f1ea0,6707f2fa13d0d785038a7ac3,2024-10-10_10h30.29.161,WTP_SM_Choice,2022.2.1,Win32,142.8571429,,,,,space,0.6321,NAN,,NAN,0.65,5.35,,0,27,27,27,1,28,Charlie,Rej,Participant_Images/5f32e865bd94490a64d9c9f5/5f32e865bd94490a64d9c9f5_Images/5f32e865bd94490a64d9c9f5_Image_9.jpeg,did not like,5.246980764,,,,,,,,,,,,,,,,,,,,,,,
,,5f32e865bd94490a64d9c9f5,6685aa9113c938e83b4f1ea0,6707f2fa13d0d785038a7ac3,2024-10-10_10h30.29.161,WTP_SM_Choice,2022.2.1,Win32,142.8571429,,,,,space,0.7381,NAN,,NAN,0.65,5.35,,0,28,28,28,1,29,Charlie,Rej,Participant_Images/5f32e865bd94490a64d9c9f5/5f32e865bd94490a64d9c9f5_Images/5f32e865bd94490a64d9c9f5_Image_16.jpeg,did not like,3.30081769,,,,,,,,,,,,,,,,,,,,,,,
,,5f32e865bd94490a64d9c9f5,6685aa9113c938e83b4f1ea0,6707f2fa13d0d785038a7ac3,2024-10-10_10h30.29.161,WTP_SM_Choice,2022.2.1,Win32,142.8571429,,,,,,,,,,,,,,,,,,26,,,,,,space,7.2242,space,5.2081,0.01,1,1.3377,0,0,0,0,1,eat food with friends,Video games,0.01,0.01,4.4,0,,,,,
,,5f32e865bd94490a64d9c9f5,6685aa9113c938e83b4f1ea0,6707f2fa13d0d785038a7ac3,2024-10-10_10h30.29.161,WTP_SM_Choice,2022.2.1,Win32,142.8571429,,,,,,,,,,,,,,,,,,27,,,,,,,,,,0.01,2,1.6323,0,1,1,1,1,Playing Cards with friends,Play basketball,0.02,0.01,3.3,0,,,,,
,,5f32e865bd94490a64d9c9f5,6685aa9113c938e83b4f1ea0,6707f2fa13d0d785038a7ac3,2024-10-10_10h30.29.161,WTP_SM_Choice,2022.2.1,Win32,142.8571429,,,,,,,,,,,,,,,,,,28,,,,,,,,,,0.03,1,1.9642,0,2,2,2,1,Run with friends,Eat good food,0.03,0.01,3.3,0,,,,,
,,5f32e865bd94490a64d9c9f5,6685aa9113c938e83b4f1ea0,6707f2fa13d0d785038a7ac3,2024-10-10_10h30.29.161,WTP_SM_Choice,2022.2.1,Win32,142.8571429,,,,,,,,,,,,,,,,,,29,,,,,,,,,,0.01,2,1.6757,0,3,3,3,1,Watch movies with friends,Swim,0.04,0.01,4.4,0,,,,,
,,5f32e865bd94490a64d9c9f5,6685aa9113c938e83b4f1ea0,6707f2fa13d0d785038a7ac3,2024-10-10_10h30.29.161,WTP_SM_Choice,2022.2.1,Win32,142.8571429,,,,,,,,,,,,,,,,,,30,,,,,,,,,,0.05,1,2.3282,0,4,4,4,1,Listen to music,Swim with friends,0.05,0.01,8.8,1,,,,,
,,5f32e865bd94490a64d9c9f5,6685aa9113c938e83b4f1ea0,6707f2fa13d0d785038a7ac3,2024-10-10_10h30.29.161,WTP_SM_Choice,2022.2.1,Win32,142.8571429,,,,,,,NAN,,NAN,0.76,5.24,,0,29,29,29,1,30,Charlie,Rej,Participant_Images/5f32e865bd94490a64d9c9f5/5f32e865bd94490a64d9c9f5_Images/5f32e865bd94490a64d9c9f5_Image_12.jpeg,liked,1.661473164,,,,,,,,,,,,,,,,,,,,,,,
,,5f32e865bd94490a64d9c9f5,6685aa9113c938e83b4f1ea0,6707f2fa13d0d785038a7ac3,2024-10-10_10h30.29.161,WTP_SM_Choice,2022.2.1,Win32,142.8571429,,,,,space,1.2573,NAN,,NAN,0.76,5.24,,0,30,30,30,1,31,Charlie,Rej,Participant_Images/5f32e865bd94490a64d9c9f5/5f32e865bd94490a64d9c9f5_Images/5f32e865bd94490a64d9c9f5_Image_5.jpeg,did not like,3.613205605,,,,,,,,,,,,,,,,,,,,,,,
,,5f32e865bd94490a64d9c9f5,6685aa9113c938e83b4f1ea0,6707f2fa13d0d785038a7ac3,2024-10-10_10h30.29.161,WTP_SM_Choice,2022.2.1,Win32,142.8571429,,,,,space,0.9451,NAN,,NAN,0.76,5.24,,0,31,31,31,1,32,Charlie,Rej,Participant_Images/5f32e865bd94490a64d9c9f5/5f32e865bd94490a64d9c9f5_Images/5f32e865bd94490a64d9c9f5_Image_1.jpeg,did not like,4.988446431,,,,,,,,,,,,,,,,,,,,,,,
,,5f32e865bd94490a64d9c9f5,6685aa9113c938e83b4f1ea0,6707f2fa13d0d785038a7ac3,2024-10-10_10h30.29.161,WTP_SM_Choice,2022.2.1,Win32,142.8571429,,,,,space,0.9347,NAN,,NAN,0.76,5.24,,0,32,32,32,1,33,Charlie,Rej,Participant_Images/5f32e865bd94490a64d9c9f5/5f32e865bd94490a64d9c9f5_Images/5f32e865bd94490a64d9c9f5_Image_3.jpeg,did not like,3.470791822,,,,,,,,,,,,,,,,,,,,,,,
,,5f32e865bd94490a64d9c9f5,6685aa9113c938e83b4f1ea0,6707f2fa13d0d785038a7ac3,2024-10-10_10h30.29.161,WTP_SM_Choice,2022.2.1,Win32,142.8571429,,,,,space,0.8275,NAN,,NAN,0.76,5.24,,0,33,33,33,1,34,Charlie,Rej,Participant_Images/5f32e865bd94490a64d9c9f5/5f32e865bd94490a64d9c9f5_Images/5f32e865bd94490a64d9c9f5_Image_21.jpeg,liked,3.820572462,,,,,,,,,,,,,,,,,,,,,,,
,,5f32e865bd94490a64d9c9f5,6685aa9113c938e83b4f1ea0,6707f2fa13d0d785038a7ac3,2024-10-10_10h30.29.161,WTP_SM_Choice,2022.2.1,Win32,142.8571429,,,,,,,,,,,,,,,,,,31,,,,,,space,3.2705,space,1.1285,0.01,1,2.0241,0,0,0,0,1,Play basketball,Play basektball with friends,0.01,0.02,8.8,1,,,,,
,,5f32e865bd94490a64d9c9f5,6685aa9113c938e83b4f1ea0,6707f2fa13d0d785038a7ac3,2024-10-10_10h30.29.161,WTP_SM_Choice,2022.2.1,Win32,142.8571429,,,,,,,,,,,,,,,,,,32,,,,,,,,,,0.02,2,1.7963,0,1,1,1,1,Eat good food,Swim with friends,0.02,0.02,1.1,1,,,,,
,,5f32e865bd94490a64d9c9f5,6685aa9113c938e83b4f1ea0,6707f2fa13d0d785038a7ac3,2024-10-10_10h30.29.161,WTP_SM_Choice,2022.2.1,Win32,142.8571429,,,,,,,,,,,,,,,,,,33,,,,,,,,,,0.02,2,2.1786,0,2,2,2,1,Watch movies,Run with friends,0.03,0.02,4.4,1,,,,,
,,5f32e865bd94490a64d9c9f5,6685aa9113c938e83b4f1ea0,6707f2fa13d0d785038a7ac3,2024-10-10_10h30.29.161,WTP_SM_Choice,2022.2.1,Win32,142.8571429,,,,,,,,,,,,,,,,,,34,,,,,,,,,,0.04,1,2.2594,0,3,3,3,1,Listen to music,Camp with friends,0.04,0.02,3.3,1,,,,,
,,5f32e865bd94490a64d9c9f5,6685aa9113c938e83b4f1ea0,6707f2fa13d0d785038a7ac3,2024-10-10_10h30.29.161,WTP_SM_Choice,2022.2.1,Win32,142.8571429,,,,,,,,,,,,,,,,,,35,,,,,,,,,,0.05,1,2.1189,0,4,4,4,1,Play guitar,eat food with friends,0.05,0.02,1.1,1,,,,,
,,5f32e865bd94490a64d9c9f5,6685aa9113c938e83b4f1ea0,6707f2fa13d0d785038a7ac3,2024-10-10_10h30.29.161,WTP_SM_Choice,2022.2.1,Win32,142.8571429,,,,,,,NAN,,NAN,0.9,5.1,,0,34,34,34,1,35,Charlie,Rej,Participant_Images/5f32e865bd94490a64d9c9f5/5f32e865bd94490a64d9c9f5_Images/5f32e865bd94490a64d9c9f5_Image_22.jpeg,did not like,2.455989137,,,,,,,,,,,,,,,,,,,,,,,
,,5f32e865bd94490a64d9c9f5,6685aa9113c938e83b4f1ea0,6707f2fa13d0d785038a7ac3,2024-10-10_10h30.29.161,WTP_SM_Choice,2022.2.1,Win32,142.8571429,,,,,space,0.939,NAN,,NAN,0.9,5.1,,0,35,35,35,1,36,Charlie,Rej,Participant_Images/5f32e865bd94490a64d9c9f5/5f32e865bd94490a64d9c9f5_Images/5f32e865bd94490a64d9c9f5_Image_25.jpeg,did not like,3.79605092,,,,,,,,,,,,,,,,,,,,,,,
,,5f32e865bd94490a64d9c9f5,6685aa9113c938e83b4f1ea0,6707f2fa13d0d785038a7ac3,2024-10-10_10h30.29.161,WTP_SM_Choice,2022.2.1,Win32,142.8571429,,,,,space,1.1648,NAN,,NAN,0.9,5.1,,0,36,36,36,1,37,Charlie,Rej,Participant_Images/5f32e865bd94490a64d9c9f5/5f32e865bd94490a64d9c9f5_Images/5f32e865bd94490a64d9c9f5_Image_14.jpeg,did not like,3.562416326,,,,,,,,,,,,,,,,,,,,,,,
,,5f32e865bd94490a64d9c9f5,6685aa9113c938e83b4f1ea0,6707f2fa13d0d785038a7ac3,2024-10-10_10h30.29.161,WTP_SM_Choice,2022.2.1,Win32,142.8571429,,,,,space,0.6189,NAN,,NAN,0.9,5.1,,0,37,37,37,1,38,Charlie,Rej,Participant_Images/5f32e865bd94490a64d9c9f5/5f32e865bd94490a64d9c9f5_Images/5f32e865bd94490a64d9c9f5_Image_18.jpeg,did not like,2.843822497,,,,,,,,,,,,,,,,,,,,,,,
,,5f32e865bd94490a64d9c9f5,6685aa9113c938e83b4f1ea0,6707f2fa13d0d785038a7ac3,2024-10-10_10h30.29.161,WTP_SM_Choice,2022.2.1,Win32,142.8571429,,,,,space,0.9859,NAN,,NAN,0.9,5.1,,0,38,38,38,1,39,Charlie,Rej,Participant_Images/5f32e865bd94490a64d9c9f5/5f32e865bd94490a64d9c9f5_Images/5f32e865bd94490a64d9c9f5_Image_2.jpeg,did not like,3.546495948,,,,,,,,,,,,,,,,,,,,,,,
,,5f32e865bd94490a64d9c9f5,6685aa9113c938e83b4f1ea0,6707f2fa13d0d785038a7ac3,2024-10-10_10h30.29.161,WTP_SM_Choice,2022.2.1,Win32,142.8571429,,,,,,,,,,,,,,,,,,36,,,,,,space,1.8288,space,1.0541,0.03,2,2.5503,0,0,0,0,1,Watch movies,Playing Cards with friends,0.01,0.03,3.3,1,,,,,
,,5f32e865bd94490a64d9c9f5,6685aa9113c938e83b4f1ea0,6707f2fa13d0d785038a7ac3,2024-10-10_10h30.29.161,WTP_SM_Choice,2022.2.1,Win32,142.8571429,,,,,,,,,,,,,,,,,,37,,,,,,,,,,0.03,2,2.1976,0,1,1,1,1,Video games,Run with friends,0.02,0.03,1.1,1,,,,,
,,5f32e865bd94490a64d9c9f5,6685aa9113c938e83b4f1ea0,6707f2fa13d0d785038a7ac3,2024-10-10_10h30.29.161,WTP_SM_Choice,2022.2.1,Win32,142.8571429,,,,,,,,,,,,,,,,,,38,,,,,,,,,,0.03,2,2.3306,0,2,2,2,1,Listen to music,Play video games with friends,0.03,0.03,1.1,1,,,,,
,,5f32e865bd94490a64d9c9f5,6685aa9113c938e83b4f1ea0,6707f2fa13d0d785038a7ac3,2024-10-10_10h30.29.161,WTP_SM_Choice,2022.2.1,Win32,142.8571429,,,,,,,,,,,,,,,,,,39,,,,,,,,,,0.03,2,2.278,0,3,3,3,1,Watch movies with friends,Run,0.04,0.03,3.3,0,,,,,
,,5f32e865bd94490a64d9c9f5,6685aa9113c938e83b4f1ea0,6707f2fa13d0d785038a7ac3,2024-10-10_10h30.29.161,WTP_SM_Choice,2022.2.1,Win32,142.8571429,,,,,,,,,,,,,,,,,,40,,,,,,,,,,0.03,2,2.1706,0,4,4,4,1,Go to the park with friends,Run,0.05,0.03,4.4,0,,,,,
,,5f32e865bd94490a64d9c9f5,6685aa9113c938e83b4f1ea0,6707f2fa13d0d785038a7ac3,2024-10-10_10h30.29.161,WTP_SM_Choice,2022.2.1,Win32,142.8571429,,,,,,,NAN,,NAN,1.05,4.95,,0,39,39,39,1,40,Charlie,Rej,Participant_Images/5f32e865bd94490a64d9c9f5/5f32e865bd94490a64d9c9f5_Images/5f32e865bd94490a64d9c9f5_Image_19.jpeg,did not like,1.672012706,,,,,,,,,,,,,,,,,,,,,,,
,,5f32e865bd94490a64d9c9f5,6685aa9113c938e83b4f1ea0,6707f2fa13d0d785038a7ac3,2024-10-10_10h30.29.161,WTP_SM_Choice,2022.2.1,Win32,142.8571429,,,,,space,0.7679,NAN,,NAN,1.05,4.95,,0,40,40,40,1,41,Charlie,Rej,Participant_Images/5f32e865bd94490a64d9c9f5/5f32e865bd94490a64d9c9f5_Images/5f32e865bd94490a64d9c9f5_Image_10.jpeg,did not like,4.942172136,,,,,,,,,,,,,,,,,,,,,,,
,,5f32e865bd94490a64d9c9f5,6685aa9113c938e83b4f1ea0,6707f2fa13d0d785038a7ac3,2024-10-10_10h30.29.161,WTP_SM_Choice,2022.2.1,Win32,142.8571429,,,,,space,0.8234,NAN,,NAN,1.05,4.95,,0,41,41,41,1,42,Charlie,Rej,Participant_Images/5f32e865bd94490a64d9c9f5/5f32e865bd94490a64d9c9f5_Images/5f32e865bd94490a64d9c9f5_Image_7.jpeg,did not like,2.50187214,,,,,,,,,,,,,,,,,,,,,,,
,,5f32e865bd94490a64d9c9f5,6685aa9113c938e83b4f1ea0,6707f2fa13d0d785038a7ac3,2024-10-10_10h30.29.161,WTP_SM_Choice,2022.2.1,Win32,142.8571429,,,,,space,0.935,NAN,,NAN,1.05,4.95,,0,42,42,42,1,43,Charlie,Rej,Participant_Images/5f32e865bd94490a64d9c9f5/5f32e865bd94490a64d9c9f5_Images/5f32e865bd94490a64d9c9f5_Image_4.jpeg,did not like,2.071164779,,,,,,,,,,,,,,,,,,,,,,,
,,5f32e865bd94490a64d9c9f5,6685aa9113c938e83b4f1ea0,6707f2fa13d0d785038a7ac3,2024-10-10_10h30.29.161,WTP_SM_Choice,2022.2.1,Win32,142.8571429,,,,,space,0.6919,NAN,,NAN,1.05,4.95,,0,43,43,43,1,44,Charlie,Rej,Participant_Images/5f32e865bd94490a64d9c9f5/5f32e865bd94490a64d9c9f5_Images/5f32e865bd94490a64d9c9f5_Image_23.jpeg,did not like,5.336503566,,,,,,,,,,,,,,,,,,,,,,,
,,5f32e865bd94490a64d9c9f5,6685aa9113c938e83b4f1ea0,6707f2fa13d0d785038a7ac3,2024-10-10_10h30.29.161,WTP_SM_Choice,2022.2.1,Win32,142.8571429,,,,,,,,,,,,,,,,,,41,,,,,,space,1.0973,space,3.6112,0.01,1,2.0884,0,0,0,0,1,Listen to music,Watch movies with friends,0.01,0.04,1.1,1,,,,,
,,5f32e865bd94490a64d9c9f5,6685aa9113c938e83b4f1ea0,6707f2fa13d0d785038a7ac3,2024-10-10_10h30.29.161,WTP_SM_Choice,2022.2.1,Win32,142.8571429,,,,,,,,,,,,,,,,,,42,,,,,,,,,,0.04,2,1.9244,0,1,1,1,1,Play video games with friends,Watch tv,0.02,0.04,3.3,0,,,,,
,,5f32e865bd94490a64d9c9f5,6685aa9113c938e83b4f1ea0,6707f2fa13d0d785038a7ac3,2024-10-10_10h30.29.161,WTP_SM_Choice,2022.2.1,Win32,142.8571429,,,,,,,,,,,,,,,,,,43,,,,,,,,,,0.04,2,2.6477,0,2,2,2,1,Playing music with friends,Watch movies,0.03,0.04,1.1,0,,,,,
,,5f32e865bd94490a64d9c9f5,6685aa9113c938e83b4f1ea0,6707f2fa13d0d785038a7ac3,2024-10-10_10h30.29.161,WTP_SM_Choice,2022.2.1,Win32,142.8571429,,,,,,,,,,,,,,,,,,44,,,,,,,,,,0.04,2,2.1106,0,3,3,3,1,Play video games with friends,Eat good food,0.04,0.04,1.1,0,,,,,
,,5f32e865bd94490a64d9c9f5,6685aa9113c938e83b4f1ea0,6707f2fa13d0d785038a7ac3,2024-10-10_10h30.29.161,WTP_SM_Choice,2022.2.1,Win32,142.8571429,,,,,,,,,,,,,,,,,,45,,,,,,,,,,0.04,2,1.7747,0,4,4,4,1,Listen to music,Run with friends,0.05,0.04,4.4,1,,,,,
,,5f32e865bd94490a64d9c9f5,6685aa9113c938e83b4f1ea0,6707f2fa13d0d785038a7ac3,2024-10-10_10h30.29.161,WTP_SM_Choice,2022.2.1,Win32,142.8571429,,,,,,,NAN,,NAN,1.22,4.78,,0,44,44,44,1,45,Charlie,Rej,Participant_Images/5f32e865bd94490a64d9c9f5/5f32e865bd94490a64d9c9f5_Images/5f32e865bd94490a64d9c9f5_Image_8.jpeg,did not like,2.642157193,,,,,,,,,,,,,,,,,,,,,,,
,,5f32e865bd94490a64d9c9f5,6685aa9113c938e83b4f1ea0,6707f2fa13d0d785038a7ac3,2024-10-10_10h30.29.161,WTP_SM_Choice,2022.2.1,Win32,142.8571429,,,,,space,1.2991,NAN,,NAN,1.22,4.78,,0,45,45,45,1,46,Charlie,Rej,Participant_Images/5f32e865bd94490a64d9c9f5/5f32e865bd94490a64d9c9f5_Images/5f32e865bd94490a64d9c9f5_Image_15.jpeg,liked,4.456234322,,,,,,,,,,,,,,,,,,,,,,,
,,5f32e865bd94490a64d9c9f5,6685aa9113c938e83b4f1ea0,6707f2fa13d0d785038a7ac3,2024-10-10_10h30.29.161,WTP_SM_Choice,2022.2.1,Win32,142.8571429,,,,,space,1.0788,NAN,,NAN,1.22,4.78,,0,46,46,46,1,47,Charlie,Rej,Participant_Images/5f32e865bd94490a64d9c9f5/5f32e865bd94490a64d9c9f5_Images/5f32e865bd94490a64d9c9f5_Image_20.jpeg,liked,4.438512181,,,,,,,,,,,,,,,,,,,,,,,
,,5f32e865bd94490a64d9c9f5,6685aa9113c938e83b4f1ea0,6707f2fa13d0d785038a7ac3,2024-10-10_10h30.29.161,WTP_SM_Choice,2022.2.1,Win32,142.8571429,,,,,space,0.7793,NAN,,NAN,1.22,4.78,,0,47,47,47,1,48,Charlie,Rej,Participant_Images/5f32e865bd94490a64d9c9f5/5f32e865bd94490a64d9c9f5_Images/5f32e865bd94490a64d9c9f5_Image_13.jpeg,liked,2.682944783,,,,,,,,,,,,,,,,,,,,,,,
,,5f32e865bd94490a64d9c9f5,6685aa9113c938e83b4f1ea0,6707f2fa13d0d785038a7ac3,2024-10-10_10h30.29.161,WTP_SM_Choice,2022.2.1,Win32,142.8571429,,,,,space,0.9883,NAN,,NAN,1.22,4.78,,0,48,48,48,1,49,Charlie,Rej,Participant_Images/5f32e865bd94490a64d9c9f5/5f32e865bd94490a64d9c9f5_Images/5f32e865bd94490a64d9c9f5_Image_24.jpeg,liked,4.51984296,,,,,,,,,,,,,,,,,,,,,,,
,,5f32e865bd94490a64d9c9f5,6685aa9113c938e83b4f1ea0,6707f2fa13d0d785038a7ac3,2024-10-10_10h30.29.161,WTP_SM_Choice,2022.2.1,Win32,142.8571429,,,,,,,,,,,,,,,,,,46,,,,,,space,0.8999,space,0.625,0.05,2,1.3462,0,0,0,0,1,Play video games with friends,Camp,0.01,0.05,8.8,0,,,,,
,,5f32e865bd94490a64d9c9f5,6685aa9113c938e83b4f1ea0,6707f2fa13d0d785038a7ac3,2024-10-10_10h30.29.161,WTP_SM_Choice,2022.2.1,Win32,142.8571429,,,,,,,,,,,,,,,,,,47,,,,,,,,,,0.02,1,1.9585,0,1,1,1,1,Watch movies,Watch movies with friends,0.02,0.05,1.1,1,,,,,
,,5f32e865bd94490a64d9c9f5,6685aa9113c938e83b4f1ea0,6707f2fa13d0d785038a7ac3,2024-10-10_10h30.29.161,WTP_SM_Choice,2022.2.1,Win32,142.8571429,,,,,,,,,,,,,,,,,,48,,,,,,,,,,0.03,1,1.575,0,2,2,2,1,Camp,Play basektball with friends,0.03,0.05,4.4,1,,,,,
,,5f32e865bd94490a64d9c9f5,6685aa9113c938e83b4f1ea0,6707f2fa13d0d785038a7ac3,2024-10-10_10h30.29.161,WTP_SM_Choice,2022.2.1,Win32,142.8571429,,,,,,,,,,,,,,,,,,49,,,,,,,,,,0.04,1,1.689,0,3,3,3,1,Play basketball,Watch movies with friends,0.04,0.05,3.3,1,,,,,
,,5f32e865bd94490a64d9c9f5,6685aa9113c938e83b4f1ea0,6707f2fa13d0d785038a7ac3,2024-10-10_10h30.29.161,WTP_SM_Choice,2022.2.1,Win32,142.8571429,,,,,,,,,,,,,,,,,,50,,,,,,,,,,0.05,2,1.48,0,4,4,4,1,Swim,Run with friends,0.05,0.05,1.1,1,,,,,
,,5f32e865bd94490a64d9c9f5,6685aa9113c938e83b4f1ea0,6707f2fa13d0d785038a7ac3,2024-10-10_10h30.29.161,WTP_SM_Choice,2022.2.1,Win32,142.8571429,,,,,,,1,,3,1.41,4.59,,0,49,49,49,1,50,Charlie,Rej,Participant_Images/5f32e865bd94490a64d9c9f5/5f32e865bd94490a64d9c9f5_Images/5f32e865bd94490a64d9c9f5_Image_6.jpeg,liked,3.195382774,,,,,,,,,,,,,,,,,,,space,1.0442,,,
,,5f32e865bd94490a64d9c9f5,6685aa9113c938e83b4f1ea0,6707f2fa13d0d785038a7ac3,2024-10-10_10h30.29.161,WTP_SM_Choice,2022.2.1,Win32,142.8571429,,,space,1.4734,space,1.3349,NAN,,NAN,1.41,4.59,,0,50,50,50,1,51,Sam,Acc,Participant_Images/5f32e865bd94490a64d9c9f5/5f32e865bd94490a64d9c9f5_Images/5f32e865bd94490a64d9c9f5_Image_1.jpeg,did not like,1.779333479,,,,,,,,,,,,,,,,,,,,,,,
,,5f32e865bd94490a64d9c9f5,6685aa9113c938e83b4f1ea0,6707f2fa13d0d785038a7ac3,2024-10-10_10h30.29.161,WTP_SM_Choice,2022.2.1,Win32,142.8571429,,,,,space,0.7352,NAN,,NAN,1.41,4.59,,0,51,51,51,1,52,Sam,Acc,Participant_Images/5f32e865bd94490a64d9c9f5/5f32e865bd94490a64d9c9f5_Images/5f32e865bd94490a64d9c9f5_Image_16.jpeg,liked,4.312468682,,,,,,,,,,,,,,,,,,,,,,,
,,5f32e865bd94490a64d9c9f5,6685aa9113c938e83b4f1ea0,6707f2fa13d0d785038a7ac3,2024-10-10_10h30.29.161,WTP_SM_Choice,2022.2.1,Win32,142.8571429,,,,,space,0.9015,NAN,,NAN,1.41,4.59,,0,52,52,52,1,53,Sam,Acc,Participant_Images/5f32e865bd94490a64d9c9f5/5f32e865bd94490a64d9c9f5_Images/5f32e865bd94490a64d9c9f5_Image_8.jpeg,liked,4.940433059,,,,,,,,,,,,,,,,,,,,,,,
,,5f32e865bd94490a64d9c9f5,6685aa9113c938e83b4f1ea0,6707f2fa13d0d785038a7ac3,2024-10-10_10h30.29.161,WTP_SM_Choice,2022.2.1,Win32,142.8571429,,,,,space,0.9865,NAN,,NAN,1.41,4.59,,0,53,53,53,1,54,Sam,Acc,Participant_Images/5f32e865bd94490a64d9c9f5/5f32e865bd94490a64d9c9f5_Images/5f32e865bd94490a64d9c9f5_Image_24.jpeg,did not like,2.7105123,,,,,,,,,,,,,,,,,,,,,,,
,,5f32e865bd94490a64d9c9f5,6685aa9113c938e83b4f1ea0,6707f2fa13d0d785038a7ac3,2024-10-10_10h30.29.161,WTP_SM_Choice,2022.2.1,Win32,142.8571429,,,,,,,,,,,,,,,,,,51,,,,,,space,1.9788,space,1.5575,0.01,2,1.7562,0,0,0,0,1,Play guitar,Run with friends,0.01,0.01,1.1,1,,,,,
,,5f32e865bd94490a64d9c9f5,6685aa9113c938e83b4f1ea0,6707f2fa13d0d785038a7ac3,2024-10-10_10h30.29.161,WTP_SM_Choice,2022.2.1,Win32,142.8571429,,,,,,,,,,,,,,,,,,52,,,,,,,,,,0.01,2,1.5916,0,1,1,1,1,eat food with friends,Camp,0.02,0.01,3.3,0,,,,,
,,5f32e865bd94490a64d9c9f5,6685aa9113c938e83b4f1ea0,6707f2fa13d0d785038a7ac3,2024-10-10_10h30.29.161,WTP_SM_Choice,2022.2.1,Win32,142.8571429,,,,,,,,,,,,,,,,,,53,,,,,,,,,,0.03,1,1.7014,0,2,2,2,1,Listen to music,Play basektball with friends,0.03,0.01,1.1,1,,,,,
,,5f32e865bd94490a64d9c9f5,6685aa9113c938e83b4f1ea0,6707f2fa13d0d785038a7ac3,2024-10-10_10h30.29.161,WTP_SM_Choice,2022.2.1,Win32,142.8571429,,,,,,,,,,,,,,,,,,54,,,,,,,,,,0.01,2,1.7285,0,3,3,3,1,Play basektball with friends,Swim,0.04,0.01,4.4,0,,,,,
,,5f32e865bd94490a64d9c9f5,6685aa9113c938e83b4f1ea0,6707f2fa13d0d785038a7ac3,2024-10-10_10h30.29.161,WTP_SM_Choice,2022.2.1,Win32,142.8571429,,,,,,,,,,,,,,,,,,55,,,,,,,,,,0.01,2,1.9614,0,4,4,4,1,Playing music with friends,Swim,0.05,0.01,1.1,0,,,,,
,,5f32e865bd94490a64d9c9f5,6685aa9113c938e83b4f1ea0,6707f2fa13d0d785038a7ac3,2024-10-10_10h30.29.161,WTP_SM_Choice,2022.2.1,Win32,142.8571429,,,,,,,NAN,,NAN,1.48,4.52,,0,54,54,54,1,55,Sam,Acc,Participant_Images/5f32e865bd94490a64d9c9f5/5f32e865bd94490a64d9c9f5_Images/5f32e865bd94490a64d9c9f5_Image_14.jpeg,liked,3.602308302,,,,,,,,,,,,,,,,,,,,,,,
,,5f32e865bd94490a64d9c9f5,6685aa9113c938e83b4f1ea0,6707f2fa13d0d785038a7ac3,2024-10-10_10h30.29.161,WTP_SM_Choice,2022.2.1,Win32,142.8571429,,,,,space,0.7777,NAN,,NAN,1.48,4.52,,0,55,55,55,1,56,Sam,Acc,Participant_Images/5f32e865bd94490a64d9c9f5/5f32e865bd94490a64d9c9f5_Images/5f32e865bd94490a64d9c9f5_Image_18.jpeg,liked,4.106391878,,,,,,,,,,,,,,,,,,,,,,,
,,5f32e865bd94490a64d9c9f5,6685aa9113c938e83b4f1ea0,6707f2fa13d0d785038a7ac3,2024-10-10_10h30.29.161,WTP_SM_Choice,2022.2.1,Win32,142.8571429,,,,,space,2.4676,NAN,,NAN,1.48,4.52,,0,56,56,56,1,57,Sam,Acc,Participant_Images/5f32e865bd94490a64d9c9f5/5f32e865bd94490a64d9c9f5_Images/5f32e865bd94490a64d9c9f5_Image_19.jpeg,did not like,3.799433026,,,,,,,,,,,,,,,,,,,,,,,
,,5f32e865bd94490a64d9c9f5,6685aa9113c938e83b4f1ea0,6707f2fa13d0d785038a7ac3,2024-10-10_10h30.29.161,WTP_SM_Choice,2022.2.1,Win32,142.8571429,,,,,space,1.9792,NAN,,NAN,1.48,4.52,,0,57,57,57,1,58,Sam,Acc,Participant_Images/5f32e865bd94490a64d9c9f5/5f32e865bd94490a64d9c9f5_Images/5f32e865bd94490a64d9c9f5_Image_9.jpeg,liked,5.246980764,,,,,,,,,,,,,,,,,,,,,,,
,,5f32e865bd94490a64d9c9f5,6685aa9113c938e83b4f1ea0,6707f2fa13d0d785038a7ac3,2024-10-10_10h30.29.161,WTP_SM_Choice,2022.2.1,Win32,142.8571429,,,,,space,1.51,NAN,,NAN,1.48,4.52,,0,58,58,58,1,59,Sam,Acc,Participant_Images/5f32e865bd94490a64d9c9f5/5f32e865bd94490a64d9c9f5_Images/5f32e865bd94490a64d9c9f5_Image_20.jpeg,did not like,3.30081769,,,,,,,,,,,,,,,,,,,,,,,
,,5f32e865bd94490a64d9c9f5,6685aa9113c938e83b4f1ea0,6707f2fa13d0d785038a7ac3,2024-10-10_10h30.29.161,WTP_SM_Choice,2022.2.1,Win32,142.8571429,,,,,,,,,,,,,,,,,,56,,,,,,space,2.5657,space,0.4607,0.02,2,1.3334,0,0,0,0,1,Swim with friends,Play basketball,0.01,0.02,8.8,0,,,,,
,,5f32e865bd94490a64d9c9f5,6685aa9113c938e83b4f1ea0,6707f2fa13d0d785038a7ac3,2024-10-10_10h30.29.161,WTP_SM_Choice,2022.2.1,Win32,142.8571429,,,,,,,,,,,,,,,,,,57,,,,,,,,,,0.02,2,1.7756,0,1,1,1,1,Playing music with friends,Play guitar,0.02,0.02,4.4,0,,,,,
,,5f32e865bd94490a64d9c9f5,6685aa9113c938e83b4f1ea0,6707f2fa13d0d785038a7ac3,2024-10-10_10h30.29.161,WTP_SM_Choice,2022.2.1,Win32,142.8571429,,,,,,,,,,,,,,,,,,58,,,,,,,,,,0.03,1,1.3415,0,2,2,2,1,Watch tv,eat food with friends,0.03,0.02,4.4,1,,,,,
,,5f32e865bd94490a64d9c9f5,6685aa9113c938e83b4f1ea0,6707f2fa13d0d785038a7ac3,2024-10-10_10h30.29.161,WTP_SM_Choice,2022.2.1,Win32,142.8571429,,,,,,,,,,,,,,,,,,59,,,,,,,,,,0.04,1,2.207,0,3,3,3,1,Play guitar,Swim with friends,0.04,0.02,4.4,1,,,,,
,,5f32e865bd94490a64d9c9f5,6685aa9113c938e83b4f1ea0,6707f2fa13d0d785038a7ac3,2024-10-10_10h30.29.161,WTP_SM_Choice,2022.2.1,Win32,142.8571429,,,,,,,,,,,,,,,,,,60,,,,,,,,,,0.02,2,2.0726,0,4,4,4,1,Eat good food,Watch movies with friends,0.05,0.02,1.1,1,,,,,
,,5f32e865bd94490a64d9c9f5,6685aa9113c938e83b4f1ea0,6707f2fa13d0d785038a7ac3,2024-10-10_10h30.29.161,WTP_SM_Choice,2022.2.1,Win32,142.8571429,,,,,,,NAN,,NAN,1.61,4.39,,0,59,59,59,1,60,Sam,Acc,Participant_Images/5f32e865bd94490a64d9c9f5/5f32e865bd94490a64d9c9f5_Images/5f32e865bd94490a64d9c9f5_Image_17.jpeg,liked,1.661473164,,,,,,,,,,,,,,,,,,,,,,,
,,5f32e865bd94490a64d9c9f5,6685aa9113c938e83b4f1ea0,6707f2fa13d0d785038a7ac3,2024-10-10_10h30.29.161,WTP_SM_Choice,2022.2.1,Win32,142.8571429,,,,,space,0.6921,NAN,,NAN,1.61,4.39,,0,60,60,60,1,61,Sam,Acc,Participant_Images/5f32e865bd94490a64d9c9f5/5f32e865bd94490a64d9c9f5_Images/5f32e865bd94490a64d9c9f5_Image_5.jpeg,did not like,3.613205605,,,,,,,,,,,,,,,,,,,,,,,
,,5f32e865bd94490a64d9c9f5,6685aa9113c938e83b4f1ea0,6707f2fa13d0d785038a7ac3,2024-10-10_10h30.29.161,WTP_SM_Choice,2022.2.1,Win32,142.8571429,,,,,space,0.7929,NAN,,NAN,1.61,4.39,,0,61,61,61,1,62,Sam,Acc,Participant_Images/5f32e865bd94490a64d9c9f5/5f32e865bd94490a64d9c9f5_Images/5f32e865bd94490a64d9c9f5_Image_3.jpeg,did not like,4.988446431,,,,,,,,,,,,,,,,,,,,,,,
,,5f32e865bd94490a64d9c9f5,6685aa9113c938e83b4f1ea0,6707f2fa13d0d785038a7ac3,2024-10-10_10h30.29.161,WTP_SM_Choice,2022.2.1,Win32,142.8571429,,,,,space,0.9293,NAN,,NAN,1.61,4.39,,0,62,62,62,1,63,Sam,Acc,Participant_Images/5f32e865bd94490a64d9c9f5/5f32e865bd94490a64d9c9f5_Images/5f32e865bd94490a64d9c9f5_Image_7.jpeg,liked,3.470791822,,,,,,,,,,,,,,,,,,,,,,,
,,5f32e865bd94490a64d9c9f5,6685aa9113c938e83b4f1ea0,6707f2fa13d0d785038a7ac3,2024-10-10_10h30.29.161,WTP_SM_Choice,2022.2.1,Win32,142.8571429,,,,,space,0.7815,NAN,,NAN,1.61,4.39,,0,63,63,63,1,64,Sam,Acc,Participant_Images/5f32e865bd94490a64d9c9f5/5f32e865bd94490a64d9c9f5_Images/5f32e865bd94490a64d9c9f5_Image_10.jpeg,liked,3.820572462,,,,,,,,,,,,,,,,,,,,,,,
,,5f32e865bd94490a64d9c9f5,6685aa9113c938e83b4f1ea0,6707f2fa13d0d785038a7ac3,2024-10-10_10h30.29.161,WTP_SM_Choice,2022.2.1,Win32,142.8571429,,,,,,,,,,,,,,,,,,61,,,,,,space,1.5711,space,0.9468,0.01,1,2.2897,0,0,0,0,1,Play guitar,Go to the park with friends,0.01,0.03,3.3,1,,,,,
,,5f32e865bd94490a64d9c9f5,6685aa9113c938e83b4f1ea0,6707f2fa13d0d785038a7ac3,2024-10-10_10h30.29.161,WTP_SM_Choice,2022.2.1,Win32,142.8571429,,,,,,,,,,,,,,,,,,62,,,,,,,,,,0.03,2,1.2196,0,1,1,1,1,Run with friends,Camp,0.02,0.03,3.3,0,,,,,
,,5f32e865bd94490a64d9c9f5,6685aa9113c938e83b4f1ea0,6707f2fa13d0d785038a7ac3,2024-10-10_10h30.29.161,WTP_SM_Choice,2022.2.1,Win32,142.8571429,,,,,,,,,,,,,,,,,,63,,,,,,,,,,0.03,2,2.2229,0,2,2,2,1,Go to the park with friends,Watch movies,0.03,0.03,3.3,0,,,,,
,,5f32e865bd94490a64d9c9f5,6685aa9113c938e83b4f1ea0,6707f2fa13d0d785038a7ac3,2024-10-10_10h30.29.161,WTP_SM_Choice,2022.2.1,Win32,142.8571429,,,,,,,,,,,,,,,,,,64,,,,,,,,,,0.03,2,1.5968,0,3,3,3,1,Swim with friends,Watch tv,0.04,0.03,1.1,0,,,,,
,,5f32e865bd94490a64d9c9f5,6685aa9113c938e83b4f1ea0,6707f2fa13d0d785038a7ac3,2024-10-10_10h30.29.161,WTP_SM_Choice,2022.2.1,Win32,142.8571429,,,,,,,,,,,,,,,,,,65,,,,,,,,,,0.05,1,2.2389,0,4,4,4,1,Play basektball with friends,Video games,0.05,0.03,1.1,0,,,,,
,,5f32e865bd94490a64d9c9f5,6685aa9113c938e83b4f1ea0,6707f2fa13d0d785038a7ac3,2024-10-10_10h30.29.161,WTP_SM_Choice,2022.2.1,Win32,142.8571429,,,,,,,NAN,,NAN,1.76,4.24,,0,64,64,64,1,65,Sam,Acc,Participant_Images/5f32e865bd94490a64d9c9f5/5f32e865bd94490a64d9c9f5_Images/5f32e865bd94490a64d9c9f5_Image_12.jpeg,liked,2.455989137,,,,,,,,,,,,,,,,,,,,,,,
,,5f32e865bd94490a64d9c9f5,6685aa9113c938e83b4f1ea0,6707f2fa13d0d785038a7ac3,2024-10-10_10h30.29.161,WTP_SM_Choice,2022.2.1,Win32,142.8571429,,,,,space,1.0828,NAN,,NAN,1.76,4.24,,0,65,65,65,1,66,Sam,Acc,Participant_Images/5f32e865bd94490a64d9c9f5/5f32e865bd94490a64d9c9f5_Images/5f32e865bd94490a64d9c9f5_Image_25.jpeg,liked,3.79605092,,,,,,,,,,,,,,,,,,,,,,,
,,5f32e865bd94490a64d9c9f5,6685aa9113c938e83b4f1ea0,6707f2fa13d0d785038a7ac3,2024-10-10_10h30.29.161,WTP_SM_Choice,2022.2.1,Win32,142.8571429,,,,,space,0.9045,NAN,,NAN,1.76,4.24,,0,66,66,66,1,67,Sam,Acc,Participant_Images/5f32e865bd94490a64d9c9f5/5f32e865bd94490a64d9c9f5_Images/5f32e865bd94490a64d9c9f5_Image_4.jpeg,liked,3.562416326,,,,,,,,,,,,,,,,,,,,,,,
,,5f32e865bd94490a64d9c9f5,6685aa9113c938e83b4f1ea0,6707f2fa13d0d785038a7ac3,2024-10-10_10h30.29.161,WTP_SM_Choice,2022.2.1,Win32,142.8571429,,,,,space,0.79,NAN,,NAN,1.76,4.24,,0,67,67,67,1,68,Sam,Acc,Participant_Images/5f32e865bd94490a64d9c9f5/5f32e865bd94490a64d9c9f5_Images/5f32e865bd94490a64d9c9f5_Image_21.jpeg,liked,2.843822497,,,,,,,,,,,,,,,,,,,,,,,
,,5f32e865bd94490a64d9c9f5,6685aa9113c938e83b4f1ea0,6707f2fa13d0d785038a7ac3,2024-10-10_10h30.29.161,WTP_SM_Choice,2022.2.1,Win32,142.8571429,,,,,space,0.8942,NAN,,NAN,1.76,4.24,,0,68,68,68,1,69,Sam,Acc,Participant_Images/5f32e865bd94490a64d9c9f5/5f32e865bd94490a64d9c9f5_Images/5f32e865bd94490a64d9c9f5_Image_22.jpeg,liked,3.546495948,,,,,,,,,,,,,,,,,,,,,,,
,,5f32e865bd94490a64d9c9f5,6685aa9113c938e83b4f1ea0,6707f2fa13d0d785038a7ac3,2024-10-10_10h30.29.161,WTP_SM_Choice,2022.2.1,Win32,142.8571429,,,,,,,,,,,,,,,,,,66,,,,,,space,1.3155,space,0.5063,0.04,2,2.8287,0,0,0,0,1,Go to the park with friends,Play basketball,0.01,0.04,1.1,0,,,,,
,,5f32e865bd94490a64d9c9f5,6685aa9113c938e83b4f1ea0,6707f2fa13d0d785038a7ac3,2024-10-10_10h30.29.161,WTP_SM_Choice,2022.2.1,Win32,142.8571429,,,,,,,,,,,,,,,,,,67,,,,,,,,,,0.04,2,1.8267,0,1,1,1,1,Video games,Playing music with friends,0.02,0.04,8.8,1,,,,,
,,5f32e865bd94490a64d9c9f5,6685aa9113c938e83b4f1ea0,6707f2fa13d0d785038a7ac3,2024-10-10_10h30.29.161,WTP_SM_Choice,2022.2.1,Win32,142.8571429,,,,,,,,,,,,,,,,,,68,,,,,,,,,,0.04,2,1.9264,0,2,2,2,1,Watch movies with friends,Play guitar,0.03,0.04,4.4,0,,,,,
,,5f32e865bd94490a64d9c9f5,6685aa9113c938e83b4f1ea0,6707f2fa13d0d785038a7ac3,2024-10-10_10h30.29.161,WTP_SM_Choice,2022.2.1,Win32,142.8571429,,,,,,,,,,,,,,,,,,69,,,,,,,,,,0.04,1,1.4767,0,3,3,3,1,Go to the park with friends,Eat good food,0.04,0.04,1.1,0,,,,,
,,5f32e865bd94490a64d9c9f5,6685aa9113c938e83b4f1ea0,6707f2fa13d0d785038a7ac3,2024-10-10_10h30.29.161,WTP_SM_Choice,2022.2.1,Win32,142.8571429,,,,,,,,,,,,,,,,,,70,,,,,,,,,,0.05,1,2.2014,0,4,4,4,1,Play guitar,Play basektball with friends,0.05,0.04,1.1,1,,,,,
,,5f32e865bd94490a64d9c9f5,6685aa9113c938e83b4f1ea0,6707f2fa13d0d785038a7ac3,2024-10-10_10h30.29.161,WTP_SM_Choice,2022.2.1,Win32,142.8571429,,,,,,,NAN,,NAN,1.97,4.03,,0,69,69,69,1,70,Sam,Acc,Participant_Images/5f32e865bd94490a64d9c9f5/5f32e865bd94490a64d9c9f5_Images/5f32e865bd94490a64d9c9f5_Image_15.jpeg,liked,1.672012706,,,,,,,,,,,,,,,,,,,,,,,
,,5f32e865bd94490a64d9c9f5,6685aa9113c938e83b4f1ea0,6707f2fa13d0d785038a7ac3,2024-10-10_10h30.29.161,WTP_SM_Choice,2022.2.1,Win32,142.8571429,,,,,space,1.4175,NAN,,NAN,1.97,4.03,,0,70,70,70,1,71,Sam,Acc,Participant_Images/5f32e865bd94490a64d9c9f5/5f32e865bd94490a64d9c9f5_Images/5f32e865bd94490a64d9c9f5_Image_6.jpeg,liked,4.942172136,,,,,,,,,,,,,,,,,,,,,,,
,,5f32e865bd94490a64d9c9f5,6685aa9113c938e83b4f1ea0,6707f2fa13d0d785038a7ac3,2024-10-10_10h30.29.161,WTP_SM_Choice,2022.2.1,Win32,142.8571429,,,,,space,1.0768,NAN,,NAN,1.97,4.03,,0,71,71,71,1,72,Sam,Acc,Participant_Images/5f32e865bd94490a64d9c9f5/5f32e865bd94490a64d9c9f5_Images/5f32e865bd94490a64d9c9f5_Image_11.jpeg,liked,2.50187214,,,,,,,,,,,,,,,,,,,,,,,
,,5f32e865bd94490a64d9c9f5,6685aa9113c938e83b4f1ea0,6707f2fa13d0d785038a7ac3,2024-10-10_10h30.29.161,WTP_SM_Choice,2022.2.1,Win32,142.8571429,,,,,space,0.9358,NAN,,NAN,1.97,4.03,,0,72,72,72,1,73,Sam,Acc,Participant_Images/5f32e865bd94490a64d9c9f5/5f32e865bd94490a64d9c9f5_Images/5f32e865bd94490a64d9c9f5_Image_2.jpeg,liked,2.071164779,,,,,,,,,,,,,,,,,,,,,,,
,,5f32e865bd94490a64d9c9f5,6685aa9113c938e83b4f1ea0,6707f2fa13d0d785038a7ac3,2024-10-10_10h30.29.161,WTP_SM_Choice,2022.2.1,Win32,142.8571429,,,,,space,0.9374,NAN,,NAN,1.97,4.03,,0,73,73,73,1,74,Sam,Acc,Participant_Images/5f32e865bd94490a64d9c9f5/5f32e865bd94490a64d9c9f5_Images/5f32e865bd94490a64d9c9f5_Image_23.jpeg,liked,5.336503566,,,,,,,,,,,,,,,,,,,,,,,
,,5f32e865bd94490a64d9c9f5,6685aa9113c938e83b4f1ea0,6707f2fa13d0d785038a7ac3,2024-10-10_10h30.29.161,WTP_SM_Choice,2022.2.1,Win32,142.8571429,,,,,,,,,,,,,,,,,,71,,,,,,space,1.3891,space,0.5029,0.01,1,2.0934,0,0,0,0,1,Run,Camp with friends,0.01,0.05,3.3,1,,,,,
,,5f32e865bd94490a64d9c9f5,6685aa9113c938e83b4f1ea0,6707f2fa13d0d785038a7ac3,2024-10-10_10h30.29.161,WTP_SM_Choice,2022.2.1,Win32,142.8571429,,,,,,,,,,,,,,,,,,72,,,,,,,,,,0.05,2,1.8112,0,1,1,1,1,eat food with friends,Play basketball,0.02,0.05,8.8,0,,,,,
,,5f32e865bd94490a64d9c9f5,6685aa9113c938e83b4f1ea0,6707f2fa13d0d785038a7ac3,2024-10-10_10h30.29.161,WTP_SM_Choice,2022.2.1,Win32,142.8571429,,,,,,,,,,,,,,,,,,73,,,,,,,,,,0.03,1,2.0603,0,2,2,2,1,Video games,Play video games with friends,0.03,0.05,3.3,1,,,,,
,,5f32e865bd94490a64d9c9f5,6685aa9113c938e83b4f1ea0,6707f2fa13d0d785038a7ac3,2024-10-10_10h30.29.161,WTP_SM_Choice,2022.2.1,Win32,142.8571429,,,,,,,,,,,,,,,,,,74,,,,,,,,,,0.05,2,1.6691,0,3,3,3,1,Watch movies with friends,Camp,0.04,0.05,4.4,0,,,,,
,,5f32e865bd94490a64d9c9f5,6685aa9113c938e83b4f1ea0,6707f2fa13d0d785038a7ac3,2024-10-10_10h30.29.161,WTP_SM_Choice,2022.2.1,Win32,142.8571429,,,,,,,,,,,,,,,,,,75,,,,,,,,,,0.05,2,1.4388,0,4,4,4,1,Video games,Camp with friends,0.05,0.05,3.3,1,,,,,
,,5f32e865bd94490a64d9c9f5,6685aa9113c938e83b4f1ea0,6707f2fa13d0d785038a7ac3,2024-10-10_10h30.29.161,WTP_SM_Choice,2022.2.1,Win32,142.8571429,,,,,,,1,,5,2.16,3.84,,0,74,74,74,1,75,Sam,Acc,Participant_Images/5f32e865bd94490a64d9c9f5/5f32e865bd94490a64d9c9f5_Images/5f32e865bd94490a64d9c9f5_Image_13.jpeg,did not like,2.642157193,,,,,,,,,,,,,,,,,,,space,0.9657,,,
,,5f32e865bd94490a64d9c9f5,6685aa9113c938e83b4f1ea0,6707f2fa13d0d785038a7ac3,2024-10-10_10h30.29.161,WTP_SM_Choice,2022.2.1,Win32,142.8571429,,,space,1.7607,space,0.925,NAN,,NAN,2.16,3.84,,0,75,75,75,1,76,Alex,Acc,Participant_Images/5f32e865bd94490a64d9c9f5/5f32e865bd94490a64d9c9f5_Images/5f32e865bd94490a64d9c9f5_Image_23.jpeg,liked,4.456234322,,,,,,,,,,,,,,,,,,,,,,,
,,5f32e865bd94490a64d9c9f5,6685aa9113c938e83b4f1ea0,6707f2fa13d0d785038a7ac3,2024-10-10_10h30.29.161,WTP_SM_Choice,2022.2.1,Win32,142.8571429,,,,,space,0.6319,NAN,,NAN,2.16,3.84,,0,76,76,76,1,77,Alex,Acc,Participant_Images/5f32e865bd94490a64d9c9f5/5f32e865bd94490a64d9c9f5_Images/5f32e865bd94490a64d9c9f5_Image_21.jpeg,liked,4.438512181,,,,,,,,,,,,,,,,,,,,,,,
,,5f32e865bd94490a64d9c9f5,6685aa9113c938e83b4f1ea0,6707f2fa13d0d785038a7ac3,2024-10-10_10h30.29.161,WTP_SM_Choice,2022.2.1,Win32,142.8571429,,,,,space,0.7063,NAN,,NAN,2.16,3.84,,0,77,77,77,1,78,Alex,Acc,Participant_Images/5f32e865bd94490a64d9c9f5/5f32e865bd94490a64d9c9f5_Images/5f32e865bd94490a64d9c9f5_Image_7.jpeg,liked,2.682944783,,,,,,,,,,,,,,,,,,,,,,,
,,5f32e865bd94490a64d9c9f5,6685aa9113c938e83b4f1ea0,6707f2fa13d0d785038a7ac3,2024-10-10_10h30.29.161,WTP_SM_Choice,2022.2.1,Win32,142.8571429,,,,,space,0.8686,NAN,,NAN,2.16,3.84,,0,78,78,78,1,79,Alex,Acc,Participant_Images/5f32e865bd94490a64d9c9f5/5f32e865bd94490a64d9c9f5_Images/5f32e865bd94490a64d9c9f5_Image_20.jpeg,did not like,4.51984296,,,,,,,,,,,,,,,,,,,,,,,
,,5f32e865bd94490a64d9c9f5,6685aa9113c938e83b4f1ea0,6707f2fa13d0d785038a7ac3,2024-10-10_10h30.29.161,WTP_SM_Choice,2022.2.1,Win32,142.8571429,,,,,,,,,,,,,,,,,,76,,,,,,space,1.0298,space,1.394,0.01,1,2.2537,0,0,0,0,1,Watch tv,Camp with friends,0.01,0.01,1.1,1,,,,,
,,5f32e865bd94490a64d9c9f5,6685aa9113c938e83b4f1ea0,6707f2fa13d0d785038a7ac3,2024-10-10_10h30.29.161,WTP_SM_Choice,2022.2.1,Win32,142.8571429,,,,,,,,,,,,,,,,,,77,,,,,,,,,,0.01,2,1.4195,0,1,1,1,1,eat food with friends,Listen to music,0.02,0.01,8.8,0,,,,,
,,5f32e865bd94490a64d9c9f5,6685aa9113c938e83b4f1ea0,6707f2fa13d0d785038a7ac3,2024-10-10_10h30.29.161,WTP_SM_Choice,2022.2.1,Win32,142.8571429,,,,,,,,,,,,,,,,,,78,,,,,,,,,,0.03,1,1.7538,0,2,2,2,1,Camp,Playing Cards with friends,0.03,0.01,1.1,1,,,,,
,,5f32e865bd94490a64d9c9f5,6685aa9113c938e83b4f1ea0,6707f2fa13d0d785038a7ac3,2024-10-10_10h30.29.161,WTP_SM_Choice,2022.2.1,Win32,142.8571429,,,,,,,,,,,,,,,,,,79,,,,,,,,,,0.04,1,1.6734,0,3,3,3,1,Eat good food,eat food with friends,0.04,0.01,1.1,1,,,,,
,,5f32e865bd94490a64d9c9f5,6685aa9113c938e83b4f1ea0,6707f2fa13d0d785038a7ac3,2024-10-10_10h30.29.161,WTP_SM_Choice,2022.2.1,Win32,142.8571429,,,,,,,,,,,,,,,,,,80,,,,,,,,,,0.05,1,1.8037,0,4,4,4,1,Swim,Camp with friends,0.05,0.01,4.4,1,,,,,
,,5f32e865bd94490a64d9c9f5,6685aa9113c938e83b4f1ea0,6707f2fa13d0d785038a7ac3,2024-10-10_10h30.29.161,WTP_SM_Choice,2022.2.1,Win32,142.8571429,,,,,,,NAN,,NAN,2.3,3.7,,0,79,79,79,1,80,Alex,Acc,Participant_Images/5f32e865bd94490a64d9c9f5/5f32e865bd94490a64d9c9f5_Images/5f32e865bd94490a64d9c9f5_Image_10.jpeg,liked,3.195382774,,,,,,,,,,,,,,,,,,,,,,,
,,5f32e865bd94490a64d9c9f5,6685aa9113c938e83b4f1ea0,6707f2fa13d0d785038a7ac3,2024-10-10_10h30.29.161,WTP_SM_Choice,2022.2.1,Win32,142.8571429,,,,,space,0.8888,NAN,,NAN,2.3,3.7,,0,80,80,80,1,81,Alex,Acc,Participant_Images/5f32e865bd94490a64d9c9f5/5f32e865bd94490a64d9c9f5_Images/5f32e865bd94490a64d9c9f5_Image_17.jpeg,liked,1.779333479,,,,,,,,,,,,,,,,,,,,,,,
,,5f32e865bd94490a64d9c9f5,6685aa9113c938e83b4f1ea0,6707f2fa13d0d785038a7ac3,2024-10-10_10h30.29.161,WTP_SM_Choice,2022.2.1,Win32,142.8571429,,,,,space,0.9799,NAN,,NAN,2.3,3.7,,0,81,81,81,1,82,Alex,Acc,Participant_Images/5f32e865bd94490a64d9c9f5/5f32e865bd94490a64d9c9f5_Images/5f32e865bd94490a64d9c9f5_Image_3.jpeg,did not like,4.312468682,,,,,,,,,,,,,,,,,,,,,,,
,,5f32e865bd94490a64d9c9f5,6685aa9113c938e83b4f1ea0,6707f2fa13d0d785038a7ac3,2024-10-10_10h30.29.161,WTP_SM_Choice,2022.2.1,Win32,142.8571429,,,,,space,0.8905,NAN,,NAN,2.3,3.7,,0,82,82,82,1,83,Alex,Acc,Participant_Images/5f32e865bd94490a64d9c9f5/5f32e865bd94490a64d9c9f5_Images/5f32e865bd94490a64d9c9f5_Image_25.jpeg,liked,4.940433059,,,,,,,,,,,,,,,,,,,,,,,
,,5f32e865bd94490a64d9c9f5,6685aa9113c938e83b4f1ea0,6707f2fa13d0d785038a7ac3,2024-10-10_10h30.29.161,WTP_SM_Choice,2022.2.1,Win32,142.8571429,,,,,space,0.7341,NAN,,NAN,2.3,3.7,,0,83,83,83,1,84,Alex,Acc,Participant_Images/5f32e865bd94490a64d9c9f5/5f32e865bd94490a64d9c9f5_Images/5f32e865bd94490a64d9c9f5_Image_2.jpeg,liked,2.7105123,,,,,,,,,,,,,,,,,,,,,,,
,,5f32e865bd94490a64d9c9f5,6685aa9113c938e83b4f1ea0,6707f2fa13d0d785038a7ac3,2024-10-10_10h30.29.161,WTP_SM_Choice,2022.2.1,Win32,142.8571429,,,,,,,,,,,,,,,,,,81,,,,,,space,0.9141,space,0.8245,0.01,1,2.0009,0,0,0,0,1,Run,Playing music with friends,0.01,0.02,3.3,1,,,,,
,,5f32e865bd94490a64d9c9f5,6685aa9113c938e83b4f1ea0,6707f2fa13d0d785038a7ac3,2024-10-10_10h30.29.161,WTP_SM_Choice,2022.2.1,Win32,142.8571429,,,,,,,,,,,,,,,,,,82,,,,,,,,,,0.02,2,1.3517,0,1,1,1,1,Play video games with friends,Run,0.02,0.02,4.4,0,,,,,
,,5f32e865bd94490a64d9c9f5,6685aa9113c938e83b4f1ea0,6707f2fa13d0d785038a7ac3,2024-10-10_10h30.29.161,WTP_SM_Choice,2022.2.1,Win32,142.8571429,,,,,,,,,,,,,,,,,,83,,,,,,,,,,0.03,1,1.8106,0,2,2,2,1,Play basketball,Playing music with friends,0.03,0.02,1.1,1,,,,,
,,5f32e865bd94490a64d9c9f5,6685aa9113c938e83b4f1ea0,6707f2fa13d0d785038a7ac3,2024-10-10_10h30.29.161,WTP_SM_Choice,2022.2.1,Win32,142.8571429,,,,,,,,,,,,,,,,,,84,,,,,,,,,,0.02,2,1.6667,0,3,3,3,1,Go to the park with friends,Listen to music,0.04,0.02,3.3,0,,,,,
,,5f32e865bd94490a64d9c9f5,6685aa9113c938e83b4f1ea0,6707f2fa13d0d785038a7ac3,2024-10-10_10h30.29.161,WTP_SM_Choice,2022.2.1,Win32,142.8571429,,,,,,,,,,,,,,,,,,85,,,,,,,,,,0.02,2,2.2563,0,4,4,4,1,Run,Playing Cards with friends,0.05,0.02,3.3,1,,,,,
,,5f32e865bd94490a64d9c9f5,6685aa9113c938e83b4f1ea0,6707f2fa13d0d785038a7ac3,2024-10-10_10h30.29.161,WTP_SM_Choice,2022.2.1,Win32,142.8571429,,,,,,,NAN,,NAN,2.4,3.6,,0,84,84,84,1,85,Alex,Acc,Participant_Images/5f32e865bd94490a64d9c9f5/5f32e865bd94490a64d9c9f5_Images/5f32e865bd94490a64d9c9f5_Image_4.jpeg,did not like,3.602308302,,,,,,,,,,,,,,,,,,,,,,,
,,5f32e865bd94490a64d9c9f5,6685aa9113c938e83b4f1ea0,6707f2fa13d0d785038a7ac3,2024-10-10_10h30.29.161,WTP_SM_Choice,2022.2.1,Win32,142.8571429,,,,,space,0.875,NAN,,NAN,2.4,3.6,,0,85,85,85,1,86,Alex,Acc,Participant_Images/5f32e865bd94490a64d9c9f5/5f32e865bd94490a64d9c9f5_Images/5f32e865bd94490a64d9c9f5_Image_22.jpeg,did not like,4.106391878,,,,,,,,,,,,,,,,,,,,,,,
,,5f32e865bd94490a64d9c9f5,6685aa9113c938e83b4f1ea0,6707f2fa13d0d785038a7ac3,2024-10-10_10h30.29.161,WTP_SM_Choice,2022.2.1,Win32,142.8571429,,,,,space,0.9582,NAN,,NAN,2.4,3.6,,0,86,86,86,1,87,Alex,Acc,Participant_Images/5f32e865bd94490a64d9c9f5/5f32e865bd94490a64d9c9f5_Images/5f32e865bd94490a64d9c9f5_Image_8.jpeg,liked,3.799433026,,,,,,,,,,,,,,,,,,,,,,,
,,5f32e865bd94490a64d9c9f5,6685aa9113c938e83b4f1ea0,6707f2fa13d0d785038a7ac3,2024-10-10_10h30.29.161,WTP_SM_Choice,2022.2.1,Win32,142.8571429,,,,,space,0.7063,NAN,,NAN,2.4,3.6,,0,87,87,87,1,88,Alex,Acc,Participant_Images/5f32e865bd94490a64d9c9f5/5f32e865bd94490a64d9c9f5_Images/5f32e865bd94490a64d9c9f5_Image_15.jpeg,liked,5.246980764,,,,,,,,,,,,,,,,,,,,,,,
,,5f32e865bd94490a64d9c9f5,6685aa9113c938e83b4f1ea0,6707f2fa13d0d785038a7ac3,2024-10-10_10h30.29.161,WTP_SM_Choice,2022.2.1,Win32,142.8571429,,,,,space,0.8489,NAN,,NAN,2.4,3.6,,0,88,88,88,1,89,Alex,Acc,Participant_Images/5f32e865bd94490a64d9c9f5/5f32e865bd94490a64d9c9f5_Images/5f32e865bd94490a64d9c9f5_Image_16.jpeg,liked,3.30081769,,,,,,,,,,,,,,,,,,,,,,,
,,5f32e865bd94490a64d9c9f5,6685aa9113c938e83b4f1ea0,6707f2fa13d0d785038a7ac3,2024-10-10_10h30.29.161,WTP_SM_Choice,2022.2.1,Win32,142.8571429,,,,,,,,,,,,,,,,,,86,,,,,,space,1.1111,space,0.4073,0.01,1,1.9461,0,0,0,0,1,Playing Cards with friends,Swim,0.01,0.03,1.1,0,,,,,
,,5f32e865bd94490a64d9c9f5,6685aa9113c938e83b4f1ea0,6707f2fa13d0d785038a7ac3,2024-10-10_10h30.29.161,WTP_SM_Choice,2022.2.1,Win32,142.8571429,,,,,,,,,,,,,,,,,,87,,,,,,,,,,0.03,2,1.362,0,1,1,1,1,Play basektball with friends,Run,0.02,0.03,4.4,0,,,,,
,,5f32e865bd94490a64d9c9f5,6685aa9113c938e83b4f1ea0,6707f2fa13d0d785038a7ac3,2024-10-10_10h30.29.161,WTP_SM_Choice,2022.2.1,Win32,142.8571429,,,,,,,,,,,,,,,,,,88,,,,,,,,,,0.03,1,1.6844,0,2,2,2,1,Camp with friends,Play guitar,0.03,0.03,1.1,0,,,,,
,,5f32e865bd94490a64d9c9f5,6685aa9113c938e83b4f1ea0,6707f2fa13d0d785038a7ac3,2024-10-10_10h30.29.161,WTP_SM_Choice,2022.2.1,Win32,142.8571429,,,,,,,,,,,,,,,,,,89,,,,,,,,,,0.03,2,1.7684,0,3,3,3,1,Eat good food,Play basektball with friends,0.04,0.03,3.3,1,,,,,
,,5f32e865bd94490a64d9c9f5,6685aa9113c938e83b4f1ea0,6707f2fa13d0d785038a7ac3,2024-10-10_10h30.29.161,WTP_SM_Choice,2022.2.1,Win32,142.8571429,,,,,,,,,,,,,,,,,,90,,,,,,,,,,0.03,2,1.4514,0,4,4,4,1,Swim with friends,Swim,0.05,0.03,8.8,0,,,,,
,,5f32e865bd94490a64d9c9f5,6685aa9113c938e83b4f1ea0,6707f2fa13d0d785038a7ac3,2024-10-10_10h30.29.161,WTP_SM_Choice,2022.2.1,Win32,142.8571429,,,,,,,NAN,,NAN,2.53,3.47,,0,89,89,89,1,90,Alex,Acc,Participant_Images/5f32e865bd94490a64d9c9f5/5f32e865bd94490a64d9c9f5_Images/5f32e865bd94490a64d9c9f5_Image_18.jpeg,did not like,1.661473164,,,,,,,,,,,,,,,,,,,,,,,
,,5f32e865bd94490a64d9c9f5,6685aa9113c938e83b4f1ea0,6707f2fa13d0d785038a7ac3,2024-10-10_10h30.29.161,WTP_SM_Choice,2022.2.1,Win32,142.8571429,,,,,space,1.1391,NAN,,NAN,2.53,3.47,,0,90,90,90,1,91,Alex,Acc,Participant_Images/5f32e865bd94490a64d9c9f5/5f32e865bd94490a64d9c9f5_Images/5f32e865bd94490a64d9c9f5_Image_12.jpeg,liked,3.613205605,,,,,,,,,,,,,,,,,,,,,,,
,,5f32e865bd94490a64d9c9f5,6685aa9113c938e83b4f1ea0,6707f2fa13d0d785038a7ac3,2024-10-10_10h30.29.161,WTP_SM_Choice,2022.2.1,Win32,142.8571429,,,,,space,0.8001,NAN,,NAN,2.53,3.47,,0,91,91,91,1,92,Alex,Acc,Participant_Images/5f32e865bd94490a64d9c9f5/5f32e865bd94490a64d9c9f5_Images/5f32e865bd94490a64d9c9f5_Image_24.jpeg,liked,4.988446431,,,,,,,,,,,,,,,,,,,,,,,
,,5f32e865bd94490a64d9c9f5,6685aa9113c938e83b4f1ea0,6707f2fa13d0d785038a7ac3,2024-10-10_10h30.29.161,WTP_SM_Choice,2022.2.1,Win32,142.8571429,,,,,space,0.8314,NAN,,NAN,2.53,3.47,,0,92,92,92,1,93,Alex,Acc,Participant_Images/5f32e865bd94490a64d9c9f5/5f32e865bd94490a64d9c9f5_Images/5f32e865bd94490a64d9c9f5_Image_11.jpeg,did not like,3.470791822,,,,,,,,,,,,,,,,,,,,,,,
,,5f32e865bd94490a64d9c9f5,6685aa9113c938e83b4f1ea0,6707f2fa13d0d785038a7ac3,2024-10-10_10h30.29.161,WTP_SM_Choice,2022.2.1,Win32,142.8571429,,,,,space,1.0928,NAN,,NAN,2.53,3.47,,0,93,93,93,1,94,Alex,Acc,Participant_Images/5f32e865bd94490a64d9c9f5/5f32e865bd94490a64d9c9f5_Images/5f32e865bd94490a64d9c9f5_Image_9.jpeg,liked,3.820572462,,,,,,,,,,,,,,,,,,,,,,,
,,5f32e865bd94490a64d9c9f5,6685aa9113c938e83b4f1ea0,6707f2fa13d0d785038a7ac3,2024-10-10_10h30.29.161,WTP_SM_Choice,2022.2.1,Win32,142.8571429,,,,,,,,,,,,,,,,,,91,,,,,,space,1.0068,space,0.4078,0.04,2,1.2661,0,0,0,0,1,eat food with friends,Swim,0.01,0.04,3.3,0,,,,,
,,5f32e865bd94490a64d9c9f5,6685aa9113c938e83b4f1ea0,6707f2fa13d0d785038a7ac3,2024-10-10_10h30.29.161,WTP_SM_Choice,2022.2.1,Win32,142.8571429,,,,,,,,,,,,,,,,,,92,,,,,,,,,,0.04,2,1.3724,0,1,1,1,1,Go to the park with friends,Camp,0.02,0.04,8.8,0,,,,,
,,5f32e865bd94490a64d9c9f5,6685aa9113c938e83b4f1ea0,6707f2fa13d0d785038a7ac3,2024-10-10_10h30.29.161,WTP_SM_Choice,2022.2.1,Win32,142.8571429,,,,,,,,,,,,,,,,,,93,,,,,,,,,,0.04,2,1.4854,0,2,2,2,1,Swim with friends,Run,0.03,0.04,1.1,0,,,,,
,,5f32e865bd94490a64d9c9f5,6685aa9113c938e83b4f1ea0,6707f2fa13d0d785038a7ac3,2024-10-10_10h30.29.161,WTP_SM_Choice,2022.2.1,Win32,142.8571429,,,,,,,,,,,,,,,,,,94,,,,,,,,,,0.04,2,1.9579,0,3,3,3,1,Eat good food,Playing Cards with friends,0.04,0.04,4.4,1,,,,,
,,5f32e865bd94490a64d9c9f5,6685aa9113c938e83b4f1ea0,6707f2fa13d0d785038a7ac3,2024-10-10_10h30.29.161,WTP_SM_Choice,2022.2.1,Win32,142.8571429,,,,,,,,,,,,,,,,,,95,,,,,,,,,,0.05,1,1.5088,0,4,4,4,1,Go to the park with friends,Video games,0.05,0.04,4.4,0,,,,,
,,5f32e865bd94490a64d9c9f5,6685aa9113c938e83b4f1ea0,6707f2fa13d0d785038a7ac3,2024-10-10_10h30.29.161,WTP_SM_Choice,2022.2.1,Win32,142.8571429,,,,,,,NAN,,NAN,2.74,3.26,,0,94,94,94,1,95,Alex,Acc,Participant_Images/5f32e865bd94490a64d9c9f5/5f32e865bd94490a64d9c9f5_Images/5f32e865bd94490a64d9c9f5_Image_6.jpeg,liked,2.455989137,,,,,,,,,,,,,,,,,,,,,,,
,,5f32e865bd94490a64d9c9f5,6685aa9113c938e83b4f1ea0,6707f2fa13d0d785038a7ac3,2024-10-10_10h30.29.161,WTP_SM_Choice,2022.2.1,Win32,142.8571429,,,,,space,0.8195,NAN,,NAN,2.74,3.26,,0,95,95,95,1,96,Alex,Acc,Participant_Images/5f32e865bd94490a64d9c9f5/5f32e865bd94490a64d9c9f5_Images/5f32e865bd94490a64d9c9f5_Image_19.jpeg,liked,3.79605092,,,,,,,,,,,,,,,,,,,,,,,
,,5f32e865bd94490a64d9c9f5,6685aa9113c938e83b4f1ea0,6707f2fa13d0d785038a7ac3,2024-10-10_10h30.29.161,WTP_SM_Choice,2022.2.1,Win32,142.8571429,,,,,space,1.2746,NAN,,NAN,2.74,3.26,,0,96,96,96,1,97,Alex,Acc,Participant_Images/5f32e865bd94490a64d9c9f5/5f32e865bd94490a64d9c9f5_Images/5f32e865bd94490a64d9c9f5_Image_1.jpeg,did not like,3.562416326,,,,,,,,,,,,,,,,,,,,,,,
,,5f32e865bd94490a64d9c9f5,6685aa9113c938e83b4f1ea0,6707f2fa13d0d785038a7ac3,2024-10-10_10h30.29.161,WTP_SM_Choice,2022.2.1,Win32,142.8571429,,,,,space,0.7826,NAN,,NAN,2.74,3.26,,0,97,97,97,1,98,Alex,Acc,Participant_Images/5f32e865bd94490a64d9c9f5/5f32e865bd94490a64d9c9f5_Images/5f32e865bd94490a64d9c9f5_Image_13.jpeg,liked,2.843822497,,,,,,,,,,,,,,,,,,,,,,,
,,5f32e865bd94490a64d9c9f5,6685aa9113c938e83b4f1ea0,6707f2fa13d0d785038a7ac3,2024-10-10_10h30.29.161,WTP_SM_Choice,2022.2.1,Win32,142.8571429,,,,,space,0.6648,NAN,,NAN,2.74,3.26,,0,98,98,98,1,99,Alex,Acc,Participant_Images/5f32e865bd94490a64d9c9f5/5f32e865bd94490a64d9c9f5_Images/5f32e865bd94490a64d9c9f5_Image_5.jpeg,liked,3.546495948,,,,,,,,,,,,,,,,,,,,,,,
,,5f32e865bd94490a64d9c9f5,6685aa9113c938e83b4f1ea0,6707f2fa13d0d785038a7ac3,2024-10-10_10h30.29.161,WTP_SM_Choice,2022.2.1,Win32,142.8571429,,,,,,,,,,,,,,,,,,96,,,,,,space,0.9316,space,0.4112,0.01,1,2.1137,0,0,0,0,1,Camp,Camp with friends,0.01,0.05,3.3,1,,,,,
,,5f32e865bd94490a64d9c9f5,6685aa9113c938e83b4f1ea0,6707f2fa13d0d785038a7ac3,2024-10-10_10h30.29.161,WTP_SM_Choice,2022.2.1,Win32,142.8571429,,,,,,,,,,,,,,,,,,97,,,,,,,,,,0.02,1,2.1075,0,1,1,1,1,Watch movies,Play basektball with friends,0.02,0.05,1.1,1,,,,,
,,5f32e865bd94490a64d9c9f5,6685aa9113c938e83b4f1ea0,6707f2fa13d0d785038a7ac3,2024-10-10_10h30.29.161,WTP_SM_Choice,2022.2.1,Win32,142.8571429,,,,,,,,,,,,,,,,,,98,,,,,,,,,,0.03,1,1.5554,0,2,2,2,1,Swim,Play video games with friends,0.03,0.05,1.1,1,,,,,
,,5f32e865bd94490a64d9c9f5,6685aa9113c938e83b4f1ea0,6707f2fa13d0d785038a7ac3,2024-10-10_10h30.29.161,WTP_SM_Choice,2022.2.1,Win32,142.8571429,,,,,,,,,,,,,,,,,,99,,,,,,,,,,0.05,2,2.3088,0,3,3,3,1,Run with friends,Play basketball,0.04,0.05,3.3,0,,,,,
,,5f32e865bd94490a64d9c9f5,6685aa9113c938e83b4f1ea0,6707f2fa13d0d785038a7ac3,2024-10-10_10h30.29.161,WTP_SM_Choice,2022.2.1,Win32,142.8571429,,,,,,,,,,,,,,,,,,100,,,,,,,,,,0.05,1,2.3428,0,4,4,4,1,Watch movies with friends,Video games,0.05,0.05,4.4,0,,,,,
,,5f32e865bd94490a64d9c9f5,6685aa9113c938e83b4f1ea0,6707f2fa13d0d785038a7ac3,2024-10-10_10h30.29.161,WTP_SM_Choice,2022.2.1,Win32,142.8571429,,,,,,,3,,7,2.9,3.1,,0,99,99,99,1,100,Alex,Acc,Participant_Images/5f32e865bd94490a64d9c9f5/5f32e865bd94490a64d9c9f5_Images/5f32e865bd94490a64d9c9f5_Image_14.jpeg,liked,1.672012706,,,,,,,,,,,,,,,,,,,space,1.0015,,,
,,5f32e865bd94490a64d9c9f5,6685aa9113c938e83b4f1ea0,6707f2fa13d0d785038a7ac3,2024-10-10_10h30.29.161,WTP_SM_Choice,2022.2.1,Win32,142.8571429,,,,,,,,,,,,,,,,,,,,,,,,,,,,,,,,,,,,,,,,,,,,,space,2.3065
