endwelcomescreen_keys.keys,endwelcomescreen_keys.rt,participant,STUDY_ID,SESSION_ID,date,expName,psychopyVersion,OS,frameRate,endinstructionscreen_keys.keys,endinstructionscreen_keys.rt,endpartnermatch_keys.keys,endpartnermatch_keys.rt,sharenextphoto_key.keys,sharenextphoto_key.rt,salience_rating,key_resp.keys,stress_level,subtract_bonus,TOTAL_TASK_BONUS,stresslevel_keypress.keys,entiretaskloop.thisRepN,entiretaskloop.thisTrialN,entiretaskloop.thisN,entiretaskloop.thisIndex,entiretaskloop.ran,TrialNumber,Partner,Condition,Photos,Feedback,FeedbackWait,WTP_ins_keys1.keys,WTP_ins_keys1.rt,WTP_ins_keys2.keys,WTP_ins_keys2.rt,decision_price,responses.keys,responses.rt,WTPTaskLoop.thisRepN,WTPTaskLoop.thisTrialN,WTPTaskLoop.thisN,WTPTaskLoop.thisIndex,WTPTaskLoop.ran,right,left,leftmoney,rightmoney,WTP_ITI,social_left,Resume_keys.keys,Resume_keys.rt,end_screen_keys.keys,end_screen_keys.rt
space,4.6951,5f4a835e9e84256238129995,6685aa9113c938e83b4f1ea0,6704174d055d119e5ee7602e,2024-10-07_13h35.33.588,WTP_SM_Choice,2022.2.1,Win32,59.88023952,,,,,,,,,,,,,,,,,,,,,,,,,,,,,,,,,,,,,,,,,,,,,
,,5f4a835e9e84256238129995,6685aa9113c938e83b4f1ea0,6704174d055d119e5ee7602e,2024-10-07_13h35.33.588,WTP_SM_Choice,2022.2.1,Win32,59.88023952,space,9.3411,,,,,,,,,,,,,,,,,,,,,,,,,,,,,,,,,,,,,,,,,,,
,,5f4a835e9e84256238129995,6685aa9113c938e83b4f1ea0,6704174d055d119e5ee7602e,2024-10-07_13h35.33.588,WTP_SM_Choice,2022.2.1,Win32,59.88023952,,,space,2.0468,space,1.456,NAN,,NAN,0,6,,0,0,0,0,1,1,Riley,Rej,Participant_Images/5f4a835e9e84256238129995/5f4a835e9e84256238129995_Images/5f4a835e9e84256238129995_Image_8.jpeg,did not like,3.613205605,,,,,,,,,,,,,,,,,,,,,,
,,5f4a835e9e84256238129995,6685aa9113c938e83b4f1ea0,6704174d055d119e5ee7602e,2024-10-07_13h35.33.588,WTP_SM_Choice,2022.2.1,Win32,59.88023952,,,,,space,1.8189,NAN,,NAN,0,6,,0,1,1,1,1,2,Riley,Rej,Participant_Images/5f4a835e9e84256238129995/5f4a835e9e84256238129995_Images/5f4a835e9e84256238129995_Image_22.jpeg,did not like,4.988446431,,,,,,,,,,,,,,,,,,,,,,
,,5f4a835e9e84256238129995,6685aa9113c938e83b4f1ea0,6704174d055d119e5ee7602e,2024-10-07_13h35.33.588,WTP_SM_Choice,2022.2.1,Win32,59.88023952,,,,,space,1.3227,NAN,,NAN,0,6,,0,2,2,2,1,3,Riley,Rej,Participant_Images/5f4a835e9e84256238129995/5f4a835e9e84256238129995_Images/5f4a835e9e84256238129995_Image_7.jpeg,did not like,3.470791822,,,,,,,,,,,,,,,,,,,,,,
,,5f4a835e9e84256238129995,6685aa9113c938e83b4f1ea0,6704174d055d119e5ee7602e,2024-10-07_13h35.33.588,WTP_SM_Choice,2022.2.1,Win32,59.88023952,,,,,space,4.2827,NAN,,NAN,0,6,,0,3,3,3,1,4,Riley,Rej,Participant_Images/5f4a835e9e84256238129995/5f4a835e9e84256238129995_Images/5f4a835e9e84256238129995_Image_6.jpeg,did not like,3.820572462,,,,,,,,,,,,,,,,,,,,,,
,,5f4a835e9e84256238129995,6685aa9113c938e83b4f1ea0,6704174d055d119e5ee7602e,2024-10-07_13h35.33.588,WTP_SM_Choice,2022.2.1,Win32,59.88023952,,,,,,,,,,,,,,,,,,1,,,,,,space,9.7624,space,5.997,0.01,2,2.937,0,0,0,0,1,Play vinyl on my record player,Go for a walk,0.01,0.01,4.4,1,,,,
,,5f4a835e9e84256238129995,6685aa9113c938e83b4f1ea0,6704174d055d119e5ee7602e,2024-10-07_13h35.33.588,WTP_SM_Choice,2022.2.1,Win32,59.88023952,,,,,,,,,,,,,,,,,,2,,,,,,,,,,0.02,1,1.5374,0,1,1,1,1,go in the hot tub,Do yoga in my room,0.02,0.01,8.8,0,,,,
,,5f4a835e9e84256238129995,6685aa9113c938e83b4f1ea0,6704174d055d119e5ee7602e,2024-10-07_13h35.33.588,WTP_SM_Choice,2022.2.1,Win32,59.88023952,,,,,,,,,,,,,,,,,,3,,,,,,,,,,0.03,1,2.0247,0,2,2,2,1,Shop online for clothes,Go for a walk,0.03,0.01,3.3,1,,,,
,,5f4a835e9e84256238129995,6685aa9113c938e83b4f1ea0,6704174d055d119e5ee7602e,2024-10-07_13h35.33.588,WTP_SM_Choice,2022.2.1,Win32,59.88023952,,,,,,,,,,,,,,,,,,4,,,,,,,,,,0.04,1,1.2044,0,3,3,3,1,Play vinyl on my record player,Go out to dinner,0.04,0.01,1.1,1,,,,
,,5f4a835e9e84256238129995,6685aa9113c938e83b4f1ea0,6704174d055d119e5ee7602e,2024-10-07_13h35.33.588,WTP_SM_Choice,2022.2.1,Win32,59.88023952,,,,,,,,,,,,,,,,,,5,,,,,,,,,,0.05,1,1.089,0,4,4,4,1,Read a book first thing in the morning,Go out to dinner,0.05,0.01,1.1,1,,,,
,,5f4a835e9e84256238129995,6685aa9113c938e83b4f1ea0,6704174d055d119e5ee7602e,2024-10-07_13h35.33.588,WTP_SM_Choice,2022.2.1,Win32,59.88023952,,,,,,,NAN,,NAN,0.15,5.85,,0,4,4,4,1,5,Riley,Rej,Participant_Images/5f4a835e9e84256238129995/5f4a835e9e84256238129995_Images/5f4a835e9e84256238129995_Image_21.jpeg,did not like,2.455989137,,,,,,,,,,,,,,,,,,,,,,
,,5f4a835e9e84256238129995,6685aa9113c938e83b4f1ea0,6704174d055d119e5ee7602e,2024-10-07_13h35.33.588,WTP_SM_Choice,2022.2.1,Win32,59.88023952,,,,,space,2.9541,NAN,,NAN,0.15,5.85,,0,5,5,5,1,6,Riley,Rej,Participant_Images/5f4a835e9e84256238129995/5f4a835e9e84256238129995_Images/5f4a835e9e84256238129995_Image_14.jpeg,liked,3.79605092,,,,,,,,,,,,,,,,,,,,,,
,,5f4a835e9e84256238129995,6685aa9113c938e83b4f1ea0,6704174d055d119e5ee7602e,2024-10-07_13h35.33.588,WTP_SM_Choice,2022.2.1,Win32,59.88023952,,,,,space,1.2973,NAN,,NAN,0.15,5.85,,0,6,6,6,1,7,Riley,Rej,Participant_Images/5f4a835e9e84256238129995/5f4a835e9e84256238129995_Images/5f4a835e9e84256238129995_Image_4.jpeg,liked,3.562416326,,,,,,,,,,,,,,,,,,,,,,
,,5f4a835e9e84256238129995,6685aa9113c938e83b4f1ea0,6704174d055d119e5ee7602e,2024-10-07_13h35.33.588,WTP_SM_Choice,2022.2.1,Win32,59.88023952,,,,,space,3.9112,NAN,,NAN,0.15,5.85,,0,7,7,7,1,8,Riley,Rej,Participant_Images/5f4a835e9e84256238129995/5f4a835e9e84256238129995_Images/5f4a835e9e84256238129995_Image_9.jpeg,did not like,2.843822497,,,,,,,,,,,,,,,,,,,,,,
,,5f4a835e9e84256238129995,6685aa9113c938e83b4f1ea0,6704174d055d119e5ee7602e,2024-10-07_13h35.33.588,WTP_SM_Choice,2022.2.1,Win32,59.88023952,,,,,space,3.2888,NAN,,NAN,0.15,5.85,,0,8,8,8,1,9,Riley,Rej,Participant_Images/5f4a835e9e84256238129995/5f4a835e9e84256238129995_Images/5f4a835e9e84256238129995_Image_3.jpeg,liked,3.546495948,,,,,,,,,,,,,,,,,,,,,,
,,5f4a835e9e84256238129995,6685aa9113c938e83b4f1ea0,6704174d055d119e5ee7602e,2024-10-07_13h35.33.588,WTP_SM_Choice,2022.2.1,Win32,59.88023952,,,,,,,,,,,,,,,,,,6,,,,,,space,7.168,space,1.2229,0.01,1,1.156,0,0,0,0,1,Go in the hot tub at night,Go for a walk,0.01,0.02,3.3,1,,,,
,,5f4a835e9e84256238129995,6685aa9113c938e83b4f1ea0,6704174d055d119e5ee7602e,2024-10-07_13h35.33.588,WTP_SM_Choice,2022.2.1,Win32,59.88023952,,,,,,,,,,,,,,,,,,7,,,,,,,,,,0.02,1,1.1183,0,1,1,1,1,go in the hot tub,Make a big breakfast,0.02,0.02,1.1,0,,,,
,,5f4a835e9e84256238129995,6685aa9113c938e83b4f1ea0,6704174d055d119e5ee7602e,2024-10-07_13h35.33.588,WTP_SM_Choice,2022.2.1,Win32,59.88023952,,,,,,,,,,,,,,,,,,8,,,,,,,,,,0.02,2,1.1758,0,2,2,2,1,Watch a movie at home,Go to the gym,0.03,0.02,1.1,0,,,,
,,5f4a835e9e84256238129995,6685aa9113c938e83b4f1ea0,6704174d055d119e5ee7602e,2024-10-07_13h35.33.588,WTP_SM_Choice,2022.2.1,Win32,59.88023952,,,,,,,,,,,,,,,,,,9,,,,,,,,,,0.02,2,0.9093,0,3,3,3,1,go in the hot tub,Make a fresh bowl of pasta,0.04,0.02,4.4,0,,,,
,,5f4a835e9e84256238129995,6685aa9113c938e83b4f1ea0,6704174d055d119e5ee7602e,2024-10-07_13h35.33.588,WTP_SM_Choice,2022.2.1,Win32,59.88023952,,,,,,,,,,,,,,,,,,10,,,,,,,,,,0.02,2,1.1298,0,4,4,4,1,Go for a hike,Do yoga in my room,0.05,0.02,1.1,0,,,,
,,5f4a835e9e84256238129995,6685aa9113c938e83b4f1ea0,6704174d055d119e5ee7602e,2024-10-07_13h35.33.588,WTP_SM_Choice,2022.2.1,Win32,59.88023952,,,,,,,NAN,,NAN,0.24,5.76,,0,9,9,9,1,10,Riley,Rej,Participant_Images/5f4a835e9e84256238129995/5f4a835e9e84256238129995_Images/5f4a835e9e84256238129995_Image_5.jpeg,liked,1.672012706,,,,,,,,,,,,,,,,,,,,,,
,,5f4a835e9e84256238129995,6685aa9113c938e83b4f1ea0,6704174d055d119e5ee7602e,2024-10-07_13h35.33.588,WTP_SM_Choice,2022.2.1,Win32,59.88023952,,,,,space,2.6091,NAN,,NAN,0.24,5.76,,0,10,10,10,1,11,Riley,Rej,Participant_Images/5f4a835e9e84256238129995/5f4a835e9e84256238129995_Images/5f4a835e9e84256238129995_Image_23.jpeg,did not like,4.942172136,,,,,,,,,,,,,,,,,,,,,,
,,5f4a835e9e84256238129995,6685aa9113c938e83b4f1ea0,6704174d055d119e5ee7602e,2024-10-07_13h35.33.588,WTP_SM_Choice,2022.2.1,Win32,59.88023952,,,,,space,2.5566,NAN,,NAN,0.24,5.76,,0,11,11,11,1,12,Riley,Rej,Participant_Images/5f4a835e9e84256238129995/5f4a835e9e84256238129995_Images/5f4a835e9e84256238129995_Image_10.jpeg,did not like,2.50187214,,,,,,,,,,,,,,,,,,,,,,
,,5f4a835e9e84256238129995,6685aa9113c938e83b4f1ea0,6704174d055d119e5ee7602e,2024-10-07_13h35.33.588,WTP_SM_Choice,2022.2.1,Win32,59.88023952,,,,,space,0.714,NAN,,NAN,0.24,5.76,,0,12,12,12,1,13,Riley,Rej,Participant_Images/5f4a835e9e84256238129995/5f4a835e9e84256238129995_Images/5f4a835e9e84256238129995_Image_19.jpeg,liked,2.071164779,,,,,,,,,,,,,,,,,,,,,,
,,5f4a835e9e84256238129995,6685aa9113c938e83b4f1ea0,6704174d055d119e5ee7602e,2024-10-07_13h35.33.588,WTP_SM_Choice,2022.2.1,Win32,59.88023952,,,,,space,1.8565,NAN,,NAN,0.24,5.76,,0,13,13,13,1,14,Riley,Rej,Participant_Images/5f4a835e9e84256238129995/5f4a835e9e84256238129995_Images/5f4a835e9e84256238129995_Image_1.jpeg,did not like,5.336503566,,,,,,,,,,,,,,,,,,,,,,
,,5f4a835e9e84256238129995,6685aa9113c938e83b4f1ea0,6704174d055d119e5ee7602e,2024-10-07_13h35.33.588,WTP_SM_Choice,2022.2.1,Win32,59.88023952,,,,,,,,,,,,,,,,,,11,,,,,,space,1.5774,space,0.7109,0.01,1,1.0947,0,0,0,0,1,Paint my own nails,Go to the gym,0.01,0.03,3.3,1,,,,
,,5f4a835e9e84256238129995,6685aa9113c938e83b4f1ea0,6704174d055d119e5ee7602e,2024-10-07_13h35.33.588,WTP_SM_Choice,2022.2.1,Win32,59.88023952,,,,,,,,,,,,,,,,,,12,,,,,,,,,,0.02,1,1.1561,0,1,1,1,1,Listen to a podcast,cook a big dinner,0.02,0.03,4.4,1,,,,
,,5f4a835e9e84256238129995,6685aa9113c938e83b4f1ea0,6704174d055d119e5ee7602e,2024-10-07_13h35.33.588,WTP_SM_Choice,2022.2.1,Win32,59.88023952,,,,,,,,,,,,,,,,,,13,,,,,,,,,,0.03,2,2.4534,0,2,2,2,1,Go out to dinner,Make a fresh bowl of pasta,0.03,0.03,1.1,0,,,,
,,5f4a835e9e84256238129995,6685aa9113c938e83b4f1ea0,6704174d055d119e5ee7602e,2024-10-07_13h35.33.588,WTP_SM_Choice,2022.2.1,Win32,59.88023952,,,,,,,,,,,,,,,,,,14,,,,,,,,,,0.03,2,0.9583,0,3,3,3,1,Go to the theatre,Shop online for clothes,0.04,0.03,3.3,0,,,,
,,5f4a835e9e84256238129995,6685aa9113c938e83b4f1ea0,6704174d055d119e5ee7602e,2024-10-07_13h35.33.588,WTP_SM_Choice,2022.2.1,Win32,59.88023952,,,,,,,,,,,,,,,,,,15,,,,,,,,,,0.03,2,0.9773,0,4,4,4,1,have a bbq,Go in the hot tub at night,0.05,0.03,4.4,0,,,,
,,5f4a835e9e84256238129995,6685aa9113c938e83b4f1ea0,6704174d055d119e5ee7602e,2024-10-07_13h35.33.588,WTP_SM_Choice,2022.2.1,Win32,59.88023952,,,,,,,NAN,,NAN,0.36,5.64,,0,14,14,14,1,15,Riley,Rej,Participant_Images/5f4a835e9e84256238129995/5f4a835e9e84256238129995_Images/5f4a835e9e84256238129995_Image_15.jpeg,liked,2.642157193,,,,,,,,,,,,,,,,,,,,,,
,,5f4a835e9e84256238129995,6685aa9113c938e83b4f1ea0,6704174d055d119e5ee7602e,2024-10-07_13h35.33.588,WTP_SM_Choice,2022.2.1,Win32,59.88023952,,,,,space,0.5848,NAN,,NAN,0.36,5.64,,0,15,15,15,1,16,Riley,Rej,Participant_Images/5f4a835e9e84256238129995/5f4a835e9e84256238129995_Images/5f4a835e9e84256238129995_Image_24.jpeg,liked,4.456234322,,,,,,,,,,,,,,,,,,,,,,
,,5f4a835e9e84256238129995,6685aa9113c938e83b4f1ea0,6704174d055d119e5ee7602e,2024-10-07_13h35.33.588,WTP_SM_Choice,2022.2.1,Win32,59.88023952,,,,,space,0.7007,NAN,,NAN,0.36,5.64,,0,16,16,16,1,17,Riley,Rej,Participant_Images/5f4a835e9e84256238129995/5f4a835e9e84256238129995_Images/5f4a835e9e84256238129995_Image_25.jpeg,did not like,4.438512181,,,,,,,,,,,,,,,,,,,,,,
,,5f4a835e9e84256238129995,6685aa9113c938e83b4f1ea0,6704174d055d119e5ee7602e,2024-10-07_13h35.33.588,WTP_SM_Choice,2022.2.1,Win32,59.88023952,,,,,space,0.5008,NAN,,NAN,0.36,5.64,,0,17,17,17,1,18,Riley,Rej,Participant_Images/5f4a835e9e84256238129995/5f4a835e9e84256238129995_Images/5f4a835e9e84256238129995_Image_13.jpeg,did not like,2.682944783,,,,,,,,,,,,,,,,,,,,,,
,,5f4a835e9e84256238129995,6685aa9113c938e83b4f1ea0,6704174d055d119e5ee7602e,2024-10-07_13h35.33.588,WTP_SM_Choice,2022.2.1,Win32,59.88023952,,,,,space,0.8768,NAN,,NAN,0.36,5.64,,0,18,18,18,1,19,Riley,Rej,Participant_Images/5f4a835e9e84256238129995/5f4a835e9e84256238129995_Images/5f4a835e9e84256238129995_Image_18.jpeg,did not like,4.51984296,,,,,,,,,,,,,,,,,,,,,,
,,5f4a835e9e84256238129995,6685aa9113c938e83b4f1ea0,6704174d055d119e5ee7602e,2024-10-07_13h35.33.588,WTP_SM_Choice,2022.2.1,Win32,59.88023952,,,,,,,,,,,,,,,,,,16,,,,,,space,7.7,space,1.0929,0.01,1,2.17,0,0,0,0,1,have a fire outside,Read a book first thing in the morning,0.01,0.04,1.1,0,,,,
,,5f4a835e9e84256238129995,6685aa9113c938e83b4f1ea0,6704174d055d119e5ee7602e,2024-10-07_13h35.33.588,WTP_SM_Choice,2022.2.1,Win32,59.88023952,,,,,,,,,,,,,,,,,,17,,,,,,,,,,0.02,1,1.4141,0,1,1,1,1,have a bbq,Read a book first thing in the morning,0.02,0.04,8.8,0,,,,
,,5f4a835e9e84256238129995,6685aa9113c938e83b4f1ea0,6704174d055d119e5ee7602e,2024-10-07_13h35.33.588,WTP_SM_Choice,2022.2.1,Win32,59.88023952,,,,,,,,,,,,,,,,,,18,,,,,,,,,,0.03,1,1.469,0,2,2,2,1,Go to the gym,go in the hot tub,0.03,0.04,3.3,1,,,,
,,5f4a835e9e84256238129995,6685aa9113c938e83b4f1ea0,6704174d055d119e5ee7602e,2024-10-07_13h35.33.588,WTP_SM_Choice,2022.2.1,Win32,59.88023952,,,,,,,,,,,,,,,,,,19,,,,,,,,,,0.04,2,4.4454,0,3,3,3,1,Go in the hot tub at night,Watch a movie at home,0.04,0.04,3.3,1,,,,
,,5f4a835e9e84256238129995,6685aa9113c938e83b4f1ea0,6704174d055d119e5ee7602e,2024-10-07_13h35.33.588,WTP_SM_Choice,2022.2.1,Win32,59.88023952,,,,,,,,,,,,,,,,,,20,,,,,,,,,,0.04,2,2.3953,0,4,4,4,1,Go in the hot tub at night,Go to the theatre,0.05,0.04,1.1,1,,,,
,,5f4a835e9e84256238129995,6685aa9113c938e83b4f1ea0,6704174d055d119e5ee7602e,2024-10-07_13h35.33.588,WTP_SM_Choice,2022.2.1,Win32,59.88023952,,,,,,,NAN,,NAN,0.5,5.5,,0,19,19,19,1,20,Riley,Rej,Participant_Images/5f4a835e9e84256238129995/5f4a835e9e84256238129995_Images/5f4a835e9e84256238129995_Image_16.jpeg,did not like,3.195382774,,,,,,,,,,,,,,,,,,,,,,
,,5f4a835e9e84256238129995,6685aa9113c938e83b4f1ea0,6704174d055d119e5ee7602e,2024-10-07_13h35.33.588,WTP_SM_Choice,2022.2.1,Win32,59.88023952,,,,,space,2.236,NAN,,NAN,0.5,5.5,,0,20,20,20,1,21,Riley,Rej,Participant_Images/5f4a835e9e84256238129995/5f4a835e9e84256238129995_Images/5f4a835e9e84256238129995_Image_17.jpeg,did not like,1.779333479,,,,,,,,,,,,,,,,,,,,,,
,,5f4a835e9e84256238129995,6685aa9113c938e83b4f1ea0,6704174d055d119e5ee7602e,2024-10-07_13h35.33.588,WTP_SM_Choice,2022.2.1,Win32,59.88023952,,,,,space,3.2922,NAN,,NAN,0.5,5.5,,0,21,21,21,1,22,Riley,Rej,Participant_Images/5f4a835e9e84256238129995/5f4a835e9e84256238129995_Images/5f4a835e9e84256238129995_Image_11.jpeg,did not like,4.312468682,,,,,,,,,,,,,,,,,,,,,,
,,5f4a835e9e84256238129995,6685aa9113c938e83b4f1ea0,6704174d055d119e5ee7602e,2024-10-07_13h35.33.588,WTP_SM_Choice,2022.2.1,Win32,59.88023952,,,,,space,0.5932,NAN,,NAN,0.5,5.5,,0,22,22,22,1,23,Riley,Rej,Participant_Images/5f4a835e9e84256238129995/5f4a835e9e84256238129995_Images/5f4a835e9e84256238129995_Image_2.jpeg,did not like,4.940433059,,,,,,,,,,,,,,,,,,,,,,
,,5f4a835e9e84256238129995,6685aa9113c938e83b4f1ea0,6704174d055d119e5ee7602e,2024-10-07_13h35.33.588,WTP_SM_Choice,2022.2.1,Win32,59.88023952,,,,,space,0.6925,NAN,,NAN,0.5,5.5,,0,23,23,23,1,24,Riley,Rej,Participant_Images/5f4a835e9e84256238129995/5f4a835e9e84256238129995_Images/5f4a835e9e84256238129995_Image_20.jpeg,did not like,2.7105123,,,,,,,,,,,,,,,,,,,,,,
,,5f4a835e9e84256238129995,6685aa9113c938e83b4f1ea0,6704174d055d119e5ee7602e,2024-10-07_13h35.33.588,WTP_SM_Choice,2022.2.1,Win32,59.88023952,,,,,,,,,,,,,,,,,,21,,,,,,space,1.9868,space,0.989,0.01,1,0.9686,0,0,0,0,1,Do yoga in my room,Go to the gym,0.01,0.05,8.8,1,,,,
,,5f4a835e9e84256238129995,6685aa9113c938e83b4f1ea0,6704174d055d119e5ee7602e,2024-10-07_13h35.33.588,WTP_SM_Choice,2022.2.1,Win32,59.88023952,,,,,,,,,,,,,,,,,,22,,,,,,,,,,0.02,1,1.7361,0,1,1,1,1,cook a big dinner,Play vinyl on my record player,0.02,0.05,4.4,0,,,,
,,5f4a835e9e84256238129995,6685aa9113c938e83b4f1ea0,6704174d055d119e5ee7602e,2024-10-07_13h35.33.588,WTP_SM_Choice,2022.2.1,Win32,59.88023952,,,,,,,,,,,,,,,,,,23,,,,,,,,,,0.03,1,1.6356,0,2,2,2,1,Make a fresh bowl of pasta,Go to the theatre,0.03,0.05,1.1,1,,,,
,,5f4a835e9e84256238129995,6685aa9113c938e83b4f1ea0,6704174d055d119e5ee7602e,2024-10-07_13h35.33.588,WTP_SM_Choice,2022.2.1,Win32,59.88023952,,,,,,,,,,,,,,,,,,24,,,,,,,,,,0.04,1,2.3854,0,3,3,3,1,Do yoga in my room,Go for a walk,0.04,0.05,4.4,1,,,,
,,5f4a835e9e84256238129995,6685aa9113c938e83b4f1ea0,6704174d055d119e5ee7602e,2024-10-07_13h35.33.588,WTP_SM_Choice,2022.2.1,Win32,59.88023952,,,,,,,,,,,,,,,,,,25,,,,,,,,,,0.05,1,1.3179,0,4,4,4,1,Play vinyl on my record player,go in the hot tub,0.05,0.05,3.3,1,,,,
,,5f4a835e9e84256238129995,6685aa9113c938e83b4f1ea0,6704174d055d119e5ee7602e,2024-10-07_13h35.33.588,WTP_SM_Choice,2022.2.1,Win32,59.88023952,,,,,,,1,,6,0.65,5.35,,0,24,24,24,1,25,Riley,Rej,Participant_Images/5f4a835e9e84256238129995/5f4a835e9e84256238129995_Images/5f4a835e9e84256238129995_Image_12.jpeg,did not like,3.602308302,,,,,,,,,,,,,,,,,,,space,2.1703,,
,,5f4a835e9e84256238129995,6685aa9113c938e83b4f1ea0,6704174d055d119e5ee7602e,2024-10-07_13h35.33.588,WTP_SM_Choice,2022.2.1,Win32,59.88023952,,,space,2.2927,space,0.5926,NAN,,NAN,0.65,5.35,,0,25,25,25,1,26,Sam,Rej,Participant_Images/5f4a835e9e84256238129995/5f4a835e9e84256238129995_Images/5f4a835e9e84256238129995_Image_12.jpeg,did not like,4.106391878,,,,,,,,,,,,,,,,,,,,,,
,,5f4a835e9e84256238129995,6685aa9113c938e83b4f1ea0,6704174d055d119e5ee7602e,2024-10-07_13h35.33.588,WTP_SM_Choice,2022.2.1,Win32,59.88023952,,,,,space,3.5718,NAN,,NAN,0.65,5.35,,0,26,26,26,1,27,Sam,Rej,Participant_Images/5f4a835e9e84256238129995/5f4a835e9e84256238129995_Images/5f4a835e9e84256238129995_Image_19.jpeg,liked,3.799433026,,,,,,,,,,,,,,,,,,,,,,
,,5f4a835e9e84256238129995,6685aa9113c938e83b4f1ea0,6704174d055d119e5ee7602e,2024-10-07_13h35.33.588,WTP_SM_Choice,2022.2.1,Win32,59.88023952,,,,,space,2.8323,NAN,,NAN,0.65,5.35,,0,27,27,27,1,28,Sam,Rej,Participant_Images/5f4a835e9e84256238129995/5f4a835e9e84256238129995_Images/5f4a835e9e84256238129995_Image_15.jpeg,liked,5.246980764,,,,,,,,,,,,,,,,,,,,,,
,,5f4a835e9e84256238129995,6685aa9113c938e83b4f1ea0,6704174d055d119e5ee7602e,2024-10-07_13h35.33.588,WTP_SM_Choice,2022.2.1,Win32,59.88023952,,,,,space,2.2863,NAN,,NAN,0.65,5.35,,0,28,28,28,1,29,Sam,Rej,Participant_Images/5f4a835e9e84256238129995/5f4a835e9e84256238129995_Images/5f4a835e9e84256238129995_Image_21.jpeg,did not like,3.30081769,,,,,,,,,,,,,,,,,,,,,,
,,5f4a835e9e84256238129995,6685aa9113c938e83b4f1ea0,6704174d055d119e5ee7602e,2024-10-07_13h35.33.588,WTP_SM_Choice,2022.2.1,Win32,59.88023952,,,,,,,,,,,,,,,,,,26,,,,,,space,1.2853,space,0.6404,0.01,1,2.1034,0,0,0,0,1,Watch a movie at home,Shop online for clothes,0.01,0.01,4.4,0,,,,
,,5f4a835e9e84256238129995,6685aa9113c938e83b4f1ea0,6704174d055d119e5ee7602e,2024-10-07_13h35.33.588,WTP_SM_Choice,2022.2.1,Win32,59.88023952,,,,,,,,,,,,,,,,,,27,,,,,,,,,,0.01,2,2.7479,0,1,1,1,1,Listen to a podcast,Go to the theatre,0.02,0.01,3.3,1,,,,
,,5f4a835e9e84256238129995,6685aa9113c938e83b4f1ea0,6704174d055d119e5ee7602e,2024-10-07_13h35.33.588,WTP_SM_Choice,2022.2.1,Win32,59.88023952,,,,,,,,,,,,,,,,,,28,,,,,,,,,,0.01,2,1.0854,0,2,2,2,1,Go to the gym,Shop online for clothes,0.03,0.01,3.3,0,,,,
,,5f4a835e9e84256238129995,6685aa9113c938e83b4f1ea0,6704174d055d119e5ee7602e,2024-10-07_13h35.33.588,WTP_SM_Choice,2022.2.1,Win32,59.88023952,,,,,,,,,,,,,,,,,,29,,,,,,,,,,0.01,2,1.3231,0,3,3,3,1,have a bbq,Play vinyl on my record player,0.04,0.01,4.4,0,,,,
,,5f4a835e9e84256238129995,6685aa9113c938e83b4f1ea0,6704174d055d119e5ee7602e,2024-10-07_13h35.33.588,WTP_SM_Choice,2022.2.1,Win32,59.88023952,,,,,,,,,,,,,,,,,,30,,,,,,,,,,0.01,2,1.2455,0,4,4,4,1,Go for a hike,Make a big breakfast,0.05,0.01,8.8,0,,,,
,,5f4a835e9e84256238129995,6685aa9113c938e83b4f1ea0,6704174d055d119e5ee7602e,2024-10-07_13h35.33.588,WTP_SM_Choice,2022.2.1,Win32,59.88023952,,,,,,,NAN,,NAN,0.7,5.3,,0,29,29,29,1,30,Sam,Rej,Participant_Images/5f4a835e9e84256238129995/5f4a835e9e84256238129995_Images/5f4a835e9e84256238129995_Image_18.jpeg,did not like,1.661473164,,,,,,,,,,,,,,,,,,,,,,
,,5f4a835e9e84256238129995,6685aa9113c938e83b4f1ea0,6704174d055d119e5ee7602e,2024-10-07_13h35.33.588,WTP_SM_Choice,2022.2.1,Win32,59.88023952,,,,,space,1.1584,NAN,,NAN,0.7,5.3,,0,30,30,30,1,31,Sam,Rej,Participant_Images/5f4a835e9e84256238129995/5f4a835e9e84256238129995_Images/5f4a835e9e84256238129995_Image_10.jpeg,did not like,3.613205605,,,,,,,,,,,,,,,,,,,,,,
,,5f4a835e9e84256238129995,6685aa9113c938e83b4f1ea0,6704174d055d119e5ee7602e,2024-10-07_13h35.33.588,WTP_SM_Choice,2022.2.1,Win32,59.88023952,,,,,space,1.3044,NAN,,NAN,0.7,5.3,,0,31,31,31,1,32,Sam,Rej,Participant_Images/5f4a835e9e84256238129995/5f4a835e9e84256238129995_Images/5f4a835e9e84256238129995_Image_14.jpeg,did not like,4.988446431,,,,,,,,,,,,,,,,,,,,,,
,,5f4a835e9e84256238129995,6685aa9113c938e83b4f1ea0,6704174d055d119e5ee7602e,2024-10-07_13h35.33.588,WTP_SM_Choice,2022.2.1,Win32,59.88023952,,,,,space,3.806,NAN,,NAN,0.7,5.3,,0,32,32,32,1,33,Sam,Rej,Participant_Images/5f4a835e9e84256238129995/5f4a835e9e84256238129995_Images/5f4a835e9e84256238129995_Image_9.jpeg,did not like,3.470791822,,,,,,,,,,,,,,,,,,,,,,
,,5f4a835e9e84256238129995,6685aa9113c938e83b4f1ea0,6704174d055d119e5ee7602e,2024-10-07_13h35.33.588,WTP_SM_Choice,2022.2.1,Win32,59.88023952,,,,,space,1.7408,NAN,,NAN,0.7,5.3,,0,33,33,33,1,34,Sam,Rej,Participant_Images/5f4a835e9e84256238129995/5f4a835e9e84256238129995_Images/5f4a835e9e84256238129995_Image_22.jpeg,did not like,3.820572462,,,,,,,,,,,,,,,,,,,,,,
,,5f4a835e9e84256238129995,6685aa9113c938e83b4f1ea0,6704174d055d119e5ee7602e,2024-10-07_13h35.33.588,WTP_SM_Choice,2022.2.1,Win32,59.88023952,,,,,,,,,,,,,,,,,,31,,,,,,space,1.2848,space,0.4586,0.01,1,1.208,0,0,0,0,1,Watch a movie at home,Play vinyl on my record player,0.01,0.02,8.8,0,,,,
,,5f4a835e9e84256238129995,6685aa9113c938e83b4f1ea0,6704174d055d119e5ee7602e,2024-10-07_13h35.33.588,WTP_SM_Choice,2022.2.1,Win32,59.88023952,,,,,,,,,,,,,,,,,,32,,,,,,,,,,0.02,1,3.6888,0,1,1,1,1,Go to the gym,Go to the gym,0.02,0.02,1.1,0,,,,
,,5f4a835e9e84256238129995,6685aa9113c938e83b4f1ea0,6704174d055d119e5ee7602e,2024-10-07_13h35.33.588,WTP_SM_Choice,2022.2.1,Win32,59.88023952,,,,,,,,,,,,,,,,,,33,,,,,,,,,,0.02,2,5.239,0,2,2,2,1,Go in the hot tub at night,Go for a hike,0.03,0.02,4.4,1,,,,
,,5f4a835e9e84256238129995,6685aa9113c938e83b4f1ea0,6704174d055d119e5ee7602e,2024-10-07_13h35.33.588,WTP_SM_Choice,2022.2.1,Win32,59.88023952,,,,,,,,,,,,,,,,,,34,,,,,,,,,,0.02,2,4.9387,0,3,3,3,1,Shop online for clothes,Go out to dinner,0.04,0.02,3.3,1,,,,
,,5f4a835e9e84256238129995,6685aa9113c938e83b4f1ea0,6704174d055d119e5ee7602e,2024-10-07_13h35.33.588,WTP_SM_Choice,2022.2.1,Win32,59.88023952,,,,,,,,,,,,,,,,,,35,,,,,,,,,,0.02,2,3.6246,0,4,4,4,1,Go for a hike,Shop online for clothes,0.05,0.02,1.1,0,,,,
,,5f4a835e9e84256238129995,6685aa9113c938e83b4f1ea0,6704174d055d119e5ee7602e,2024-10-07_13h35.33.588,WTP_SM_Choice,2022.2.1,Win32,59.88023952,,,,,,,NAN,,NAN,0.79,5.21,,0,34,34,34,1,35,Sam,Rej,Participant_Images/5f4a835e9e84256238129995/5f4a835e9e84256238129995_Images/5f4a835e9e84256238129995_Image_17.jpeg,did not like,2.455989137,,,,,,,,,,,,,,,,,,,,,,
,,5f4a835e9e84256238129995,6685aa9113c938e83b4f1ea0,6704174d055d119e5ee7602e,2024-10-07_13h35.33.588,WTP_SM_Choice,2022.2.1,Win32,59.88023952,,,,,space,5.247,NAN,,NAN,0.79,5.21,,0,35,35,35,1,36,Sam,Rej,Participant_Images/5f4a835e9e84256238129995/5f4a835e9e84256238129995_Images/5f4a835e9e84256238129995_Image_8.jpeg,did not like,3.79605092,,,,,,,,,,,,,,,,,,,,,,
,,5f4a835e9e84256238129995,6685aa9113c938e83b4f1ea0,6704174d055d119e5ee7602e,2024-10-07_13h35.33.588,WTP_SM_Choice,2022.2.1,Win32,59.88023952,,,,,space,0.5115,NAN,,NAN,0.79,5.21,,0,36,36,36,1,37,Sam,Rej,Participant_Images/5f4a835e9e84256238129995/5f4a835e9e84256238129995_Images/5f4a835e9e84256238129995_Image_1.jpeg,did not like,3.562416326,,,,,,,,,,,,,,,,,,,,,,
,,5f4a835e9e84256238129995,6685aa9113c938e83b4f1ea0,6704174d055d119e5ee7602e,2024-10-07_13h35.33.588,WTP_SM_Choice,2022.2.1,Win32,59.88023952,,,,,space,6.1664,NAN,,NAN,0.79,5.21,,0,37,37,37,1,38,Sam,Rej,Participant_Images/5f4a835e9e84256238129995/5f4a835e9e84256238129995_Images/5f4a835e9e84256238129995_Image_23.jpeg,did not like,2.843822497,,,,,,,,,,,,,,,,,,,,,,
,,5f4a835e9e84256238129995,6685aa9113c938e83b4f1ea0,6704174d055d119e5ee7602e,2024-10-07_13h35.33.588,WTP_SM_Choice,2022.2.1,Win32,59.88023952,,,,,space,4.4496,NAN,,NAN,0.79,5.21,,0,38,38,38,1,39,Sam,Rej,Participant_Images/5f4a835e9e84256238129995/5f4a835e9e84256238129995_Images/5f4a835e9e84256238129995_Image_25.jpeg,did not like,3.546495948,,,,,,,,,,,,,,,,,,,,,,
,,5f4a835e9e84256238129995,6685aa9113c938e83b4f1ea0,6704174d055d119e5ee7602e,2024-10-07_13h35.33.588,WTP_SM_Choice,2022.2.1,Win32,59.88023952,,,,,,,,,,,,,,,,,,36,,,,,,space,3.8069,space,0.4016,0.01,1,1.0191,0,0,0,0,1,Make a big breakfast,Go to the gym,0.01,0.03,3.3,1,,,,
,,5f4a835e9e84256238129995,6685aa9113c938e83b4f1ea0,6704174d055d119e5ee7602e,2024-10-07_13h35.33.588,WTP_SM_Choice,2022.2.1,Win32,59.88023952,,,,,,,,,,,,,,,,,,37,,,,,,,,,,0.02,1,1.1106,0,1,1,1,1,Go out to dinner,Do yoga in my room,0.02,0.03,1.1,0,,,,
,,5f4a835e9e84256238129995,6685aa9113c938e83b4f1ea0,6704174d055d119e5ee7602e,2024-10-07_13h35.33.588,WTP_SM_Choice,2022.2.1,Win32,59.88023952,,,,,,,,,,,,,,,,,,38,,,,,,,,,,0.03,1,1.5184,0,2,2,2,1,Watch a movie at home,Read a book first thing in the morning,0.03,0.03,1.1,0,,,,
,,5f4a835e9e84256238129995,6685aa9113c938e83b4f1ea0,6704174d055d119e5ee7602e,2024-10-07_13h35.33.588,WTP_SM_Choice,2022.2.1,Win32,59.88023952,,,,,,,,,,,,,,,,,,39,,,,,,,,,,0.03,2,2.2423,0,3,3,3,1,Go to the theatre,Do yoga in my room,0.04,0.03,3.3,0,,,,
,,5f4a835e9e84256238129995,6685aa9113c938e83b4f1ea0,6704174d055d119e5ee7602e,2024-10-07_13h35.33.588,WTP_SM_Choice,2022.2.1,Win32,59.88023952,,,,,,,,,,,,,,,,,,40,,,,,,,,,,0.03,2,1.6713,0,4,4,4,1,Listen to a podcast,Go for a hike,0.05,0.03,4.4,1,,,,
,,5f4a835e9e84256238129995,6685aa9113c938e83b4f1ea0,6704174d055d119e5ee7602e,2024-10-07_13h35.33.588,WTP_SM_Choice,2022.2.1,Win32,59.88023952,,,,,,,NAN,,NAN,0.91,5.09,,0,39,39,39,1,40,Sam,Rej,Participant_Images/5f4a835e9e84256238129995/5f4a835e9e84256238129995_Images/5f4a835e9e84256238129995_Image_24.jpeg,did not like,1.672012706,,,,,,,,,,,,,,,,,,,,,,
,,5f4a835e9e84256238129995,6685aa9113c938e83b4f1ea0,6704174d055d119e5ee7602e,2024-10-07_13h35.33.588,WTP_SM_Choice,2022.2.1,Win32,59.88023952,,,,,space,4.4429,NAN,,NAN,0.91,5.09,,0,40,40,40,1,41,Sam,Rej,Participant_Images/5f4a835e9e84256238129995/5f4a835e9e84256238129995_Images/5f4a835e9e84256238129995_Image_2.jpeg,liked,4.942172136,,,,,,,,,,,,,,,,,,,,,,
,,5f4a835e9e84256238129995,6685aa9113c938e83b4f1ea0,6704174d055d119e5ee7602e,2024-10-07_13h35.33.588,WTP_SM_Choice,2022.2.1,Win32,59.88023952,,,,,space,2.5023,NAN,,NAN,0.91,5.09,,0,41,41,41,1,42,Sam,Rej,Participant_Images/5f4a835e9e84256238129995/5f4a835e9e84256238129995_Images/5f4a835e9e84256238129995_Image_3.jpeg,liked,2.50187214,,,,,,,,,,,,,,,,,,,,,,
,,5f4a835e9e84256238129995,6685aa9113c938e83b4f1ea0,6704174d055d119e5ee7602e,2024-10-07_13h35.33.588,WTP_SM_Choice,2022.2.1,Win32,59.88023952,,,,,space,8.9826,NAN,,NAN,0.91,5.09,,0,42,42,42,1,43,Sam,Rej,Participant_Images/5f4a835e9e84256238129995/5f4a835e9e84256238129995_Images/5f4a835e9e84256238129995_Image_7.jpeg,liked,2.071164779,,,,,,,,,,,,,,,,,,,,,,
,,5f4a835e9e84256238129995,6685aa9113c938e83b4f1ea0,6704174d055d119e5ee7602e,2024-10-07_13h35.33.588,WTP_SM_Choice,2022.2.1,Win32,59.88023952,,,,,space,5.4566,NAN,,NAN,0.91,5.09,,0,43,43,43,1,44,Sam,Rej,Participant_Images/5f4a835e9e84256238129995/5f4a835e9e84256238129995_Images/5f4a835e9e84256238129995_Image_5.jpeg,did not like,5.336503566,,,,,,,,,,,,,,,,,,,,,,
,,5f4a835e9e84256238129995,6685aa9113c938e83b4f1ea0,6704174d055d119e5ee7602e,2024-10-07_13h35.33.588,WTP_SM_Choice,2022.2.1,Win32,59.88023952,,,,,,,,,,,,,,,,,,41,,,,,,space,0.9301,space,0.4843,0.01,1,1.0007,0,0,0,0,1,Go to the theatre,Paint my own nails,0.01,0.04,1.1,0,,,,
,,5f4a835e9e84256238129995,6685aa9113c938e83b4f1ea0,6704174d055d119e5ee7602e,2024-10-07_13h35.33.588,WTP_SM_Choice,2022.2.1,Win32,59.88023952,,,,,,,,,,,,,,,,,,42,,,,,,,,,,0.02,1,7.9842,0,1,1,1,1,have a fire outside,Go in the hot tub at night,0.02,0.04,3.3,0,,,,
,,5f4a835e9e84256238129995,6685aa9113c938e83b4f1ea0,6704174d055d119e5ee7602e,2024-10-07_13h35.33.588,WTP_SM_Choice,2022.2.1,Win32,59.88023952,,,,,,,,,,,,,,,,,,43,,,,,,,,,,0.03,1,4.0938,0,2,2,2,1,Do yoga in my room,have a bbq,0.03,0.04,1.1,1,,,,
,,5f4a835e9e84256238129995,6685aa9113c938e83b4f1ea0,6704174d055d119e5ee7602e,2024-10-07_13h35.33.588,WTP_SM_Choice,2022.2.1,Win32,59.88023952,,,,,,,,,,,,,,,,,,44,,,,,,,,,,0.04,2,8.1748,0,3,3,3,1,Go to the gym,Listen to a podcast,0.04,0.04,1.1,0,,,,
,,5f4a835e9e84256238129995,6685aa9113c938e83b4f1ea0,6704174d055d119e5ee7602e,2024-10-07_13h35.33.588,WTP_SM_Choice,2022.2.1,Win32,59.88023952,,,,,,,,,,,,,,,,,,45,,,,,,,,,,0.04,2,7.5579,0,4,4,4,1,Go to the gym,Go in the hot tub at night,0.05,0.04,4.4,0,,,,
,,5f4a835e9e84256238129995,6685aa9113c938e83b4f1ea0,6704174d055d119e5ee7602e,2024-10-07_13h35.33.588,WTP_SM_Choice,2022.2.1,Win32,59.88023952,,,,,,,NAN,,NAN,1.05,4.95,,0,44,44,44,1,45,Sam,Rej,Participant_Images/5f4a835e9e84256238129995/5f4a835e9e84256238129995_Images/5f4a835e9e84256238129995_Image_16.jpeg,liked,2.642157193,,,,,,,,,,,,,,,,,,,,,,
,,5f4a835e9e84256238129995,6685aa9113c938e83b4f1ea0,6704174d055d119e5ee7602e,2024-10-07_13h35.33.588,WTP_SM_Choice,2022.2.1,Win32,59.88023952,,,,,space,5.8508,NAN,,NAN,1.05,4.95,,0,45,45,45,1,46,Sam,Rej,Participant_Images/5f4a835e9e84256238129995/5f4a835e9e84256238129995_Images/5f4a835e9e84256238129995_Image_11.jpeg,did not like,4.456234322,,,,,,,,,,,,,,,,,,,,,,
,,5f4a835e9e84256238129995,6685aa9113c938e83b4f1ea0,6704174d055d119e5ee7602e,2024-10-07_13h35.33.588,WTP_SM_Choice,2022.2.1,Win32,59.88023952,,,,,space,2.5306,NAN,,NAN,1.05,4.95,,0,46,46,46,1,47,Sam,Rej,Participant_Images/5f4a835e9e84256238129995/5f4a835e9e84256238129995_Images/5f4a835e9e84256238129995_Image_6.jpeg,liked,4.438512181,,,,,,,,,,,,,,,,,,,,,,
,,5f4a835e9e84256238129995,6685aa9113c938e83b4f1ea0,6704174d055d119e5ee7602e,2024-10-07_13h35.33.588,WTP_SM_Choice,2022.2.1,Win32,59.88023952,,,,,space,5.3774,NAN,,NAN,1.05,4.95,,0,47,47,47,1,48,Sam,Rej,Participant_Images/5f4a835e9e84256238129995/5f4a835e9e84256238129995_Images/5f4a835e9e84256238129995_Image_13.jpeg,did not like,2.682944783,,,,,,,,,,,,,,,,,,,,,,
,,5f4a835e9e84256238129995,6685aa9113c938e83b4f1ea0,6704174d055d119e5ee7602e,2024-10-07_13h35.33.588,WTP_SM_Choice,2022.2.1,Win32,59.88023952,,,,,space,1.3296,NAN,,NAN,1.05,4.95,,0,48,48,48,1,49,Sam,Rej,Participant_Images/5f4a835e9e84256238129995/5f4a835e9e84256238129995_Images/5f4a835e9e84256238129995_Image_20.jpeg,did not like,4.51984296,,,,,,,,,,,,,,,,,,,,,,
,,5f4a835e9e84256238129995,6685aa9113c938e83b4f1ea0,6704174d055d119e5ee7602e,2024-10-07_13h35.33.588,WTP_SM_Choice,2022.2.1,Win32,59.88023952,,,,,,,,,,,,,,,,,,46,,,,,,space,0.8179,space,0.4067,0.05,2,1.425,0,0,0,0,1,have a fire outside,Do yoga in my room,0.01,0.05,8.8,0,,,,
,,5f4a835e9e84256238129995,6685aa9113c938e83b4f1ea0,6704174d055d119e5ee7602e,2024-10-07_13h35.33.588,WTP_SM_Choice,2022.2.1,Win32,59.88023952,,,,,,,,,,,,,,,,,,47,,,,,,,,,,0.05,2,2.0695,0,1,1,1,1,Paint my own nails,have a bbq,0.02,0.05,1.1,1,,,,
,,5f4a835e9e84256238129995,6685aa9113c938e83b4f1ea0,6704174d055d119e5ee7602e,2024-10-07_13h35.33.588,WTP_SM_Choice,2022.2.1,Win32,59.88023952,,,,,,,,,,,,,,,,,,48,,,,,,,,,,0.03,1,6.1319,0,2,2,2,1,Go to the gym,Go for a hike,0.03,0.05,4.4,1,,,,
,,5f4a835e9e84256238129995,6685aa9113c938e83b4f1ea0,6704174d055d119e5ee7602e,2024-10-07_13h35.33.588,WTP_SM_Choice,2022.2.1,Win32,59.88023952,,,,,,,,,,,,,,,,,,49,,,,,,,,,,0.04,1,2.8033,0,3,3,3,1,Listen to a podcast,Go out to dinner,0.04,0.05,3.3,1,,,,
,,5f4a835e9e84256238129995,6685aa9113c938e83b4f1ea0,6704174d055d119e5ee7602e,2024-10-07_13h35.33.588,WTP_SM_Choice,2022.2.1,Win32,59.88023952,,,,,,,,,,,,,,,,,,50,,,,,,,,,,0.05,2,5.4562,0,4,4,4,1,have a bbq,Listen to a podcast,0.05,0.05,1.1,0,,,,
,,5f4a835e9e84256238129995,6685aa9113c938e83b4f1ea0,6704174d055d119e5ee7602e,2024-10-07_13h35.33.588,WTP_SM_Choice,2022.2.1,Win32,59.88023952,,,,,,,3,,5,1.27,4.73,,0,49,49,49,1,50,Sam,Rej,Participant_Images/5f4a835e9e84256238129995/5f4a835e9e84256238129995_Images/5f4a835e9e84256238129995_Image_4.jpeg,did not like,3.195382774,,,,,,,,,,,,,,,,,,,space,3.1382,,
,,5f4a835e9e84256238129995,6685aa9113c938e83b4f1ea0,6704174d055d119e5ee7602e,2024-10-07_13h35.33.588,WTP_SM_Choice,2022.2.1,Win32,59.88023952,,,space,25.3523,space,1.1592,NAN,,NAN,1.27,4.73,,0,50,50,50,1,51,Charlie,Acc,Participant_Images/5f4a835e9e84256238129995/5f4a835e9e84256238129995_Images/5f4a835e9e84256238129995_Image_13.jpeg,liked,1.779333479,,,,,,,,,,,,,,,,,,,,,,
,,5f4a835e9e84256238129995,6685aa9113c938e83b4f1ea0,6704174d055d119e5ee7602e,2024-10-07_13h35.33.588,WTP_SM_Choice,2022.2.1,Win32,59.88023952,,,,,space,3.4314,NAN,,NAN,1.27,4.73,,0,51,51,51,1,52,Charlie,Acc,Participant_Images/5f4a835e9e84256238129995/5f4a835e9e84256238129995_Images/5f4a835e9e84256238129995_Image_11.jpeg,liked,4.312468682,,,,,,,,,,,,,,,,,,,,,,
,,5f4a835e9e84256238129995,6685aa9113c938e83b4f1ea0,6704174d055d119e5ee7602e,2024-10-07_13h35.33.588,WTP_SM_Choice,2022.2.1,Win32,59.88023952,,,,,space,0.7945,NAN,,NAN,1.27,4.73,,0,52,52,52,1,53,Charlie,Acc,Participant_Images/5f4a835e9e84256238129995/5f4a835e9e84256238129995_Images/5f4a835e9e84256238129995_Image_25.jpeg,did not like,4.940433059,,,,,,,,,,,,,,,,,,,,,,
,,5f4a835e9e84256238129995,6685aa9113c938e83b4f1ea0,6704174d055d119e5ee7602e,2024-10-07_13h35.33.588,WTP_SM_Choice,2022.2.1,Win32,59.88023952,,,,,space,2.7549,NAN,,NAN,1.27,4.73,,0,53,53,53,1,54,Charlie,Acc,Participant_Images/5f4a835e9e84256238129995/5f4a835e9e84256238129995_Images/5f4a835e9e84256238129995_Image_10.jpeg,liked,2.7105123,,,,,,,,,,,,,,,,,,,,,,
,,5f4a835e9e84256238129995,6685aa9113c938e83b4f1ea0,6704174d055d119e5ee7602e,2024-10-07_13h35.33.588,WTP_SM_Choice,2022.2.1,Win32,59.88023952,,,,,,,,,,,,,,,,,,51,,,,,,space,0.9892,space,0.5344,0.01,1,0.874,0,0,0,0,1,Paint my own nails,cook a big dinner,0.01,0.01,1.1,1,,,,
,,5f4a835e9e84256238129995,6685aa9113c938e83b4f1ea0,6704174d055d119e5ee7602e,2024-10-07_13h35.33.588,WTP_SM_Choice,2022.2.1,Win32,59.88023952,,,,,,,,,,,,,,,,,,52,,,,,,,,,,0.02,1,1.0443,0,1,1,1,1,Listen to a podcast,Go for a walk,0.02,0.01,3.3,1,,,,
,,5f4a835e9e84256238129995,6685aa9113c938e83b4f1ea0,6704174d055d119e5ee7602e,2024-10-07_13h35.33.588,WTP_SM_Choice,2022.2.1,Win32,59.88023952,,,,,,,,,,,,,,,,,,53,,,,,,,,,,0.03,1,1.2872,0,2,2,2,1,Play vinyl on my record player,Go to the gym,0.03,0.01,1.1,1,,,,
,,5f4a835e9e84256238129995,6685aa9113c938e83b4f1ea0,6704174d055d119e5ee7602e,2024-10-07_13h35.33.588,WTP_SM_Choice,2022.2.1,Win32,59.88023952,,,,,,,,,,,,,,,,,,54,,,,,,,,,,0.04,1,1.6764,0,3,3,3,1,go in the hot tub,Paint my own nails,0.04,0.01,4.4,0,,,,
,,5f4a835e9e84256238129995,6685aa9113c938e83b4f1ea0,6704174d055d119e5ee7602e,2024-10-07_13h35.33.588,WTP_SM_Choice,2022.2.1,Win32,59.88023952,,,,,,,,,,,,,,,,,,55,,,,,,,,,,0.01,2,2.0461,0,4,4,4,1,Make a big breakfast,Go for a walk,0.05,0.01,1.1,1,,,,
,,5f4a835e9e84256238129995,6685aa9113c938e83b4f1ea0,6704174d055d119e5ee7602e,2024-10-07_13h35.33.588,WTP_SM_Choice,2022.2.1,Win32,59.88023952,,,,,,,NAN,,NAN,1.38,4.62,,0,54,54,54,1,55,Charlie,Acc,Participant_Images/5f4a835e9e84256238129995/5f4a835e9e84256238129995_Images/5f4a835e9e84256238129995_Image_23.jpeg,liked,3.602308302,,,,,,,,,,,,,,,,,,,,,,
,,5f4a835e9e84256238129995,6685aa9113c938e83b4f1ea0,6704174d055d119e5ee7602e,2024-10-07_13h35.33.588,WTP_SM_Choice,2022.2.1,Win32,59.88023952,,,,,space,8.6607,NAN,,NAN,1.38,4.62,,0,55,55,55,1,56,Charlie,Acc,Participant_Images/5f4a835e9e84256238129995/5f4a835e9e84256238129995_Images/5f4a835e9e84256238129995_Image_2.jpeg,did not like,4.106391878,,,,,,,,,,,,,,,,,,,,,,
,,5f4a835e9e84256238129995,6685aa9113c938e83b4f1ea0,6704174d055d119e5ee7602e,2024-10-07_13h35.33.588,WTP_SM_Choice,2022.2.1,Win32,59.88023952,,,,,space,1.3515,NAN,,NAN,1.38,4.62,,0,56,56,56,1,57,Charlie,Acc,Participant_Images/5f4a835e9e84256238129995/5f4a835e9e84256238129995_Images/5f4a835e9e84256238129995_Image_12.jpeg,liked,3.799433026,,,,,,,,,,,,,,,,,,,,,,
,,5f4a835e9e84256238129995,6685aa9113c938e83b4f1ea0,6704174d055d119e5ee7602e,2024-10-07_13h35.33.588,WTP_SM_Choice,2022.2.1,Win32,59.88023952,,,,,space,2.5944,NAN,,NAN,1.38,4.62,,0,57,57,57,1,58,Charlie,Acc,Participant_Images/5f4a835e9e84256238129995/5f4a835e9e84256238129995_Images/5f4a835e9e84256238129995_Image_16.jpeg,liked,5.246980764,,,,,,,,,,,,,,,,,,,,,,
,,5f4a835e9e84256238129995,6685aa9113c938e83b4f1ea0,6704174d055d119e5ee7602e,2024-10-07_13h35.33.588,WTP_SM_Choice,2022.2.1,Win32,59.88023952,,,,,space,2.4698,NAN,,NAN,1.38,4.62,,0,58,58,58,1,59,Charlie,Acc,Participant_Images/5f4a835e9e84256238129995/5f4a835e9e84256238129995_Images/5f4a835e9e84256238129995_Image_6.jpeg,liked,3.30081769,,,,,,,,,,,,,,,,,,,,,,
,,5f4a835e9e84256238129995,6685aa9113c938e83b4f1ea0,6704174d055d119e5ee7602e,2024-10-07_13h35.33.588,WTP_SM_Choice,2022.2.1,Win32,59.88023952,,,,,,,,,,,,,,,,,,56,,,,,,space,1.1891,space,0.4409,0.02,2,1.3019,0,0,0,0,1,cook a big dinner,Do yoga in my room,0.01,0.02,8.8,0,,,,
,,5f4a835e9e84256238129995,6685aa9113c938e83b4f1ea0,6704174d055d119e5ee7602e,2024-10-07_13h35.33.588,WTP_SM_Choice,2022.2.1,Win32,59.88023952,,,,,,,,,,,,,,,,,,57,,,,,,,,,,0.02,1,1.0954,0,1,1,1,1,Go for a walk,Go to the gym,0.02,0.02,4.4,0,,,,
,,5f4a835e9e84256238129995,6685aa9113c938e83b4f1ea0,6704174d055d119e5ee7602e,2024-10-07_13h35.33.588,WTP_SM_Choice,2022.2.1,Win32,59.88023952,,,,,,,,,,,,,,,,,,58,,,,,,,,,,0.02,2,1.6356,0,2,2,2,1,cook a big dinner,Make a fresh bowl of pasta,0.03,0.02,4.4,0,,,,
,,5f4a835e9e84256238129995,6685aa9113c938e83b4f1ea0,6704174d055d119e5ee7602e,2024-10-07_13h35.33.588,WTP_SM_Choice,2022.2.1,Win32,59.88023952,,,,,,,,,,,,,,,,,,59,,,,,,,,,,0.02,2,1.2602,0,3,3,3,1,Go out to dinner,Go in the hot tub at night,0.04,0.02,4.4,0,,,,
,,5f4a835e9e84256238129995,6685aa9113c938e83b4f1ea0,6704174d055d119e5ee7602e,2024-10-07_13h35.33.588,WTP_SM_Choice,2022.2.1,Win32,59.88023952,,,,,,,,,,,,,,,,,,60,,,,,,,,,,0.02,2,1.3438,0,4,4,4,1,Play vinyl on my record player,have a fire outside,0.05,0.02,1.1,1,,,,
,,5f4a835e9e84256238129995,6685aa9113c938e83b4f1ea0,6704174d055d119e5ee7602e,2024-10-07_13h35.33.588,WTP_SM_Choice,2022.2.1,Win32,59.88023952,,,,,,,NAN,,NAN,1.48,4.52,,0,59,59,59,1,60,Charlie,Acc,Participant_Images/5f4a835e9e84256238129995/5f4a835e9e84256238129995_Images/5f4a835e9e84256238129995_Image_4.jpeg,liked,1.661473164,,,,,,,,,,,,,,,,,,,,,,
,,5f4a835e9e84256238129995,6685aa9113c938e83b4f1ea0,6704174d055d119e5ee7602e,2024-10-07_13h35.33.588,WTP_SM_Choice,2022.2.1,Win32,59.88023952,,,,,space,2.3444,NAN,,NAN,1.48,4.52,,0,60,60,60,1,61,Charlie,Acc,Participant_Images/5f4a835e9e84256238129995/5f4a835e9e84256238129995_Images/5f4a835e9e84256238129995_Image_14.jpeg,liked,3.613205605,,,,,,,,,,,,,,,,,,,,,,
,,5f4a835e9e84256238129995,6685aa9113c938e83b4f1ea0,6704174d055d119e5ee7602e,2024-10-07_13h35.33.588,WTP_SM_Choice,2022.2.1,Win32,59.88023952,,,,,space,0.494,NAN,,NAN,1.48,4.52,,0,61,61,61,1,62,Charlie,Acc,Participant_Images/5f4a835e9e84256238129995/5f4a835e9e84256238129995_Images/5f4a835e9e84256238129995_Image_5.jpeg,liked,4.988446431,,,,,,,,,,,,,,,,,,,,,,
,,5f4a835e9e84256238129995,6685aa9113c938e83b4f1ea0,6704174d055d119e5ee7602e,2024-10-07_13h35.33.588,WTP_SM_Choice,2022.2.1,Win32,59.88023952,,,,,space,1.0857,NAN,,NAN,1.48,4.52,,0,62,62,62,1,63,Charlie,Acc,Participant_Images/5f4a835e9e84256238129995/5f4a835e9e84256238129995_Images/5f4a835e9e84256238129995_Image_15.jpeg,did not like,3.470791822,,,,,,,,,,,,,,,,,,,,,,
,,5f4a835e9e84256238129995,6685aa9113c938e83b4f1ea0,6704174d055d119e5ee7602e,2024-10-07_13h35.33.588,WTP_SM_Choice,2022.2.1,Win32,59.88023952,,,,,space,1.8611,NAN,,NAN,1.48,4.52,,0,63,63,63,1,64,Charlie,Acc,Participant_Images/5f4a835e9e84256238129995/5f4a835e9e84256238129995_Images/5f4a835e9e84256238129995_Image_1.jpeg,liked,3.820572462,,,,,,,,,,,,,,,,,,,,,,
,,5f4a835e9e84256238129995,6685aa9113c938e83b4f1ea0,6704174d055d119e5ee7602e,2024-10-07_13h35.33.588,WTP_SM_Choice,2022.2.1,Win32,59.88023952,,,,,,,,,,,,,,,,,,61,,,,,,space,36.4134,space,0.7118,0.03,2,1.4083,0,0,0,0,1,have a bbq,Make a fresh bowl of pasta,0.01,0.03,3.3,0,,,,
,,5f4a835e9e84256238129995,6685aa9113c938e83b4f1ea0,6704174d055d119e5ee7602e,2024-10-07_13h35.33.588,WTP_SM_Choice,2022.2.1,Win32,59.88023952,,,,,,,,,,,,,,,,,,62,,,,,,,,,,0.02,1,1.3222,0,1,1,1,1,Read a book first thing in the morning,cook a big dinner,0.02,0.03,3.3,1,,,,
,,5f4a835e9e84256238129995,6685aa9113c938e83b4f1ea0,6704174d055d119e5ee7602e,2024-10-07_13h35.33.588,WTP_SM_Choice,2022.2.1,Win32,59.88023952,,,,,,,,,,,,,,,,,,63,,,,,,,,,,0.03,1,1.1783,0,2,2,2,1,Go out to dinner,Go to the gym,0.03,0.03,3.3,0,,,,
,,5f4a835e9e84256238129995,6685aa9113c938e83b4f1ea0,6704174d055d119e5ee7602e,2024-10-07_13h35.33.588,WTP_SM_Choice,2022.2.1,Win32,59.88023952,,,,,,,,,,,,,,,,,,64,,,,,,,,,,0.03,2,1.0616,0,3,3,3,1,Play vinyl on my record player,Go to the theatre,0.04,0.03,1.1,1,,,,
,,5f4a835e9e84256238129995,6685aa9113c938e83b4f1ea0,6704174d055d119e5ee7602e,2024-10-07_13h35.33.588,WTP_SM_Choice,2022.2.1,Win32,59.88023952,,,,,,,,,,,,,,,,,,65,,,,,,,,,,0.05,1,1.4197,0,4,4,4,1,Make a fresh bowl of pasta,Go to the gym,0.05,0.03,1.1,1,,,,
,,5f4a835e9e84256238129995,6685aa9113c938e83b4f1ea0,6704174d055d119e5ee7602e,2024-10-07_13h35.33.588,WTP_SM_Choice,2022.2.1,Win32,59.88023952,,,,,,,NAN,,NAN,1.64,4.36,,0,64,64,64,1,65,Charlie,Acc,Participant_Images/5f4a835e9e84256238129995/5f4a835e9e84256238129995_Images/5f4a835e9e84256238129995_Image_17.jpeg,did not like,2.455989137,,,,,,,,,,,,,,,,,,,,,,
,,5f4a835e9e84256238129995,6685aa9113c938e83b4f1ea0,6704174d055d119e5ee7602e,2024-10-07_13h35.33.588,WTP_SM_Choice,2022.2.1,Win32,59.88023952,,,,,space,5.4463,NAN,,NAN,1.64,4.36,,0,65,65,65,1,66,Charlie,Acc,Participant_Images/5f4a835e9e84256238129995/5f4a835e9e84256238129995_Images/5f4a835e9e84256238129995_Image_9.jpeg,did not like,3.79605092,,,,,,,,,,,,,,,,,,,,,,
,,5f4a835e9e84256238129995,6685aa9113c938e83b4f1ea0,6704174d055d119e5ee7602e,2024-10-07_13h35.33.588,WTP_SM_Choice,2022.2.1,Win32,59.88023952,,,,,space,2.4493,NAN,,NAN,1.64,4.36,,0,66,66,66,1,67,Charlie,Acc,Participant_Images/5f4a835e9e84256238129995/5f4a835e9e84256238129995_Images/5f4a835e9e84256238129995_Image_19.jpeg,liked,3.562416326,,,,,,,,,,,,,,,,,,,,,,
,,5f4a835e9e84256238129995,6685aa9113c938e83b4f1ea0,6704174d055d119e5ee7602e,2024-10-07_13h35.33.588,WTP_SM_Choice,2022.2.1,Win32,59.88023952,,,,,space,0.9531,NAN,,NAN,1.64,4.36,,0,67,67,67,1,68,Charlie,Acc,Participant_Images/5f4a835e9e84256238129995/5f4a835e9e84256238129995_Images/5f4a835e9e84256238129995_Image_8.jpeg,did not like,2.843822497,,,,,,,,,,,,,,,,,,,,,,
,,5f4a835e9e84256238129995,6685aa9113c938e83b4f1ea0,6704174d055d119e5ee7602e,2024-10-07_13h35.33.588,WTP_SM_Choice,2022.2.1,Win32,59.88023952,,,,,space,1.0204,NAN,,NAN,1.64,4.36,,0,68,68,68,1,69,Charlie,Acc,Participant_Images/5f4a835e9e84256238129995/5f4a835e9e84256238129995_Images/5f4a835e9e84256238129995_Image_7.jpeg,liked,3.546495948,,,,,,,,,,,,,,,,,,,,,,
,,5f4a835e9e84256238129995,6685aa9113c938e83b4f1ea0,6704174d055d119e5ee7602e,2024-10-07_13h35.33.588,WTP_SM_Choice,2022.2.1,Win32,59.88023952,,,,,,,,,,,,,,,,,,66,,,,,,space,1.2006,space,0.5005,0.01,1,0.8928,0,0,0,0,1,Make a big breakfast,Go out to dinner,0.01,0.04,1.1,1,,,,
,,5f4a835e9e84256238129995,6685aa9113c938e83b4f1ea0,6704174d055d119e5ee7602e,2024-10-07_13h35.33.588,WTP_SM_Choice,2022.2.1,Win32,59.88023952,,,,,,,,,,,,,,,,,,67,,,,,,,,,,0.04,2,1.2002,0,1,1,1,1,go in the hot tub,Read a book first thing in the morning,0.02,0.04,8.8,0,,,,
,,5f4a835e9e84256238129995,6685aa9113c938e83b4f1ea0,6704174d055d119e5ee7602e,2024-10-07_13h35.33.588,WTP_SM_Choice,2022.2.1,Win32,59.88023952,,,,,,,,,,,,,,,,,,68,,,,,,,,,,0.04,2,5.1575,0,2,2,2,1,cook a big dinner,Make a big breakfast,0.03,0.04,4.4,0,,,,
,,5f4a835e9e84256238129995,6685aa9113c938e83b4f1ea0,6704174d055d119e5ee7602e,2024-10-07_13h35.33.588,WTP_SM_Choice,2022.2.1,Win32,59.88023952,,,,,,,,,,,,,,,,,,69,,,,,,,,,,0.04,2,2.0707,0,3,3,3,1,Shop online for clothes,have a bbq,0.04,0.04,1.1,1,,,,
,,5f4a835e9e84256238129995,6685aa9113c938e83b4f1ea0,6704174d055d119e5ee7602e,2024-10-07_13h35.33.588,WTP_SM_Choice,2022.2.1,Win32,59.88023952,,,,,,,,,,,,,,,,,,70,,,,,,,,,,0.04,2,1.9111,0,4,4,4,1,Paint my own nails,Go for a walk,0.05,0.04,1.1,1,,,,
,,5f4a835e9e84256238129995,6685aa9113c938e83b4f1ea0,6704174d055d119e5ee7602e,2024-10-07_13h35.33.588,WTP_SM_Choice,2022.2.1,Win32,59.88023952,,,,,,,NAN,,NAN,1.81,4.19,,0,69,69,69,1,70,Charlie,Acc,Participant_Images/5f4a835e9e84256238129995/5f4a835e9e84256238129995_Images/5f4a835e9e84256238129995_Image_24.jpeg,liked,1.672012706,,,,,,,,,,,,,,,,,,,,,,
,,5f4a835e9e84256238129995,6685aa9113c938e83b4f1ea0,6704174d055d119e5ee7602e,2024-10-07_13h35.33.588,WTP_SM_Choice,2022.2.1,Win32,59.88023952,,,,,space,0.5969,NAN,,NAN,1.81,4.19,,0,70,70,70,1,71,Charlie,Acc,Participant_Images/5f4a835e9e84256238129995/5f4a835e9e84256238129995_Images/5f4a835e9e84256238129995_Image_21.jpeg,liked,4.942172136,,,,,,,,,,,,,,,,,,,,,,
,,5f4a835e9e84256238129995,6685aa9113c938e83b4f1ea0,6704174d055d119e5ee7602e,2024-10-07_13h35.33.588,WTP_SM_Choice,2022.2.1,Win32,59.88023952,,,,,space,1.1693,NAN,,NAN,1.81,4.19,,0,71,71,71,1,72,Charlie,Acc,Participant_Images/5f4a835e9e84256238129995/5f4a835e9e84256238129995_Images/5f4a835e9e84256238129995_Image_3.jpeg,liked,2.50187214,,,,,,,,,,,,,,,,,,,,,,
,,5f4a835e9e84256238129995,6685aa9113c938e83b4f1ea0,6704174d055d119e5ee7602e,2024-10-07_13h35.33.588,WTP_SM_Choice,2022.2.1,Win32,59.88023952,,,,,space,7.1268,NAN,,NAN,1.81,4.19,,0,72,72,72,1,73,Charlie,Acc,Participant_Images/5f4a835e9e84256238129995/5f4a835e9e84256238129995_Images/5f4a835e9e84256238129995_Image_22.jpeg,liked,2.071164779,,,,,,,,,,,,,,,,,,,,,,
,,5f4a835e9e84256238129995,6685aa9113c938e83b4f1ea0,6704174d055d119e5ee7602e,2024-10-07_13h35.33.588,WTP_SM_Choice,2022.2.1,Win32,59.88023952,,,,,space,4.8418,NAN,,NAN,1.81,4.19,,0,73,73,73,1,74,Charlie,Acc,Participant_Images/5f4a835e9e84256238129995/5f4a835e9e84256238129995_Images/5f4a835e9e84256238129995_Image_20.jpeg,liked,5.336503566,,,,,,,,,,,,,,,,,,,,,,
,,5f4a835e9e84256238129995,6685aa9113c938e83b4f1ea0,6704174d055d119e5ee7602e,2024-10-07_13h35.33.588,WTP_SM_Choice,2022.2.1,Win32,59.88023952,,,,,,,,,,,,,,,,,,71,,,,,,space,4.0248,space,0.4403,0.01,1,1.0105,0,0,0,0,1,Go to the theatre,Go to the gym,0.01,0.05,3.3,0,,,,
,,5f4a835e9e84256238129995,6685aa9113c938e83b4f1ea0,6704174d055d119e5ee7602e,2024-10-07_13h35.33.588,WTP_SM_Choice,2022.2.1,Win32,59.88023952,,,,,,,,,,,,,,,,,,72,,,,,,,,,,0.05,2,1.0181,0,1,1,1,1,Go for a walk,Read a book first thing in the morning,0.02,0.05,8.8,0,,,,
,,5f4a835e9e84256238129995,6685aa9113c938e83b4f1ea0,6704174d055d119e5ee7602e,2024-10-07_13h35.33.588,WTP_SM_Choice,2022.2.1,Win32,59.88023952,,,,,,,,,,,,,,,,,,73,,,,,,,,,,0.03,1,1.3679,0,2,2,2,1,Read a book first thing in the morning,Go for a hike,0.03,0.05,3.3,1,,,,
,,5f4a835e9e84256238129995,6685aa9113c938e83b4f1ea0,6704174d055d119e5ee7602e,2024-10-07_13h35.33.588,WTP_SM_Choice,2022.2.1,Win32,59.88023952,,,,,,,,,,,,,,,,,,74,,,,,,,,,,0.05,2,1.1405,0,3,3,3,1,Make a big breakfast,have a bbq,0.04,0.05,4.4,1,,,,
,,5f4a835e9e84256238129995,6685aa9113c938e83b4f1ea0,6704174d055d119e5ee7602e,2024-10-07_13h35.33.588,WTP_SM_Choice,2022.2.1,Win32,59.88023952,,,,,,,,,,,,,,,,,,75,,,,,,,,,,0.05,1,2.3583,0,4,4,4,1,Paint my own nails,Watch a movie at home,0.05,0.05,3.3,1,,,,
,,5f4a835e9e84256238129995,6685aa9113c938e83b4f1ea0,6704174d055d119e5ee7602e,2024-10-07_13h35.33.588,WTP_SM_Choice,2022.2.1,Win32,59.88023952,,,,,,,3,,5,2,4,,0,74,74,74,1,75,Charlie,Acc,Participant_Images/5f4a835e9e84256238129995/5f4a835e9e84256238129995_Images/5f4a835e9e84256238129995_Image_18.jpeg,did not like,2.642157193,,,,,,,,,,,,,,,,,,,space,5.6294,,
,,5f4a835e9e84256238129995,6685aa9113c938e83b4f1ea0,6704174d055d119e5ee7602e,2024-10-07_13h35.33.588,WTP_SM_Choice,2022.2.1,Win32,59.88023952,,,space,1.8115,space,1.2359,NAN,,NAN,2,4,,0,75,75,75,1,76,Alex,Acc,Participant_Images/5f4a835e9e84256238129995/5f4a835e9e84256238129995_Images/5f4a835e9e84256238129995_Image_20.jpeg,liked,4.456234322,,,,,,,,,,,,,,,,,,,,,,
,,5f4a835e9e84256238129995,6685aa9113c938e83b4f1ea0,6704174d055d119e5ee7602e,2024-10-07_13h35.33.588,WTP_SM_Choice,2022.2.1,Win32,59.88023952,,,,,space,2.1025,NAN,,NAN,2,4,,0,76,76,76,1,77,Alex,Acc,Participant_Images/5f4a835e9e84256238129995/5f4a835e9e84256238129995_Images/5f4a835e9e84256238129995_Image_6.jpeg,liked,4.438512181,,,,,,,,,,,,,,,,,,,,,,
,,5f4a835e9e84256238129995,6685aa9113c938e83b4f1ea0,6704174d055d119e5ee7602e,2024-10-07_13h35.33.588,WTP_SM_Choice,2022.2.1,Win32,59.88023952,,,,,space,0.6017,NAN,,NAN,2,4,,0,77,77,77,1,78,Alex,Acc,Participant_Images/5f4a835e9e84256238129995/5f4a835e9e84256238129995_Images/5f4a835e9e84256238129995_Image_23.jpeg,liked,2.682944783,,,,,,,,,,,,,,,,,,,,,,
,,5f4a835e9e84256238129995,6685aa9113c938e83b4f1ea0,6704174d055d119e5ee7602e,2024-10-07_13h35.33.588,WTP_SM_Choice,2022.2.1,Win32,59.88023952,,,,,space,0.8709,NAN,,NAN,2,4,,0,78,78,78,1,79,Alex,Acc,Participant_Images/5f4a835e9e84256238129995/5f4a835e9e84256238129995_Images/5f4a835e9e84256238129995_Image_12.jpeg,liked,4.51984296,,,,,,,,,,,,,,,,,,,,,,
,,5f4a835e9e84256238129995,6685aa9113c938e83b4f1ea0,6704174d055d119e5ee7602e,2024-10-07_13h35.33.588,WTP_SM_Choice,2022.2.1,Win32,59.88023952,,,,,,,,,,,,,,,,,,76,,,,,,space,0.737,space,0.5067,0.01,2,2.7927,0,0,0,0,1,have a fire outside,Shop online for clothes,0.01,0.01,1.1,0,,,,
,,5f4a835e9e84256238129995,6685aa9113c938e83b4f1ea0,6704174d055d119e5ee7602e,2024-10-07_13h35.33.588,WTP_SM_Choice,2022.2.1,Win32,59.88023952,,,,,,,,,,,,,,,,,,77,,,,,,,,,,0.01,2,2.0199,0,1,1,1,1,Go in the hot tub at night,cook a big dinner,0.02,0.01,8.8,1,,,,
,,5f4a835e9e84256238129995,6685aa9113c938e83b4f1ea0,6704174d055d119e5ee7602e,2024-10-07_13h35.33.588,WTP_SM_Choice,2022.2.1,Win32,59.88023952,,,,,,,,,,,,,,,,,,78,,,,,,,,,,0.03,1,1.4022,0,2,2,2,1,Make a fresh bowl of pasta,Go for a hike,0.03,0.01,1.1,1,,,,
,,5f4a835e9e84256238129995,6685aa9113c938e83b4f1ea0,6704174d055d119e5ee7602e,2024-10-07_13h35.33.588,WTP_SM_Choice,2022.2.1,Win32,59.88023952,,,,,,,,,,,,,,,,,,79,,,,,,,,,,0.04,1,1.3235,0,3,3,3,1,Make a fresh bowl of pasta,Watch a movie at home,0.04,0.01,1.1,1,,,,
,,5f4a835e9e84256238129995,6685aa9113c938e83b4f1ea0,6704174d055d119e5ee7602e,2024-10-07_13h35.33.588,WTP_SM_Choice,2022.2.1,Win32,59.88023952,,,,,,,,,,,,,,,,,,80,,,,,,,,,,0.05,1,1.5015,0,4,4,4,1,Go to the gym,have a fire outside,0.05,0.01,4.4,1,,,,
,,5f4a835e9e84256238129995,6685aa9113c938e83b4f1ea0,6704174d055d119e5ee7602e,2024-10-07_13h35.33.588,WTP_SM_Choice,2022.2.1,Win32,59.88023952,,,,,,,NAN,,NAN,2.14,3.86,,0,79,79,79,1,80,Alex,Acc,Participant_Images/5f4a835e9e84256238129995/5f4a835e9e84256238129995_Images/5f4a835e9e84256238129995_Image_7.jpeg,did not like,3.195382774,,,,,,,,,,,,,,,,,,,,,,
,,5f4a835e9e84256238129995,6685aa9113c938e83b4f1ea0,6704174d055d119e5ee7602e,2024-10-07_13h35.33.588,WTP_SM_Choice,2022.2.1,Win32,59.88023952,,,,,space,0.8851,NAN,,NAN,2.14,3.86,,0,80,80,80,1,81,Alex,Acc,Participant_Images/5f4a835e9e84256238129995/5f4a835e9e84256238129995_Images/5f4a835e9e84256238129995_Image_1.jpeg,did not like,1.779333479,,,,,,,,,,,,,,,,,,,,,,
,,5f4a835e9e84256238129995,6685aa9113c938e83b4f1ea0,6704174d055d119e5ee7602e,2024-10-07_13h35.33.588,WTP_SM_Choice,2022.2.1,Win32,59.88023952,,,,,space,2.9528,NAN,,NAN,2.14,3.86,,0,81,81,81,1,82,Alex,Acc,Participant_Images/5f4a835e9e84256238129995/5f4a835e9e84256238129995_Images/5f4a835e9e84256238129995_Image_19.jpeg,liked,4.312468682,,,,,,,,,,,,,,,,,,,,,,
,,5f4a835e9e84256238129995,6685aa9113c938e83b4f1ea0,6704174d055d119e5ee7602e,2024-10-07_13h35.33.588,WTP_SM_Choice,2022.2.1,Win32,59.88023952,,,,,space,5.986,NAN,,NAN,2.14,3.86,,0,82,82,82,1,83,Alex,Acc,Participant_Images/5f4a835e9e84256238129995/5f4a835e9e84256238129995_Images/5f4a835e9e84256238129995_Image_16.jpeg,liked,4.940433059,,,,,,,,,,,,,,,,,,,,,,
,,5f4a835e9e84256238129995,6685aa9113c938e83b4f1ea0,6704174d055d119e5ee7602e,2024-10-07_13h35.33.588,WTP_SM_Choice,2022.2.1,Win32,59.88023952,,,,,space,5.6594,NAN,,NAN,2.14,3.86,,0,83,83,83,1,84,Alex,Acc,Participant_Images/5f4a835e9e84256238129995/5f4a835e9e84256238129995_Images/5f4a835e9e84256238129995_Image_8.jpeg,liked,2.7105123,,,,,,,,,,,,,,,,,,,,,,
,,5f4a835e9e84256238129995,6685aa9113c938e83b4f1ea0,6704174d055d119e5ee7602e,2024-10-07_13h35.33.588,WTP_SM_Choice,2022.2.1,Win32,59.88023952,,,,,,,,,,,,,,,,,,81,,,,,,space,5.2846,space,0.7066,0.01,1,0.7347,0,0,0,0,1,Read a book first thing in the morning,Go to the theatre,0.01,0.02,3.3,1,,,,
,,5f4a835e9e84256238129995,6685aa9113c938e83b4f1ea0,6704174d055d119e5ee7602e,2024-10-07_13h35.33.588,WTP_SM_Choice,2022.2.1,Win32,59.88023952,,,,,,,,,,,,,,,,,,82,,,,,,,,,,0.02,1,1.7862,0,1,1,1,1,Go out to dinner,Paint my own nails,0.02,0.02,4.4,0,,,,
,,5f4a835e9e84256238129995,6685aa9113c938e83b4f1ea0,6704174d055d119e5ee7602e,2024-10-07_13h35.33.588,WTP_SM_Choice,2022.2.1,Win32,59.88023952,,,,,,,,,,,,,,,,,,83,,,,,,,,,,0.03,1,1.8629,0,2,2,2,1,go in the hot tub,Shop online for clothes,0.03,0.02,1.1,0,,,,
,,5f4a835e9e84256238129995,6685aa9113c938e83b4f1ea0,6704174d055d119e5ee7602e,2024-10-07_13h35.33.588,WTP_SM_Choice,2022.2.1,Win32,59.88023952,,,,,,,,,,,,,,,,,,84,,,,,,,,,,0.02,2,1.6265,0,3,3,3,1,Play vinyl on my record player,Go for a hike,0.04,0.02,3.3,1,,,,
,,5f4a835e9e84256238129995,6685aa9113c938e83b4f1ea0,6704174d055d119e5ee7602e,2024-10-07_13h35.33.588,WTP_SM_Choice,2022.2.1,Win32,59.88023952,,,,,,,,,,,,,,,,,,85,,,,,,,,,,0.02,2,1.1452,0,4,4,4,1,Go for a walk,Make a fresh bowl of pasta,0.05,0.02,3.3,0,,,,
,,5f4a835e9e84256238129995,6685aa9113c938e83b4f1ea0,6704174d055d119e5ee7602e,2024-10-07_13h35.33.588,WTP_SM_Choice,2022.2.1,Win32,59.88023952,,,,,,,NAN,,NAN,2.24,3.76,,0,84,84,84,1,85,Alex,Acc,Participant_Images/5f4a835e9e84256238129995/5f4a835e9e84256238129995_Images/5f4a835e9e84256238129995_Image_5.jpeg,liked,3.602308302,,,,,,,,,,,,,,,,,,,,,,
,,5f4a835e9e84256238129995,6685aa9113c938e83b4f1ea0,6704174d055d119e5ee7602e,2024-10-07_13h35.33.588,WTP_SM_Choice,2022.2.1,Win32,59.88023952,,,,,space,0.7704,NAN,,NAN,2.24,3.76,,0,85,85,85,1,86,Alex,Acc,Participant_Images/5f4a835e9e84256238129995/5f4a835e9e84256238129995_Images/5f4a835e9e84256238129995_Image_3.jpeg,liked,4.106391878,,,,,,,,,,,,,,,,,,,,,,
,,5f4a835e9e84256238129995,6685aa9113c938e83b4f1ea0,6704174d055d119e5ee7602e,2024-10-07_13h35.33.588,WTP_SM_Choice,2022.2.1,Win32,59.88023952,,,,,space,4.4715,NAN,,NAN,2.24,3.76,,0,86,86,86,1,87,Alex,Acc,Participant_Images/5f4a835e9e84256238129995/5f4a835e9e84256238129995_Images/5f4a835e9e84256238129995_Image_24.jpeg,did not like,3.799433026,,,,,,,,,,,,,,,,,,,,,,
,,5f4a835e9e84256238129995,6685aa9113c938e83b4f1ea0,6704174d055d119e5ee7602e,2024-10-07_13h35.33.588,WTP_SM_Choice,2022.2.1,Win32,59.88023952,,,,,space,2.0023,NAN,,NAN,2.24,3.76,,0,87,87,87,1,88,Alex,Acc,Participant_Images/5f4a835e9e84256238129995/5f4a835e9e84256238129995_Images/5f4a835e9e84256238129995_Image_22.jpeg,liked,5.246980764,,,,,,,,,,,,,,,,,,,,,,
,,5f4a835e9e84256238129995,6685aa9113c938e83b4f1ea0,6704174d055d119e5ee7602e,2024-10-07_13h35.33.588,WTP_SM_Choice,2022.2.1,Win32,59.88023952,,,,,space,3.5997,NAN,,NAN,2.24,3.76,,0,88,88,88,1,89,Alex,Acc,Participant_Images/5f4a835e9e84256238129995/5f4a835e9e84256238129995_Images/5f4a835e9e84256238129995_Image_2.jpeg,did not like,3.30081769,,,,,,,,,,,,,,,,,,,,,,
,,5f4a835e9e84256238129995,6685aa9113c938e83b4f1ea0,6704174d055d119e5ee7602e,2024-10-07_13h35.33.588,WTP_SM_Choice,2022.2.1,Win32,59.88023952,,,,,,,,,,,,,,,,,,86,,,,,,space,7.6772,space,0.4678,0.01,1,1.1633,0,0,0,0,1,Watch a movie at home,Make a big breakfast,0.01,0.03,1.1,0,,,,
,,5f4a835e9e84256238129995,6685aa9113c938e83b4f1ea0,6704174d055d119e5ee7602e,2024-10-07_13h35.33.588,WTP_SM_Choice,2022.2.1,Win32,59.88023952,,,,,,,,,,,,,,,,,,87,,,,,,,,,,0.02,1,1.4984,0,1,1,1,1,Make a big breakfast,have a fire outside,0.02,0.03,4.4,1,,,,
,,5f4a835e9e84256238129995,6685aa9113c938e83b4f1ea0,6704174d055d119e5ee7602e,2024-10-07_13h35.33.588,WTP_SM_Choice,2022.2.1,Win32,59.88023952,,,,,,,,,,,,,,,,,,88,,,,,,,,,,0.03,2,1.4737,0,2,2,2,1,Watch a movie at home,Listen to a podcast,0.03,0.03,1.1,0,,,,
,,5f4a835e9e84256238129995,6685aa9113c938e83b4f1ea0,6704174d055d119e5ee7602e,2024-10-07_13h35.33.588,WTP_SM_Choice,2022.2.1,Win32,59.88023952,,,,,,,,,,,,,,,,,,89,,,,,,,,,,0.03,2,0.9284,0,3,3,3,1,go in the hot tub,Listen to a podcast,0.04,0.03,3.3,0,,,,
,,5f4a835e9e84256238129995,6685aa9113c938e83b4f1ea0,6704174d055d119e5ee7602e,2024-10-07_13h35.33.588,WTP_SM_Choice,2022.2.1,Win32,59.88023952,,,,,,,,,,,,,,,,,,90,,,,,,,,,,0.03,2,1.5402,0,4,4,4,1,Do yoga in my room,Watch a movie at home,0.05,0.03,8.8,1,,,,
,,5f4a835e9e84256238129995,6685aa9113c938e83b4f1ea0,6704174d055d119e5ee7602e,2024-10-07_13h35.33.588,WTP_SM_Choice,2022.2.1,Win32,59.88023952,,,,,,,NAN,,NAN,2.36,3.64,,0,89,89,89,1,90,Alex,Acc,Participant_Images/5f4a835e9e84256238129995/5f4a835e9e84256238129995_Images/5f4a835e9e84256238129995_Image_18.jpeg,liked,1.661473164,,,,,,,,,,,,,,,,,,,,,,
,,5f4a835e9e84256238129995,6685aa9113c938e83b4f1ea0,6704174d055d119e5ee7602e,2024-10-07_13h35.33.588,WTP_SM_Choice,2022.2.1,Win32,59.88023952,,,,,space,7.1254,NAN,,NAN,2.36,3.64,,0,90,90,90,1,91,Alex,Acc,Participant_Images/5f4a835e9e84256238129995/5f4a835e9e84256238129995_Images/5f4a835e9e84256238129995_Image_15.jpeg,liked,3.613205605,,,,,,,,,,,,,,,,,,,,,,
,,5f4a835e9e84256238129995,6685aa9113c938e83b4f1ea0,6704174d055d119e5ee7602e,2024-10-07_13h35.33.588,WTP_SM_Choice,2022.2.1,Win32,59.88023952,,,,,space,10.3614,NAN,,NAN,2.36,3.64,,0,91,91,91,1,92,Alex,Acc,Participant_Images/5f4a835e9e84256238129995/5f4a835e9e84256238129995_Images/5f4a835e9e84256238129995_Image_10.jpeg,did not like,4.988446431,,,,,,,,,,,,,,,,,,,,,,
,,5f4a835e9e84256238129995,6685aa9113c938e83b4f1ea0,6704174d055d119e5ee7602e,2024-10-07_13h35.33.588,WTP_SM_Choice,2022.2.1,Win32,59.88023952,,,,,space,4.0549,NAN,,NAN,2.36,3.64,,0,92,92,92,1,93,Alex,Acc,Participant_Images/5f4a835e9e84256238129995/5f4a835e9e84256238129995_Images/5f4a835e9e84256238129995_Image_9.jpeg,liked,3.470791822,,,,,,,,,,,,,,,,,,,,,,
,,5f4a835e9e84256238129995,6685aa9113c938e83b4f1ea0,6704174d055d119e5ee7602e,2024-10-07_13h35.33.588,WTP_SM_Choice,2022.2.1,Win32,59.88023952,,,,,space,7.6929,NAN,,NAN,2.36,3.64,,0,93,93,93,1,94,Alex,Acc,Participant_Images/5f4a835e9e84256238129995/5f4a835e9e84256238129995_Images/5f4a835e9e84256238129995_Image_21.jpeg,did not like,3.820572462,,,,,,,,,,,,,,,,,,,,,,
,,5f4a835e9e84256238129995,6685aa9113c938e83b4f1ea0,6704174d055d119e5ee7602e,2024-10-07_13h35.33.588,WTP_SM_Choice,2022.2.1,Win32,59.88023952,,,,,,,,,,,,,,,,,,91,,,,,,space,2.1854,space,1.3609,0.01,1,1.5363,0,0,0,0,1,Shop online for clothes,cook a big dinner,0.01,0.04,3.3,1,,,,
,,5f4a835e9e84256238129995,6685aa9113c938e83b4f1ea0,6704174d055d119e5ee7602e,2024-10-07_13h35.33.588,WTP_SM_Choice,2022.2.1,Win32,59.88023952,,,,,,,,,,,,,,,,,,92,,,,,,,,,,0.02,1,1.7301,0,1,1,1,1,Go to the gym,cook a big dinner,0.02,0.04,8.8,1,,,,
,,5f4a835e9e84256238129995,6685aa9113c938e83b4f1ea0,6704174d055d119e5ee7602e,2024-10-07_13h35.33.588,WTP_SM_Choice,2022.2.1,Win32,59.88023952,,,,,,,,,,,,,,,,,,93,,,,,,,,,,0.03,1,1.7916,0,2,2,2,1,have a fire outside,Make a fresh bowl of pasta,0.03,0.04,1.1,0,,,,
,,5f4a835e9e84256238129995,6685aa9113c938e83b4f1ea0,6704174d055d119e5ee7602e,2024-10-07_13h35.33.588,WTP_SM_Choice,2022.2.1,Win32,59.88023952,,,,,,,,,,,,,,,,,,94,,,,,,,,,,0.04,1,1.9553,0,3,3,3,1,Paint my own nails,Go for a hike,0.04,0.04,4.4,1,,,,
,,5f4a835e9e84256238129995,6685aa9113c938e83b4f1ea0,6704174d055d119e5ee7602e,2024-10-07_13h35.33.588,WTP_SM_Choice,2022.2.1,Win32,59.88023952,,,,,,,,,,,,,,,,,,95,,,,,,,,,,0.04,2,3.9336,0,4,4,4,1,Go to the theatre,Make a big breakfast,0.05,0.04,4.4,0,,,,
,,5f4a835e9e84256238129995,6685aa9113c938e83b4f1ea0,6704174d055d119e5ee7602e,2024-10-07_13h35.33.588,WTP_SM_Choice,2022.2.1,Win32,59.88023952,,,,,,,NAN,,NAN,2.5,3.5,,0,94,94,94,1,95,Alex,Acc,Participant_Images/5f4a835e9e84256238129995/5f4a835e9e84256238129995_Images/5f4a835e9e84256238129995_Image_13.jpeg,liked,2.455989137,,,,,,,,,,,,,,,,,,,,,,
,,5f4a835e9e84256238129995,6685aa9113c938e83b4f1ea0,6704174d055d119e5ee7602e,2024-10-07_13h35.33.588,WTP_SM_Choice,2022.2.1,Win32,59.88023952,,,,,space,13.6032,NAN,,NAN,2.5,3.5,,0,95,95,95,1,96,Alex,Acc,Participant_Images/5f4a835e9e84256238129995/5f4a835e9e84256238129995_Images/5f4a835e9e84256238129995_Image_17.jpeg,liked,3.79605092,,,,,,,,,,,,,,,,,,,,,,
,,5f4a835e9e84256238129995,6685aa9113c938e83b4f1ea0,6704174d055d119e5ee7602e,2024-10-07_13h35.33.588,WTP_SM_Choice,2022.2.1,Win32,59.88023952,,,,,space,6.9419,NAN,,NAN,2.5,3.5,,0,96,96,96,1,97,Alex,Acc,Participant_Images/5f4a835e9e84256238129995/5f4a835e9e84256238129995_Images/5f4a835e9e84256238129995_Image_4.jpeg,liked,3.562416326,,,,,,,,,,,,,,,,,,,,,,
,,5f4a835e9e84256238129995,6685aa9113c938e83b4f1ea0,6704174d055d119e5ee7602e,2024-10-07_13h35.33.588,WTP_SM_Choice,2022.2.1,Win32,59.88023952,,,,,space,5.1054,NAN,,NAN,2.5,3.5,,0,97,97,97,1,98,Alex,Acc,Participant_Images/5f4a835e9e84256238129995/5f4a835e9e84256238129995_Images/5f4a835e9e84256238129995_Image_25.jpeg,liked,2.843822497,,,,,,,,,,,,,,,,,,,,,,
,,5f4a835e9e84256238129995,6685aa9113c938e83b4f1ea0,6704174d055d119e5ee7602e,2024-10-07_13h35.33.588,WTP_SM_Choice,2022.2.1,Win32,59.88023952,,,,,space,2.3463,NAN,,NAN,2.5,3.5,,0,98,98,98,1,99,Alex,Acc,Participant_Images/5f4a835e9e84256238129995/5f4a835e9e84256238129995_Images/5f4a835e9e84256238129995_Image_14.jpeg,liked,3.546495948,,,,,,,,,,,,,,,,,,,,,,
,,5f4a835e9e84256238129995,6685aa9113c938e83b4f1ea0,6704174d055d119e5ee7602e,2024-10-07_13h35.33.588,WTP_SM_Choice,2022.2.1,Win32,59.88023952,,,,,,,,,,,,,,,,,,96,,,,,,space,2.1309,space,1.4025,0.01,1,1.6715,0,0,0,0,1,Go in the hot tub at night,go in the hot tub,0.01,0.05,3.3,1,,,,
,,5f4a835e9e84256238129995,6685aa9113c938e83b4f1ea0,6704174d055d119e5ee7602e,2024-10-07_13h35.33.588,WTP_SM_Choice,2022.2.1,Win32,59.88023952,,,,,,,,,,,,,,,,,,97,,,,,,,,,,0.02,1,1.6811,0,1,1,1,1,have a fire outside,Paint my own nails,0.02,0.05,1.1,0,,,,
,,5f4a835e9e84256238129995,6685aa9113c938e83b4f1ea0,6704174d055d119e5ee7602e,2024-10-07_13h35.33.588,WTP_SM_Choice,2022.2.1,Win32,59.88023952,,,,,,,,,,,,,,,,,,98,,,,,,,,,,0.05,2,2.4907,0,2,2,2,1,have a fire outside,Listen to a podcast,0.03,0.05,1.1,0,,,,
,,5f4a835e9e84256238129995,6685aa9113c938e83b4f1ea0,6704174d055d119e5ee7602e,2024-10-07_13h35.33.588,WTP_SM_Choice,2022.2.1,Win32,59.88023952,,,,,,,,,,,,,,,,,,99,,,,,,,,,,0.04,1,1.1024,0,3,3,3,1,have a bbq,Go to the gym,0.04,0.05,3.3,0,,,,
,,5f4a835e9e84256238129995,6685aa9113c938e83b4f1ea0,6704174d055d119e5ee7602e,2024-10-07_13h35.33.588,WTP_SM_Choice,2022.2.1,Win32,59.88023952,,,,,,,,,,,,,,,,,,100,,,,,,,,,,0.05,1,1.6692,0,4,4,4,1,Read a book first thing in the morning,Go to the gym,0.05,0.05,4.4,1,,,,
,,5f4a835e9e84256238129995,6685aa9113c938e83b4f1ea0,6704174d055d119e5ee7602e,2024-10-07_13h35.33.588,WTP_SM_Choice,2022.2.1,Win32,59.88023952,,,,,,,3,,4,2.67,3.33,,0,99,99,99,1,100,Alex,Acc,Participant_Images/5f4a835e9e84256238129995/5f4a835e9e84256238129995_Images/5f4a835e9e84256238129995_Image_11.jpeg,did not like,1.672012706,,,,,,,,,,,,,,,,,,,space,0.7467,,
,,5f4a835e9e84256238129995,6685aa9113c938e83b4f1ea0,6704174d055d119e5ee7602e,2024-10-07_13h35.33.588,WTP_SM_Choice,2022.2.1,Win32,59.88023952,,,,,,,,,,,,,,,,,,,,,,,,,,,,,,,,,,,,,,,,,,,,space,2.8381
