endwelcomescreen_keys.keys,endwelcomescreen_keys.rt,participant,STUDY_ID,SESSION_ID,date,expName,psychopyVersion,OS,frameRate,endinstructionscreen_keys.keys,endinstructionscreen_keys.rt,endpartnermatch_keys.keys,endpartnermatch_keys.rt,sharenextphoto_key.keys,sharenextphoto_key.rt,salience_rating,key_resp.keys,stress_level,subtract_bonus,TOTAL_TASK_BONUS,stresslevel_keypress.keys,entiretaskloop.thisRepN,entiretaskloop.thisTrialN,entiretaskloop.thisN,entiretaskloop.thisIndex,entiretaskloop.ran,TrialNumber,Partner,Condition,Photos,Feedback,FeedbackWait,WTP_ins_keys1.keys,WTP_ins_keys1.rt,WTP_ins_keys2.keys,WTP_ins_keys2.rt,decision_price,responses.keys,responses.rt,WTPTaskLoop.thisRepN,WTPTaskLoop.thisTrialN,WTPTaskLoop.thisN,WTPTaskLoop.thisIndex,WTPTaskLoop.ran,right,left,leftmoney,rightmoney,WTP_ITI,social_left,Resume_keys.keys,Resume_keys.rt,end_screen_keys.keys,end_screen_keys.rt
space,171.13,5fe23b5e1f2ef9db2ab8e5a0,6685aa9113c938e83b4f1ea0,672c105ced9e20d9c4c5f14b,2024-11-06_19h58.31.594,WTP_SM_Choice,2022.2.1,MacIntel,57.80346821,,,,,,,,,,,,,,,,,,,,,,,,,,,,,,,,,,,,,,,,,,,,,
,,5fe23b5e1f2ef9db2ab8e5a0,6685aa9113c938e83b4f1ea0,672c105ced9e20d9c4c5f14b,2024-11-06_19h58.31.594,WTP_SM_Choice,2022.2.1,MacIntel,57.80346821,space,16.1662,,,,,,,,,,,,,,,,,,,,,,,,,,,,,,,,,,,,,,,,,,,
,,5fe23b5e1f2ef9db2ab8e5a0,6685aa9113c938e83b4f1ea0,672c105ced9e20d9c4c5f14b,2024-11-06_19h58.31.594,WTP_SM_Choice,2022.2.1,MacIntel,57.80346821,,,space,1.8693,space,1.0516,NAN,,NAN,0,6,,0,0,0,0,1,1,Alex,Rej,Participant_Images/5fe23b5e1f2ef9db2ab8e5a0/5fe23b5e1f2ef9db2ab8e5a0_Images/5fe23b5e1f2ef9db2ab8e5a0_Image_11.jpeg,did not like,3.613205605,,,,,,,,,,,,,,,,,,,,,,
,,5fe23b5e1f2ef9db2ab8e5a0,6685aa9113c938e83b4f1ea0,672c105ced9e20d9c4c5f14b,2024-11-06_19h58.31.594,WTP_SM_Choice,2022.2.1,MacIntel,57.80346821,,,,,space,1.005,NAN,,NAN,0,6,,0,1,1,1,1,2,Alex,Rej,Participant_Images/5fe23b5e1f2ef9db2ab8e5a0/5fe23b5e1f2ef9db2ab8e5a0_Images/5fe23b5e1f2ef9db2ab8e5a0_Image_12.jpeg,liked,4.988446431,,,,,,,,,,,,,,,,,,,,,,
,,5fe23b5e1f2ef9db2ab8e5a0,6685aa9113c938e83b4f1ea0,672c105ced9e20d9c4c5f14b,2024-11-06_19h58.31.594,WTP_SM_Choice,2022.2.1,MacIntel,57.80346821,,,,,space,0.8828,NAN,,NAN,0,6,,0,2,2,2,1,3,Alex,Rej,Participant_Images/5fe23b5e1f2ef9db2ab8e5a0/5fe23b5e1f2ef9db2ab8e5a0_Images/5fe23b5e1f2ef9db2ab8e5a0_Image_8.jpeg,did not like,3.470791822,,,,,,,,,,,,,,,,,,,,,,
,,5fe23b5e1f2ef9db2ab8e5a0,6685aa9113c938e83b4f1ea0,672c105ced9e20d9c4c5f14b,2024-11-06_19h58.31.594,WTP_SM_Choice,2022.2.1,MacIntel,57.80346821,,,,,space,0.9232,NAN,,NAN,0,6,,0,3,3,3,1,4,Alex,Rej,Participant_Images/5fe23b5e1f2ef9db2ab8e5a0/5fe23b5e1f2ef9db2ab8e5a0_Images/5fe23b5e1f2ef9db2ab8e5a0_Image_19.jpeg,liked,3.820572462,,,,,,,,,,,,,,,,,,,,,,
,,5fe23b5e1f2ef9db2ab8e5a0,6685aa9113c938e83b4f1ea0,672c105ced9e20d9c4c5f14b,2024-11-06_19h58.31.594,WTP_SM_Choice,2022.2.1,MacIntel,57.80346821,,,,,,,,,,,,,,,,,,1,,,,,,space,9.2537,space,5.8858,0.01,1,4.1417,0,0,0,0,1,Cook a nice dinner over wine with my girlfriend,Ride my bicycle around New York on a warm sunny day,0.01,0.01,4.4,0,,,,
,,5fe23b5e1f2ef9db2ab8e5a0,6685aa9113c938e83b4f1ea0,672c105ced9e20d9c4c5f14b,2024-11-06_19h58.31.594,WTP_SM_Choice,2022.2.1,MacIntel,57.80346821,,,,,,,,,,,,,,,,,,2,,,,,,,,,,0.02,1,3.5691,0,1,1,1,1,Watch a foreign movie in my living room at night,Get together with old friends to catch up over a meal,0.02,0.01,8.8,1,,,,
,,5fe23b5e1f2ef9db2ab8e5a0,6685aa9113c938e83b4f1ea0,672c105ced9e20d9c4c5f14b,2024-11-06_19h58.31.594,WTP_SM_Choice,2022.2.1,MacIntel,57.80346821,,,,,,,,,,,,,,,,,,3,,,,,,,,,,0.03,1,3.2208,0,2,2,2,1,Get together with my book club to discuss a new book,Read a good book in my arm chair at night with warm lighting,0.03,0.01,3.3,0,,,,
,,5fe23b5e1f2ef9db2ab8e5a0,6685aa9113c938e83b4f1ea0,672c105ced9e20d9c4c5f14b,2024-11-06_19h58.31.594,WTP_SM_Choice,2022.2.1,MacIntel,57.80346821,,,,,,,,,,,,,,,,,,4,,,,,,,,,,0.01,2,2.4143,0,3,3,3,1,Ride my bicycle around New York on a warm sunny day,Go on roadtrips with my girlfriend and best friends,0.04,0.01,1.1,1,,,,
,,5fe23b5e1f2ef9db2ab8e5a0,6685aa9113c938e83b4f1ea0,672c105ced9e20d9c4c5f14b,2024-11-06_19h58.31.594,WTP_SM_Choice,2022.2.1,MacIntel,57.80346821,,,,,,,,,,,,,,,,,,5,,,,,,,,,,0.01,2,2.2964,0,4,4,4,1,Go on roadtrips with my girlfriend and best friends,Go for a run in the park on a sunny day,0.05,0.01,1.1,0,,,,
,,5fe23b5e1f2ef9db2ab8e5a0,6685aa9113c938e83b4f1ea0,672c105ced9e20d9c4c5f14b,2024-11-06_19h58.31.594,WTP_SM_Choice,2022.2.1,MacIntel,57.80346821,,,,,,,NAN,,NAN,0.08,5.92,,0,4,4,4,1,5,Alex,Rej,Participant_Images/5fe23b5e1f2ef9db2ab8e5a0/5fe23b5e1f2ef9db2ab8e5a0_Images/5fe23b5e1f2ef9db2ab8e5a0_Image_24.jpeg,liked,2.455989137,,,,,,,,,,,,,,,,,,,,,,
,,5fe23b5e1f2ef9db2ab8e5a0,6685aa9113c938e83b4f1ea0,672c105ced9e20d9c4c5f14b,2024-11-06_19h58.31.594,WTP_SM_Choice,2022.2.1,MacIntel,57.80346821,,,,,space,1.3545,NAN,,NAN,0.08,5.92,,0,5,5,5,1,6,Alex,Rej,Participant_Images/5fe23b5e1f2ef9db2ab8e5a0/5fe23b5e1f2ef9db2ab8e5a0_Images/5fe23b5e1f2ef9db2ab8e5a0_Image_13.jpeg,liked,3.79605092,,,,,,,,,,,,,,,,,,,,,,
,,5fe23b5e1f2ef9db2ab8e5a0,6685aa9113c938e83b4f1ea0,672c105ced9e20d9c4c5f14b,2024-11-06_19h58.31.594,WTP_SM_Choice,2022.2.1,MacIntel,57.80346821,,,,,space,1.3615,NAN,,NAN,0.08,5.92,,0,6,6,6,1,7,Alex,Rej,Participant_Images/5fe23b5e1f2ef9db2ab8e5a0/5fe23b5e1f2ef9db2ab8e5a0_Images/5fe23b5e1f2ef9db2ab8e5a0_Image_16.jpeg,liked,3.562416326,,,,,,,,,,,,,,,,,,,,,,
,,5fe23b5e1f2ef9db2ab8e5a0,6685aa9113c938e83b4f1ea0,672c105ced9e20d9c4c5f14b,2024-11-06_19h58.31.594,WTP_SM_Choice,2022.2.1,MacIntel,57.80346821,,,,,space,0.9471,NAN,,NAN,0.08,5.92,,0,7,7,7,1,8,Alex,Rej,Participant_Images/5fe23b5e1f2ef9db2ab8e5a0/5fe23b5e1f2ef9db2ab8e5a0_Images/5fe23b5e1f2ef9db2ab8e5a0_Image_7.jpeg,did not like,2.843822497,,,,,,,,,,,,,,,,,,,,,,
,,5fe23b5e1f2ef9db2ab8e5a0,6685aa9113c938e83b4f1ea0,672c105ced9e20d9c4c5f14b,2024-11-06_19h58.31.594,WTP_SM_Choice,2022.2.1,MacIntel,57.80346821,,,,,space,0.8999,NAN,,NAN,0.08,5.92,,0,8,8,8,1,9,Alex,Rej,Participant_Images/5fe23b5e1f2ef9db2ab8e5a0/5fe23b5e1f2ef9db2ab8e5a0_Images/5fe23b5e1f2ef9db2ab8e5a0_Image_17.jpeg,did not like,3.546495948,,,,,,,,,,,,,,,,,,,,,,
,,5fe23b5e1f2ef9db2ab8e5a0,6685aa9113c938e83b4f1ea0,672c105ced9e20d9c4c5f14b,2024-11-06_19h58.31.594,WTP_SM_Choice,2022.2.1,MacIntel,57.80346821,,,,,,,,,,,,,,,,,,6,,,,,,space,5.3702,space,4.3255,0.01,1,3.9225,0,0,0,0,1,Play video games in my living room at night,Get together with my book club to discuss a new book,0.01,0.02,3.3,1,,,,
,,5fe23b5e1f2ef9db2ab8e5a0,6685aa9113c938e83b4f1ea0,672c105ced9e20d9c4c5f14b,2024-11-06_19h58.31.594,WTP_SM_Choice,2022.2.1,MacIntel,57.80346821,,,,,,,,,,,,,,,,,,7,,,,,,,,,,0.02,2,3.1115,0,1,1,1,1,Work on my short story on my desk with soft music,Go on roadtrips with my girlfriend and best friends,0.02,0.02,1.1,1,,,,
,,5fe23b5e1f2ef9db2ab8e5a0,6685aa9113c938e83b4f1ea0,672c105ced9e20d9c4c5f14b,2024-11-06_19h58.31.594,WTP_SM_Choice,2022.2.1,MacIntel,57.80346821,,,,,,,,,,,,,,,,,,8,,,,,,,,,,0.02,2,2.7601,0,2,2,2,1,Play cooperative video games with my guy friends at night,Play video games in my living room at night,0.03,0.02,1.1,0,,,,
,,5fe23b5e1f2ef9db2ab8e5a0,6685aa9113c938e83b4f1ea0,672c105ced9e20d9c4c5f14b,2024-11-06_19h58.31.594,WTP_SM_Choice,2022.2.1,MacIntel,57.80346821,,,,,,,,,,,,,,,,,,9,,,,,,,,,,0.02,2,1.8633,0,3,3,3,1,Get together with old friends to catch up over a meal,Play video games in my living room at night,0.04,0.02,4.4,0,,,,
,,5fe23b5e1f2ef9db2ab8e5a0,6685aa9113c938e83b4f1ea0,672c105ced9e20d9c4c5f14b,2024-11-06_19h58.31.594,WTP_SM_Choice,2022.2.1,MacIntel,57.80346821,,,,,,,,,,,,,,,,,,10,,,,,,,,,,0.02,2,2.6474,0,4,4,4,1,Play cooperative video games with my guy friends at night,Play saxophone in my bedroom during the day,0.05,0.02,1.1,0,,,,
,,5fe23b5e1f2ef9db2ab8e5a0,6685aa9113c938e83b4f1ea0,672c105ced9e20d9c4c5f14b,2024-11-06_19h58.31.594,WTP_SM_Choice,2022.2.1,MacIntel,57.80346821,,,,,,,NAN,,NAN,0.17,5.83,,0,9,9,9,1,10,Alex,Rej,Participant_Images/5fe23b5e1f2ef9db2ab8e5a0/5fe23b5e1f2ef9db2ab8e5a0_Images/5fe23b5e1f2ef9db2ab8e5a0_Image_6.jpeg,did not like,1.672012706,,,,,,,,,,,,,,,,,,,,,,
,,5fe23b5e1f2ef9db2ab8e5a0,6685aa9113c938e83b4f1ea0,672c105ced9e20d9c4c5f14b,2024-11-06_19h58.31.594,WTP_SM_Choice,2022.2.1,MacIntel,57.80346821,,,,,space,0.9758,NAN,,NAN,0.17,5.83,,0,10,10,10,1,11,Alex,Rej,Participant_Images/5fe23b5e1f2ef9db2ab8e5a0/5fe23b5e1f2ef9db2ab8e5a0_Images/5fe23b5e1f2ef9db2ab8e5a0_Image_15.jpeg,did not like,4.942172136,,,,,,,,,,,,,,,,,,,,,,
,,5fe23b5e1f2ef9db2ab8e5a0,6685aa9113c938e83b4f1ea0,672c105ced9e20d9c4c5f14b,2024-11-06_19h58.31.594,WTP_SM_Choice,2022.2.1,MacIntel,57.80346821,,,,,space,0.8935,NAN,,NAN,0.17,5.83,,0,11,11,11,1,12,Alex,Rej,Participant_Images/5fe23b5e1f2ef9db2ab8e5a0/5fe23b5e1f2ef9db2ab8e5a0_Images/5fe23b5e1f2ef9db2ab8e5a0_Image_22.jpeg,did not like,2.50187214,,,,,,,,,,,,,,,,,,,,,,
,,5fe23b5e1f2ef9db2ab8e5a0,6685aa9113c938e83b4f1ea0,672c105ced9e20d9c4c5f14b,2024-11-06_19h58.31.594,WTP_SM_Choice,2022.2.1,MacIntel,57.80346821,,,,,space,0.7692,NAN,,NAN,0.17,5.83,,0,12,12,12,1,13,Alex,Rej,Participant_Images/5fe23b5e1f2ef9db2ab8e5a0/5fe23b5e1f2ef9db2ab8e5a0_Images/5fe23b5e1f2ef9db2ab8e5a0_Image_20.jpeg,liked,2.071164779,,,,,,,,,,,,,,,,,,,,,,
,,5fe23b5e1f2ef9db2ab8e5a0,6685aa9113c938e83b4f1ea0,672c105ced9e20d9c4c5f14b,2024-11-06_19h58.31.594,WTP_SM_Choice,2022.2.1,MacIntel,57.80346821,,,,,space,0.8904,NAN,,NAN,0.17,5.83,,0,13,13,13,1,14,Alex,Rej,Participant_Images/5fe23b5e1f2ef9db2ab8e5a0/5fe23b5e1f2ef9db2ab8e5a0_Images/5fe23b5e1f2ef9db2ab8e5a0_Image_1.jpeg,did not like,5.336503566,,,,,,,,,,,,,,,,,,,,,,
,,5fe23b5e1f2ef9db2ab8e5a0,6685aa9113c938e83b4f1ea0,672c105ced9e20d9c4c5f14b,2024-11-06_19h58.31.594,WTP_SM_Choice,2022.2.1,MacIntel,57.80346821,,,,,,,,,,,,,,,,,,11,,,,,,space,18.2894,space,6.3368,0.01,1,2.6147,0,0,0,0,1,Work on my short story on my desk with soft music,Go on a long bike ride to far away parts of the city with my bike club,0.01,0.03,3.3,1,,,,
,,5fe23b5e1f2ef9db2ab8e5a0,6685aa9113c938e83b4f1ea0,672c105ced9e20d9c4c5f14b,2024-11-06_19h58.31.594,WTP_SM_Choice,2022.2.1,MacIntel,57.80346821,,,,,,,,,,,,,,,,,,12,,,,,,,,,,0.02,1,1.9067,0,1,1,1,1,Watch a foreign movie in my living room at night,Go to a concert with my girlfriend,0.02,0.03,4.4,1,,,,
,,5fe23b5e1f2ef9db2ab8e5a0,6685aa9113c938e83b4f1ea0,672c105ced9e20d9c4c5f14b,2024-11-06_19h58.31.594,WTP_SM_Choice,2022.2.1,MacIntel,57.80346821,,,,,,,,,,,,,,,,,,13,,,,,,,,,,0.03,1,3.321,0,2,2,2,1,Make a well crafted coffee and enjoying it on my balcony,Go to a coffeeshop with my friends to work on personal projects or read,0.03,0.03,1.1,1,,,,
,,5fe23b5e1f2ef9db2ab8e5a0,6685aa9113c938e83b4f1ea0,672c105ced9e20d9c4c5f14b,2024-11-06_19h58.31.594,WTP_SM_Choice,2022.2.1,MacIntel,57.80346821,,,,,,,,,,,,,,,,,,14,,,,,,,,,,0.03,2,2.1685,0,3,3,3,1,Go to a local bar with my neighborhood friends,Exercise in my bedroom to loud rock music,0.04,0.03,3.3,0,,,,
,,5fe23b5e1f2ef9db2ab8e5a0,6685aa9113c938e83b4f1ea0,672c105ced9e20d9c4c5f14b,2024-11-06_19h58.31.594,WTP_SM_Choice,2022.2.1,MacIntel,57.80346821,,,,,,,,,,,,,,,,,,15,,,,,,,,,,0.03,2,2.0337,0,4,4,4,1,Ride my bicycle around New York on a warm sunny day,Get together with old friends to catch up over a meal,0.05,0.03,4.4,1,,,,
,,5fe23b5e1f2ef9db2ab8e5a0,6685aa9113c938e83b4f1ea0,672c105ced9e20d9c4c5f14b,2024-11-06_19h58.31.594,WTP_SM_Choice,2022.2.1,MacIntel,57.80346821,,,,,,,NAN,,NAN,0.29,5.71,,0,14,14,14,1,15,Alex,Rej,Participant_Images/5fe23b5e1f2ef9db2ab8e5a0/5fe23b5e1f2ef9db2ab8e5a0_Images/5fe23b5e1f2ef9db2ab8e5a0_Image_14.jpeg,did not like,2.642157193,,,,,,,,,,,,,,,,,,,,,,
,,5fe23b5e1f2ef9db2ab8e5a0,6685aa9113c938e83b4f1ea0,672c105ced9e20d9c4c5f14b,2024-11-06_19h58.31.594,WTP_SM_Choice,2022.2.1,MacIntel,57.80346821,,,,,space,0.8037,NAN,,NAN,0.29,5.71,,0,15,15,15,1,16,Alex,Rej,Participant_Images/5fe23b5e1f2ef9db2ab8e5a0/5fe23b5e1f2ef9db2ab8e5a0_Images/5fe23b5e1f2ef9db2ab8e5a0_Image_18.jpeg,did not like,4.456234322,,,,,,,,,,,,,,,,,,,,,,
,,5fe23b5e1f2ef9db2ab8e5a0,6685aa9113c938e83b4f1ea0,672c105ced9e20d9c4c5f14b,2024-11-06_19h58.31.594,WTP_SM_Choice,2022.2.1,MacIntel,57.80346821,,,,,space,3.1253,NAN,,NAN,0.29,5.71,,0,16,16,16,1,17,Alex,Rej,Participant_Images/5fe23b5e1f2ef9db2ab8e5a0/5fe23b5e1f2ef9db2ab8e5a0_Images/5fe23b5e1f2ef9db2ab8e5a0_Image_4.jpeg,did not like,4.438512181,,,,,,,,,,,,,,,,,,,,,,
,,5fe23b5e1f2ef9db2ab8e5a0,6685aa9113c938e83b4f1ea0,672c105ced9e20d9c4c5f14b,2024-11-06_19h58.31.594,WTP_SM_Choice,2022.2.1,MacIntel,57.80346821,,,,,space,2.5541,NAN,,NAN,0.29,5.71,,0,17,17,17,1,18,Alex,Rej,Participant_Images/5fe23b5e1f2ef9db2ab8e5a0/5fe23b5e1f2ef9db2ab8e5a0_Images/5fe23b5e1f2ef9db2ab8e5a0_Image_2.jpeg,liked,2.682944783,,,,,,,,,,,,,,,,,,,,,,
,,5fe23b5e1f2ef9db2ab8e5a0,6685aa9113c938e83b4f1ea0,672c105ced9e20d9c4c5f14b,2024-11-06_19h58.31.594,WTP_SM_Choice,2022.2.1,MacIntel,57.80346821,,,,,space,1.3223,NAN,,NAN,0.29,5.71,,0,18,18,18,1,19,Alex,Rej,Participant_Images/5fe23b5e1f2ef9db2ab8e5a0/5fe23b5e1f2ef9db2ab8e5a0_Images/5fe23b5e1f2ef9db2ab8e5a0_Image_25.jpeg,did not like,4.51984296,,,,,,,,,,,,,,,,,,,,,,
,,5fe23b5e1f2ef9db2ab8e5a0,6685aa9113c938e83b4f1ea0,672c105ced9e20d9c4c5f14b,2024-11-06_19h58.31.594,WTP_SM_Choice,2022.2.1,MacIntel,57.80346821,,,,,,,,,,,,,,,,,,16,,,,,,space,4.0848,space,1.0202,0.01,1,1.1832,0,0,0,0,1,Watch a foreign movie in my living room at night,Go to a coffeeshop with my friends to work on personal projects or read,0.01,0.04,1.1,1,,,,
,,5fe23b5e1f2ef9db2ab8e5a0,6685aa9113c938e83b4f1ea0,672c105ced9e20d9c4c5f14b,2024-11-06_19h58.31.594,WTP_SM_Choice,2022.2.1,MacIntel,57.80346821,,,,,,,,,,,,,,,,,,17,,,,,,,,,,0.04,2,2.439,0,1,1,1,1,Travel to other countries with my girlfriend and roommate,Play video games in my living room at night,0.02,0.04,8.8,0,,,,
,,5fe23b5e1f2ef9db2ab8e5a0,6685aa9113c938e83b4f1ea0,672c105ced9e20d9c4c5f14b,2024-11-06_19h58.31.594,WTP_SM_Choice,2022.2.1,MacIntel,57.80346821,,,,,,,,,,,,,,,,,,18,,,,,,,,,,0.03,1,1.4484,0,2,2,2,1,Exercise in my bedroom to loud rock music,Travel to other countries with my girlfriend and roommate,0.03,0.04,3.3,1,,,,
,,5fe23b5e1f2ef9db2ab8e5a0,6685aa9113c938e83b4f1ea0,672c105ced9e20d9c4c5f14b,2024-11-06_19h58.31.594,WTP_SM_Choice,2022.2.1,MacIntel,57.80346821,,,,,,,,,,,,,,,,,,19,,,,,,,,,,0.04,1,3.1511,0,3,3,3,1,Exercise in my bedroom to loud rock music,Go on roadtrips with my girlfriend and best friends,0.04,0.04,3.3,1,,,,
,,5fe23b5e1f2ef9db2ab8e5a0,6685aa9113c938e83b4f1ea0,672c105ced9e20d9c4c5f14b,2024-11-06_19h58.31.594,WTP_SM_Choice,2022.2.1,MacIntel,57.80346821,,,,,,,,,,,,,,,,,,20,,,,,,,,,,0.04,2,1.9645,0,4,4,4,1,Go on a long bike ride to far away parts of the city with my bike club,Play video games in my living room at night,0.05,0.04,1.1,0,,,,
,,5fe23b5e1f2ef9db2ab8e5a0,6685aa9113c938e83b4f1ea0,672c105ced9e20d9c4c5f14b,2024-11-06_19h58.31.594,WTP_SM_Choice,2022.2.1,MacIntel,57.80346821,,,,,,,NAN,,NAN,0.45,5.55,,0,19,19,19,1,20,Alex,Rej,Participant_Images/5fe23b5e1f2ef9db2ab8e5a0/5fe23b5e1f2ef9db2ab8e5a0_Images/5fe23b5e1f2ef9db2ab8e5a0_Image_21.jpeg,did not like,3.195382774,,,,,,,,,,,,,,,,,,,,,,
,,5fe23b5e1f2ef9db2ab8e5a0,6685aa9113c938e83b4f1ea0,672c105ced9e20d9c4c5f14b,2024-11-06_19h58.31.594,WTP_SM_Choice,2022.2.1,MacIntel,57.80346821,,,,,space,1.0881,NAN,,NAN,0.45,5.55,,0,20,20,20,1,21,Alex,Rej,Participant_Images/5fe23b5e1f2ef9db2ab8e5a0/5fe23b5e1f2ef9db2ab8e5a0_Images/5fe23b5e1f2ef9db2ab8e5a0_Image_23.jpeg,did not like,1.779333479,,,,,,,,,,,,,,,,,,,,,,
,,5fe23b5e1f2ef9db2ab8e5a0,6685aa9113c938e83b4f1ea0,672c105ced9e20d9c4c5f14b,2024-11-06_19h58.31.594,WTP_SM_Choice,2022.2.1,MacIntel,57.80346821,,,,,space,0.8747,NAN,,NAN,0.45,5.55,,0,21,21,21,1,22,Alex,Rej,Participant_Images/5fe23b5e1f2ef9db2ab8e5a0/5fe23b5e1f2ef9db2ab8e5a0_Images/5fe23b5e1f2ef9db2ab8e5a0_Image_10.jpeg,did not like,4.312468682,,,,,,,,,,,,,,,,,,,,,,
,,5fe23b5e1f2ef9db2ab8e5a0,6685aa9113c938e83b4f1ea0,672c105ced9e20d9c4c5f14b,2024-11-06_19h58.31.594,WTP_SM_Choice,2022.2.1,MacIntel,57.80346821,,,,,space,0.5409,NAN,,NAN,0.45,5.55,,0,22,22,22,1,23,Alex,Rej,Participant_Images/5fe23b5e1f2ef9db2ab8e5a0/5fe23b5e1f2ef9db2ab8e5a0_Images/5fe23b5e1f2ef9db2ab8e5a0_Image_5.jpeg,did not like,4.940433059,,,,,,,,,,,,,,,,,,,,,,
,,5fe23b5e1f2ef9db2ab8e5a0,6685aa9113c938e83b4f1ea0,672c105ced9e20d9c4c5f14b,2024-11-06_19h58.31.594,WTP_SM_Choice,2022.2.1,MacIntel,57.80346821,,,,,space,0.541,NAN,,NAN,0.45,5.55,,0,23,23,23,1,24,Alex,Rej,Participant_Images/5fe23b5e1f2ef9db2ab8e5a0/5fe23b5e1f2ef9db2ab8e5a0_Images/5fe23b5e1f2ef9db2ab8e5a0_Image_9.jpeg,did not like,2.7105123,,,,,,,,,,,,,,,,,,,,,,
,,5fe23b5e1f2ef9db2ab8e5a0,6685aa9113c938e83b4f1ea0,672c105ced9e20d9c4c5f14b,2024-11-06_19h58.31.594,WTP_SM_Choice,2022.2.1,MacIntel,57.80346821,,,,,,,,,,,,,,,,,,21,,,,,,space,2.5651,space,1.8903,0.01,1,2.3042,0,0,0,0,1,Go to a local bar with my neighborhood friends,Play video games in my living room at night,0.01,0.05,8.8,0,,,,
,,5fe23b5e1f2ef9db2ab8e5a0,6685aa9113c938e83b4f1ea0,672c105ced9e20d9c4c5f14b,2024-11-06_19h58.31.594,WTP_SM_Choice,2022.2.1,MacIntel,57.80346821,,,,,,,,,,,,,,,,,,22,,,,,,,,,,0.02,1,1.1836,0,1,1,1,1,Watch a foreign movie in my living room at night,Get together with my book club to discuss a new book,0.02,0.05,4.4,1,,,,
,,5fe23b5e1f2ef9db2ab8e5a0,6685aa9113c938e83b4f1ea0,672c105ced9e20d9c4c5f14b,2024-11-06_19h58.31.594,WTP_SM_Choice,2022.2.1,MacIntel,57.80346821,,,,,,,,,,,,,,,,,,23,,,,,,,,,,0.03,1,1.063,0,2,2,2,1,Go on a long bike ride to far away parts of the city with my bike club,Make a well crafted coffee and enjoying it on my balcony,0.03,0.05,1.1,0,,,,
,,5fe23b5e1f2ef9db2ab8e5a0,6685aa9113c938e83b4f1ea0,672c105ced9e20d9c4c5f14b,2024-11-06_19h58.31.594,WTP_SM_Choice,2022.2.1,MacIntel,57.80346821,,,,,,,,,,,,,,,,,,24,,,,,,,,,,0.04,1,1.3568,0,3,3,3,1,Exercise in my bedroom to loud rock music,Get together with my book club to discuss a new book,0.04,0.05,4.4,1,,,,
,,5fe23b5e1f2ef9db2ab8e5a0,6685aa9113c938e83b4f1ea0,672c105ced9e20d9c4c5f14b,2024-11-06_19h58.31.594,WTP_SM_Choice,2022.2.1,MacIntel,57.80346821,,,,,,,,,,,,,,,,,,25,,,,,,,,,,0.05,1,2.6026,0,4,4,4,1,Go to a concert with my girlfriend,Ride my bicycle around New York on a warm sunny day,0.05,0.05,3.3,0,,,,
,,5fe23b5e1f2ef9db2ab8e5a0,6685aa9113c938e83b4f1ea0,672c105ced9e20d9c4c5f14b,2024-11-06_19h58.31.594,WTP_SM_Choice,2022.2.1,MacIntel,57.80346821,,,,,,,2,,4,0.6,5.4,,0,24,24,24,1,25,Alex,Rej,Participant_Images/5fe23b5e1f2ef9db2ab8e5a0/5fe23b5e1f2ef9db2ab8e5a0_Images/5fe23b5e1f2ef9db2ab8e5a0_Image_3.jpeg,did not like,3.602308302,,,,,,,,,,,,,,,,,,,space,0.6287,,
,,5fe23b5e1f2ef9db2ab8e5a0,6685aa9113c938e83b4f1ea0,672c105ced9e20d9c4c5f14b,2024-11-06_19h58.31.594,WTP_SM_Choice,2022.2.1,MacIntel,57.80346821,,,space,1.6047,space,0.8408,NAN,,NAN,0.6,5.4,,0,25,25,25,1,26,Sam,Acc,Participant_Images/5fe23b5e1f2ef9db2ab8e5a0/5fe23b5e1f2ef9db2ab8e5a0_Images/5fe23b5e1f2ef9db2ab8e5a0_Image_15.jpeg,liked,4.106391878,,,,,,,,,,,,,,,,,,,,,,
,,5fe23b5e1f2ef9db2ab8e5a0,6685aa9113c938e83b4f1ea0,672c105ced9e20d9c4c5f14b,2024-11-06_19h58.31.594,WTP_SM_Choice,2022.2.1,MacIntel,57.80346821,,,,,space,0.8868,NAN,,NAN,0.6,5.4,,0,26,26,26,1,27,Sam,Acc,Participant_Images/5fe23b5e1f2ef9db2ab8e5a0/5fe23b5e1f2ef9db2ab8e5a0_Images/5fe23b5e1f2ef9db2ab8e5a0_Image_18.jpeg,liked,3.799433026,,,,,,,,,,,,,,,,,,,,,,
,,5fe23b5e1f2ef9db2ab8e5a0,6685aa9113c938e83b4f1ea0,672c105ced9e20d9c4c5f14b,2024-11-06_19h58.31.594,WTP_SM_Choice,2022.2.1,MacIntel,57.80346821,,,,,space,0.543,NAN,,NAN,0.6,5.4,,0,27,27,27,1,28,Sam,Acc,Participant_Images/5fe23b5e1f2ef9db2ab8e5a0/5fe23b5e1f2ef9db2ab8e5a0_Images/5fe23b5e1f2ef9db2ab8e5a0_Image_14.jpeg,did not like,5.246980764,,,,,,,,,,,,,,,,,,,,,,
,,5fe23b5e1f2ef9db2ab8e5a0,6685aa9113c938e83b4f1ea0,672c105ced9e20d9c4c5f14b,2024-11-06_19h58.31.594,WTP_SM_Choice,2022.2.1,MacIntel,57.80346821,,,,,space,0.7375,NAN,,NAN,0.6,5.4,,0,28,28,28,1,29,Sam,Acc,Participant_Images/5fe23b5e1f2ef9db2ab8e5a0/5fe23b5e1f2ef9db2ab8e5a0_Images/5fe23b5e1f2ef9db2ab8e5a0_Image_8.jpeg,liked,3.30081769,,,,,,,,,,,,,,,,,,,,,,
,,5fe23b5e1f2ef9db2ab8e5a0,6685aa9113c938e83b4f1ea0,672c105ced9e20d9c4c5f14b,2024-11-06_19h58.31.594,WTP_SM_Choice,2022.2.1,MacIntel,57.80346821,,,,,,,,,,,,,,,,,,26,,,,,,space,2.0642,space,2.0002,0.01,1,2.7885,0,0,0,0,1,Go for a run in the park on a sunny day,Go to a concert with my girlfriend,0.01,0.01,4.4,1,,,,
,,5fe23b5e1f2ef9db2ab8e5a0,6685aa9113c938e83b4f1ea0,672c105ced9e20d9c4c5f14b,2024-11-06_19h58.31.594,WTP_SM_Choice,2022.2.1,MacIntel,57.80346821,,,,,,,,,,,,,,,,,,27,,,,,,,,,,0.01,2,2.1748,0,1,1,1,1,Exercise in my bedroom to loud rock music,Get together with old friends to catch up over a meal,0.02,0.01,3.3,1,,,,
,,5fe23b5e1f2ef9db2ab8e5a0,6685aa9113c938e83b4f1ea0,672c105ced9e20d9c4c5f14b,2024-11-06_19h58.31.594,WTP_SM_Choice,2022.2.1,MacIntel,57.80346821,,,,,,,,,,,,,,,,,,28,,,,,,,,,,0.01,2,2.0485,0,2,2,2,1,Play video games in my living room at night,Go to a coffeeshop with my friends to work on personal projects or read,0.03,0.01,3.3,1,,,,
,,5fe23b5e1f2ef9db2ab8e5a0,6685aa9113c938e83b4f1ea0,672c105ced9e20d9c4c5f14b,2024-11-06_19h58.31.594,WTP_SM_Choice,2022.2.1,MacIntel,57.80346821,,,,,,,,,,,,,,,,,,29,,,,,,,,,,0.01,2,2.7283,0,3,3,3,1,Play cooperative video games with my guy friends at night,Make a well crafted coffee and enjoying it on my balcony,0.04,0.01,4.4,0,,,,
,,5fe23b5e1f2ef9db2ab8e5a0,6685aa9113c938e83b4f1ea0,672c105ced9e20d9c4c5f14b,2024-11-06_19h58.31.594,WTP_SM_Choice,2022.2.1,MacIntel,57.80346821,,,,,,,,,,,,,,,,,,30,,,,,,,,,,0.05,1,2.8747,0,4,4,4,1,Play saxophone in my bedroom during the day,Go to a local bar with my neighborhood friends,0.05,0.01,8.8,1,,,,
,,5fe23b5e1f2ef9db2ab8e5a0,6685aa9113c938e83b4f1ea0,672c105ced9e20d9c4c5f14b,2024-11-06_19h58.31.594,WTP_SM_Choice,2022.2.1,MacIntel,57.80346821,,,,,,,NAN,,NAN,0.69,5.31,,0,29,29,29,1,30,Sam,Acc,Participant_Images/5fe23b5e1f2ef9db2ab8e5a0/5fe23b5e1f2ef9db2ab8e5a0_Images/5fe23b5e1f2ef9db2ab8e5a0_Image_22.jpeg,liked,1.661473164,,,,,,,,,,,,,,,,,,,,,,
,,5fe23b5e1f2ef9db2ab8e5a0,6685aa9113c938e83b4f1ea0,672c105ced9e20d9c4c5f14b,2024-11-06_19h58.31.594,WTP_SM_Choice,2022.2.1,MacIntel,57.80346821,,,,,space,0.425,NAN,,NAN,0.69,5.31,,0,30,30,30,1,31,Sam,Acc,Participant_Images/5fe23b5e1f2ef9db2ab8e5a0/5fe23b5e1f2ef9db2ab8e5a0_Images/5fe23b5e1f2ef9db2ab8e5a0_Image_5.jpeg,liked,3.613205605,,,,,,,,,,,,,,,,,,,,,,
,,5fe23b5e1f2ef9db2ab8e5a0,6685aa9113c938e83b4f1ea0,672c105ced9e20d9c4c5f14b,2024-11-06_19h58.31.594,WTP_SM_Choice,2022.2.1,MacIntel,57.80346821,,,,,space,0.5128,NAN,,NAN,0.69,5.31,,0,31,31,31,1,32,Sam,Acc,Participant_Images/5fe23b5e1f2ef9db2ab8e5a0/5fe23b5e1f2ef9db2ab8e5a0_Images/5fe23b5e1f2ef9db2ab8e5a0_Image_4.jpeg,liked,4.988446431,,,,,,,,,,,,,,,,,,,,,,
,,5fe23b5e1f2ef9db2ab8e5a0,6685aa9113c938e83b4f1ea0,672c105ced9e20d9c4c5f14b,2024-11-06_19h58.31.594,WTP_SM_Choice,2022.2.1,MacIntel,57.80346821,,,,,space,1.4528,NAN,,NAN,0.69,5.31,,0,32,32,32,1,33,Sam,Acc,Participant_Images/5fe23b5e1f2ef9db2ab8e5a0/5fe23b5e1f2ef9db2ab8e5a0_Images/5fe23b5e1f2ef9db2ab8e5a0_Image_1.jpeg,liked,3.470791822,,,,,,,,,,,,,,,,,,,,,,
,,5fe23b5e1f2ef9db2ab8e5a0,6685aa9113c938e83b4f1ea0,672c105ced9e20d9c4c5f14b,2024-11-06_19h58.31.594,WTP_SM_Choice,2022.2.1,MacIntel,57.80346821,,,,,space,1.4018,NAN,,NAN,0.69,5.31,,0,33,33,33,1,34,Sam,Acc,Participant_Images/5fe23b5e1f2ef9db2ab8e5a0/5fe23b5e1f2ef9db2ab8e5a0_Images/5fe23b5e1f2ef9db2ab8e5a0_Image_20.jpeg,liked,3.820572462,,,,,,,,,,,,,,,,,,,,,,
,,5fe23b5e1f2ef9db2ab8e5a0,6685aa9113c938e83b4f1ea0,672c105ced9e20d9c4c5f14b,2024-11-06_19h58.31.594,WTP_SM_Choice,2022.2.1,MacIntel,57.80346821,,,,,,,,,,,,,,,,,,31,,,,,,space,0.6369,space,1.9207,0.01,1,3.1537,0,0,0,0,1,Go on roadtrips with my girlfriend and best friends,Play video games in my living room at night,0.01,0.02,8.8,0,,,,
,,5fe23b5e1f2ef9db2ab8e5a0,6685aa9113c938e83b4f1ea0,672c105ced9e20d9c4c5f14b,2024-11-06_19h58.31.594,WTP_SM_Choice,2022.2.1,MacIntel,57.80346821,,,,,,,,,,,,,,,,,,32,,,,,,,,,,0.02,1,2.0884,0,1,1,1,1,Go to a coffeeshop with my friends to work on personal projects or read,Ride my bicycle around New York on a warm sunny day,0.02,0.02,1.1,0,,,,
,,5fe23b5e1f2ef9db2ab8e5a0,6685aa9113c938e83b4f1ea0,672c105ced9e20d9c4c5f14b,2024-11-06_19h58.31.594,WTP_SM_Choice,2022.2.1,MacIntel,57.80346821,,,,,,,,,,,,,,,,,,33,,,,,,,,,,0.02,2,1.6068,0,2,2,2,1,Read a good book in my arm chair at night with warm lighting,Go to a coffeeshop with my friends to work on personal projects or read,0.03,0.02,4.4,1,,,,
,,5fe23b5e1f2ef9db2ab8e5a0,6685aa9113c938e83b4f1ea0,672c105ced9e20d9c4c5f14b,2024-11-06_19h58.31.594,WTP_SM_Choice,2022.2.1,MacIntel,57.80346821,,,,,,,,,,,,,,,,,,34,,,,,,,,,,0.02,2,1.3095,0,3,3,3,1,Work on my short story on my desk with soft music,Go to a local bar with my neighborhood friends,0.04,0.02,3.3,1,,,,
,,5fe23b5e1f2ef9db2ab8e5a0,6685aa9113c938e83b4f1ea0,672c105ced9e20d9c4c5f14b,2024-11-06_19h58.31.594,WTP_SM_Choice,2022.2.1,MacIntel,57.80346821,,,,,,,,,,,,,,,,,,35,,,,,,,,,,0.02,2,1.4096,0,4,4,4,1,Go for a run in the park on a sunny day,Get together with my book club to discuss a new book,0.05,0.02,1.1,1,,,,
,,5fe23b5e1f2ef9db2ab8e5a0,6685aa9113c938e83b4f1ea0,672c105ced9e20d9c4c5f14b,2024-11-06_19h58.31.594,WTP_SM_Choice,2022.2.1,MacIntel,57.80346821,,,,,,,NAN,,NAN,0.78,5.22,,0,34,34,34,1,35,Sam,Acc,Participant_Images/5fe23b5e1f2ef9db2ab8e5a0/5fe23b5e1f2ef9db2ab8e5a0_Images/5fe23b5e1f2ef9db2ab8e5a0_Image_9.jpeg,liked,2.455989137,,,,,,,,,,,,,,,,,,,,,,
,,5fe23b5e1f2ef9db2ab8e5a0,6685aa9113c938e83b4f1ea0,672c105ced9e20d9c4c5f14b,2024-11-06_19h58.31.594,WTP_SM_Choice,2022.2.1,MacIntel,57.80346821,,,,,space,0.432,NAN,,NAN,0.78,5.22,,0,35,35,35,1,36,Sam,Acc,Participant_Images/5fe23b5e1f2ef9db2ab8e5a0/5fe23b5e1f2ef9db2ab8e5a0_Images/5fe23b5e1f2ef9db2ab8e5a0_Image_19.jpeg,did not like,3.79605092,,,,,,,,,,,,,,,,,,,,,,
,,5fe23b5e1f2ef9db2ab8e5a0,6685aa9113c938e83b4f1ea0,672c105ced9e20d9c4c5f14b,2024-11-06_19h58.31.594,WTP_SM_Choice,2022.2.1,MacIntel,57.80346821,,,,,space,0.5826,NAN,,NAN,0.78,5.22,,0,36,36,36,1,37,Sam,Acc,Participant_Images/5fe23b5e1f2ef9db2ab8e5a0/5fe23b5e1f2ef9db2ab8e5a0_Images/5fe23b5e1f2ef9db2ab8e5a0_Image_16.jpeg,did not like,3.562416326,,,,,,,,,,,,,,,,,,,,,,
,,5fe23b5e1f2ef9db2ab8e5a0,6685aa9113c938e83b4f1ea0,672c105ced9e20d9c4c5f14b,2024-11-06_19h58.31.594,WTP_SM_Choice,2022.2.1,MacIntel,57.80346821,,,,,space,0.9287,NAN,,NAN,0.78,5.22,,0,37,37,37,1,38,Sam,Acc,Participant_Images/5fe23b5e1f2ef9db2ab8e5a0/5fe23b5e1f2ef9db2ab8e5a0_Images/5fe23b5e1f2ef9db2ab8e5a0_Image_24.jpeg,liked,2.843822497,,,,,,,,,,,,,,,,,,,,,,
,,5fe23b5e1f2ef9db2ab8e5a0,6685aa9113c938e83b4f1ea0,672c105ced9e20d9c4c5f14b,2024-11-06_19h58.31.594,WTP_SM_Choice,2022.2.1,MacIntel,57.80346821,,,,,space,0.8066,NAN,,NAN,0.78,5.22,,0,38,38,38,1,39,Sam,Acc,Participant_Images/5fe23b5e1f2ef9db2ab8e5a0/5fe23b5e1f2ef9db2ab8e5a0_Images/5fe23b5e1f2ef9db2ab8e5a0_Image_10.jpeg,did not like,3.546495948,,,,,,,,,,,,,,,,,,,,,,
,,5fe23b5e1f2ef9db2ab8e5a0,6685aa9113c938e83b4f1ea0,672c105ced9e20d9c4c5f14b,2024-11-06_19h58.31.594,WTP_SM_Choice,2022.2.1,MacIntel,57.80346821,,,,,,,,,,,,,,,,,,36,,,,,,space,1.8719,space,0.644,0.01,1,2.1709,0,0,0,0,1,Make a well crafted coffee and enjoying it on my balcony,Travel to other countries with my girlfriend and roommate,0.01,0.03,3.3,1,,,,
,,5fe23b5e1f2ef9db2ab8e5a0,6685aa9113c938e83b4f1ea0,672c105ced9e20d9c4c5f14b,2024-11-06_19h58.31.594,WTP_SM_Choice,2022.2.1,MacIntel,57.80346821,,,,,,,,,,,,,,,,,,37,,,,,,,,,,0.02,1,1.3368,0,1,1,1,1,Go on roadtrips with my girlfriend and best friends,Read a good book in my arm chair at night with warm lighting,0.02,0.03,1.1,0,,,,
,,5fe23b5e1f2ef9db2ab8e5a0,6685aa9113c938e83b4f1ea0,672c105ced9e20d9c4c5f14b,2024-11-06_19h58.31.594,WTP_SM_Choice,2022.2.1,MacIntel,57.80346821,,,,,,,,,,,,,,,,,,38,,,,,,,,,,0.03,2,4.034,0,2,2,2,1,Get together with old friends to catch up over a meal,Read a good book in my arm chair at night with warm lighting,0.03,0.03,1.1,0,,,,
,,5fe23b5e1f2ef9db2ab8e5a0,6685aa9113c938e83b4f1ea0,672c105ced9e20d9c4c5f14b,2024-11-06_19h58.31.594,WTP_SM_Choice,2022.2.1,MacIntel,57.80346821,,,,,,,,,,,,,,,,,,39,,,,,,,,,,0.04,1,2.2591,0,3,3,3,1,Go for a walk in brooklyn on a beautiful warm day,Go on roadtrips with my girlfriend and best friends,0.04,0.03,3.3,1,,,,
,,5fe23b5e1f2ef9db2ab8e5a0,6685aa9113c938e83b4f1ea0,672c105ced9e20d9c4c5f14b,2024-11-06_19h58.31.594,WTP_SM_Choice,2022.2.1,MacIntel,57.80346821,,,,,,,,,,,,,,,,,,40,,,,,,,,,,0.03,2,2.2219,0,4,4,4,1,Get together with old friends to catch up over a meal,Go for a run in the park on a sunny day,0.05,0.03,4.4,0,,,,
,,5fe23b5e1f2ef9db2ab8e5a0,6685aa9113c938e83b4f1ea0,672c105ced9e20d9c4c5f14b,2024-11-06_19h58.31.594,WTP_SM_Choice,2022.2.1,MacIntel,57.80346821,,,,,,,NAN,,NAN,0.91,5.09,,0,39,39,39,1,40,Sam,Acc,Participant_Images/5fe23b5e1f2ef9db2ab8e5a0/5fe23b5e1f2ef9db2ab8e5a0_Images/5fe23b5e1f2ef9db2ab8e5a0_Image_6.jpeg,did not like,1.672012706,,,,,,,,,,,,,,,,,,,,,,
,,5fe23b5e1f2ef9db2ab8e5a0,6685aa9113c938e83b4f1ea0,672c105ced9e20d9c4c5f14b,2024-11-06_19h58.31.594,WTP_SM_Choice,2022.2.1,MacIntel,57.80346821,,,,,space,0.8059,NAN,,NAN,0.91,5.09,,0,40,40,40,1,41,Sam,Acc,Participant_Images/5fe23b5e1f2ef9db2ab8e5a0/5fe23b5e1f2ef9db2ab8e5a0_Images/5fe23b5e1f2ef9db2ab8e5a0_Image_12.jpeg,liked,4.942172136,,,,,,,,,,,,,,,,,,,,,,
,,5fe23b5e1f2ef9db2ab8e5a0,6685aa9113c938e83b4f1ea0,672c105ced9e20d9c4c5f14b,2024-11-06_19h58.31.594,WTP_SM_Choice,2022.2.1,MacIntel,57.80346821,,,,,space,1.3195,NAN,,NAN,0.91,5.09,,0,41,41,41,1,42,Sam,Acc,Participant_Images/5fe23b5e1f2ef9db2ab8e5a0/5fe23b5e1f2ef9db2ab8e5a0_Images/5fe23b5e1f2ef9db2ab8e5a0_Image_21.jpeg,liked,2.50187214,,,,,,,,,,,,,,,,,,,,,,
,,5fe23b5e1f2ef9db2ab8e5a0,6685aa9113c938e83b4f1ea0,672c105ced9e20d9c4c5f14b,2024-11-06_19h58.31.594,WTP_SM_Choice,2022.2.1,MacIntel,57.80346821,,,,,space,0.633,NAN,,NAN,0.91,5.09,,0,42,42,42,1,43,Sam,Acc,Participant_Images/5fe23b5e1f2ef9db2ab8e5a0/5fe23b5e1f2ef9db2ab8e5a0_Images/5fe23b5e1f2ef9db2ab8e5a0_Image_17.jpeg,liked,2.071164779,,,,,,,,,,,,,,,,,,,,,,
,,5fe23b5e1f2ef9db2ab8e5a0,6685aa9113c938e83b4f1ea0,672c105ced9e20d9c4c5f14b,2024-11-06_19h58.31.594,WTP_SM_Choice,2022.2.1,MacIntel,57.80346821,,,,,space,0.6814,NAN,,NAN,0.91,5.09,,0,43,43,43,1,44,Sam,Acc,Participant_Images/5fe23b5e1f2ef9db2ab8e5a0/5fe23b5e1f2ef9db2ab8e5a0_Images/5fe23b5e1f2ef9db2ab8e5a0_Image_13.jpeg,did not like,5.336503566,,,,,,,,,,,,,,,,,,,,,,
,,5fe23b5e1f2ef9db2ab8e5a0,6685aa9113c938e83b4f1ea0,672c105ced9e20d9c4c5f14b,2024-11-06_19h58.31.594,WTP_SM_Choice,2022.2.1,MacIntel,57.80346821,,,,,,,,,,,,,,,,,,41,,,,,,space,0.5946,space,1.5271,0.04,2,2.7807,0,0,0,0,1,Go on a long bike ride to far away parts of the city with my bike club,Read a good book in my arm chair at night with warm lighting,0.01,0.04,1.1,0,,,,
,,5fe23b5e1f2ef9db2ab8e5a0,6685aa9113c938e83b4f1ea0,672c105ced9e20d9c4c5f14b,2024-11-06_19h58.31.594,WTP_SM_Choice,2022.2.1,MacIntel,57.80346821,,,,,,,,,,,,,,,,,,42,,,,,,,,,,0.02,1,2.7344,0,1,1,1,1,Work on my short story on my desk with soft music,Get together with old friends to catch up over a meal,0.02,0.04,3.3,1,,,,
,,5fe23b5e1f2ef9db2ab8e5a0,6685aa9113c938e83b4f1ea0,672c105ced9e20d9c4c5f14b,2024-11-06_19h58.31.594,WTP_SM_Choice,2022.2.1,MacIntel,57.80346821,,,,,,,,,,,,,,,,,,43,,,,,,,,,,0.04,2,1.429,0,2,2,2,1,Travel to other countries with my girlfriend and roommate,Watch a foreign movie in my living room at night,0.03,0.04,1.1,0,,,,
,,5fe23b5e1f2ef9db2ab8e5a0,6685aa9113c938e83b4f1ea0,672c105ced9e20d9c4c5f14b,2024-11-06_19h58.31.594,WTP_SM_Choice,2022.2.1,MacIntel,57.80346821,,,,,,,,,,,,,,,,,,44,,,,,,,,,,0.04,1,2.3175,0,3,3,3,1,Watch a foreign movie in my living room at night,Go on roadtrips with my girlfriend and best friends,0.04,0.04,1.1,1,,,,
,,5fe23b5e1f2ef9db2ab8e5a0,6685aa9113c938e83b4f1ea0,672c105ced9e20d9c4c5f14b,2024-11-06_19h58.31.594,WTP_SM_Choice,2022.2.1,MacIntel,57.80346821,,,,,,,,,,,,,,,,,,45,,,,,,,,,,0.04,2,2.7237,0,4,4,4,1,Get together with my book club to discuss a new book,Ride my bicycle around New York on a warm sunny day,0.05,0.04,4.4,0,,,,
,,5fe23b5e1f2ef9db2ab8e5a0,6685aa9113c938e83b4f1ea0,672c105ced9e20d9c4c5f14b,2024-11-06_19h58.31.594,WTP_SM_Choice,2022.2.1,MacIntel,57.80346821,,,,,,,NAN,,NAN,1.09,4.91,,0,44,44,44,1,45,Sam,Acc,Participant_Images/5fe23b5e1f2ef9db2ab8e5a0/5fe23b5e1f2ef9db2ab8e5a0_Images/5fe23b5e1f2ef9db2ab8e5a0_Image_3.jpeg,liked,2.642157193,,,,,,,,,,,,,,,,,,,,,,
,,5fe23b5e1f2ef9db2ab8e5a0,6685aa9113c938e83b4f1ea0,672c105ced9e20d9c4c5f14b,2024-11-06_19h58.31.594,WTP_SM_Choice,2022.2.1,MacIntel,57.80346821,,,,,space,0.6928,NAN,,NAN,1.09,4.91,,0,45,45,45,1,46,Sam,Acc,Participant_Images/5fe23b5e1f2ef9db2ab8e5a0/5fe23b5e1f2ef9db2ab8e5a0_Images/5fe23b5e1f2ef9db2ab8e5a0_Image_23.jpeg,liked,4.456234322,,,,,,,,,,,,,,,,,,,,,,
,,5fe23b5e1f2ef9db2ab8e5a0,6685aa9113c938e83b4f1ea0,672c105ced9e20d9c4c5f14b,2024-11-06_19h58.31.594,WTP_SM_Choice,2022.2.1,MacIntel,57.80346821,,,,,space,0.7746,NAN,,NAN,1.09,4.91,,0,46,46,46,1,47,Sam,Acc,Participant_Images/5fe23b5e1f2ef9db2ab8e5a0/5fe23b5e1f2ef9db2ab8e5a0_Images/5fe23b5e1f2ef9db2ab8e5a0_Image_7.jpeg,liked,4.438512181,,,,,,,,,,,,,,,,,,,,,,
,,5fe23b5e1f2ef9db2ab8e5a0,6685aa9113c938e83b4f1ea0,672c105ced9e20d9c4c5f14b,2024-11-06_19h58.31.594,WTP_SM_Choice,2022.2.1,MacIntel,57.80346821,,,,,space,0.9332,NAN,,NAN,1.09,4.91,,0,47,47,47,1,48,Sam,Acc,Participant_Images/5fe23b5e1f2ef9db2ab8e5a0/5fe23b5e1f2ef9db2ab8e5a0_Images/5fe23b5e1f2ef9db2ab8e5a0_Image_2.jpeg,liked,2.682944783,,,,,,,,,,,,,,,,,,,,,,
,,5fe23b5e1f2ef9db2ab8e5a0,6685aa9113c938e83b4f1ea0,672c105ced9e20d9c4c5f14b,2024-11-06_19h58.31.594,WTP_SM_Choice,2022.2.1,MacIntel,57.80346821,,,,,space,0.4442,NAN,,NAN,1.09,4.91,,0,48,48,48,1,49,Sam,Acc,Participant_Images/5fe23b5e1f2ef9db2ab8e5a0/5fe23b5e1f2ef9db2ab8e5a0_Images/5fe23b5e1f2ef9db2ab8e5a0_Image_11.jpeg,did not like,4.51984296,,,,,,,,,,,,,,,,,,,,,,
,,5fe23b5e1f2ef9db2ab8e5a0,6685aa9113c938e83b4f1ea0,672c105ced9e20d9c4c5f14b,2024-11-06_19h58.31.594,WTP_SM_Choice,2022.2.1,MacIntel,57.80346821,,,,,,,,,,,,,,,,,,46,,,,,,space,0.489,space,1.1373,0.05,2,2.0313,0,0,0,0,1,Cook a nice dinner over wine with my girlfriend,Go for a run in the park on a sunny day,0.01,0.05,8.8,0,,,,
,,5fe23b5e1f2ef9db2ab8e5a0,6685aa9113c938e83b4f1ea0,672c105ced9e20d9c4c5f14b,2024-11-06_19h58.31.594,WTP_SM_Choice,2022.2.1,MacIntel,57.80346821,,,,,,,,,,,,,,,,,,47,,,,,,,,,,0.05,2,2.9767,0,1,1,1,1,Play cooperative video games with my guy friends at night,Watch a foreign movie in my living room at night,0.02,0.05,1.1,0,,,,
,,5fe23b5e1f2ef9db2ab8e5a0,6685aa9113c938e83b4f1ea0,672c105ced9e20d9c4c5f14b,2024-11-06_19h58.31.594,WTP_SM_Choice,2022.2.1,MacIntel,57.80346821,,,,,,,,,,,,,,,,,,48,,,,,,,,,,0.03,1,2.3725,0,2,2,2,1,Watch a foreign movie in my living room at night,Cook a nice dinner over wine with my girlfriend,0.03,0.05,4.4,1,,,,
,,5fe23b5e1f2ef9db2ab8e5a0,6685aa9113c938e83b4f1ea0,672c105ced9e20d9c4c5f14b,2024-11-06_19h58.31.594,WTP_SM_Choice,2022.2.1,MacIntel,57.80346821,,,,,,,,,,,,,,,,,,49,,,,,,,,,,0.05,2,1.7328,0,3,3,3,1,Travel to other countries with my girlfriend and roommate,Ride my bicycle around New York on a warm sunny day,0.04,0.05,3.3,0,,,,
,,5fe23b5e1f2ef9db2ab8e5a0,6685aa9113c938e83b4f1ea0,672c105ced9e20d9c4c5f14b,2024-11-06_19h58.31.594,WTP_SM_Choice,2022.2.1,MacIntel,57.80346821,,,,,,,,,,,,,,,,,,50,,,,,,,,,,0.05,2,2.1243,0,4,4,4,1,Go on a long bike ride to far away parts of the city with my bike club,Watch a foreign movie in my living room at night,0.05,0.05,1.1,0,,,,
,,5fe23b5e1f2ef9db2ab8e5a0,6685aa9113c938e83b4f1ea0,672c105ced9e20d9c4c5f14b,2024-11-06_19h58.31.594,WTP_SM_Choice,2022.2.1,MacIntel,57.80346821,,,,,,,3,,4,1.32,4.68,,0,49,49,49,1,50,Sam,Acc,Participant_Images/5fe23b5e1f2ef9db2ab8e5a0/5fe23b5e1f2ef9db2ab8e5a0_Images/5fe23b5e1f2ef9db2ab8e5a0_Image_25.jpeg,liked,3.195382774,,,,,,,,,,,,,,,,,,,space,3.0886,,
,,5fe23b5e1f2ef9db2ab8e5a0,6685aa9113c938e83b4f1ea0,672c105ced9e20d9c4c5f14b,2024-11-06_19h58.31.594,WTP_SM_Choice,2022.2.1,MacIntel,57.80346821,,,space,3.2095,space,0.7371,NAN,,NAN,1.32,4.68,,0,50,50,50,1,51,Charlie,Rej,Participant_Images/5fe23b5e1f2ef9db2ab8e5a0/5fe23b5e1f2ef9db2ab8e5a0_Images/5fe23b5e1f2ef9db2ab8e5a0_Image_11.jpeg,did not like,1.779333479,,,,,,,,,,,,,,,,,,,,,,
,,5fe23b5e1f2ef9db2ab8e5a0,6685aa9113c938e83b4f1ea0,672c105ced9e20d9c4c5f14b,2024-11-06_19h58.31.594,WTP_SM_Choice,2022.2.1,MacIntel,57.80346821,,,,,space,0.933,NAN,,NAN,1.32,4.68,,0,51,51,51,1,52,Charlie,Rej,Participant_Images/5fe23b5e1f2ef9db2ab8e5a0/5fe23b5e1f2ef9db2ab8e5a0_Images/5fe23b5e1f2ef9db2ab8e5a0_Image_5.jpeg,did not like,4.312468682,,,,,,,,,,,,,,,,,,,,,,
,,5fe23b5e1f2ef9db2ab8e5a0,6685aa9113c938e83b4f1ea0,672c105ced9e20d9c4c5f14b,2024-11-06_19h58.31.594,WTP_SM_Choice,2022.2.1,MacIntel,57.80346821,,,,,space,3.2489,NAN,,NAN,1.32,4.68,,0,52,52,52,1,53,Charlie,Rej,Participant_Images/5fe23b5e1f2ef9db2ab8e5a0/5fe23b5e1f2ef9db2ab8e5a0_Images/5fe23b5e1f2ef9db2ab8e5a0_Image_4.jpeg,did not like,4.940433059,,,,,,,,,,,,,,,,,,,,,,
,,5fe23b5e1f2ef9db2ab8e5a0,6685aa9113c938e83b4f1ea0,672c105ced9e20d9c4c5f14b,2024-11-06_19h58.31.594,WTP_SM_Choice,2022.2.1,MacIntel,57.80346821,,,,,space,0.6465,NAN,,NAN,1.32,4.68,,0,53,53,53,1,54,Charlie,Rej,Participant_Images/5fe23b5e1f2ef9db2ab8e5a0/5fe23b5e1f2ef9db2ab8e5a0_Images/5fe23b5e1f2ef9db2ab8e5a0_Image_10.jpeg,did not like,2.7105123,,,,,,,,,,,,,,,,,,,,,,
,,5fe23b5e1f2ef9db2ab8e5a0,6685aa9113c938e83b4f1ea0,672c105ced9e20d9c4c5f14b,2024-11-06_19h58.31.594,WTP_SM_Choice,2022.2.1,MacIntel,57.80346821,,,,,,,,,,,,,,,,,,51,,,,,,space,0.4062,space,0.8059,0.01,1,2.4744,0,0,0,0,1,Read a good book in my arm chair at night with warm lighting,Cook a nice dinner over wine with my girlfriend,0.01,0.01,1.1,1,,,,
,,5fe23b5e1f2ef9db2ab8e5a0,6685aa9113c938e83b4f1ea0,672c105ced9e20d9c4c5f14b,2024-11-06_19h58.31.594,WTP_SM_Choice,2022.2.1,MacIntel,57.80346821,,,,,,,,,,,,,,,,,,52,,,,,,,,,,0.01,2,2.1207,0,1,1,1,1,Go to a concert with my girlfriend,Read a good book in my arm chair at night with warm lighting,0.02,0.01,3.3,0,,,,
,,5fe23b5e1f2ef9db2ab8e5a0,6685aa9113c938e83b4f1ea0,672c105ced9e20d9c4c5f14b,2024-11-06_19h58.31.594,WTP_SM_Choice,2022.2.1,MacIntel,57.80346821,,,,,,,,,,,,,,,,,,53,,,,,,,,,,0.03,1,1.9876,0,2,2,2,1,Read a good book in my arm chair at night with warm lighting,Go to a local bar with my neighborhood friends,0.03,0.01,1.1,1,,,,
,,5fe23b5e1f2ef9db2ab8e5a0,6685aa9113c938e83b4f1ea0,672c105ced9e20d9c4c5f14b,2024-11-06_19h58.31.594,WTP_SM_Choice,2022.2.1,MacIntel,57.80346821,,,,,,,,,,,,,,,,,,54,,,,,,,,,,0.04,1,2.3114,0,3,3,3,1,Exercise in my bedroom to loud rock music,Cook a nice dinner over wine with my girlfriend,0.04,0.01,4.4,1,,,,
,,5fe23b5e1f2ef9db2ab8e5a0,6685aa9113c938e83b4f1ea0,672c105ced9e20d9c4c5f14b,2024-11-06_19h58.31.594,WTP_SM_Choice,2022.2.1,MacIntel,57.80346821,,,,,,,,,,,,,,,,,,55,,,,,,,,,,0.01,2,3.7091,0,4,4,4,1,Get together with my book club to discuss a new book,Work on my short story on my desk with soft music,0.05,0.01,1.1,0,,,,
,,5fe23b5e1f2ef9db2ab8e5a0,6685aa9113c938e83b4f1ea0,672c105ced9e20d9c4c5f14b,2024-11-06_19h58.31.594,WTP_SM_Choice,2022.2.1,MacIntel,57.80346821,,,,,,,NAN,,NAN,1.42,4.58,,0,54,54,54,1,55,Charlie,Rej,Participant_Images/5fe23b5e1f2ef9db2ab8e5a0/5fe23b5e1f2ef9db2ab8e5a0_Images/5fe23b5e1f2ef9db2ab8e5a0_Image_2.jpeg,liked,3.602308302,,,,,,,,,,,,,,,,,,,,,,
,,5fe23b5e1f2ef9db2ab8e5a0,6685aa9113c938e83b4f1ea0,672c105ced9e20d9c4c5f14b,2024-11-06_19h58.31.594,WTP_SM_Choice,2022.2.1,MacIntel,57.80346821,,,,,space,1.1341,NAN,,NAN,1.42,4.58,,0,55,55,55,1,56,Charlie,Rej,Participant_Images/5fe23b5e1f2ef9db2ab8e5a0/5fe23b5e1f2ef9db2ab8e5a0_Images/5fe23b5e1f2ef9db2ab8e5a0_Image_23.jpeg,did not like,4.106391878,,,,,,,,,,,,,,,,,,,,,,
,,5fe23b5e1f2ef9db2ab8e5a0,6685aa9113c938e83b4f1ea0,672c105ced9e20d9c4c5f14b,2024-11-06_19h58.31.594,WTP_SM_Choice,2022.2.1,MacIntel,57.80346821,,,,,space,0.8126,NAN,,NAN,1.42,4.58,,0,56,56,56,1,57,Charlie,Rej,Participant_Images/5fe23b5e1f2ef9db2ab8e5a0/5fe23b5e1f2ef9db2ab8e5a0_Images/5fe23b5e1f2ef9db2ab8e5a0_Image_24.jpeg,liked,3.799433026,,,,,,,,,,,,,,,,,,,,,,
,,5fe23b5e1f2ef9db2ab8e5a0,6685aa9113c938e83b4f1ea0,672c105ced9e20d9c4c5f14b,2024-11-06_19h58.31.594,WTP_SM_Choice,2022.2.1,MacIntel,57.80346821,,,,,space,0.4106,NAN,,NAN,1.42,4.58,,0,57,57,57,1,58,Charlie,Rej,Participant_Images/5fe23b5e1f2ef9db2ab8e5a0/5fe23b5e1f2ef9db2ab8e5a0_Images/5fe23b5e1f2ef9db2ab8e5a0_Image_8.jpeg,did not like,5.246980764,,,,,,,,,,,,,,,,,,,,,,
,,5fe23b5e1f2ef9db2ab8e5a0,6685aa9113c938e83b4f1ea0,672c105ced9e20d9c4c5f14b,2024-11-06_19h58.31.594,WTP_SM_Choice,2022.2.1,MacIntel,57.80346821,,,,,space,0.3296,NAN,,NAN,1.42,4.58,,0,58,58,58,1,59,Charlie,Rej,Participant_Images/5fe23b5e1f2ef9db2ab8e5a0/5fe23b5e1f2ef9db2ab8e5a0_Images/5fe23b5e1f2ef9db2ab8e5a0_Image_3.jpeg,did not like,3.30081769,,,,,,,,,,,,,,,,,,,,,,
,,5fe23b5e1f2ef9db2ab8e5a0,6685aa9113c938e83b4f1ea0,672c105ced9e20d9c4c5f14b,2024-11-06_19h58.31.594,WTP_SM_Choice,2022.2.1,MacIntel,57.80346821,,,,,,,,,,,,,,,,,,56,,,,,,space,1.3395,space,0.8948,0.02,2,2.1548,0,0,0,0,1,Go to a concert with my girlfriend,Exercise in my bedroom to loud rock music,0.01,0.02,8.8,0,,,,
,,5fe23b5e1f2ef9db2ab8e5a0,6685aa9113c938e83b4f1ea0,672c105ced9e20d9c4c5f14b,2024-11-06_19h58.31.594,WTP_SM_Choice,2022.2.1,MacIntel,57.80346821,,,,,,,,,,,,,,,,,,57,,,,,,,,,,0.02,1,1.8068,0,1,1,1,1,Play saxophone in my bedroom during the day,Cook a nice dinner over wine with my girlfriend,0.02,0.02,4.4,1,,,,
,,5fe23b5e1f2ef9db2ab8e5a0,6685aa9113c938e83b4f1ea0,672c105ced9e20d9c4c5f14b,2024-11-06_19h58.31.594,WTP_SM_Choice,2022.2.1,MacIntel,57.80346821,,,,,,,,,,,,,,,,,,58,,,,,,,,,,0.02,2,4.1501,0,2,2,2,1,Get together with my book club to discuss a new book,Go for a walk in brooklyn on a beautiful warm day,0.03,0.02,4.4,0,,,,
,,5fe23b5e1f2ef9db2ab8e5a0,6685aa9113c938e83b4f1ea0,672c105ced9e20d9c4c5f14b,2024-11-06_19h58.31.594,WTP_SM_Choice,2022.2.1,MacIntel,57.80346821,,,,,,,,,,,,,,,,,,59,,,,,,,,,,0.04,1,2.1287,0,3,3,3,1,Go for a walk in brooklyn on a beautiful warm day,Cook a nice dinner over wine with my girlfriend,0.04,0.02,4.4,1,,,,
,,5fe23b5e1f2ef9db2ab8e5a0,6685aa9113c938e83b4f1ea0,672c105ced9e20d9c4c5f14b,2024-11-06_19h58.31.594,WTP_SM_Choice,2022.2.1,MacIntel,57.80346821,,,,,,,,,,,,,,,,,,60,,,,,,,,,,0.02,2,1.9223,0,4,4,4,1,Get together with old friends to catch up over a meal,Play saxophone in my bedroom during the day,0.05,0.02,1.1,0,,,,
,,5fe23b5e1f2ef9db2ab8e5a0,6685aa9113c938e83b4f1ea0,672c105ced9e20d9c4c5f14b,2024-11-06_19h58.31.594,WTP_SM_Choice,2022.2.1,MacIntel,57.80346821,,,,,,,NAN,,NAN,1.54,4.46,,0,59,59,59,1,60,Charlie,Rej,Participant_Images/5fe23b5e1f2ef9db2ab8e5a0/5fe23b5e1f2ef9db2ab8e5a0_Images/5fe23b5e1f2ef9db2ab8e5a0_Image_21.jpeg,liked,1.661473164,,,,,,,,,,,,,,,,,,,,,,
,,5fe23b5e1f2ef9db2ab8e5a0,6685aa9113c938e83b4f1ea0,672c105ced9e20d9c4c5f14b,2024-11-06_19h58.31.594,WTP_SM_Choice,2022.2.1,MacIntel,57.80346821,,,,,space,1.2956,NAN,,NAN,1.54,4.46,,0,60,60,60,1,61,Charlie,Rej,Participant_Images/5fe23b5e1f2ef9db2ab8e5a0/5fe23b5e1f2ef9db2ab8e5a0_Images/5fe23b5e1f2ef9db2ab8e5a0_Image_22.jpeg,liked,3.613205605,,,,,,,,,,,,,,,,,,,,,,
,,5fe23b5e1f2ef9db2ab8e5a0,6685aa9113c938e83b4f1ea0,672c105ced9e20d9c4c5f14b,2024-11-06_19h58.31.594,WTP_SM_Choice,2022.2.1,MacIntel,57.80346821,,,,,space,0.5344,NAN,,NAN,1.54,4.46,,0,61,61,61,1,62,Charlie,Rej,Participant_Images/5fe23b5e1f2ef9db2ab8e5a0/5fe23b5e1f2ef9db2ab8e5a0_Images/5fe23b5e1f2ef9db2ab8e5a0_Image_15.jpeg,did not like,4.988446431,,,,,,,,,,,,,,,,,,,,,,
,,5fe23b5e1f2ef9db2ab8e5a0,6685aa9113c938e83b4f1ea0,672c105ced9e20d9c4c5f14b,2024-11-06_19h58.31.594,WTP_SM_Choice,2022.2.1,MacIntel,57.80346821,,,,,space,0.5218,NAN,,NAN,1.54,4.46,,0,62,62,62,1,63,Charlie,Rej,Participant_Images/5fe23b5e1f2ef9db2ab8e5a0/5fe23b5e1f2ef9db2ab8e5a0_Images/5fe23b5e1f2ef9db2ab8e5a0_Image_17.jpeg,did not like,3.470791822,,,,,,,,,,,,,,,,,,,,,,
,,5fe23b5e1f2ef9db2ab8e5a0,6685aa9113c938e83b4f1ea0,672c105ced9e20d9c4c5f14b,2024-11-06_19h58.31.594,WTP_SM_Choice,2022.2.1,MacIntel,57.80346821,,,,,space,0.9938,NAN,,NAN,1.54,4.46,,0,63,63,63,1,64,Charlie,Rej,Participant_Images/5fe23b5e1f2ef9db2ab8e5a0/5fe23b5e1f2ef9db2ab8e5a0_Images/5fe23b5e1f2ef9db2ab8e5a0_Image_9.jpeg,did not like,3.820572462,,,,,,,,,,,,,,,,,,,,,,
,,5fe23b5e1f2ef9db2ab8e5a0,6685aa9113c938e83b4f1ea0,672c105ced9e20d9c4c5f14b,2024-11-06_19h58.31.594,WTP_SM_Choice,2022.2.1,MacIntel,57.80346821,,,,,,,,,,,,,,,,,,61,,,,,,space,0.9454,space,0.4896,0.01,1,2.9423,0,0,0,0,1,Make a well crafted coffee and enjoying it on my balcony,Get together with my book club to discuss a new book,0.01,0.03,3.3,1,,,,
,,5fe23b5e1f2ef9db2ab8e5a0,6685aa9113c938e83b4f1ea0,672c105ced9e20d9c4c5f14b,2024-11-06_19h58.31.594,WTP_SM_Choice,2022.2.1,MacIntel,57.80346821,,,,,,,,,,,,,,,,,,62,,,,,,,,,,0.02,1,2.4534,0,1,1,1,1,Go for a walk in brooklyn on a beautiful warm day,Go on a long bike ride to far away parts of the city with my bike club,0.02,0.03,3.3,1,,,,
,,5fe23b5e1f2ef9db2ab8e5a0,6685aa9113c938e83b4f1ea0,672c105ced9e20d9c4c5f14b,2024-11-06_19h58.31.594,WTP_SM_Choice,2022.2.1,MacIntel,57.80346821,,,,,,,,,,,,,,,,,,63,,,,,,,,,,0.03,1,3.0867,0,2,2,2,1,Go to a coffeeshop with my friends to work on personal projects or read,Go for a walk in brooklyn on a beautiful warm day,0.03,0.03,3.3,0,,,,
,,5fe23b5e1f2ef9db2ab8e5a0,6685aa9113c938e83b4f1ea0,672c105ced9e20d9c4c5f14b,2024-11-06_19h58.31.594,WTP_SM_Choice,2022.2.1,MacIntel,57.80346821,,,,,,,,,,,,,,,,,,64,,,,,,,,,,0.04,1,2.8963,0,3,3,3,1,Go on a long bike ride to far away parts of the city with my bike club,Ride my bicycle around New York on a warm sunny day,0.04,0.03,1.1,0,,,,
,,5fe23b5e1f2ef9db2ab8e5a0,6685aa9113c938e83b4f1ea0,672c105ced9e20d9c4c5f14b,2024-11-06_19h58.31.594,WTP_SM_Choice,2022.2.1,MacIntel,57.80346821,,,,,,,,,,,,,,,,,,65,,,,,,,,,,0.03,2,2.2414,0,4,4,4,1,Go to a local bar with my neighborhood friends,Go for a run in the park on a sunny day,0.05,0.03,1.1,0,,,,
,,5fe23b5e1f2ef9db2ab8e5a0,6685aa9113c938e83b4f1ea0,672c105ced9e20d9c4c5f14b,2024-11-06_19h58.31.594,WTP_SM_Choice,2022.2.1,MacIntel,57.80346821,,,,,,,NAN,,NAN,1.67,4.33,,0,64,64,64,1,65,Charlie,Rej,Participant_Images/5fe23b5e1f2ef9db2ab8e5a0/5fe23b5e1f2ef9db2ab8e5a0_Images/5fe23b5e1f2ef9db2ab8e5a0_Image_6.jpeg,liked,2.455989137,,,,,,,,,,,,,,,,,,,,,,
,,5fe23b5e1f2ef9db2ab8e5a0,6685aa9113c938e83b4f1ea0,672c105ced9e20d9c4c5f14b,2024-11-06_19h58.31.594,WTP_SM_Choice,2022.2.1,MacIntel,57.80346821,,,,,space,1.7378,NAN,,NAN,1.67,4.33,,0,65,65,65,1,66,Charlie,Rej,Participant_Images/5fe23b5e1f2ef9db2ab8e5a0/5fe23b5e1f2ef9db2ab8e5a0_Images/5fe23b5e1f2ef9db2ab8e5a0_Image_20.jpeg,did not like,3.79605092,,,,,,,,,,,,,,,,,,,,,,
,,5fe23b5e1f2ef9db2ab8e5a0,6685aa9113c938e83b4f1ea0,672c105ced9e20d9c4c5f14b,2024-11-06_19h58.31.594,WTP_SM_Choice,2022.2.1,MacIntel,57.80346821,,,,,space,1.7955,NAN,,NAN,1.67,4.33,,0,66,66,66,1,67,Charlie,Rej,Participant_Images/5fe23b5e1f2ef9db2ab8e5a0/5fe23b5e1f2ef9db2ab8e5a0_Images/5fe23b5e1f2ef9db2ab8e5a0_Image_13.jpeg,liked,3.562416326,,,,,,,,,,,,,,,,,,,,,,
,,5fe23b5e1f2ef9db2ab8e5a0,6685aa9113c938e83b4f1ea0,672c105ced9e20d9c4c5f14b,2024-11-06_19h58.31.594,WTP_SM_Choice,2022.2.1,MacIntel,57.80346821,,,,,space,0.6125,NAN,,NAN,1.67,4.33,,0,67,67,67,1,68,Charlie,Rej,Participant_Images/5fe23b5e1f2ef9db2ab8e5a0/5fe23b5e1f2ef9db2ab8e5a0_Images/5fe23b5e1f2ef9db2ab8e5a0_Image_12.jpeg,did not like,2.843822497,,,,,,,,,,,,,,,,,,,,,,
,,5fe23b5e1f2ef9db2ab8e5a0,6685aa9113c938e83b4f1ea0,672c105ced9e20d9c4c5f14b,2024-11-06_19h58.31.594,WTP_SM_Choice,2022.2.1,MacIntel,57.80346821,,,,,space,1.1458,NAN,,NAN,1.67,4.33,,0,68,68,68,1,69,Charlie,Rej,Participant_Images/5fe23b5e1f2ef9db2ab8e5a0/5fe23b5e1f2ef9db2ab8e5a0_Images/5fe23b5e1f2ef9db2ab8e5a0_Image_18.jpeg,did not like,3.546495948,,,,,,,,,,,,,,,,,,,,,,
,,5fe23b5e1f2ef9db2ab8e5a0,6685aa9113c938e83b4f1ea0,672c105ced9e20d9c4c5f14b,2024-11-06_19h58.31.594,WTP_SM_Choice,2022.2.1,MacIntel,57.80346821,,,,,,,,,,,,,,,,,,66,,,,,,space,1.3727,space,0.5434,0.04,2,2.5055,0,0,0,0,1,Ride my bicycle around New York on a warm sunny day,Play cooperative video games with my guy friends at night,0.01,0.04,1.1,1,,,,
,,5fe23b5e1f2ef9db2ab8e5a0,6685aa9113c938e83b4f1ea0,672c105ced9e20d9c4c5f14b,2024-11-06_19h58.31.594,WTP_SM_Choice,2022.2.1,MacIntel,57.80346821,,,,,,,,,,,,,,,,,,67,,,,,,,,,,0.02,1,2.5616,0,1,1,1,1,Play video games in my living room at night,Go to a concert with my girlfriend,0.02,0.04,8.8,1,,,,
,,5fe23b5e1f2ef9db2ab8e5a0,6685aa9113c938e83b4f1ea0,672c105ced9e20d9c4c5f14b,2024-11-06_19h58.31.594,WTP_SM_Choice,2022.2.1,MacIntel,57.80346821,,,,,,,,,,,,,,,,,,68,,,,,,,,,,0.03,1,2.9542,0,2,2,2,1,Play saxophone in my bedroom during the day,Get together with my book club to discuss a new book,0.03,0.04,4.4,1,,,,
,,5fe23b5e1f2ef9db2ab8e5a0,6685aa9113c938e83b4f1ea0,672c105ced9e20d9c4c5f14b,2024-11-06_19h58.31.594,WTP_SM_Choice,2022.2.1,MacIntel,57.80346821,,,,,,,,,,,,,,,,,,69,,,,,,,,,,0.04,2,2.6457,0,3,3,3,1,Play cooperative video games with my guy friends at night,Exercise in my bedroom to loud rock music,0.04,0.04,1.1,0,,,,
,,5fe23b5e1f2ef9db2ab8e5a0,6685aa9113c938e83b4f1ea0,672c105ced9e20d9c4c5f14b,2024-11-06_19h58.31.594,WTP_SM_Choice,2022.2.1,MacIntel,57.80346821,,,,,,,,,,,,,,,,,,70,,,,,,,,,,0.04,2,1.8597,0,4,4,4,1,Travel to other countries with my girlfriend and roommate,Play saxophone in my bedroom during the day,0.05,0.04,1.1,0,,,,
,,5fe23b5e1f2ef9db2ab8e5a0,6685aa9113c938e83b4f1ea0,672c105ced9e20d9c4c5f14b,2024-11-06_19h58.31.594,WTP_SM_Choice,2022.2.1,MacIntel,57.80346821,,,,,,,NAN,,NAN,1.84,4.16,,0,69,69,69,1,70,Charlie,Rej,Participant_Images/5fe23b5e1f2ef9db2ab8e5a0/5fe23b5e1f2ef9db2ab8e5a0_Images/5fe23b5e1f2ef9db2ab8e5a0_Image_19.jpeg,did not like,1.672012706,,,,,,,,,,,,,,,,,,,,,,
,,5fe23b5e1f2ef9db2ab8e5a0,6685aa9113c938e83b4f1ea0,672c105ced9e20d9c4c5f14b,2024-11-06_19h58.31.594,WTP_SM_Choice,2022.2.1,MacIntel,57.80346821,,,,,space,0.875,NAN,,NAN,1.84,4.16,,0,70,70,70,1,71,Charlie,Rej,Participant_Images/5fe23b5e1f2ef9db2ab8e5a0/5fe23b5e1f2ef9db2ab8e5a0_Images/5fe23b5e1f2ef9db2ab8e5a0_Image_16.jpeg,did not like,4.942172136,,,,,,,,,,,,,,,,,,,,,,
,,5fe23b5e1f2ef9db2ab8e5a0,6685aa9113c938e83b4f1ea0,672c105ced9e20d9c4c5f14b,2024-11-06_19h58.31.594,WTP_SM_Choice,2022.2.1,MacIntel,57.80346821,,,,,space,0.764,NAN,,NAN,1.84,4.16,,0,71,71,71,1,72,Charlie,Rej,Participant_Images/5fe23b5e1f2ef9db2ab8e5a0/5fe23b5e1f2ef9db2ab8e5a0_Images/5fe23b5e1f2ef9db2ab8e5a0_Image_7.jpeg,did not like,2.50187214,,,,,,,,,,,,,,,,,,,,,,
,,5fe23b5e1f2ef9db2ab8e5a0,6685aa9113c938e83b4f1ea0,672c105ced9e20d9c4c5f14b,2024-11-06_19h58.31.594,WTP_SM_Choice,2022.2.1,MacIntel,57.80346821,,,,,space,1.2907,NAN,,NAN,1.84,4.16,,0,72,72,72,1,73,Charlie,Rej,Participant_Images/5fe23b5e1f2ef9db2ab8e5a0/5fe23b5e1f2ef9db2ab8e5a0_Images/5fe23b5e1f2ef9db2ab8e5a0_Image_14.jpeg,did not like,2.071164779,,,,,,,,,,,,,,,,,,,,,,
,,5fe23b5e1f2ef9db2ab8e5a0,6685aa9113c938e83b4f1ea0,672c105ced9e20d9c4c5f14b,2024-11-06_19h58.31.594,WTP_SM_Choice,2022.2.1,MacIntel,57.80346821,,,,,space,1.0527,NAN,,NAN,1.84,4.16,,0,73,73,73,1,74,Charlie,Rej,Participant_Images/5fe23b5e1f2ef9db2ab8e5a0/5fe23b5e1f2ef9db2ab8e5a0_Images/5fe23b5e1f2ef9db2ab8e5a0_Image_1.jpeg,did not like,5.336503566,,,,,,,,,,,,,,,,,,,,,,
,,5fe23b5e1f2ef9db2ab8e5a0,6685aa9113c938e83b4f1ea0,672c105ced9e20d9c4c5f14b,2024-11-06_19h58.31.594,WTP_SM_Choice,2022.2.1,MacIntel,57.80346821,,,,,,,,,,,,,,,,,,71,,,,,,space,1.0038,space,0.4153,0.01,1,1.5985,0,0,0,0,1,Play saxophone in my bedroom during the day,Go to a concert with my girlfriend,0.01,0.05,3.3,1,,,,
,,5fe23b5e1f2ef9db2ab8e5a0,6685aa9113c938e83b4f1ea0,672c105ced9e20d9c4c5f14b,2024-11-06_19h58.31.594,WTP_SM_Choice,2022.2.1,MacIntel,57.80346821,,,,,,,,,,,,,,,,,,72,,,,,,,,,,0.02,1,2.0829,0,1,1,1,1,Go for a run in the park on a sunny day,Play cooperative video games with my guy friends at night,0.02,0.05,8.8,1,,,,
,,5fe23b5e1f2ef9db2ab8e5a0,6685aa9113c938e83b4f1ea0,672c105ced9e20d9c4c5f14b,2024-11-06_19h58.31.594,WTP_SM_Choice,2022.2.1,MacIntel,57.80346821,,,,,,,,,,,,,,,,,,73,,,,,,,,,,0.03,1,4.3206,0,2,2,2,1,Play cooperative video games with my guy friends at night,Go for a walk in brooklyn on a beautiful warm day,0.03,0.05,3.3,0,,,,
,,5fe23b5e1f2ef9db2ab8e5a0,6685aa9113c938e83b4f1ea0,672c105ced9e20d9c4c5f14b,2024-11-06_19h58.31.594,WTP_SM_Choice,2022.2.1,MacIntel,57.80346821,,,,,,,,,,,,,,,,,,74,,,,,,,,,,0.04,1,3.545,0,3,3,3,1,Make a well crafted coffee and enjoying it on my balcony,Go on roadtrips with my girlfriend and best friends,0.04,0.05,4.4,1,,,,
,,5fe23b5e1f2ef9db2ab8e5a0,6685aa9113c938e83b4f1ea0,672c105ced9e20d9c4c5f14b,2024-11-06_19h58.31.594,WTP_SM_Choice,2022.2.1,MacIntel,57.80346821,,,,,,,,,,,,,,,,,,75,,,,,,,,,,0.05,2,1.7716,0,4,4,4,1,Cook a nice dinner over wine with my girlfriend,Make a well crafted coffee and enjoying it on my balcony,0.05,0.05,3.3,0,,,,
,,5fe23b5e1f2ef9db2ab8e5a0,6685aa9113c938e83b4f1ea0,672c105ced9e20d9c4c5f14b,2024-11-06_19h58.31.594,WTP_SM_Choice,2022.2.1,MacIntel,57.80346821,,,,,,,2,,4,1.99,4.01,,0,74,74,74,1,75,Charlie,Rej,Participant_Images/5fe23b5e1f2ef9db2ab8e5a0/5fe23b5e1f2ef9db2ab8e5a0_Images/5fe23b5e1f2ef9db2ab8e5a0_Image_25.jpeg,liked,2.642157193,,,,,,,,,,,,,,,,,,,space,1.6314,,
,,5fe23b5e1f2ef9db2ab8e5a0,6685aa9113c938e83b4f1ea0,672c105ced9e20d9c4c5f14b,2024-11-06_19h58.31.594,WTP_SM_Choice,2022.2.1,MacIntel,57.80346821,,,space,4.9504,space,0.6722,NAN,,NAN,1.99,4.01,,0,75,75,75,1,76,Riley,Acc,Participant_Images/5fe23b5e1f2ef9db2ab8e5a0/5fe23b5e1f2ef9db2ab8e5a0_Images/5fe23b5e1f2ef9db2ab8e5a0_Image_22.jpeg,did not like,4.456234322,,,,,,,,,,,,,,,,,,,,,,
,,5fe23b5e1f2ef9db2ab8e5a0,6685aa9113c938e83b4f1ea0,672c105ced9e20d9c4c5f14b,2024-11-06_19h58.31.594,WTP_SM_Choice,2022.2.1,MacIntel,57.80346821,,,,,space,1.1227,NAN,,NAN,1.99,4.01,,0,76,76,76,1,77,Riley,Acc,Participant_Images/5fe23b5e1f2ef9db2ab8e5a0/5fe23b5e1f2ef9db2ab8e5a0_Images/5fe23b5e1f2ef9db2ab8e5a0_Image_24.jpeg,did not like,4.438512181,,,,,,,,,,,,,,,,,,,,,,
,,5fe23b5e1f2ef9db2ab8e5a0,6685aa9113c938e83b4f1ea0,672c105ced9e20d9c4c5f14b,2024-11-06_19h58.31.594,WTP_SM_Choice,2022.2.1,MacIntel,57.80346821,,,,,space,0.7399,NAN,,NAN,1.99,4.01,,0,77,77,77,1,78,Riley,Acc,Participant_Images/5fe23b5e1f2ef9db2ab8e5a0/5fe23b5e1f2ef9db2ab8e5a0_Images/5fe23b5e1f2ef9db2ab8e5a0_Image_14.jpeg,did not like,2.682944783,,,,,,,,,,,,,,,,,,,,,,
,,5fe23b5e1f2ef9db2ab8e5a0,6685aa9113c938e83b4f1ea0,672c105ced9e20d9c4c5f14b,2024-11-06_19h58.31.594,WTP_SM_Choice,2022.2.1,MacIntel,57.80346821,,,,,space,0.5869,NAN,,NAN,1.99,4.01,,0,78,78,78,1,79,Riley,Acc,Participant_Images/5fe23b5e1f2ef9db2ab8e5a0/5fe23b5e1f2ef9db2ab8e5a0_Images/5fe23b5e1f2ef9db2ab8e5a0_Image_20.jpeg,liked,4.51984296,,,,,,,,,,,,,,,,,,,,,,
,,5fe23b5e1f2ef9db2ab8e5a0,6685aa9113c938e83b4f1ea0,672c105ced9e20d9c4c5f14b,2024-11-06_19h58.31.594,WTP_SM_Choice,2022.2.1,MacIntel,57.80346821,,,,,,,,,,,,,,,,,,76,,,,,,space,0.8829,space,0.4702,0.01,2,2.5584,0,0,0,0,1,Go on a long bike ride to far away parts of the city with my bike club,Go for a run in the park on a sunny day,0.01,0.01,1.1,0,,,,
,,5fe23b5e1f2ef9db2ab8e5a0,6685aa9113c938e83b4f1ea0,672c105ced9e20d9c4c5f14b,2024-11-06_19h58.31.594,WTP_SM_Choice,2022.2.1,MacIntel,57.80346821,,,,,,,,,,,,,,,,,,77,,,,,,,,,,0.01,2,1.8453,0,1,1,1,1,Go to a local bar with my neighborhood friends,Watch a foreign movie in my living room at night,0.02,0.01,8.8,0,,,,
,,5fe23b5e1f2ef9db2ab8e5a0,6685aa9113c938e83b4f1ea0,672c105ced9e20d9c4c5f14b,2024-11-06_19h58.31.594,WTP_SM_Choice,2022.2.1,MacIntel,57.80346821,,,,,,,,,,,,,,,,,,78,,,,,,,,,,0.03,1,3.0113,0,2,2,2,1,Read a good book in my arm chair at night with warm lighting,Play cooperative video games with my guy friends at night,0.03,0.01,1.1,1,,,,
,,5fe23b5e1f2ef9db2ab8e5a0,6685aa9113c938e83b4f1ea0,672c105ced9e20d9c4c5f14b,2024-11-06_19h58.31.594,WTP_SM_Choice,2022.2.1,MacIntel,57.80346821,,,,,,,,,,,,,,,,,,79,,,,,,,,,,0.01,2,1.9294,0,3,3,3,1,Travel to other countries with my girlfriend and roommate,Go for a run in the park on a sunny day,0.04,0.01,1.1,0,,,,
,,5fe23b5e1f2ef9db2ab8e5a0,6685aa9113c938e83b4f1ea0,672c105ced9e20d9c4c5f14b,2024-11-06_19h58.31.594,WTP_SM_Choice,2022.2.1,MacIntel,57.80346821,,,,,,,,,,,,,,,,,,80,,,,,,,,,,0.05,1,2.1841,0,4,4,4,1,Exercise in my bedroom to loud rock music,Go on a long bike ride to far away parts of the city with my bike club,0.05,0.01,4.4,1,,,,
,,5fe23b5e1f2ef9db2ab8e5a0,6685aa9113c938e83b4f1ea0,672c105ced9e20d9c4c5f14b,2024-11-06_19h58.31.594,WTP_SM_Choice,2022.2.1,MacIntel,57.80346821,,,,,,,NAN,,NAN,2.1,3.9,,0,79,79,79,1,80,Riley,Acc,Participant_Images/5fe23b5e1f2ef9db2ab8e5a0/5fe23b5e1f2ef9db2ab8e5a0_Images/5fe23b5e1f2ef9db2ab8e5a0_Image_3.jpeg,did not like,3.195382774,,,,,,,,,,,,,,,,,,,,,,
,,5fe23b5e1f2ef9db2ab8e5a0,6685aa9113c938e83b4f1ea0,672c105ced9e20d9c4c5f14b,2024-11-06_19h58.31.594,WTP_SM_Choice,2022.2.1,MacIntel,57.80346821,,,,,space,0.4565,NAN,,NAN,2.1,3.9,,0,80,80,80,1,81,Riley,Acc,Participant_Images/5fe23b5e1f2ef9db2ab8e5a0/5fe23b5e1f2ef9db2ab8e5a0_Images/5fe23b5e1f2ef9db2ab8e5a0_Image_5.jpeg,liked,1.779333479,,,,,,,,,,,,,,,,,,,,,,
,,5fe23b5e1f2ef9db2ab8e5a0,6685aa9113c938e83b4f1ea0,672c105ced9e20d9c4c5f14b,2024-11-06_19h58.31.594,WTP_SM_Choice,2022.2.1,MacIntel,57.80346821,,,,,space,0.3758,NAN,,NAN,2.1,3.9,,0,81,81,81,1,82,Riley,Acc,Participant_Images/5fe23b5e1f2ef9db2ab8e5a0/5fe23b5e1f2ef9db2ab8e5a0_Images/5fe23b5e1f2ef9db2ab8e5a0_Image_17.jpeg,liked,4.312468682,,,,,,,,,,,,,,,,,,,,,,
,,5fe23b5e1f2ef9db2ab8e5a0,6685aa9113c938e83b4f1ea0,672c105ced9e20d9c4c5f14b,2024-11-06_19h58.31.594,WTP_SM_Choice,2022.2.1,MacIntel,57.80346821,,,,,space,0.4627,NAN,,NAN,2.1,3.9,,0,82,82,82,1,83,Riley,Acc,Participant_Images/5fe23b5e1f2ef9db2ab8e5a0/5fe23b5e1f2ef9db2ab8e5a0_Images/5fe23b5e1f2ef9db2ab8e5a0_Image_12.jpeg,liked,4.940433059,,,,,,,,,,,,,,,,,,,,,,
,,5fe23b5e1f2ef9db2ab8e5a0,6685aa9113c938e83b4f1ea0,672c105ced9e20d9c4c5f14b,2024-11-06_19h58.31.594,WTP_SM_Choice,2022.2.1,MacIntel,57.80346821,,,,,space,0.5452,NAN,,NAN,2.1,3.9,,0,83,83,83,1,84,Riley,Acc,Participant_Images/5fe23b5e1f2ef9db2ab8e5a0/5fe23b5e1f2ef9db2ab8e5a0_Images/5fe23b5e1f2ef9db2ab8e5a0_Image_8.jpeg,liked,2.7105123,,,,,,,,,,,,,,,,,,,,,,
,,5fe23b5e1f2ef9db2ab8e5a0,6685aa9113c938e83b4f1ea0,672c105ced9e20d9c4c5f14b,2024-11-06_19h58.31.594,WTP_SM_Choice,2022.2.1,MacIntel,57.80346821,,,,,,,,,,,,,,,,,,81,,,,,,space,0.9691,space,0.4616,0.01,1,2.1019,0,0,0,0,1,Ride my bicycle around New York on a warm sunny day,Go to a local bar with my neighborhood friends,0.01,0.02,3.3,1,,,,
,,5fe23b5e1f2ef9db2ab8e5a0,6685aa9113c938e83b4f1ea0,672c105ced9e20d9c4c5f14b,2024-11-06_19h58.31.594,WTP_SM_Choice,2022.2.1,MacIntel,57.80346821,,,,,,,,,,,,,,,,,,82,,,,,,,,,,0.02,2,2.277,0,1,1,1,1,Go to a local bar with my neighborhood friends,Go for a walk in brooklyn on a beautiful warm day,0.02,0.02,4.4,0,,,,
,,5fe23b5e1f2ef9db2ab8e5a0,6685aa9113c938e83b4f1ea0,672c105ced9e20d9c4c5f14b,2024-11-06_19h58.31.594,WTP_SM_Choice,2022.2.1,MacIntel,57.80346821,,,,,,,,,,,,,,,,,,83,,,,,,,,,,0.03,1,2.4518,0,2,2,2,1,Play video games in my living room at night,Cook a nice dinner over wine with my girlfriend,0.03,0.02,1.1,1,,,,
,,5fe23b5e1f2ef9db2ab8e5a0,6685aa9113c938e83b4f1ea0,672c105ced9e20d9c4c5f14b,2024-11-06_19h58.31.594,WTP_SM_Choice,2022.2.1,MacIntel,57.80346821,,,,,,,,,,,,,,,,,,84,,,,,,,,,,0.02,2,2.6663,0,3,3,3,1,Travel to other countries with my girlfriend and roommate,Go for a walk in brooklyn on a beautiful warm day,0.04,0.02,3.3,0,,,,
,,5fe23b5e1f2ef9db2ab8e5a0,6685aa9113c938e83b4f1ea0,672c105ced9e20d9c4c5f14b,2024-11-06_19h58.31.594,WTP_SM_Choice,2022.2.1,MacIntel,57.80346821,,,,,,,,,,,,,,,,,,85,,,,,,,,,,0.02,2,3.5553,0,4,4,4,1,Go to a concert with my girlfriend,Go for a walk in brooklyn on a beautiful warm day,0.05,0.02,3.3,0,,,,
,,5fe23b5e1f2ef9db2ab8e5a0,6685aa9113c938e83b4f1ea0,672c105ced9e20d9c4c5f14b,2024-11-06_19h58.31.594,WTP_SM_Choice,2022.2.1,MacIntel,57.80346821,,,,,,,NAN,,NAN,2.2,3.8,,0,84,84,84,1,85,Riley,Acc,Participant_Images/5fe23b5e1f2ef9db2ab8e5a0/5fe23b5e1f2ef9db2ab8e5a0_Images/5fe23b5e1f2ef9db2ab8e5a0_Image_16.jpeg,liked,3.602308302,,,,,,,,,,,,,,,,,,,,,,
,,5fe23b5e1f2ef9db2ab8e5a0,6685aa9113c938e83b4f1ea0,672c105ced9e20d9c4c5f14b,2024-11-06_19h58.31.594,WTP_SM_Choice,2022.2.1,MacIntel,57.80346821,,,,,space,0.4263,NAN,,NAN,2.2,3.8,,0,85,85,85,1,86,Riley,Acc,Participant_Images/5fe23b5e1f2ef9db2ab8e5a0/5fe23b5e1f2ef9db2ab8e5a0_Images/5fe23b5e1f2ef9db2ab8e5a0_Image_9.jpeg,liked,4.106391878,,,,,,,,,,,,,,,,,,,,,,
,,5fe23b5e1f2ef9db2ab8e5a0,6685aa9113c938e83b4f1ea0,672c105ced9e20d9c4c5f14b,2024-11-06_19h58.31.594,WTP_SM_Choice,2022.2.1,MacIntel,57.80346821,,,,,space,1.1746,NAN,,NAN,2.2,3.8,,0,86,86,86,1,87,Riley,Acc,Participant_Images/5fe23b5e1f2ef9db2ab8e5a0/5fe23b5e1f2ef9db2ab8e5a0_Images/5fe23b5e1f2ef9db2ab8e5a0_Image_18.jpeg,liked,3.799433026,,,,,,,,,,,,,,,,,,,,,,
,,5fe23b5e1f2ef9db2ab8e5a0,6685aa9113c938e83b4f1ea0,672c105ced9e20d9c4c5f14b,2024-11-06_19h58.31.594,WTP_SM_Choice,2022.2.1,MacIntel,57.80346821,,,,,space,0.6776,NAN,,NAN,2.2,3.8,,0,87,87,87,1,88,Riley,Acc,Participant_Images/5fe23b5e1f2ef9db2ab8e5a0/5fe23b5e1f2ef9db2ab8e5a0_Images/5fe23b5e1f2ef9db2ab8e5a0_Image_13.jpeg,did not like,5.246980764,,,,,,,,,,,,,,,,,,,,,,
,,5fe23b5e1f2ef9db2ab8e5a0,6685aa9113c938e83b4f1ea0,672c105ced9e20d9c4c5f14b,2024-11-06_19h58.31.594,WTP_SM_Choice,2022.2.1,MacIntel,57.80346821,,,,,space,1.3131,NAN,,NAN,2.2,3.8,,0,88,88,88,1,89,Riley,Acc,Participant_Images/5fe23b5e1f2ef9db2ab8e5a0/5fe23b5e1f2ef9db2ab8e5a0_Images/5fe23b5e1f2ef9db2ab8e5a0_Image_19.jpeg,liked,3.30081769,,,,,,,,,,,,,,,,,,,,,,
,,5fe23b5e1f2ef9db2ab8e5a0,6685aa9113c938e83b4f1ea0,672c105ced9e20d9c4c5f14b,2024-11-06_19h58.31.594,WTP_SM_Choice,2022.2.1,MacIntel,57.80346821,,,,,,,,,,,,,,,,,,86,,,,,,space,0.9716,space,0.3835,0.01,1,2.0747,0,0,0,0,1,Read a good book in my arm chair at night with warm lighting,Travel to other countries with my girlfriend and roommate,0.01,0.03,1.1,1,,,,
,,5fe23b5e1f2ef9db2ab8e5a0,6685aa9113c938e83b4f1ea0,672c105ced9e20d9c4c5f14b,2024-11-06_19h58.31.594,WTP_SM_Choice,2022.2.1,MacIntel,57.80346821,,,,,,,,,,,,,,,,,,87,,,,,,,,,,0.03,2,2.1046,0,1,1,1,1,Get together with old friends to catch up over a meal,Make a well crafted coffee and enjoying it on my balcony,0.02,0.03,4.4,0,,,,
,,5fe23b5e1f2ef9db2ab8e5a0,6685aa9113c938e83b4f1ea0,672c105ced9e20d9c4c5f14b,2024-11-06_19h58.31.594,WTP_SM_Choice,2022.2.1,MacIntel,57.80346821,,,,,,,,,,,,,,,,,,88,,,,,,,,,,0.03,2,2.2098,0,2,2,2,1,Go to a local bar with my neighborhood friends,Make a well crafted coffee and enjoying it on my balcony,0.03,0.03,1.1,0,,,,
,,5fe23b5e1f2ef9db2ab8e5a0,6685aa9113c938e83b4f1ea0,672c105ced9e20d9c4c5f14b,2024-11-06_19h58.31.594,WTP_SM_Choice,2022.2.1,MacIntel,57.80346821,,,,,,,,,,,,,,,,,,89,,,,,,,,,,0.03,2,1.6993,0,3,3,3,1,Go to a coffeeshop with my friends to work on personal projects or read,Play saxophone in my bedroom during the day,0.04,0.03,3.3,0,,,,
,,5fe23b5e1f2ef9db2ab8e5a0,6685aa9113c938e83b4f1ea0,672c105ced9e20d9c4c5f14b,2024-11-06_19h58.31.594,WTP_SM_Choice,2022.2.1,MacIntel,57.80346821,,,,,,,,,,,,,,,,,,90,,,,,,,,,,0.03,2,3.346,0,4,4,4,1,Exercise in my bedroom to loud rock music,Go to a coffeeshop with my friends to work on personal projects or read,0.05,0.03,8.8,1,,,,
,,5fe23b5e1f2ef9db2ab8e5a0,6685aa9113c938e83b4f1ea0,672c105ced9e20d9c4c5f14b,2024-11-06_19h58.31.594,WTP_SM_Choice,2022.2.1,MacIntel,57.80346821,,,,,,,NAN,,NAN,2.33,3.67,,0,89,89,89,1,90,Riley,Acc,Participant_Images/5fe23b5e1f2ef9db2ab8e5a0/5fe23b5e1f2ef9db2ab8e5a0_Images/5fe23b5e1f2ef9db2ab8e5a0_Image_1.jpeg,liked,1.661473164,,,,,,,,,,,,,,,,,,,,,,
,,5fe23b5e1f2ef9db2ab8e5a0,6685aa9113c938e83b4f1ea0,672c105ced9e20d9c4c5f14b,2024-11-06_19h58.31.594,WTP_SM_Choice,2022.2.1,MacIntel,57.80346821,,,,,space,0.657,NAN,,NAN,2.33,3.67,,0,90,90,90,1,91,Riley,Acc,Participant_Images/5fe23b5e1f2ef9db2ab8e5a0/5fe23b5e1f2ef9db2ab8e5a0_Images/5fe23b5e1f2ef9db2ab8e5a0_Image_6.jpeg,liked,3.613205605,,,,,,,,,,,,,,,,,,,,,,
,,5fe23b5e1f2ef9db2ab8e5a0,6685aa9113c938e83b4f1ea0,672c105ced9e20d9c4c5f14b,2024-11-06_19h58.31.594,WTP_SM_Choice,2022.2.1,MacIntel,57.80346821,,,,,space,0.896,NAN,,NAN,2.33,3.67,,0,91,91,91,1,92,Riley,Acc,Participant_Images/5fe23b5e1f2ef9db2ab8e5a0/5fe23b5e1f2ef9db2ab8e5a0_Images/5fe23b5e1f2ef9db2ab8e5a0_Image_7.jpeg,did not like,4.988446431,,,,,,,,,,,,,,,,,,,,,,
,,5fe23b5e1f2ef9db2ab8e5a0,6685aa9113c938e83b4f1ea0,672c105ced9e20d9c4c5f14b,2024-11-06_19h58.31.594,WTP_SM_Choice,2022.2.1,MacIntel,57.80346821,,,,,space,1.0077,NAN,,NAN,2.33,3.67,,0,92,92,92,1,93,Riley,Acc,Participant_Images/5fe23b5e1f2ef9db2ab8e5a0/5fe23b5e1f2ef9db2ab8e5a0_Images/5fe23b5e1f2ef9db2ab8e5a0_Image_10.jpeg,liked,3.470791822,,,,,,,,,,,,,,,,,,,,,,
,,5fe23b5e1f2ef9db2ab8e5a0,6685aa9113c938e83b4f1ea0,672c105ced9e20d9c4c5f14b,2024-11-06_19h58.31.594,WTP_SM_Choice,2022.2.1,MacIntel,57.80346821,,,,,space,1.0298,NAN,,NAN,2.33,3.67,,0,93,93,93,1,94,Riley,Acc,Participant_Images/5fe23b5e1f2ef9db2ab8e5a0/5fe23b5e1f2ef9db2ab8e5a0_Images/5fe23b5e1f2ef9db2ab8e5a0_Image_4.jpeg,liked,3.820572462,,,,,,,,,,,,,,,,,,,,,,
,,5fe23b5e1f2ef9db2ab8e5a0,6685aa9113c938e83b4f1ea0,672c105ced9e20d9c4c5f14b,2024-11-06_19h58.31.594,WTP_SM_Choice,2022.2.1,MacIntel,57.80346821,,,,,,,,,,,,,,,,,,91,,,,,,space,0.8271,space,0.3291,0.01,1,4.7051,0,0,0,0,1,Go to a coffeeshop with my friends to work on personal projects or read,Go for a run in the park on a sunny day,0.01,0.04,3.3,0,,,,
,,5fe23b5e1f2ef9db2ab8e5a0,6685aa9113c938e83b4f1ea0,672c105ced9e20d9c4c5f14b,2024-11-06_19h58.31.594,WTP_SM_Choice,2022.2.1,MacIntel,57.80346821,,,,,,,,,,,,,,,,,,92,,,,,,,,,,0.02,1,2.1634,0,1,1,1,1,Work on my short story on my desk with soft music,Travel to other countries with my girlfriend and roommate,0.02,0.04,8.8,1,,,,
,,5fe23b5e1f2ef9db2ab8e5a0,6685aa9113c938e83b4f1ea0,672c105ced9e20d9c4c5f14b,2024-11-06_19h58.31.594,WTP_SM_Choice,2022.2.1,MacIntel,57.80346821,,,,,,,,,,,,,,,,,,93,,,,,,,,,,0.04,2,3.4025,0,2,2,2,1,Play cooperative video games with my guy friends at night,Work on my short story on my desk with soft music,0.03,0.04,1.1,0,,,,
,,5fe23b5e1f2ef9db2ab8e5a0,6685aa9113c938e83b4f1ea0,672c105ced9e20d9c4c5f14b,2024-11-06_19h58.31.594,WTP_SM_Choice,2022.2.1,MacIntel,57.80346821,,,,,,,,,,,,,,,,,,94,,,,,,,,,,0.04,1,2.7068,0,3,3,3,1,Work on my short story on my desk with soft music,Cook a nice dinner over wine with my girlfriend,0.04,0.04,4.4,1,,,,
,,5fe23b5e1f2ef9db2ab8e5a0,6685aa9113c938e83b4f1ea0,672c105ced9e20d9c4c5f14b,2024-11-06_19h58.31.594,WTP_SM_Choice,2022.2.1,MacIntel,57.80346821,,,,,,,,,,,,,,,,,,95,,,,,,,,,,0.04,2,2.9395,0,4,4,4,1,Go to a concert with my girlfriend,Make a well crafted coffee and enjoying it on my balcony,0.05,0.04,4.4,0,,,,
,,5fe23b5e1f2ef9db2ab8e5a0,6685aa9113c938e83b4f1ea0,672c105ced9e20d9c4c5f14b,2024-11-06_19h58.31.594,WTP_SM_Choice,2022.2.1,MacIntel,57.80346821,,,,,,,NAN,,NAN,2.48,3.52,,0,94,94,94,1,95,Riley,Acc,Participant_Images/5fe23b5e1f2ef9db2ab8e5a0/5fe23b5e1f2ef9db2ab8e5a0_Images/5fe23b5e1f2ef9db2ab8e5a0_Image_11.jpeg,liked,2.455989137,,,,,,,,,,,,,,,,,,,,,,
,,5fe23b5e1f2ef9db2ab8e5a0,6685aa9113c938e83b4f1ea0,672c105ced9e20d9c4c5f14b,2024-11-06_19h58.31.594,WTP_SM_Choice,2022.2.1,MacIntel,57.80346821,,,,,space,0.7798,NAN,,NAN,2.48,3.52,,0,95,95,95,1,96,Riley,Acc,Participant_Images/5fe23b5e1f2ef9db2ab8e5a0/5fe23b5e1f2ef9db2ab8e5a0_Images/5fe23b5e1f2ef9db2ab8e5a0_Image_2.jpeg,liked,3.79605092,,,,,,,,,,,,,,,,,,,,,,
,,5fe23b5e1f2ef9db2ab8e5a0,6685aa9113c938e83b4f1ea0,672c105ced9e20d9c4c5f14b,2024-11-06_19h58.31.594,WTP_SM_Choice,2022.2.1,MacIntel,57.80346821,,,,,space,0.5369,NAN,,NAN,2.48,3.52,,0,96,96,96,1,97,Riley,Acc,Participant_Images/5fe23b5e1f2ef9db2ab8e5a0/5fe23b5e1f2ef9db2ab8e5a0_Images/5fe23b5e1f2ef9db2ab8e5a0_Image_15.jpeg,liked,3.562416326,,,,,,,,,,,,,,,,,,,,,,
,,5fe23b5e1f2ef9db2ab8e5a0,6685aa9113c938e83b4f1ea0,672c105ced9e20d9c4c5f14b,2024-11-06_19h58.31.594,WTP_SM_Choice,2022.2.1,MacIntel,57.80346821,,,,,space,2.0474,NAN,,NAN,2.48,3.52,,0,97,97,97,1,98,Riley,Acc,Participant_Images/5fe23b5e1f2ef9db2ab8e5a0/5fe23b5e1f2ef9db2ab8e5a0_Images/5fe23b5e1f2ef9db2ab8e5a0_Image_23.jpeg,liked,2.843822497,,,,,,,,,,,,,,,,,,,,,,
,,5fe23b5e1f2ef9db2ab8e5a0,6685aa9113c938e83b4f1ea0,672c105ced9e20d9c4c5f14b,2024-11-06_19h58.31.594,WTP_SM_Choice,2022.2.1,MacIntel,57.80346821,,,,,space,0.8993,NAN,,NAN,2.48,3.52,,0,98,98,98,1,99,Riley,Acc,Participant_Images/5fe23b5e1f2ef9db2ab8e5a0/5fe23b5e1f2ef9db2ab8e5a0_Images/5fe23b5e1f2ef9db2ab8e5a0_Image_21.jpeg,did not like,3.546495948,,,,,,,,,,,,,,,,,,,,,,
,,5fe23b5e1f2ef9db2ab8e5a0,6685aa9113c938e83b4f1ea0,672c105ced9e20d9c4c5f14b,2024-11-06_19h58.31.594,WTP_SM_Choice,2022.2.1,MacIntel,57.80346821,,,,,,,,,,,,,,,,,,96,,,,,,space,0.8993,space,0.3736,0.01,1,1.7228,0,0,0,0,1,Work on my short story on my desk with soft music,Go to a concert with my girlfriend,0.01,0.05,3.3,1,,,,
,,5fe23b5e1f2ef9db2ab8e5a0,6685aa9113c938e83b4f1ea0,672c105ced9e20d9c4c5f14b,2024-11-06_19h58.31.594,WTP_SM_Choice,2022.2.1,MacIntel,57.80346821,,,,,,,,,,,,,,,,,,97,,,,,,,,,,0.02,1,3.1922,0,1,1,1,1,Go for a walk in brooklyn on a beautiful warm day,Get together with old friends to catch up over a meal,0.02,0.05,1.1,1,,,,
,,5fe23b5e1f2ef9db2ab8e5a0,6685aa9113c938e83b4f1ea0,672c105ced9e20d9c4c5f14b,2024-11-06_19h58.31.594,WTP_SM_Choice,2022.2.1,MacIntel,57.80346821,,,,,,,,,,,,,,,,,,98,,,,,,,,,,0.03,1,2.7761,0,2,2,2,1,Work on my short story on my desk with soft music,Go to a coffeeshop with my friends to work on personal projects or read,0.03,0.05,1.1,1,,,,
,,5fe23b5e1f2ef9db2ab8e5a0,6685aa9113c938e83b4f1ea0,672c105ced9e20d9c4c5f14b,2024-11-06_19h58.31.594,WTP_SM_Choice,2022.2.1,MacIntel,57.80346821,,,,,,,,,,,,,,,,,,99,,,,,,,,,,0.04,1,3.0232,0,3,3,3,1,Play saxophone in my bedroom during the day,Go on a long bike ride to far away parts of the city with my bike club,0.04,0.05,3.3,1,,,,
,,5fe23b5e1f2ef9db2ab8e5a0,6685aa9113c938e83b4f1ea0,672c105ced9e20d9c4c5f14b,2024-11-06_19h58.31.594,WTP_SM_Choice,2022.2.1,MacIntel,57.80346821,,,,,,,,,,,,,,,,,,100,,,,,,,,,,0.05,2,3.482,0,4,4,4,1,Go on roadtrips with my girlfriend and best friends,Play saxophone in my bedroom during the day,0.05,0.05,4.4,0,,,,
,,5fe23b5e1f2ef9db2ab8e5a0,6685aa9113c938e83b4f1ea0,672c105ced9e20d9c4c5f14b,2024-11-06_19h58.31.594,WTP_SM_Choice,2022.2.1,MacIntel,57.80346821,,,,,,,4,,3,2.63,3.37,,0,99,99,99,1,100,Riley,Acc,Participant_Images/5fe23b5e1f2ef9db2ab8e5a0/5fe23b5e1f2ef9db2ab8e5a0_Images/5fe23b5e1f2ef9db2ab8e5a0_Image_25.jpeg,liked,1.672012706,,,,,,,,,,,,,,,,,,,space,1.6392,,
,,5fe23b5e1f2ef9db2ab8e5a0,6685aa9113c938e83b4f1ea0,672c105ced9e20d9c4c5f14b,2024-11-06_19h58.31.594,WTP_SM_Choice,2022.2.1,MacIntel,57.80346821,,,,,,,,,,,,,,,,,,,,,,,,,,,,,,,,,,,,,,,,,,,,space,2.6615
