endwelcomescreen_keys.keys,endwelcomescreen_keys.rt,participant,STUDY_ID,SESSION_ID,date,expName,psychopyVersion,OS,frameRate,endinstructionscreen_keys.keys,endinstructionscreen_keys.rt,endpartnermatch_keys.keys,endpartnermatch_keys.rt,sharenextphoto_key.keys,sharenextphoto_key.rt,salience_rating,key_resp.keys,stress_level,subtract_bonus,TOTAL_TASK_BONUS,stresslevel_keypress.keys,entiretaskloop.thisRepN,entiretaskloop.thisTrialN,entiretaskloop.thisN,entiretaskloop.thisIndex,entiretaskloop.ran,TrialNumber,Partner,Condition,Photos,Feedback,FeedbackWait,WTP_ins_keys1.keys,WTP_ins_keys1.rt,WTP_ins_keys2.keys,WTP_ins_keys2.rt,decision_price,responses.keys,responses.rt,WTPTaskLoop.thisRepN,WTPTaskLoop.thisTrialN,WTPTaskLoop.thisN,WTPTaskLoop.thisIndex,WTPTaskLoop.ran,right,left,leftmoney,rightmoney,WTP_ITI,social_left,Resume_keys.keys,Resume_keys.rt,key_resp.rt,end_screen_keys.keys,end_screen_keys.rt
space,5.9437,60c7fd00cce7a43663968b17,6685aa9113c938e83b4f1ea0,669b448c896ecc945771fd3a,2024-07-19_22h04.54.430,WTP_SM_Choice,2022.2.1,Win32,23.98081535,,,,,,,,,,,,,,,,,,,,,,,,,,,,,,,,,,,,,,,,,,,,,,
,,60c7fd00cce7a43663968b17,6685aa9113c938e83b4f1ea0,669b448c896ecc945771fd3a,2024-07-19_22h04.54.430,WTP_SM_Choice,2022.2.1,Win32,23.98081535,space,12.4687,,,,,,,,,,,,,,,,,,,,,,,,,,,,,,,,,,,,,,,,,,,,
,,60c7fd00cce7a43663968b17,6685aa9113c938e83b4f1ea0,669b448c896ecc945771fd3a,2024-07-19_22h04.54.430,WTP_SM_Choice,2022.2.1,Win32,23.98081535,,,space,1.0728,space,0.7157,NAN,,NAN,0,6,,0,0,0,0,1,1,Riley,Rej,Participant_Images/60c7fd00cce7a43663968b17/60c7fd00cce7a43663968b17_Images/60c7fd00cce7a43663968b17_Image_10.jpeg,did not like,3.613205605,,,,,,,,,,,,,,,,,,,,,,,
,,60c7fd00cce7a43663968b17,6685aa9113c938e83b4f1ea0,669b448c896ecc945771fd3a,2024-07-19_22h04.54.430,WTP_SM_Choice,2022.2.1,Win32,23.98081535,,,,,space,0.6387,NAN,,NAN,0,6,,0,1,1,1,1,2,Riley,Rej,Participant_Images/60c7fd00cce7a43663968b17/60c7fd00cce7a43663968b17_Images/60c7fd00cce7a43663968b17_Image_17.jpeg,did not like,4.988446431,,,,,,,,,,,,,,,,,,,,,,,
,,60c7fd00cce7a43663968b17,6685aa9113c938e83b4f1ea0,669b448c896ecc945771fd3a,2024-07-19_22h04.54.430,WTP_SM_Choice,2022.2.1,Win32,23.98081535,,,,,space,0.87,NAN,,NAN,0,6,,0,2,2,2,1,3,Riley,Rej,Participant_Images/60c7fd00cce7a43663968b17/60c7fd00cce7a43663968b17_Images/60c7fd00cce7a43663968b17_Image_12.jpeg,did not like,3.470791822,,,,,,,,,,,,,,,,,,,,,,,
,,60c7fd00cce7a43663968b17,6685aa9113c938e83b4f1ea0,669b448c896ecc945771fd3a,2024-07-19_22h04.54.430,WTP_SM_Choice,2022.2.1,Win32,23.98081535,,,,,space,0.5481,NAN,,NAN,0,6,,0,3,3,3,1,4,Riley,Rej,Participant_Images/60c7fd00cce7a43663968b17/60c7fd00cce7a43663968b17_Images/60c7fd00cce7a43663968b17_Image_13.jpeg,did not like,3.820572462,,,,,,,,,,,,,,,,,,,,,,,
,,60c7fd00cce7a43663968b17,6685aa9113c938e83b4f1ea0,669b448c896ecc945771fd3a,2024-07-19_22h04.54.430,WTP_SM_Choice,2022.2.1,Win32,23.98081535,,,,,,,,,,,,,,,,,,1,,,,,,space,27.7404,space,6.3385,0.01,2,2.4839,0,0,0,0,1,Go on hikes with friends in the morning,Play on my switch on a rainy day ,0.01,0.01,4.4,0,,,,,
,,60c7fd00cce7a43663968b17,6685aa9113c938e83b4f1ea0,669b448c896ecc945771fd3a,2024-07-19_22h04.54.430,WTP_SM_Choice,2022.2.1,Win32,23.98081535,,,,,,,,,,,,,,,,,,2,,,,,,,,,,0.02,1,3.4209,0,1,1,1,1,Go to concerts with friends ,Go running soon after I wake up in cool weather ,0.02,0.01,8.8,0,,,,,
,,60c7fd00cce7a43663968b17,6685aa9113c938e83b4f1ea0,669b448c896ecc945771fd3a,2024-07-19_22h04.54.430,WTP_SM_Choice,2022.2.1,Win32,23.98081535,,,,,,,,,,,,,,,,,,3,,,,,,,,,,0.01,2,3.274,0,2,2,2,1,Listen to music while I work on art,Go on hikes with friends in the morning,0.03,0.01,3.3,1,,,,,
,,60c7fd00cce7a43663968b17,6685aa9113c938e83b4f1ea0,669b448c896ecc945771fd3a,2024-07-19_22h04.54.430,WTP_SM_Choice,2022.2.1,Win32,23.98081535,,,,,,,,,,,,,,,,,,4,,,,,,,,,,0.04,1,3.8847,0,3,3,3,1,Visit museums and observing art,Listen to music while I work on art,0.04,0.01,1.1,0,,,,,
,,60c7fd00cce7a43663968b17,6685aa9113c938e83b4f1ea0,669b448c896ecc945771fd3a,2024-07-19_22h04.54.430,WTP_SM_Choice,2022.2.1,Win32,23.98081535,,,,,,,,,,,,,,,,,,5,,,,,,,,,,0.01,2,3.7697,0,4,4,4,1,Go running soon after I wake up in cool weather ,Visit museums and observing art,0.05,0.01,1.1,1,,,,,
,,60c7fd00cce7a43663968b17,6685aa9113c938e83b4f1ea0,669b448c896ecc945771fd3a,2024-07-19_22h04.54.430,WTP_SM_Choice,2022.2.1,Win32,23.98081535,,,,,,,NAN,,NAN,0.09,5.91,,0,4,4,4,1,5,Riley,Rej,Participant_Images/60c7fd00cce7a43663968b17/60c7fd00cce7a43663968b17_Images/60c7fd00cce7a43663968b17_Image_4.jpeg,did not like,2.455989137,,,,,,,,,,,,,,,,,,,,,,,
,,60c7fd00cce7a43663968b17,6685aa9113c938e83b4f1ea0,669b448c896ecc945771fd3a,2024-07-19_22h04.54.430,WTP_SM_Choice,2022.2.1,Win32,23.98081535,,,,,space,4.2495,NAN,,NAN,0.09,5.91,,0,5,5,5,1,6,Riley,Rej,Participant_Images/60c7fd00cce7a43663968b17/60c7fd00cce7a43663968b17_Images/60c7fd00cce7a43663968b17_Image_16.jpeg,liked,3.79605092,,,,,,,,,,,,,,,,,,,,,,,
,,60c7fd00cce7a43663968b17,6685aa9113c938e83b4f1ea0,669b448c896ecc945771fd3a,2024-07-19_22h04.54.430,WTP_SM_Choice,2022.2.1,Win32,23.98081535,,,,,space,1.4922,NAN,,NAN,0.09,5.91,,0,6,6,6,1,7,Riley,Rej,Participant_Images/60c7fd00cce7a43663968b17/60c7fd00cce7a43663968b17_Images/60c7fd00cce7a43663968b17_Image_6.jpeg,did not like,3.562416326,,,,,,,,,,,,,,,,,,,,,,,
,,60c7fd00cce7a43663968b17,6685aa9113c938e83b4f1ea0,669b448c896ecc945771fd3a,2024-07-19_22h04.54.430,WTP_SM_Choice,2022.2.1,Win32,23.98081535,,,,,space,2.8882,NAN,,NAN,0.09,5.91,,0,7,7,7,1,8,Riley,Rej,Participant_Images/60c7fd00cce7a43663968b17/60c7fd00cce7a43663968b17_Images/60c7fd00cce7a43663968b17_Image_24.jpeg,liked,2.843822497,,,,,,,,,,,,,,,,,,,,,,,
,,60c7fd00cce7a43663968b17,6685aa9113c938e83b4f1ea0,669b448c896ecc945771fd3a,2024-07-19_22h04.54.430,WTP_SM_Choice,2022.2.1,Win32,23.98081535,,,,,space,3.0871,NAN,,NAN,0.09,5.91,,0,8,8,8,1,9,Riley,Rej,Participant_Images/60c7fd00cce7a43663968b17/60c7fd00cce7a43663968b17_Images/60c7fd00cce7a43663968b17_Image_9.jpeg,liked,3.546495948,,,,,,,,,,,,,,,,,,,,,,,
,,60c7fd00cce7a43663968b17,6685aa9113c938e83b4f1ea0,669b448c896ecc945771fd3a,2024-07-19_22h04.54.430,WTP_SM_Choice,2022.2.1,Win32,23.98081535,,,,,,,,,,,,,,,,,,6,,,,,,space,7.7613,space,1.5389,0.02,2,2.414,0,0,0,0,1,Do karaoke with friends on a late night ,Go running soon after I wake up in cool weather ,0.01,0.02,3.3,0,,,,,
,,60c7fd00cce7a43663968b17,6685aa9113c938e83b4f1ea0,669b448c896ecc945771fd3a,2024-07-19_22h04.54.430,WTP_SM_Choice,2022.2.1,Win32,23.98081535,,,,,,,,,,,,,,,,,,7,,,,,,,,,,0.02,1,2.4824,0,1,1,1,1,Bake chocolate chip cookies on a weekend,Go out at night to eat with friends ,0.02,0.02,1.1,1,,,,,
,,60c7fd00cce7a43663968b17,6685aa9113c938e83b4f1ea0,669b448c896ecc945771fd3a,2024-07-19_22h04.54.430,WTP_SM_Choice,2022.2.1,Win32,23.98081535,,,,,,,,,,,,,,,,,,8,,,,,,,,,,0.02,2,4.0327,0,2,2,2,1,Play board games with my family ,Bake chocolate chip cookies on a weekend,0.03,0.02,1.1,0,,,,,
,,60c7fd00cce7a43663968b17,6685aa9113c938e83b4f1ea0,669b448c896ecc945771fd3a,2024-07-19_22h04.54.430,WTP_SM_Choice,2022.2.1,Win32,23.98081535,,,,,,,,,,,,,,,,,,9,,,,,,,,,,0.02,2,3.0541,0,3,3,3,1,Visi new cafes with friends,Go on my phone before I go to bed,0.04,0.02,4.4,0,,,,,
,,60c7fd00cce7a43663968b17,6685aa9113c938e83b4f1ea0,669b448c896ecc945771fd3a,2024-07-19_22h04.54.430,WTP_SM_Choice,2022.2.1,Win32,23.98081535,,,,,,,,,,,,,,,,,,10,,,,,,,,,,0.05,1,4.0345,0,4,4,4,1,Watch movies in my bed at night from my laptop,Go to concerts with friends ,0.05,0.02,1.1,1,,,,,
,,60c7fd00cce7a43663968b17,6685aa9113c938e83b4f1ea0,669b448c896ecc945771fd3a,2024-07-19_22h04.54.430,WTP_SM_Choice,2022.2.1,Win32,23.98081535,,,,,,,NAN,,NAN,0.22,5.78,,0,9,9,9,1,10,Riley,Rej,Participant_Images/60c7fd00cce7a43663968b17/60c7fd00cce7a43663968b17_Images/60c7fd00cce7a43663968b17_Image_18.jpeg,liked,1.672012706,,,,,,,,,,,,,,,,,,,,,,,
,,60c7fd00cce7a43663968b17,6685aa9113c938e83b4f1ea0,669b448c896ecc945771fd3a,2024-07-19_22h04.54.430,WTP_SM_Choice,2022.2.1,Win32,23.98081535,,,,,space,2.7237,NAN,,NAN,0.22,5.78,,0,10,10,10,1,11,Riley,Rej,Participant_Images/60c7fd00cce7a43663968b17/60c7fd00cce7a43663968b17_Images/60c7fd00cce7a43663968b17_Image_7.jpeg,did not like,4.942172136,,,,,,,,,,,,,,,,,,,,,,,
,,60c7fd00cce7a43663968b17,6685aa9113c938e83b4f1ea0,669b448c896ecc945771fd3a,2024-07-19_22h04.54.430,WTP_SM_Choice,2022.2.1,Win32,23.98081535,,,,,space,3.4497,NAN,,NAN,0.22,5.78,,0,11,11,11,1,12,Riley,Rej,Participant_Images/60c7fd00cce7a43663968b17/60c7fd00cce7a43663968b17_Images/60c7fd00cce7a43663968b17_Image_21.jpeg,did not like,2.50187214,,,,,,,,,,,,,,,,,,,,,,,
,,60c7fd00cce7a43663968b17,6685aa9113c938e83b4f1ea0,669b448c896ecc945771fd3a,2024-07-19_22h04.54.430,WTP_SM_Choice,2022.2.1,Win32,23.98081535,,,,,space,1.5792,NAN,,NAN,0.22,5.78,,0,12,12,12,1,13,Riley,Rej,Participant_Images/60c7fd00cce7a43663968b17/60c7fd00cce7a43663968b17_Images/60c7fd00cce7a43663968b17_Image_22.jpeg,liked,2.071164779,,,,,,,,,,,,,,,,,,,,,,,
,,60c7fd00cce7a43663968b17,6685aa9113c938e83b4f1ea0,669b448c896ecc945771fd3a,2024-07-19_22h04.54.430,WTP_SM_Choice,2022.2.1,Win32,23.98081535,,,,,space,1.7683,NAN,,NAN,0.22,5.78,,0,13,13,13,1,14,Riley,Rej,Participant_Images/60c7fd00cce7a43663968b17/60c7fd00cce7a43663968b17_Images/60c7fd00cce7a43663968b17_Image_19.jpeg,did not like,5.336503566,,,,,,,,,,,,,,,,,,,,,,,
,,60c7fd00cce7a43663968b17,6685aa9113c938e83b4f1ea0,669b448c896ecc945771fd3a,2024-07-19_22h04.54.430,WTP_SM_Choice,2022.2.1,Win32,23.98081535,,,,,,,,,,,,,,,,,,11,,,,,,space,1.4858,space,1.688,0.03,2,3.2911,0,0,0,0,1,Work on my drawings and paintings in my art room with my window open on any day,Help my aunt out with her garden,0.01,0.03,3.3,1,,,,,
,,60c7fd00cce7a43663968b17,6685aa9113c938e83b4f1ea0,669b448c896ecc945771fd3a,2024-07-19_22h04.54.430,WTP_SM_Choice,2022.2.1,Win32,23.98081535,,,,,,,,,,,,,,,,,,12,,,,,,,,,,0.02,1,2.7312,0,1,1,1,1,Visi new cafes with friends,Watch movies in my bed at night from my laptop,0.02,0.03,4.4,0,,,,,
,,60c7fd00cce7a43663968b17,6685aa9113c938e83b4f1ea0,669b448c896ecc945771fd3a,2024-07-19_22h04.54.430,WTP_SM_Choice,2022.2.1,Win32,23.98081535,,,,,,,,,,,,,,,,,,13,,,,,,,,,,0.03,1,2.4954,0,2,2,2,1,Play board games with my family ,Play on my switch on a rainy day ,0.03,0.03,1.1,0,,,,,
,,60c7fd00cce7a43663968b17,6685aa9113c938e83b4f1ea0,669b448c896ecc945771fd3a,2024-07-19_22h04.54.430,WTP_SM_Choice,2022.2.1,Win32,23.98081535,,,,,,,,,,,,,,,,,,14,,,,,,,,,,0.03,2,3.6196,0,3,3,3,1,Play video games with friends,Watch movies in my bed at night from my laptop,0.04,0.03,3.3,0,,,,,
,,60c7fd00cce7a43663968b17,6685aa9113c938e83b4f1ea0,669b448c896ecc945771fd3a,2024-07-19_22h04.54.430,WTP_SM_Choice,2022.2.1,Win32,23.98081535,,,,,,,,,,,,,,,,,,15,,,,,,,,,,0.03,2,3.6748,0,4,4,4,1,Go for boba with friends,Bake chocolate chip cookies on a weekend,0.05,0.03,4.4,0,,,,,
,,60c7fd00cce7a43663968b17,6685aa9113c938e83b4f1ea0,669b448c896ecc945771fd3a,2024-07-19_22h04.54.430,WTP_SM_Choice,2022.2.1,Win32,23.98081535,,,,,,,NAN,,NAN,0.36,5.64,,0,14,14,14,1,15,Riley,Rej,Participant_Images/60c7fd00cce7a43663968b17/60c7fd00cce7a43663968b17_Images/60c7fd00cce7a43663968b17_Image_25.jpeg,liked,2.642157193,,,,,,,,,,,,,,,,,,,,,,,
,,60c7fd00cce7a43663968b17,6685aa9113c938e83b4f1ea0,669b448c896ecc945771fd3a,2024-07-19_22h04.54.430,WTP_SM_Choice,2022.2.1,Win32,23.98081535,,,,,space,19.0917,NAN,,NAN,0.36,5.64,,0,15,15,15,1,16,Riley,Rej,Participant_Images/60c7fd00cce7a43663968b17/60c7fd00cce7a43663968b17_Images/60c7fd00cce7a43663968b17_Image_20.jpeg,did not like,4.456234322,,,,,,,,,,,,,,,,,,,,,,,
,,60c7fd00cce7a43663968b17,6685aa9113c938e83b4f1ea0,669b448c896ecc945771fd3a,2024-07-19_22h04.54.430,WTP_SM_Choice,2022.2.1,Win32,23.98081535,,,,,space,1.4225,NAN,,NAN,0.36,5.64,,0,16,16,16,1,17,Riley,Rej,Participant_Images/60c7fd00cce7a43663968b17/60c7fd00cce7a43663968b17_Images/60c7fd00cce7a43663968b17_Image_15.jpeg,did not like,4.438512181,,,,,,,,,,,,,,,,,,,,,,,
,,60c7fd00cce7a43663968b17,6685aa9113c938e83b4f1ea0,669b448c896ecc945771fd3a,2024-07-19_22h04.54.430,WTP_SM_Choice,2022.2.1,Win32,23.98081535,,,,,space,1.4851,NAN,,NAN,0.36,5.64,,0,17,17,17,1,18,Riley,Rej,Participant_Images/60c7fd00cce7a43663968b17/60c7fd00cce7a43663968b17_Images/60c7fd00cce7a43663968b17_Image_1.jpeg,did not like,2.682944783,,,,,,,,,,,,,,,,,,,,,,,
,,60c7fd00cce7a43663968b17,6685aa9113c938e83b4f1ea0,669b448c896ecc945771fd3a,2024-07-19_22h04.54.430,WTP_SM_Choice,2022.2.1,Win32,23.98081535,,,,,space,1.3229,NAN,,NAN,0.36,5.64,,0,18,18,18,1,19,Riley,Rej,Participant_Images/60c7fd00cce7a43663968b17/60c7fd00cce7a43663968b17_Images/60c7fd00cce7a43663968b17_Image_11.jpeg,did not like,4.51984296,,,,,,,,,,,,,,,,,,,,,,,
,,60c7fd00cce7a43663968b17,6685aa9113c938e83b4f1ea0,669b448c896ecc945771fd3a,2024-07-19_22h04.54.430,WTP_SM_Choice,2022.2.1,Win32,23.98081535,,,,,,,,,,,,,,,,,,16,,,,,,space,0.7514,space,0.9978,0.01,1,2.2681,0,0,0,0,1,Play video games with friends,Bake chocolate chip cookies on a weekend,0.01,0.04,1.1,0,,,,,
,,60c7fd00cce7a43663968b17,6685aa9113c938e83b4f1ea0,669b448c896ecc945771fd3a,2024-07-19_22h04.54.430,WTP_SM_Choice,2022.2.1,Win32,23.98081535,,,,,,,,,,,,,,,,,,17,,,,,,,,,,0.02,1,3.0337,0,1,1,1,1,Help my aunt out with her garden,Watch movies in my bed at night from my laptop,0.02,0.04,8.8,0,,,,,
,,60c7fd00cce7a43663968b17,6685aa9113c938e83b4f1ea0,669b448c896ecc945771fd3a,2024-07-19_22h04.54.430,WTP_SM_Choice,2022.2.1,Win32,23.98081535,,,,,,,,,,,,,,,,,,18,,,,,,,,,,0.03,1,3.1872,0,2,2,2,1,Watch movies in my bed at night from my laptop,Go for boba with friends,0.03,0.04,3.3,1,,,,,
,,60c7fd00cce7a43663968b17,6685aa9113c938e83b4f1ea0,669b448c896ecc945771fd3a,2024-07-19_22h04.54.430,WTP_SM_Choice,2022.2.1,Win32,23.98081535,,,,,,,,,,,,,,,,,,19,,,,,,,,,,0.04,2,2.4922,0,3,3,3,1,Visi new cafes with friends,Eat a warm meal at dinner ,0.04,0.04,3.3,0,,,,,
,,60c7fd00cce7a43663968b17,6685aa9113c938e83b4f1ea0,669b448c896ecc945771fd3a,2024-07-19_22h04.54.430,WTP_SM_Choice,2022.2.1,Win32,23.98081535,,,,,,,,,,,,,,,,,,20,,,,,,,,,,0.04,2,3.1619,0,4,4,4,1,Go for boba with friends,Work on my drawings and paintings in my art room with my window open on any day,0.05,0.04,1.1,0,,,,,
,,60c7fd00cce7a43663968b17,6685aa9113c938e83b4f1ea0,669b448c896ecc945771fd3a,2024-07-19_22h04.54.430,WTP_SM_Choice,2022.2.1,Win32,23.98081535,,,,,,,NAN,,NAN,0.5,5.5,,0,19,19,19,1,20,Riley,Rej,Participant_Images/60c7fd00cce7a43663968b17/60c7fd00cce7a43663968b17_Images/60c7fd00cce7a43663968b17_Image_5.jpeg,did not like,3.195382774,,,,,,,,,,,,,,,,,,,,,,,
,,60c7fd00cce7a43663968b17,6685aa9113c938e83b4f1ea0,669b448c896ecc945771fd3a,2024-07-19_22h04.54.430,WTP_SM_Choice,2022.2.1,Win32,23.98081535,,,,,space,2.379,NAN,,NAN,0.5,5.5,,0,20,20,20,1,21,Riley,Rej,Participant_Images/60c7fd00cce7a43663968b17/60c7fd00cce7a43663968b17_Images/60c7fd00cce7a43663968b17_Image_8.jpeg,did not like,1.779333479,,,,,,,,,,,,,,,,,,,,,,,
,,60c7fd00cce7a43663968b17,6685aa9113c938e83b4f1ea0,669b448c896ecc945771fd3a,2024-07-19_22h04.54.430,WTP_SM_Choice,2022.2.1,Win32,23.98081535,,,,,space,1.3152,NAN,,NAN,0.5,5.5,,0,21,21,21,1,22,Riley,Rej,Participant_Images/60c7fd00cce7a43663968b17/60c7fd00cce7a43663968b17_Images/60c7fd00cce7a43663968b17_Image_14.jpeg,liked,4.312468682,,,,,,,,,,,,,,,,,,,,,,,
,,60c7fd00cce7a43663968b17,6685aa9113c938e83b4f1ea0,669b448c896ecc945771fd3a,2024-07-19_22h04.54.430,WTP_SM_Choice,2022.2.1,Win32,23.98081535,,,,,space,2.2734,NAN,,NAN,0.5,5.5,,0,22,22,22,1,23,Riley,Rej,Participant_Images/60c7fd00cce7a43663968b17/60c7fd00cce7a43663968b17_Images/60c7fd00cce7a43663968b17_Image_3.jpeg,did not like,4.940433059,,,,,,,,,,,,,,,,,,,,,,,
,,60c7fd00cce7a43663968b17,6685aa9113c938e83b4f1ea0,669b448c896ecc945771fd3a,2024-07-19_22h04.54.430,WTP_SM_Choice,2022.2.1,Win32,23.98081535,,,,,space,1.2328,NAN,,NAN,0.5,5.5,,0,23,23,23,1,24,Riley,Rej,Participant_Images/60c7fd00cce7a43663968b17/60c7fd00cce7a43663968b17_Images/60c7fd00cce7a43663968b17_Image_23.jpeg,did not like,2.7105123,,,,,,,,,,,,,,,,,,,,,,,
,,60c7fd00cce7a43663968b17,6685aa9113c938e83b4f1ea0,669b448c896ecc945771fd3a,2024-07-19_22h04.54.430,WTP_SM_Choice,2022.2.1,Win32,23.98081535,,,,,,,,,,,,,,,,,,21,,,,,,space,1.5958,space,0.7924,0.05,2,3.1172,0,0,0,0,1,Eat a warm meal at dinner ,Help my aunt out with her garden,0.01,0.05,8.8,1,,,,,
,,60c7fd00cce7a43663968b17,6685aa9113c938e83b4f1ea0,669b448c896ecc945771fd3a,2024-07-19_22h04.54.430,WTP_SM_Choice,2022.2.1,Win32,23.98081535,,,,,,,,,,,,,,,,,,22,,,,,,,,,,0.02,1,1.5577,0,1,1,1,1,Play board games with my family ,Eat a warm meal at dinner ,0.02,0.05,4.4,0,,,,,
,,60c7fd00cce7a43663968b17,6685aa9113c938e83b4f1ea0,669b448c896ecc945771fd3a,2024-07-19_22h04.54.430,WTP_SM_Choice,2022.2.1,Win32,23.98081535,,,,,,,,,,,,,,,,,,23,,,,,,,,,,0.03,1,1.8041,0,2,2,2,1,Play on my switch on a rainy day ,Visit museums and observing art,0.03,0.05,1.1,1,,,,,
,,60c7fd00cce7a43663968b17,6685aa9113c938e83b4f1ea0,669b448c896ecc945771fd3a,2024-07-19_22h04.54.430,WTP_SM_Choice,2022.2.1,Win32,23.98081535,,,,,,,,,,,,,,,,,,24,,,,,,,,,,0.04,1,2.4417,0,3,3,3,1,Listen to music while I work on art,Do karaoke with friends on a late night ,0.04,0.05,4.4,1,,,,,
,,60c7fd00cce7a43663968b17,6685aa9113c938e83b4f1ea0,669b448c896ecc945771fd3a,2024-07-19_22h04.54.430,WTP_SM_Choice,2022.2.1,Win32,23.98081535,,,,,,,,,,,,,,,,,,25,,,,,,,,,,0.05,2,1.9016,0,4,4,4,1,Go out at night to eat with friends ,Write in my journal after a good long day ,0.05,0.05,3.3,0,,,,,
,,60c7fd00cce7a43663968b17,6685aa9113c938e83b4f1ea0,669b448c896ecc945771fd3a,2024-07-19_22h04.54.430,WTP_SM_Choice,2022.2.1,Win32,23.98081535,,,,,,,2,,4,0.69,5.31,,0,24,24,24,1,25,Riley,Rej,Participant_Images/60c7fd00cce7a43663968b17/60c7fd00cce7a43663968b17_Images/60c7fd00cce7a43663968b17_Image_2.jpeg,did not like,3.602308302,,,,,,,,,,,,,,,,,,,space,2.4461,,,
,,60c7fd00cce7a43663968b17,6685aa9113c938e83b4f1ea0,669b448c896ecc945771fd3a,2024-07-19_22h04.54.430,WTP_SM_Choice,2022.2.1,Win32,23.98081535,,,space,1.6614,space,6.716,NAN,,NAN,0.69,5.31,,0,25,25,25,1,26,Charlie,Acc,Participant_Images/60c7fd00cce7a43663968b17/60c7fd00cce7a43663968b17_Images/60c7fd00cce7a43663968b17_Image_1.jpeg,liked,4.106391878,,,,,,,,,,,,,,,,,,,,,,,
,,60c7fd00cce7a43663968b17,6685aa9113c938e83b4f1ea0,669b448c896ecc945771fd3a,2024-07-19_22h04.54.430,WTP_SM_Choice,2022.2.1,Win32,23.98081535,,,,,space,0.8769,NAN,,NAN,0.69,5.31,,0,26,26,26,1,27,Charlie,Acc,Participant_Images/60c7fd00cce7a43663968b17/60c7fd00cce7a43663968b17_Images/60c7fd00cce7a43663968b17_Image_6.jpeg,liked,3.799433026,,,,,,,,,,,,,,,,,,,,,,,
,,60c7fd00cce7a43663968b17,6685aa9113c938e83b4f1ea0,669b448c896ecc945771fd3a,2024-07-19_22h04.54.430,WTP_SM_Choice,2022.2.1,Win32,23.98081535,,,,,space,5.6852,NAN,,NAN,0.69,5.31,,0,27,27,27,1,28,Charlie,Acc,Participant_Images/60c7fd00cce7a43663968b17/60c7fd00cce7a43663968b17_Images/60c7fd00cce7a43663968b17_Image_22.jpeg,did not like,5.246980764,,,,,,,,,,,,,,,,,,,,,,,
,,60c7fd00cce7a43663968b17,6685aa9113c938e83b4f1ea0,669b448c896ecc945771fd3a,2024-07-19_22h04.54.430,WTP_SM_Choice,2022.2.1,Win32,23.98081535,,,,,space,3.9826,NAN,,NAN,0.69,5.31,,0,28,28,28,1,29,Charlie,Acc,Participant_Images/60c7fd00cce7a43663968b17/60c7fd00cce7a43663968b17_Images/60c7fd00cce7a43663968b17_Image_5.jpeg,liked,3.30081769,,,,,,,,,,,,,,,,,,,,,,,
,,60c7fd00cce7a43663968b17,6685aa9113c938e83b4f1ea0,669b448c896ecc945771fd3a,2024-07-19_22h04.54.430,WTP_SM_Choice,2022.2.1,Win32,23.98081535,,,,,,,,,,,,,,,,,,26,,,,,,space,1.2141,space,0.8815,0.01,2,1.6204,0,0,0,0,1,Bake chocolate chip cookies on a weekend,Help my aunt out with her garden,0.01,0.01,4.4,1,,,,,
,,60c7fd00cce7a43663968b17,6685aa9113c938e83b4f1ea0,669b448c896ecc945771fd3a,2024-07-19_22h04.54.430,WTP_SM_Choice,2022.2.1,Win32,23.98081535,,,,,,,,,,,,,,,,,,27,,,,,,,,,,0.02,1,1.916,0,1,1,1,1,Play on my switch on a rainy day ,Play video games with friends,0.02,0.01,3.3,1,,,,,
,,60c7fd00cce7a43663968b17,6685aa9113c938e83b4f1ea0,669b448c896ecc945771fd3a,2024-07-19_22h04.54.430,WTP_SM_Choice,2022.2.1,Win32,23.98081535,,,,,,,,,,,,,,,,,,28,,,,,,,,,,0.01,2,4.8432,0,2,2,2,1,Do karaoke with friends on a late night ,Go on my phone before I go to bed,0.03,0.01,3.3,0,,,,,
,,60c7fd00cce7a43663968b17,6685aa9113c938e83b4f1ea0,669b448c896ecc945771fd3a,2024-07-19_22h04.54.430,WTP_SM_Choice,2022.2.1,Win32,23.98081535,,,,,,,,,,,,,,,,,,29,,,,,,,,,,0.01,2,1.8645,0,3,3,3,1,Listen to music while I work on art,Play board games with my family ,0.04,0.01,4.4,1,,,,,
,,60c7fd00cce7a43663968b17,6685aa9113c938e83b4f1ea0,669b448c896ecc945771fd3a,2024-07-19_22h04.54.430,WTP_SM_Choice,2022.2.1,Win32,23.98081535,,,,,,,,,,,,,,,,,,30,,,,,,,,,,0.05,1,1.9355,0,4,4,4,1,Organize my wardrobe at midnight looking for outfits,Visit museums and observing art,0.05,0.01,8.8,1,,,,,
,,60c7fd00cce7a43663968b17,6685aa9113c938e83b4f1ea0,669b448c896ecc945771fd3a,2024-07-19_22h04.54.430,WTP_SM_Choice,2022.2.1,Win32,23.98081535,,,,,,,NAN,,NAN,0.79,5.21,,0,29,29,29,1,30,Charlie,Acc,Participant_Images/60c7fd00cce7a43663968b17/60c7fd00cce7a43663968b17_Images/60c7fd00cce7a43663968b17_Image_9.jpeg,liked,1.661473164,,,,,,,,,,,,,,,,,,,,,,,
,,60c7fd00cce7a43663968b17,6685aa9113c938e83b4f1ea0,669b448c896ecc945771fd3a,2024-07-19_22h04.54.430,WTP_SM_Choice,2022.2.1,Win32,23.98081535,,,,,space,1.2938,NAN,,NAN,0.79,5.21,,0,30,30,30,1,31,Charlie,Acc,Participant_Images/60c7fd00cce7a43663968b17/60c7fd00cce7a43663968b17_Images/60c7fd00cce7a43663968b17_Image_21.jpeg,did not like,3.613205605,,,,,,,,,,,,,,,,,,,,,,,
,,60c7fd00cce7a43663968b17,6685aa9113c938e83b4f1ea0,669b448c896ecc945771fd3a,2024-07-19_22h04.54.430,WTP_SM_Choice,2022.2.1,Win32,23.98081535,,,,,space,9.4228,NAN,,NAN,0.79,5.21,,0,31,31,31,1,32,Charlie,Acc,Participant_Images/60c7fd00cce7a43663968b17/60c7fd00cce7a43663968b17_Images/60c7fd00cce7a43663968b17_Image_2.jpeg,liked,4.988446431,,,,,,,,,,,,,,,,,,,,,,,
,,60c7fd00cce7a43663968b17,6685aa9113c938e83b4f1ea0,669b448c896ecc945771fd3a,2024-07-19_22h04.54.430,WTP_SM_Choice,2022.2.1,Win32,23.98081535,,,,,space,5.4018,NAN,,NAN,0.79,5.21,,0,32,32,32,1,33,Charlie,Acc,Participant_Images/60c7fd00cce7a43663968b17/60c7fd00cce7a43663968b17_Images/60c7fd00cce7a43663968b17_Image_15.jpeg,did not like,3.470791822,,,,,,,,,,,,,,,,,,,,,,,
,,60c7fd00cce7a43663968b17,6685aa9113c938e83b4f1ea0,669b448c896ecc945771fd3a,2024-07-19_22h04.54.430,WTP_SM_Choice,2022.2.1,Win32,23.98081535,,,,,space,13.9235,NAN,,NAN,0.79,5.21,,0,33,33,33,1,34,Charlie,Acc,Participant_Images/60c7fd00cce7a43663968b17/60c7fd00cce7a43663968b17_Images/60c7fd00cce7a43663968b17_Image_25.jpeg,liked,3.820572462,,,,,,,,,,,,,,,,,,,,,,,
,,60c7fd00cce7a43663968b17,6685aa9113c938e83b4f1ea0,669b448c896ecc945771fd3a,2024-07-19_22h04.54.430,WTP_SM_Choice,2022.2.1,Win32,23.98081535,,,,,,,,,,,,,,,,,,31,,,,,,space,0.9367,space,9.813,0.01,1,1.5335,0,0,0,0,1,Listen to music while I work on art,Play video games with friends,0.01,0.02,8.8,1,,,,,
,,60c7fd00cce7a43663968b17,6685aa9113c938e83b4f1ea0,669b448c896ecc945771fd3a,2024-07-19_22h04.54.430,WTP_SM_Choice,2022.2.1,Win32,23.98081535,,,,,,,,,,,,,,,,,,32,,,,,,,,,,0.02,1,1.7422,0,1,1,1,1,Eat a warm meal at dinner ,Go to concerts with friends ,0.02,0.02,1.1,1,,,,,
,,60c7fd00cce7a43663968b17,6685aa9113c938e83b4f1ea0,669b448c896ecc945771fd3a,2024-07-19_22h04.54.430,WTP_SM_Choice,2022.2.1,Win32,23.98081535,,,,,,,,,,,,,,,,,,33,,,,,,,,,,0.03,1,1.4586,0,2,2,2,1,Do karaoke with friends on a late night ,Play on my switch on a rainy day ,0.03,0.02,4.4,0,,,,,
,,60c7fd00cce7a43663968b17,6685aa9113c938e83b4f1ea0,669b448c896ecc945771fd3a,2024-07-19_22h04.54.430,WTP_SM_Choice,2022.2.1,Win32,23.98081535,,,,,,,,,,,,,,,,,,34,,,,,,,,,,0.04,1,2.2554,0,3,3,3,1,Go out at night to eat with friends ,Go running soon after I wake up in cool weather ,0.04,0.02,3.3,0,,,,,
,,60c7fd00cce7a43663968b17,6685aa9113c938e83b4f1ea0,669b448c896ecc945771fd3a,2024-07-19_22h04.54.430,WTP_SM_Choice,2022.2.1,Win32,23.98081535,,,,,,,,,,,,,,,,,,35,,,,,,,,,,0.05,1,1.3933,0,4,4,4,1,Go on my phone before I go to bed,Help my aunt out with her garden,0.05,0.02,1.1,1,,,,,
,,60c7fd00cce7a43663968b17,6685aa9113c938e83b4f1ea0,669b448c896ecc945771fd3a,2024-07-19_22h04.54.430,WTP_SM_Choice,2022.2.1,Win32,23.98081535,,,,,,,NAN,,NAN,0.94,5.06,,0,34,34,34,1,35,Charlie,Acc,Participant_Images/60c7fd00cce7a43663968b17/60c7fd00cce7a43663968b17_Images/60c7fd00cce7a43663968b17_Image_23.jpeg,liked,2.455989137,,,,,,,,,,,,,,,,,,,,,,,
,,60c7fd00cce7a43663968b17,6685aa9113c938e83b4f1ea0,669b448c896ecc945771fd3a,2024-07-19_22h04.54.430,WTP_SM_Choice,2022.2.1,Win32,23.98081535,,,,,space,6.7813,NAN,,NAN,0.94,5.06,,0,35,35,35,1,36,Charlie,Acc,Participant_Images/60c7fd00cce7a43663968b17/60c7fd00cce7a43663968b17_Images/60c7fd00cce7a43663968b17_Image_14.jpeg,did not like,3.79605092,,,,,,,,,,,,,,,,,,,,,,,
,,60c7fd00cce7a43663968b17,6685aa9113c938e83b4f1ea0,669b448c896ecc945771fd3a,2024-07-19_22h04.54.430,WTP_SM_Choice,2022.2.1,Win32,23.98081535,,,,,space,0.8539,NAN,,NAN,0.94,5.06,,0,36,36,36,1,37,Charlie,Acc,Participant_Images/60c7fd00cce7a43663968b17/60c7fd00cce7a43663968b17_Images/60c7fd00cce7a43663968b17_Image_12.jpeg,liked,3.562416326,,,,,,,,,,,,,,,,,,,,,,,
,,60c7fd00cce7a43663968b17,6685aa9113c938e83b4f1ea0,669b448c896ecc945771fd3a,2024-07-19_22h04.54.430,WTP_SM_Choice,2022.2.1,Win32,23.98081535,,,,,space,7.1343,NAN,,NAN,0.94,5.06,,0,37,37,37,1,38,Charlie,Acc,Participant_Images/60c7fd00cce7a43663968b17/60c7fd00cce7a43663968b17_Images/60c7fd00cce7a43663968b17_Image_8.jpeg,did not like,2.843822497,,,,,,,,,,,,,,,,,,,,,,,
,,60c7fd00cce7a43663968b17,6685aa9113c938e83b4f1ea0,669b448c896ecc945771fd3a,2024-07-19_22h04.54.430,WTP_SM_Choice,2022.2.1,Win32,23.98081535,,,,,space,0.8304,NAN,,NAN,0.94,5.06,,0,38,38,38,1,39,Charlie,Acc,Participant_Images/60c7fd00cce7a43663968b17/60c7fd00cce7a43663968b17_Images/60c7fd00cce7a43663968b17_Image_3.jpeg,liked,3.546495948,,,,,,,,,,,,,,,,,,,,,,,
,,60c7fd00cce7a43663968b17,6685aa9113c938e83b4f1ea0,669b448c896ecc945771fd3a,2024-07-19_22h04.54.430,WTP_SM_Choice,2022.2.1,Win32,23.98081535,,,,,,,,,,,,,,,,,,36,,,,,,space,1.5642,space,0.8063,0.03,2,1.1963,0,0,0,0,1,Bake chocolate chip cookies on a weekend,Go on hikes with friends in the morning,0.01,0.03,3.3,1,,,,,
,,60c7fd00cce7a43663968b17,6685aa9113c938e83b4f1ea0,669b448c896ecc945771fd3a,2024-07-19_22h04.54.430,WTP_SM_Choice,2022.2.1,Win32,23.98081535,,,,,,,,,,,,,,,,,,37,,,,,,,,,,0.03,2,2.5585,0,1,1,1,1,Go running soon after I wake up in cool weather ,Go on hikes with friends in the morning,0.02,0.03,1.1,1,,,,,
,,60c7fd00cce7a43663968b17,6685aa9113c938e83b4f1ea0,669b448c896ecc945771fd3a,2024-07-19_22h04.54.430,WTP_SM_Choice,2022.2.1,Win32,23.98081535,,,,,,,,,,,,,,,,,,38,,,,,,,,,,0.03,1,1.6174,0,2,2,2,1,Do karaoke with friends on a late night ,Watch movies in my bed at night from my laptop,0.03,0.03,1.1,0,,,,,
,,60c7fd00cce7a43663968b17,6685aa9113c938e83b4f1ea0,669b448c896ecc945771fd3a,2024-07-19_22h04.54.430,WTP_SM_Choice,2022.2.1,Win32,23.98081535,,,,,,,,,,,,,,,,,,39,,,,,,,,,,0.04,1,2.0134,0,3,3,3,1,Help my aunt out with her garden,Write in my journal after a good long day ,0.04,0.03,3.3,0,,,,,
,,60c7fd00cce7a43663968b17,6685aa9113c938e83b4f1ea0,669b448c896ecc945771fd3a,2024-07-19_22h04.54.430,WTP_SM_Choice,2022.2.1,Win32,23.98081535,,,,,,,,,,,,,,,,,,40,,,,,,,,,,0.03,2,2.5316,0,4,4,4,1,Play board games with my family ,Go on my phone before I go to bed,0.05,0.03,4.4,0,,,,,
,,60c7fd00cce7a43663968b17,6685aa9113c938e83b4f1ea0,669b448c896ecc945771fd3a,2024-07-19_22h04.54.430,WTP_SM_Choice,2022.2.1,Win32,23.98081535,,,,,,,NAN,,NAN,1.1,4.9,,0,39,39,39,1,40,Charlie,Acc,Participant_Images/60c7fd00cce7a43663968b17/60c7fd00cce7a43663968b17_Images/60c7fd00cce7a43663968b17_Image_20.jpeg,did not like,1.672012706,,,,,,,,,,,,,,,,,,,,,,,
,,60c7fd00cce7a43663968b17,6685aa9113c938e83b4f1ea0,669b448c896ecc945771fd3a,2024-07-19_22h04.54.430,WTP_SM_Choice,2022.2.1,Win32,23.98081535,,,,,space,1.0717,NAN,,NAN,1.1,4.9,,0,40,40,40,1,41,Charlie,Acc,Participant_Images/60c7fd00cce7a43663968b17/60c7fd00cce7a43663968b17_Images/60c7fd00cce7a43663968b17_Image_17.jpeg,liked,4.942172136,,,,,,,,,,,,,,,,,,,,,,,
,,60c7fd00cce7a43663968b17,6685aa9113c938e83b4f1ea0,669b448c896ecc945771fd3a,2024-07-19_22h04.54.430,WTP_SM_Choice,2022.2.1,Win32,23.98081535,,,,,space,0.978,NAN,,NAN,1.1,4.9,,0,41,41,41,1,42,Charlie,Acc,Participant_Images/60c7fd00cce7a43663968b17/60c7fd00cce7a43663968b17_Images/60c7fd00cce7a43663968b17_Image_18.jpeg,liked,2.50187214,,,,,,,,,,,,,,,,,,,,,,,
,,60c7fd00cce7a43663968b17,6685aa9113c938e83b4f1ea0,669b448c896ecc945771fd3a,2024-07-19_22h04.54.430,WTP_SM_Choice,2022.2.1,Win32,23.98081535,,,,,space,3.57,NAN,,NAN,1.1,4.9,,0,42,42,42,1,43,Charlie,Acc,Participant_Images/60c7fd00cce7a43663968b17/60c7fd00cce7a43663968b17_Images/60c7fd00cce7a43663968b17_Image_10.jpeg,liked,2.071164779,,,,,,,,,,,,,,,,,,,,,,,
,,60c7fd00cce7a43663968b17,6685aa9113c938e83b4f1ea0,669b448c896ecc945771fd3a,2024-07-19_22h04.54.430,WTP_SM_Choice,2022.2.1,Win32,23.98081535,,,,,space,3.6846,NAN,,NAN,1.1,4.9,,0,43,43,43,1,44,Charlie,Acc,Participant_Images/60c7fd00cce7a43663968b17/60c7fd00cce7a43663968b17_Images/60c7fd00cce7a43663968b17_Image_13.jpeg,did not like,5.336503566,,,,,,,,,,,,,,,,,,,,,,,
,,60c7fd00cce7a43663968b17,6685aa9113c938e83b4f1ea0,669b448c896ecc945771fd3a,2024-07-19_22h04.54.430,WTP_SM_Choice,2022.2.1,Win32,23.98081535,,,,,,,,,,,,,,,,,,41,,,,,,space,0.8561,space,0.4951,0.01,1,1.7161,0,0,0,0,1,Do karaoke with friends on a late night ,Eat a warm meal at dinner ,0.01,0.04,1.1,0,,,,,
,,60c7fd00cce7a43663968b17,6685aa9113c938e83b4f1ea0,669b448c896ecc945771fd3a,2024-07-19_22h04.54.430,WTP_SM_Choice,2022.2.1,Win32,23.98081535,,,,,,,,,,,,,,,,,,42,,,,,,,,,,0.04,2,6.0594,0,1,1,1,1,Go out at night to eat with friends ,Watch movies in my bed at night from my laptop,0.02,0.04,3.3,0,,,,,
,,60c7fd00cce7a43663968b17,6685aa9113c938e83b4f1ea0,669b448c896ecc945771fd3a,2024-07-19_22h04.54.430,WTP_SM_Choice,2022.2.1,Win32,23.98081535,,,,,,,,,,,,,,,,,,43,,,,,,,,,,0.04,2,1.4905,0,2,2,2,1,Play video games with friends,Go on my phone before I go to bed,0.03,0.04,1.1,0,,,,,
,,60c7fd00cce7a43663968b17,6685aa9113c938e83b4f1ea0,669b448c896ecc945771fd3a,2024-07-19_22h04.54.430,WTP_SM_Choice,2022.2.1,Win32,23.98081535,,,,,,,,,,,,,,,,,,44,,,,,,,,,,0.04,2,1.7094,0,3,3,3,1,Visi new cafes with friends,Go running soon after I wake up in cool weather ,0.04,0.04,1.1,0,,,,,
,,60c7fd00cce7a43663968b17,6685aa9113c938e83b4f1ea0,669b448c896ecc945771fd3a,2024-07-19_22h04.54.430,WTP_SM_Choice,2022.2.1,Win32,23.98081535,,,,,,,,,,,,,,,,,,45,,,,,,,,,,0.05,1,3.2624,0,4,4,4,1,Organize my wardrobe at midnight looking for outfits,Help my aunt out with her garden,0.05,0.04,4.4,1,,,,,
,,60c7fd00cce7a43663968b17,6685aa9113c938e83b4f1ea0,669b448c896ecc945771fd3a,2024-07-19_22h04.54.430,WTP_SM_Choice,2022.2.1,Win32,23.98081535,,,,,,,NAN,,NAN,1.28,4.72,,0,44,44,44,1,45,Charlie,Acc,Participant_Images/60c7fd00cce7a43663968b17/60c7fd00cce7a43663968b17_Images/60c7fd00cce7a43663968b17_Image_24.jpeg,liked,2.642157193,,,,,,,,,,,,,,,,,,,,,,,
,,60c7fd00cce7a43663968b17,6685aa9113c938e83b4f1ea0,669b448c896ecc945771fd3a,2024-07-19_22h04.54.430,WTP_SM_Choice,2022.2.1,Win32,23.98081535,,,,,space,0.7231,NAN,,NAN,1.28,4.72,,0,45,45,45,1,46,Charlie,Acc,Participant_Images/60c7fd00cce7a43663968b17/60c7fd00cce7a43663968b17_Images/60c7fd00cce7a43663968b17_Image_19.jpeg,liked,4.456234322,,,,,,,,,,,,,,,,,,,,,,,
,,60c7fd00cce7a43663968b17,6685aa9113c938e83b4f1ea0,669b448c896ecc945771fd3a,2024-07-19_22h04.54.430,WTP_SM_Choice,2022.2.1,Win32,23.98081535,,,,,space,1.0743,NAN,,NAN,1.28,4.72,,0,46,46,46,1,47,Charlie,Acc,Participant_Images/60c7fd00cce7a43663968b17/60c7fd00cce7a43663968b17_Images/60c7fd00cce7a43663968b17_Image_4.jpeg,liked,4.438512181,,,,,,,,,,,,,,,,,,,,,,,
,,60c7fd00cce7a43663968b17,6685aa9113c938e83b4f1ea0,669b448c896ecc945771fd3a,2024-07-19_22h04.54.430,WTP_SM_Choice,2022.2.1,Win32,23.98081535,,,,,space,1.9771,NAN,,NAN,1.28,4.72,,0,47,47,47,1,48,Charlie,Acc,Participant_Images/60c7fd00cce7a43663968b17/60c7fd00cce7a43663968b17_Images/60c7fd00cce7a43663968b17_Image_16.jpeg,liked,2.682944783,,,,,,,,,,,,,,,,,,,,,,,
,,60c7fd00cce7a43663968b17,6685aa9113c938e83b4f1ea0,669b448c896ecc945771fd3a,2024-07-19_22h04.54.430,WTP_SM_Choice,2022.2.1,Win32,23.98081535,,,,,space,0.6965,NAN,,NAN,1.28,4.72,,0,48,48,48,1,49,Charlie,Acc,Participant_Images/60c7fd00cce7a43663968b17/60c7fd00cce7a43663968b17_Images/60c7fd00cce7a43663968b17_Image_11.jpeg,liked,4.51984296,,,,,,,,,,,,,,,,,,,,,,,
,,60c7fd00cce7a43663968b17,6685aa9113c938e83b4f1ea0,669b448c896ecc945771fd3a,2024-07-19_22h04.54.430,WTP_SM_Choice,2022.2.1,Win32,23.98081535,,,,,,,,,,,,,,,,,,46,,,,,,space,2.7907,space,1.0383,0.05,2,0.8663,0,0,0,0,1,Go on my phone before I go to bed,Visit museums and observing art,0.01,0.05,8.8,1,,,,,
,,60c7fd00cce7a43663968b17,6685aa9113c938e83b4f1ea0,669b448c896ecc945771fd3a,2024-07-19_22h04.54.430,WTP_SM_Choice,2022.2.1,Win32,23.98081535,,,,,,,,,,,,,,,,,,47,,,,,,,,,,0.05,2,5.0518,0,1,1,1,1,Go on my phone before I go to bed,Go for boba with friends,0.02,0.05,1.1,1,,,,,
,,60c7fd00cce7a43663968b17,6685aa9113c938e83b4f1ea0,669b448c896ecc945771fd3a,2024-07-19_22h04.54.430,WTP_SM_Choice,2022.2.1,Win32,23.98081535,,,,,,,,,,,,,,,,,,48,,,,,,,,,,0.03,1,2.5253,0,2,2,2,1,Eat a warm meal at dinner ,Go on hikes with friends in the morning,0.03,0.05,4.4,1,,,,,
,,60c7fd00cce7a43663968b17,6685aa9113c938e83b4f1ea0,669b448c896ecc945771fd3a,2024-07-19_22h04.54.430,WTP_SM_Choice,2022.2.1,Win32,23.98081535,,,,,,,,,,,,,,,,,,49,,,,,,,,,,0.04,1,4.9411,0,3,3,3,1,Go out at night to eat with friends ,Eat a warm meal at dinner ,0.04,0.05,3.3,0,,,,,
,,60c7fd00cce7a43663968b17,6685aa9113c938e83b4f1ea0,669b448c896ecc945771fd3a,2024-07-19_22h04.54.430,WTP_SM_Choice,2022.2.1,Win32,23.98081535,,,,,,,,,,,,,,,,,,50,,,,,,,,,,0.05,1,7.0191,0,4,4,4,1,Go out at night to eat with friends ,Listen to music while I work on art,0.05,0.05,1.1,0,,,,,
,,60c7fd00cce7a43663968b17,6685aa9113c938e83b4f1ea0,669b448c896ecc945771fd3a,2024-07-19_22h04.54.430,WTP_SM_Choice,2022.2.1,Win32,23.98081535,,,,,,,3,space,3,1.5,4.5,,0,49,49,49,1,50,Charlie,Acc,Participant_Images/60c7fd00cce7a43663968b17/60c7fd00cce7a43663968b17_Images/60c7fd00cce7a43663968b17_Image_7.jpeg,liked,3.195382774,,,,,,,,,,,,,,,,,,,space,8.9056,6.2237,,
,,60c7fd00cce7a43663968b17,6685aa9113c938e83b4f1ea0,669b448c896ecc945771fd3a,2024-07-19_22h04.54.430,WTP_SM_Choice,2022.2.1,Win32,23.98081535,,,space,24.8108,space,3.5962,NAN,,NAN,1.5,4.5,,0,50,50,50,1,51,Alex,Rej,Participant_Images/60c7fd00cce7a43663968b17/60c7fd00cce7a43663968b17_Images/60c7fd00cce7a43663968b17_Image_4.jpeg,liked,1.779333479,,,,,,,,,,,,,,,,,,,,,,,
,,60c7fd00cce7a43663968b17,6685aa9113c938e83b4f1ea0,669b448c896ecc945771fd3a,2024-07-19_22h04.54.430,WTP_SM_Choice,2022.2.1,Win32,23.98081535,,,,,space,1.1821,NAN,,NAN,1.5,4.5,,0,51,51,51,1,52,Alex,Rej,Participant_Images/60c7fd00cce7a43663968b17/60c7fd00cce7a43663968b17_Images/60c7fd00cce7a43663968b17_Image_6.jpeg,did not like,4.312468682,,,,,,,,,,,,,,,,,,,,,,,
,,60c7fd00cce7a43663968b17,6685aa9113c938e83b4f1ea0,669b448c896ecc945771fd3a,2024-07-19_22h04.54.430,WTP_SM_Choice,2022.2.1,Win32,23.98081535,,,,,space,9.5508,NAN,,NAN,1.5,4.5,,0,52,52,52,1,53,Alex,Rej,Participant_Images/60c7fd00cce7a43663968b17/60c7fd00cce7a43663968b17_Images/60c7fd00cce7a43663968b17_Image_25.jpeg,did not like,4.940433059,,,,,,,,,,,,,,,,,,,,,,,
,,60c7fd00cce7a43663968b17,6685aa9113c938e83b4f1ea0,669b448c896ecc945771fd3a,2024-07-19_22h04.54.430,WTP_SM_Choice,2022.2.1,Win32,23.98081535,,,,,space,1.5748,NAN,,NAN,1.5,4.5,,0,53,53,53,1,54,Alex,Rej,Participant_Images/60c7fd00cce7a43663968b17/60c7fd00cce7a43663968b17_Images/60c7fd00cce7a43663968b17_Image_16.jpeg,liked,2.7105123,,,,,,,,,,,,,,,,,,,,,,,
,,60c7fd00cce7a43663968b17,6685aa9113c938e83b4f1ea0,669b448c896ecc945771fd3a,2024-07-19_22h04.54.430,WTP_SM_Choice,2022.2.1,Win32,23.98081535,,,,,,,,,,,,,,,,,,51,,,,,,space,5.0586,space,0.9295,0.01,1,1.1787,0,0,0,0,1,Play on my switch on a rainy day ,Go for boba with friends,0.01,0.01,1.1,1,,,,,
,,60c7fd00cce7a43663968b17,6685aa9113c938e83b4f1ea0,669b448c896ecc945771fd3a,2024-07-19_22h04.54.430,WTP_SM_Choice,2022.2.1,Win32,23.98081535,,,,,,,,,,,,,,,,,,52,,,,,,,,,,,,,0,1,1,1,1,Play board games with my family ,Organize my wardrobe at midnight looking for outfits,0.02,0.01,3.3,0,,,,,
,,60c7fd00cce7a43663968b17,6685aa9113c938e83b4f1ea0,669b448c896ecc945771fd3a,2024-07-19_22h04.54.430,WTP_SM_Choice,2022.2.1,Win32,23.98081535,,,,,,,,,,,,,,,,,,53,,,,,,,,,,0.03,1,0.8351,0,2,2,2,1,Visi new cafes with friends,Write in my journal after a good long day ,0.03,0.01,1.1,0,,,,,
,,60c7fd00cce7a43663968b17,6685aa9113c938e83b4f1ea0,669b448c896ecc945771fd3a,2024-07-19_22h04.54.430,WTP_SM_Choice,2022.2.1,Win32,23.98081535,,,,,,,,,,,,,,,,,,54,,,,,,,,,,0.01,2,1.3671,0,3,3,3,1,Listen to music while I work on art,Help my aunt out with her garden,0.04,0.01,4.4,1,,,,,
,,60c7fd00cce7a43663968b17,6685aa9113c938e83b4f1ea0,669b448c896ecc945771fd3a,2024-07-19_22h04.54.430,WTP_SM_Choice,2022.2.1,Win32,23.98081535,,,,,,,,,,,,,,,,,,55,,,,,,,,,,0.05,1,3.694,0,4,4,4,1,Bake chocolate chip cookies on a weekend,Visi new cafes with friends,0.05,0.01,1.1,1,,,,,
,,60c7fd00cce7a43663968b17,6685aa9113c938e83b4f1ea0,669b448c896ecc945771fd3a,2024-07-19_22h04.54.430,WTP_SM_Choice,2022.2.1,Win32,23.98081535,,,,,,,NAN,,NAN,1.6,4.4,,0,54,54,54,1,55,Alex,Rej,Participant_Images/60c7fd00cce7a43663968b17/60c7fd00cce7a43663968b17_Images/60c7fd00cce7a43663968b17_Image_13.jpeg,did not like,3.602308302,,,,,,,,,,,,,,,,,,,,,,,
,,60c7fd00cce7a43663968b17,6685aa9113c938e83b4f1ea0,669b448c896ecc945771fd3a,2024-07-19_22h04.54.430,WTP_SM_Choice,2022.2.1,Win32,23.98081535,,,,,space,8.7754,NAN,,NAN,1.6,4.4,,0,55,55,55,1,56,Alex,Rej,Participant_Images/60c7fd00cce7a43663968b17/60c7fd00cce7a43663968b17_Images/60c7fd00cce7a43663968b17_Image_5.jpeg,did not like,4.106391878,,,,,,,,,,,,,,,,,,,,,,,
,,60c7fd00cce7a43663968b17,6685aa9113c938e83b4f1ea0,669b448c896ecc945771fd3a,2024-07-19_22h04.54.430,WTP_SM_Choice,2022.2.1,Win32,23.98081535,,,,,space,10.0103,NAN,,NAN,1.6,4.4,,0,56,56,56,1,57,Alex,Rej,Participant_Images/60c7fd00cce7a43663968b17/60c7fd00cce7a43663968b17_Images/60c7fd00cce7a43663968b17_Image_19.jpeg,liked,3.799433026,,,,,,,,,,,,,,,,,,,,,,,
,,60c7fd00cce7a43663968b17,6685aa9113c938e83b4f1ea0,669b448c896ecc945771fd3a,2024-07-19_22h04.54.430,WTP_SM_Choice,2022.2.1,Win32,23.98081535,,,,,space,1.9925,NAN,,NAN,1.6,4.4,,0,57,57,57,1,58,Alex,Rej,Participant_Images/60c7fd00cce7a43663968b17/60c7fd00cce7a43663968b17_Images/60c7fd00cce7a43663968b17_Image_15.jpeg,did not like,5.246980764,,,,,,,,,,,,,,,,,,,,,,,
,,60c7fd00cce7a43663968b17,6685aa9113c938e83b4f1ea0,669b448c896ecc945771fd3a,2024-07-19_22h04.54.430,WTP_SM_Choice,2022.2.1,Win32,23.98081535,,,,,space,1.7232,NAN,,NAN,1.6,4.4,,0,58,58,58,1,59,Alex,Rej,Participant_Images/60c7fd00cce7a43663968b17/60c7fd00cce7a43663968b17_Images/60c7fd00cce7a43663968b17_Image_21.jpeg,did not like,3.30081769,,,,,,,,,,,,,,,,,,,,,,,
,,60c7fd00cce7a43663968b17,6685aa9113c938e83b4f1ea0,669b448c896ecc945771fd3a,2024-07-19_22h04.54.430,WTP_SM_Choice,2022.2.1,Win32,23.98081535,,,,,,,,,,,,,,,,,,56,,,,,,space,3.4431,space,10.6887,0.01,1,1.4623,0,0,0,0,1,Eat a warm meal at dinner ,Go for boba with friends,0.01,0.02,8.8,1,,,,,
,,60c7fd00cce7a43663968b17,6685aa9113c938e83b4f1ea0,669b448c896ecc945771fd3a,2024-07-19_22h04.54.430,WTP_SM_Choice,2022.2.1,Win32,23.98081535,,,,,,,,,,,,,,,,,,57,,,,,,,,,,0.02,1,3.8667,0,1,1,1,1,Go running soon after I wake up in cool weather ,Go for boba with friends,0.02,0.02,4.4,1,,,,,
,,60c7fd00cce7a43663968b17,6685aa9113c938e83b4f1ea0,669b448c896ecc945771fd3a,2024-07-19_22h04.54.430,WTP_SM_Choice,2022.2.1,Win32,23.98081535,,,,,,,,,,,,,,,,,,58,,,,,,,,,,0.03,1,3.8089,0,2,2,2,1,Go to concerts with friends ,Bake chocolate chip cookies on a weekend,0.03,0.02,4.4,0,,,,,
,,60c7fd00cce7a43663968b17,6685aa9113c938e83b4f1ea0,669b448c896ecc945771fd3a,2024-07-19_22h04.54.430,WTP_SM_Choice,2022.2.1,Win32,23.98081535,,,,,,,,,,,,,,,,,,59,,,,,,,,,,0.04,1,4.8189,0,3,3,3,1,Bake chocolate chip cookies on a weekend,Visit museums and observing art,0.04,0.02,4.4,1,,,,,
,,60c7fd00cce7a43663968b17,6685aa9113c938e83b4f1ea0,669b448c896ecc945771fd3a,2024-07-19_22h04.54.430,WTP_SM_Choice,2022.2.1,Win32,23.98081535,,,,,,,,,,,,,,,,,,60,,,,,,,,,,0.05,1,2.5439,0,4,4,4,1,Play on my switch on a rainy day ,Visi new cafes with friends,0.05,0.02,1.1,1,,,,,
,,60c7fd00cce7a43663968b17,6685aa9113c938e83b4f1ea0,669b448c896ecc945771fd3a,2024-07-19_22h04.54.430,WTP_SM_Choice,2022.2.1,Win32,23.98081535,,,,,,,NAN,,NAN,1.75,4.25,,0,59,59,59,1,60,Alex,Rej,Participant_Images/60c7fd00cce7a43663968b17/60c7fd00cce7a43663968b17_Images/60c7fd00cce7a43663968b17_Image_7.jpeg,did not like,1.661473164,,,,,,,,,,,,,,,,,,,,,,,
,,60c7fd00cce7a43663968b17,6685aa9113c938e83b4f1ea0,669b448c896ecc945771fd3a,2024-07-19_22h04.54.430,WTP_SM_Choice,2022.2.1,Win32,23.98081535,,,,,space,2.5791,NAN,,NAN,1.75,4.25,,0,60,60,60,1,61,Alex,Rej,Participant_Images/60c7fd00cce7a43663968b17/60c7fd00cce7a43663968b17_Images/60c7fd00cce7a43663968b17_Image_3.jpeg,liked,3.613205605,,,,,,,,,,,,,,,,,,,,,,,
,,60c7fd00cce7a43663968b17,6685aa9113c938e83b4f1ea0,669b448c896ecc945771fd3a,2024-07-19_22h04.54.430,WTP_SM_Choice,2022.2.1,Win32,23.98081535,,,,,space,4.0139,NAN,,NAN,1.75,4.25,,0,61,61,61,1,62,Alex,Rej,Participant_Images/60c7fd00cce7a43663968b17/60c7fd00cce7a43663968b17_Images/60c7fd00cce7a43663968b17_Image_18.jpeg,did not like,4.988446431,,,,,,,,,,,,,,,,,,,,,,,
,,60c7fd00cce7a43663968b17,6685aa9113c938e83b4f1ea0,669b448c896ecc945771fd3a,2024-07-19_22h04.54.430,WTP_SM_Choice,2022.2.1,Win32,23.98081535,,,,,space,9.6725,NAN,,NAN,1.75,4.25,,0,62,62,62,1,63,Alex,Rej,Participant_Images/60c7fd00cce7a43663968b17/60c7fd00cce7a43663968b17_Images/60c7fd00cce7a43663968b17_Image_24.jpeg,did not like,3.470791822,,,,,,,,,,,,,,,,,,,,,,,
,,60c7fd00cce7a43663968b17,6685aa9113c938e83b4f1ea0,669b448c896ecc945771fd3a,2024-07-19_22h04.54.430,WTP_SM_Choice,2022.2.1,Win32,23.98081535,,,,,space,5.34,NAN,,NAN,1.75,4.25,,0,63,63,63,1,64,Alex,Rej,Participant_Images/60c7fd00cce7a43663968b17/60c7fd00cce7a43663968b17_Images/60c7fd00cce7a43663968b17_Image_20.jpeg,did not like,3.820572462,,,,,,,,,,,,,,,,,,,,,,,
,,60c7fd00cce7a43663968b17,6685aa9113c938e83b4f1ea0,669b448c896ecc945771fd3a,2024-07-19_22h04.54.430,WTP_SM_Choice,2022.2.1,Win32,23.98081535,,,,,,,,,,,,,,,,,,61,,,,,,space,1.6227,space,17.3095,0.01,1,0.8624,0,0,0,0,1,Write in my journal after a good long day ,Do karaoke with friends on a late night ,0.01,0.03,3.3,1,,,,,
,,60c7fd00cce7a43663968b17,6685aa9113c938e83b4f1ea0,669b448c896ecc945771fd3a,2024-07-19_22h04.54.430,WTP_SM_Choice,2022.2.1,Win32,23.98081535,,,,,,,,,,,,,,,,,,62,,,,,,,,,,0.02,1,7.1352,0,1,1,1,1,Do karaoke with friends on a late night ,Bake chocolate chip cookies on a weekend,0.02,0.03,3.3,0,,,,,
,,60c7fd00cce7a43663968b17,6685aa9113c938e83b4f1ea0,669b448c896ecc945771fd3a,2024-07-19_22h04.54.430,WTP_SM_Choice,2022.2.1,Win32,23.98081535,,,,,,,,,,,,,,,,,,63,,,,,,,,,,0.03,1,7.4512,0,2,2,2,1,Help my aunt out with her garden,Play on my switch on a rainy day ,0.03,0.03,3.3,0,,,,,
,,60c7fd00cce7a43663968b17,6685aa9113c938e83b4f1ea0,669b448c896ecc945771fd3a,2024-07-19_22h04.54.430,WTP_SM_Choice,2022.2.1,Win32,23.98081535,,,,,,,,,,,,,,,,,,64,,,,,,,,,,0.04,1,3.5511,0,3,3,3,1,Go out at night to eat with friends ,Go on my phone before I go to bed,0.04,0.03,1.1,0,,,,,
,,60c7fd00cce7a43663968b17,6685aa9113c938e83b4f1ea0,669b448c896ecc945771fd3a,2024-07-19_22h04.54.430,WTP_SM_Choice,2022.2.1,Win32,23.98081535,,,,,,,,,,,,,,,,,,65,,,,,,,,,,0.05,1,3.8468,0,4,4,4,1,Watch movies in my bed at night from my laptop,Go on hikes with friends in the morning,0.05,0.03,1.1,1,,,,,
,,60c7fd00cce7a43663968b17,6685aa9113c938e83b4f1ea0,669b448c896ecc945771fd3a,2024-07-19_22h04.54.430,WTP_SM_Choice,2022.2.1,Win32,23.98081535,,,,,,,NAN,,NAN,1.9,4.1,,0,64,64,64,1,65,Alex,Rej,Participant_Images/60c7fd00cce7a43663968b17/60c7fd00cce7a43663968b17_Images/60c7fd00cce7a43663968b17_Image_9.jpeg,did not like,2.455989137,,,,,,,,,,,,,,,,,,,,,,,
,,60c7fd00cce7a43663968b17,6685aa9113c938e83b4f1ea0,669b448c896ecc945771fd3a,2024-07-19_22h04.54.430,WTP_SM_Choice,2022.2.1,Win32,23.98081535,,,,,space,9.6716,NAN,,NAN,1.9,4.1,,0,65,65,65,1,66,Alex,Rej,Participant_Images/60c7fd00cce7a43663968b17/60c7fd00cce7a43663968b17_Images/60c7fd00cce7a43663968b17_Image_17.jpeg,liked,3.79605092,,,,,,,,,,,,,,,,,,,,,,,
,,60c7fd00cce7a43663968b17,6685aa9113c938e83b4f1ea0,669b448c896ecc945771fd3a,2024-07-19_22h04.54.430,WTP_SM_Choice,2022.2.1,Win32,23.98081535,,,,,space,5.2095,NAN,,NAN,1.9,4.1,,0,66,66,66,1,67,Alex,Rej,Participant_Images/60c7fd00cce7a43663968b17/60c7fd00cce7a43663968b17_Images/60c7fd00cce7a43663968b17_Image_22.jpeg,did not like,3.562416326,,,,,,,,,,,,,,,,,,,,,,,
,,60c7fd00cce7a43663968b17,6685aa9113c938e83b4f1ea0,669b448c896ecc945771fd3a,2024-07-19_22h04.54.430,WTP_SM_Choice,2022.2.1,Win32,23.98081535,,,,,space,20.6661,NAN,,NAN,1.9,4.1,,0,67,67,67,1,68,Alex,Rej,Participant_Images/60c7fd00cce7a43663968b17/60c7fd00cce7a43663968b17_Images/60c7fd00cce7a43663968b17_Image_23.jpeg,liked,2.843822497,,,,,,,,,,,,,,,,,,,,,,,
,,60c7fd00cce7a43663968b17,6685aa9113c938e83b4f1ea0,669b448c896ecc945771fd3a,2024-07-19_22h04.54.430,WTP_SM_Choice,2022.2.1,Win32,23.98081535,,,,,space,11.2573,NAN,,NAN,1.9,4.1,,0,68,68,68,1,69,Alex,Rej,Participant_Images/60c7fd00cce7a43663968b17/60c7fd00cce7a43663968b17_Images/60c7fd00cce7a43663968b17_Image_2.jpeg,did not like,3.546495948,,,,,,,,,,,,,,,,,,,,,,,
,,60c7fd00cce7a43663968b17,6685aa9113c938e83b4f1ea0,669b448c896ecc945771fd3a,2024-07-19_22h04.54.430,WTP_SM_Choice,2022.2.1,Win32,23.98081535,,,,,,,,,,,,,,,,,,66,,,,,,space,2.4845,space,2.2222,,,,0,0,0,0,1,Work on my drawings and paintings in my art room with my window open on any day,Play video games with friends,0.01,0.04,1.1,1,,,,,
,,60c7fd00cce7a43663968b17,6685aa9113c938e83b4f1ea0,669b448c896ecc945771fd3a,2024-07-19_22h04.54.430,WTP_SM_Choice,2022.2.1,Win32,23.98081535,,,,,,,,,,,,,,,,,,67,,,,,,,,,,0.02,1,6.7675,0,1,1,1,1,Play board games with my family ,Work on my drawings and paintings in my art room with my window open on any day,0.02,0.04,8.8,0,,,,,
,,60c7fd00cce7a43663968b17,6685aa9113c938e83b4f1ea0,669b448c896ecc945771fd3a,2024-07-19_22h04.54.430,WTP_SM_Choice,2022.2.1,Win32,23.98081535,,,,,,,,,,,,,,,,,,68,,,,,,,,,,0.03,1,1.9767,0,2,2,2,1,Help my aunt out with her garden,Go running soon after I wake up in cool weather ,0.03,0.04,4.4,0,,,,,
,,60c7fd00cce7a43663968b17,6685aa9113c938e83b4f1ea0,669b448c896ecc945771fd3a,2024-07-19_22h04.54.430,WTP_SM_Choice,2022.2.1,Win32,23.98081535,,,,,,,,,,,,,,,,,,69,,,,,,,,,,0.04,1,5.7339,0,3,3,3,1,Do karaoke with friends on a late night ,Work on my drawings and paintings in my art room with my window open on any day,0.04,0.04,1.1,0,,,,,
,,60c7fd00cce7a43663968b17,6685aa9113c938e83b4f1ea0,669b448c896ecc945771fd3a,2024-07-19_22h04.54.430,WTP_SM_Choice,2022.2.1,Win32,23.98081535,,,,,,,,,,,,,,,,,,70,,,,,,,,,,0.04,2,1.3098,0,4,4,4,1,Go for boba with friends,Organize my wardrobe at midnight looking for outfits,0.05,0.04,1.1,0,,,,,
,,60c7fd00cce7a43663968b17,6685aa9113c938e83b4f1ea0,669b448c896ecc945771fd3a,2024-07-19_22h04.54.430,WTP_SM_Choice,2022.2.1,Win32,23.98081535,,,,,,,NAN,,NAN,2.03,3.97,,0,69,69,69,1,70,Alex,Rej,Participant_Images/60c7fd00cce7a43663968b17/60c7fd00cce7a43663968b17_Images/60c7fd00cce7a43663968b17_Image_1.jpeg,did not like,1.672012706,,,,,,,,,,,,,,,,,,,,,,,
,,60c7fd00cce7a43663968b17,6685aa9113c938e83b4f1ea0,669b448c896ecc945771fd3a,2024-07-19_22h04.54.430,WTP_SM_Choice,2022.2.1,Win32,23.98081535,,,,,space,5.4658,NAN,,NAN,2.03,3.97,,0,70,70,70,1,71,Alex,Rej,Participant_Images/60c7fd00cce7a43663968b17/60c7fd00cce7a43663968b17_Images/60c7fd00cce7a43663968b17_Image_14.jpeg,liked,4.942172136,,,,,,,,,,,,,,,,,,,,,,,
,,60c7fd00cce7a43663968b17,6685aa9113c938e83b4f1ea0,669b448c896ecc945771fd3a,2024-07-19_22h04.54.430,WTP_SM_Choice,2022.2.1,Win32,23.98081535,,,,,space,6.2059,NAN,,NAN,2.03,3.97,,0,71,71,71,1,72,Alex,Rej,Participant_Images/60c7fd00cce7a43663968b17/60c7fd00cce7a43663968b17_Images/60c7fd00cce7a43663968b17_Image_11.jpeg,did not like,2.50187214,,,,,,,,,,,,,,,,,,,,,,,
,,60c7fd00cce7a43663968b17,6685aa9113c938e83b4f1ea0,669b448c896ecc945771fd3a,2024-07-19_22h04.54.430,WTP_SM_Choice,2022.2.1,Win32,23.98081535,,,,,space,5.4471,NAN,,NAN,2.03,3.97,,0,72,72,72,1,73,Alex,Rej,Participant_Images/60c7fd00cce7a43663968b17/60c7fd00cce7a43663968b17_Images/60c7fd00cce7a43663968b17_Image_10.jpeg,did not like,2.071164779,,,,,,,,,,,,,,,,,,,,,,,
,,60c7fd00cce7a43663968b17,6685aa9113c938e83b4f1ea0,669b448c896ecc945771fd3a,2024-07-19_22h04.54.430,WTP_SM_Choice,2022.2.1,Win32,23.98081535,,,,,space,7.4179,NAN,,NAN,2.03,3.97,,0,73,73,73,1,74,Alex,Rej,Participant_Images/60c7fd00cce7a43663968b17/60c7fd00cce7a43663968b17_Images/60c7fd00cce7a43663968b17_Image_8.jpeg,did not like,5.336503566,,,,,,,,,,,,,,,,,,,,,,,
,,60c7fd00cce7a43663968b17,6685aa9113c938e83b4f1ea0,669b448c896ecc945771fd3a,2024-07-19_22h04.54.430,WTP_SM_Choice,2022.2.1,Win32,23.98081535,,,,,,,,,,,,,,,,,,71,,,,,,space,0.6879,space,5.9842,0.01,1,2.2151,0,0,0,0,1,Go on hikes with friends in the morning,Go on my phone before I go to bed,0.01,0.05,3.3,0,,,,,
,,60c7fd00cce7a43663968b17,6685aa9113c938e83b4f1ea0,669b448c896ecc945771fd3a,2024-07-19_22h04.54.430,WTP_SM_Choice,2022.2.1,Win32,23.98081535,,,,,,,,,,,,,,,,,,72,,,,,,,,,,0.02,1,2.2066,0,1,1,1,1,Work on my drawings and paintings in my art room with my window open on any day,Go on hikes with friends in the morning,0.02,0.05,8.8,1,,,,,
,,60c7fd00cce7a43663968b17,6685aa9113c938e83b4f1ea0,669b448c896ecc945771fd3a,2024-07-19_22h04.54.430,WTP_SM_Choice,2022.2.1,Win32,23.98081535,,,,,,,,,,,,,,,,,,73,,,,,,,,,,0.03,1,4.064,0,2,2,2,1,Organize my wardrobe at midnight looking for outfits,Play video games with friends,0.03,0.05,3.3,1,,,,,
,,60c7fd00cce7a43663968b17,6685aa9113c938e83b4f1ea0,669b448c896ecc945771fd3a,2024-07-19_22h04.54.430,WTP_SM_Choice,2022.2.1,Win32,23.98081535,,,,,,,,,,,,,,,,,,74,,,,,,,,,,0.04,1,3.1501,0,3,3,3,1,Play board games with my family ,Go running soon after I wake up in cool weather ,0.04,0.05,4.4,0,,,,,
,,60c7fd00cce7a43663968b17,6685aa9113c938e83b4f1ea0,669b448c896ecc945771fd3a,2024-07-19_22h04.54.430,WTP_SM_Choice,2022.2.1,Win32,23.98081535,,,,,,,,,,,,,,,,,,75,,,,,,,,,,0.05,1,2.9833,0,4,4,4,1,Listen to music while I work on art,Go for boba with friends,0.05,0.05,3.3,1,,,,,
,,60c7fd00cce7a43663968b17,6685aa9113c938e83b4f1ea0,669b448c896ecc945771fd3a,2024-07-19_22h04.54.430,WTP_SM_Choice,2022.2.1,Win32,23.98081535,,,,,,,3,,2,2.18,3.82,,0,74,74,74,1,75,Alex,Rej,Participant_Images/60c7fd00cce7a43663968b17/60c7fd00cce7a43663968b17_Images/60c7fd00cce7a43663968b17_Image_12.jpeg,did not like,2.642157193,,,,,,,,,,,,,,,,,,,space,1.6826,,,
,,60c7fd00cce7a43663968b17,6685aa9113c938e83b4f1ea0,669b448c896ecc945771fd3a,2024-07-19_22h04.54.430,WTP_SM_Choice,2022.2.1,Win32,23.98081535,,,space,6.0338,space,3.7469,NAN,,NAN,2.18,3.82,,0,75,75,75,1,76,Sam,Acc,Participant_Images/60c7fd00cce7a43663968b17/60c7fd00cce7a43663968b17_Images/60c7fd00cce7a43663968b17_Image_16.jpeg,liked,4.456234322,,,,,,,,,,,,,,,,,,,,,,,
,,60c7fd00cce7a43663968b17,6685aa9113c938e83b4f1ea0,669b448c896ecc945771fd3a,2024-07-19_22h04.54.430,WTP_SM_Choice,2022.2.1,Win32,23.98081535,,,,,space,2.1342,NAN,,NAN,2.18,3.82,,0,76,76,76,1,77,Sam,Acc,Participant_Images/60c7fd00cce7a43663968b17/60c7fd00cce7a43663968b17_Images/60c7fd00cce7a43663968b17_Image_5.jpeg,liked,4.438512181,,,,,,,,,,,,,,,,,,,,,,,
,,60c7fd00cce7a43663968b17,6685aa9113c938e83b4f1ea0,669b448c896ecc945771fd3a,2024-07-19_22h04.54.430,WTP_SM_Choice,2022.2.1,Win32,23.98081535,,,,,space,0.6175,NAN,,NAN,2.18,3.82,,0,77,77,77,1,78,Sam,Acc,Participant_Images/60c7fd00cce7a43663968b17/60c7fd00cce7a43663968b17_Images/60c7fd00cce7a43663968b17_Image_12.jpeg,liked,2.682944783,,,,,,,,,,,,,,,,,,,,,,,
,,60c7fd00cce7a43663968b17,6685aa9113c938e83b4f1ea0,669b448c896ecc945771fd3a,2024-07-19_22h04.54.430,WTP_SM_Choice,2022.2.1,Win32,23.98081535,,,,,space,0.9593,NAN,,NAN,2.18,3.82,,0,78,78,78,1,79,Sam,Acc,Participant_Images/60c7fd00cce7a43663968b17/60c7fd00cce7a43663968b17_Images/60c7fd00cce7a43663968b17_Image_25.jpeg,liked,4.51984296,,,,,,,,,,,,,,,,,,,,,,,
,,60c7fd00cce7a43663968b17,6685aa9113c938e83b4f1ea0,669b448c896ecc945771fd3a,2024-07-19_22h04.54.430,WTP_SM_Choice,2022.2.1,Win32,23.98081535,,,,,,,,,,,,,,,,,,76,,,,,,space,0.673,space,0.4759,0.01,2,2.6442,0,0,0,0,1,Visit museums and observing art,Eat a warm meal at dinner ,0.01,0.01,1.1,0,,,,,
,,60c7fd00cce7a43663968b17,6685aa9113c938e83b4f1ea0,669b448c896ecc945771fd3a,2024-07-19_22h04.54.430,WTP_SM_Choice,2022.2.1,Win32,23.98081535,,,,,,,,,,,,,,,,,,77,,,,,,,,,,0.01,2,6.5785,0,1,1,1,1,Watch movies in my bed at night from my laptop,Play board games with my family ,0.02,0.01,8.8,1,,,,,
,,60c7fd00cce7a43663968b17,6685aa9113c938e83b4f1ea0,669b448c896ecc945771fd3a,2024-07-19_22h04.54.430,WTP_SM_Choice,2022.2.1,Win32,23.98081535,,,,,,,,,,,,,,,,,,78,,,,,,,,,,0.03,1,2.6651,0,2,2,2,1,Watch movies in my bed at night from my laptop,Visit museums and observing art,0.03,0.01,1.1,1,,,,,
,,60c7fd00cce7a43663968b17,6685aa9113c938e83b4f1ea0,669b448c896ecc945771fd3a,2024-07-19_22h04.54.430,WTP_SM_Choice,2022.2.1,Win32,23.98081535,,,,,,,,,,,,,,,,,,79,,,,,,,,,,0.04,1,6.1695,0,3,3,3,1,Visi new cafes with friends,Organize my wardrobe at midnight looking for outfits,0.04,0.01,1.1,0,,,,,
,,60c7fd00cce7a43663968b17,6685aa9113c938e83b4f1ea0,669b448c896ecc945771fd3a,2024-07-19_22h04.54.430,WTP_SM_Choice,2022.2.1,Win32,23.98081535,,,,,,,,,,,,,,,,,,80,,,,,,,,,,0.01,2,2.4742,0,4,4,4,1,Go to concerts with friends ,Write in my journal after a good long day ,0.05,0.01,4.4,0,,,,,
,,60c7fd00cce7a43663968b17,6685aa9113c938e83b4f1ea0,669b448c896ecc945771fd3a,2024-07-19_22h04.54.430,WTP_SM_Choice,2022.2.1,Win32,23.98081535,,,,,,,NAN,,NAN,2.28,3.72,,0,79,79,79,1,80,Sam,Acc,Participant_Images/60c7fd00cce7a43663968b17/60c7fd00cce7a43663968b17_Images/60c7fd00cce7a43663968b17_Image_4.jpeg,did not like,3.195382774,,,,,,,,,,,,,,,,,,,,,,,
,,60c7fd00cce7a43663968b17,6685aa9113c938e83b4f1ea0,669b448c896ecc945771fd3a,2024-07-19_22h04.54.430,WTP_SM_Choice,2022.2.1,Win32,23.98081535,,,,,space,1.0116,NAN,,NAN,2.28,3.72,,0,80,80,80,1,81,Sam,Acc,Participant_Images/60c7fd00cce7a43663968b17/60c7fd00cce7a43663968b17_Images/60c7fd00cce7a43663968b17_Image_6.jpeg,liked,1.779333479,,,,,,,,,,,,,,,,,,,,,,,
,,60c7fd00cce7a43663968b17,6685aa9113c938e83b4f1ea0,669b448c896ecc945771fd3a,2024-07-19_22h04.54.430,WTP_SM_Choice,2022.2.1,Win32,23.98081535,,,,,space,3.9863,NAN,,NAN,2.28,3.72,,0,81,81,81,1,82,Sam,Acc,Participant_Images/60c7fd00cce7a43663968b17/60c7fd00cce7a43663968b17_Images/60c7fd00cce7a43663968b17_Image_23.jpeg,liked,4.312468682,,,,,,,,,,,,,,,,,,,,,,,
,,60c7fd00cce7a43663968b17,6685aa9113c938e83b4f1ea0,669b448c896ecc945771fd3a,2024-07-19_22h04.54.430,WTP_SM_Choice,2022.2.1,Win32,23.98081535,,,,,space,0.7121,NAN,,NAN,2.28,3.72,,0,82,82,82,1,83,Sam,Acc,Participant_Images/60c7fd00cce7a43663968b17/60c7fd00cce7a43663968b17_Images/60c7fd00cce7a43663968b17_Image_11.jpeg,liked,4.940433059,,,,,,,,,,,,,,,,,,,,,,,
,,60c7fd00cce7a43663968b17,6685aa9113c938e83b4f1ea0,669b448c896ecc945771fd3a,2024-07-19_22h04.54.430,WTP_SM_Choice,2022.2.1,Win32,23.98081535,,,,,space,11.4048,NAN,,NAN,2.28,3.72,,0,83,83,83,1,84,Sam,Acc,Participant_Images/60c7fd00cce7a43663968b17/60c7fd00cce7a43663968b17_Images/60c7fd00cce7a43663968b17_Image_20.jpeg,did not like,2.7105123,,,,,,,,,,,,,,,,,,,,,,,
,,60c7fd00cce7a43663968b17,6685aa9113c938e83b4f1ea0,669b448c896ecc945771fd3a,2024-07-19_22h04.54.430,WTP_SM_Choice,2022.2.1,Win32,23.98081535,,,,,,,,,,,,,,,,,,81,,,,,,space,1.0285,space,0.7281,0.02,2,0.4737,0,0,0,0,1,Organize my wardrobe at midnight looking for outfits,Go out at night to eat with friends ,0.01,0.02,3.3,1,,,,,
,,60c7fd00cce7a43663968b17,6685aa9113c938e83b4f1ea0,669b448c896ecc945771fd3a,2024-07-19_22h04.54.430,WTP_SM_Choice,2022.2.1,Win32,23.98081535,,,,,,,,,,,,,,,,,,82,,,,,,,,,,0.02,2,6.3053,0,1,1,1,1,Work on my drawings and paintings in my art room with my window open on any day,Visi new cafes with friends,0.02,0.02,4.4,1,,,,,
,,60c7fd00cce7a43663968b17,6685aa9113c938e83b4f1ea0,669b448c896ecc945771fd3a,2024-07-19_22h04.54.430,WTP_SM_Choice,2022.2.1,Win32,23.98081535,,,,,,,,,,,,,,,,,,83,,,,,,,,,,0.02,2,4.5318,0,2,2,2,1,Go on my phone before I go to bed,Go to concerts with friends ,0.03,0.02,1.1,1,,,,,
,,60c7fd00cce7a43663968b17,6685aa9113c938e83b4f1ea0,669b448c896ecc945771fd3a,2024-07-19_22h04.54.430,WTP_SM_Choice,2022.2.1,Win32,23.98081535,,,,,,,,,,,,,,,,,,84,,,,,,,,,,0.02,2,1.701,0,3,3,3,1,Go to concerts with friends ,Play on my switch on a rainy day ,0.04,0.02,3.3,0,,,,,
,,60c7fd00cce7a43663968b17,6685aa9113c938e83b4f1ea0,669b448c896ecc945771fd3a,2024-07-19_22h04.54.430,WTP_SM_Choice,2022.2.1,Win32,23.98081535,,,,,,,,,,,,,,,,,,85,,,,,,,,,,0.02,2,2.3915,0,4,4,4,1,Listen to music while I work on art,Go to concerts with friends ,0.05,0.02,3.3,1,,,,,
,,60c7fd00cce7a43663968b17,6685aa9113c938e83b4f1ea0,669b448c896ecc945771fd3a,2024-07-19_22h04.54.430,WTP_SM_Choice,2022.2.1,Win32,23.98081535,,,,,,,NAN,,NAN,2.38,3.62,,0,84,84,84,1,85,Sam,Acc,Participant_Images/60c7fd00cce7a43663968b17/60c7fd00cce7a43663968b17_Images/60c7fd00cce7a43663968b17_Image_14.jpeg,did not like,3.602308302,,,,,,,,,,,,,,,,,,,,,,,
,,60c7fd00cce7a43663968b17,6685aa9113c938e83b4f1ea0,669b448c896ecc945771fd3a,2024-07-19_22h04.54.430,WTP_SM_Choice,2022.2.1,Win32,23.98081535,,,,,space,2.0654,NAN,,NAN,2.38,3.62,,0,85,85,85,1,86,Sam,Acc,Participant_Images/60c7fd00cce7a43663968b17/60c7fd00cce7a43663968b17_Images/60c7fd00cce7a43663968b17_Image_10.jpeg,liked,4.106391878,,,,,,,,,,,,,,,,,,,,,,,
,,60c7fd00cce7a43663968b17,6685aa9113c938e83b4f1ea0,669b448c896ecc945771fd3a,2024-07-19_22h04.54.430,WTP_SM_Choice,2022.2.1,Win32,23.98081535,,,,,space,1.544,NAN,,NAN,2.38,3.62,,0,86,86,86,1,87,Sam,Acc,Participant_Images/60c7fd00cce7a43663968b17/60c7fd00cce7a43663968b17_Images/60c7fd00cce7a43663968b17_Image_24.jpeg,liked,3.799433026,,,,,,,,,,,,,,,,,,,,,,,
,,60c7fd00cce7a43663968b17,6685aa9113c938e83b4f1ea0,669b448c896ecc945771fd3a,2024-07-19_22h04.54.430,WTP_SM_Choice,2022.2.1,Win32,23.98081535,,,,,space,9.2007,NAN,,NAN,2.38,3.62,,0,87,87,87,1,88,Sam,Acc,Participant_Images/60c7fd00cce7a43663968b17/60c7fd00cce7a43663968b17_Images/60c7fd00cce7a43663968b17_Image_8.jpeg,liked,5.246980764,,,,,,,,,,,,,,,,,,,,,,,
,,60c7fd00cce7a43663968b17,6685aa9113c938e83b4f1ea0,669b448c896ecc945771fd3a,2024-07-19_22h04.54.430,WTP_SM_Choice,2022.2.1,Win32,23.98081535,,,,,space,7.3906,NAN,,NAN,2.38,3.62,,0,88,88,88,1,89,Sam,Acc,Participant_Images/60c7fd00cce7a43663968b17/60c7fd00cce7a43663968b17_Images/60c7fd00cce7a43663968b17_Image_7.jpeg,did not like,3.30081769,,,,,,,,,,,,,,,,,,,,,,,
,,60c7fd00cce7a43663968b17,6685aa9113c938e83b4f1ea0,669b448c896ecc945771fd3a,2024-07-19_22h04.54.430,WTP_SM_Choice,2022.2.1,Win32,23.98081535,,,,,,,,,,,,,,,,,,86,,,,,,space,1.628,space,0.4879,0.01,1,0.8983,0,0,0,0,1,Listen to music while I work on art,Visi new cafes with friends,0.01,0.03,1.1,1,,,,,
,,60c7fd00cce7a43663968b17,6685aa9113c938e83b4f1ea0,669b448c896ecc945771fd3a,2024-07-19_22h04.54.430,WTP_SM_Choice,2022.2.1,Win32,23.98081535,,,,,,,,,,,,,,,,,,87,,,,,,,,,,0.03,2,6.5807,0,1,1,1,1,Do karaoke with friends on a late night ,Organize my wardrobe at midnight looking for outfits,0.02,0.03,4.4,0,,,,,
,,60c7fd00cce7a43663968b17,6685aa9113c938e83b4f1ea0,669b448c896ecc945771fd3a,2024-07-19_22h04.54.430,WTP_SM_Choice,2022.2.1,Win32,23.98081535,,,,,,,,,,,,,,,,,,88,,,,,,,,,,,,,0,2,2,2,1,Write in my journal after a good long day ,Go for boba with friends,0.03,0.03,1.1,1,,,,,
,,60c7fd00cce7a43663968b17,6685aa9113c938e83b4f1ea0,669b448c896ecc945771fd3a,2024-07-19_22h04.54.430,WTP_SM_Choice,2022.2.1,Win32,23.98081535,,,,,,,,,,,,,,,,,,89,,,,,,,,,,0.04,1,0.6079,0,3,3,3,1,Go to concerts with friends ,Work on my drawings and paintings in my art room with my window open on any day,0.04,0.03,3.3,0,,,,,
,,60c7fd00cce7a43663968b17,6685aa9113c938e83b4f1ea0,669b448c896ecc945771fd3a,2024-07-19_22h04.54.430,WTP_SM_Choice,2022.2.1,Win32,23.98081535,,,,,,,,,,,,,,,,,,90,,,,,,,,,,0.03,2,1.5322,0,4,4,4,1,Eat a warm meal at dinner ,Play video games with friends,0.05,0.03,8.8,1,,,,,
,,60c7fd00cce7a43663968b17,6685aa9113c938e83b4f1ea0,669b448c896ecc945771fd3a,2024-07-19_22h04.54.430,WTP_SM_Choice,2022.2.1,Win32,23.98081535,,,,,,,NAN,,NAN,2.49,3.51,,0,89,89,89,1,90,Sam,Acc,Participant_Images/60c7fd00cce7a43663968b17/60c7fd00cce7a43663968b17_Images/60c7fd00cce7a43663968b17_Image_13.jpeg,liked,1.661473164,,,,,,,,,,,,,,,,,,,,,,,
,,60c7fd00cce7a43663968b17,6685aa9113c938e83b4f1ea0,669b448c896ecc945771fd3a,2024-07-19_22h04.54.430,WTP_SM_Choice,2022.2.1,Win32,23.98081535,,,,,space,3.4297,NAN,,NAN,2.49,3.51,,0,90,90,90,1,91,Sam,Acc,Participant_Images/60c7fd00cce7a43663968b17/60c7fd00cce7a43663968b17_Images/60c7fd00cce7a43663968b17_Image_1.jpeg,did not like,3.613205605,,,,,,,,,,,,,,,,,,,,,,,
,,60c7fd00cce7a43663968b17,6685aa9113c938e83b4f1ea0,669b448c896ecc945771fd3a,2024-07-19_22h04.54.430,WTP_SM_Choice,2022.2.1,Win32,23.98081535,,,,,space,1.6938,NAN,,NAN,2.49,3.51,,0,91,91,91,1,92,Sam,Acc,Participant_Images/60c7fd00cce7a43663968b17/60c7fd00cce7a43663968b17_Images/60c7fd00cce7a43663968b17_Image_9.jpeg,did not like,4.988446431,,,,,,,,,,,,,,,,,,,,,,,
,,60c7fd00cce7a43663968b17,6685aa9113c938e83b4f1ea0,669b448c896ecc945771fd3a,2024-07-19_22h04.54.430,WTP_SM_Choice,2022.2.1,Win32,23.98081535,,,,,space,7.0484,NAN,,NAN,2.49,3.51,,0,92,92,92,1,93,Sam,Acc,Participant_Images/60c7fd00cce7a43663968b17/60c7fd00cce7a43663968b17_Images/60c7fd00cce7a43663968b17_Image_17.jpeg,liked,3.470791822,,,,,,,,,,,,,,,,,,,,,,,
,,60c7fd00cce7a43663968b17,6685aa9113c938e83b4f1ea0,669b448c896ecc945771fd3a,2024-07-19_22h04.54.430,WTP_SM_Choice,2022.2.1,Win32,23.98081535,,,,,space,2.2934,NAN,,NAN,2.49,3.51,,0,93,93,93,1,94,Sam,Acc,Participant_Images/60c7fd00cce7a43663968b17/60c7fd00cce7a43663968b17_Images/60c7fd00cce7a43663968b17_Image_18.jpeg,liked,3.820572462,,,,,,,,,,,,,,,,,,,,,,,
,,60c7fd00cce7a43663968b17,6685aa9113c938e83b4f1ea0,669b448c896ecc945771fd3a,2024-07-19_22h04.54.430,WTP_SM_Choice,2022.2.1,Win32,23.98081535,,,,,,,,,,,,,,,,,,91,,,,,,space,5.733,space,6.4779,0.04,2,0.7971,0,0,0,0,1,Work on my drawings and paintings in my art room with my window open on any day,Visit museums and observing art,0.01,0.04,3.3,1,,,,,
,,60c7fd00cce7a43663968b17,6685aa9113c938e83b4f1ea0,669b448c896ecc945771fd3a,2024-07-19_22h04.54.430,WTP_SM_Choice,2022.2.1,Win32,23.98081535,,,,,,,,,,,,,,,,,,92,,,,,,,,,,,,,0,1,1,1,1,Write in my journal after a good long day ,Play video games with friends,0.02,0.04,8.8,1,,,,,
,,60c7fd00cce7a43663968b17,6685aa9113c938e83b4f1ea0,669b448c896ecc945771fd3a,2024-07-19_22h04.54.430,WTP_SM_Choice,2022.2.1,Win32,23.98081535,,,,,,,,,,,,,,,,,,93,,,,,,,,,,0.03,1,1.9093,0,2,2,2,1,Organize my wardrobe at midnight looking for outfits,Go to concerts with friends ,0.03,0.04,1.1,1,,,,,
,,60c7fd00cce7a43663968b17,6685aa9113c938e83b4f1ea0,669b448c896ecc945771fd3a,2024-07-19_22h04.54.430,WTP_SM_Choice,2022.2.1,Win32,23.98081535,,,,,,,,,,,,,,,,,,94,,,,,,,,,,0.04,1,2.8616,0,3,3,3,1,Visit museums and observing art,Write in my journal after a good long day ,0.04,0.04,4.4,0,,,,,
,,60c7fd00cce7a43663968b17,6685aa9113c938e83b4f1ea0,669b448c896ecc945771fd3a,2024-07-19_22h04.54.430,WTP_SM_Choice,2022.2.1,Win32,23.98081535,,,,,,,,,,,,,,,,,,95,,,,,,,,,,0.05,1,2.7101,0,4,4,4,1,Go out at night to eat with friends ,Work on my drawings and paintings in my art room with my window open on any day,0.05,0.04,4.4,0,,,,,
,,60c7fd00cce7a43663968b17,6685aa9113c938e83b4f1ea0,669b448c896ecc945771fd3a,2024-07-19_22h04.54.430,WTP_SM_Choice,2022.2.1,Win32,23.98081535,,,,,,,NAN,,NAN,2.65,3.35,,0,94,94,94,1,95,Sam,Acc,Participant_Images/60c7fd00cce7a43663968b17/60c7fd00cce7a43663968b17_Images/60c7fd00cce7a43663968b17_Image_22.jpeg,liked,2.455989137,,,,,,,,,,,,,,,,,,,,,,,
,,60c7fd00cce7a43663968b17,6685aa9113c938e83b4f1ea0,669b448c896ecc945771fd3a,2024-07-19_22h04.54.430,WTP_SM_Choice,2022.2.1,Win32,23.98081535,,,,,space,7.0251,NAN,,NAN,2.65,3.35,,0,95,95,95,1,96,Sam,Acc,Participant_Images/60c7fd00cce7a43663968b17/60c7fd00cce7a43663968b17_Images/60c7fd00cce7a43663968b17_Image_2.jpeg,liked,3.79605092,,,,,,,,,,,,,,,,,,,,,,,
,,60c7fd00cce7a43663968b17,6685aa9113c938e83b4f1ea0,669b448c896ecc945771fd3a,2024-07-19_22h04.54.430,WTP_SM_Choice,2022.2.1,Win32,23.98081535,,,,,space,2.2719,NAN,,NAN,2.65,3.35,,0,96,96,96,1,97,Sam,Acc,Participant_Images/60c7fd00cce7a43663968b17/60c7fd00cce7a43663968b17_Images/60c7fd00cce7a43663968b17_Image_15.jpeg,liked,3.562416326,,,,,,,,,,,,,,,,,,,,,,,
,,60c7fd00cce7a43663968b17,6685aa9113c938e83b4f1ea0,669b448c896ecc945771fd3a,2024-07-19_22h04.54.430,WTP_SM_Choice,2022.2.1,Win32,23.98081535,,,,,space,4.5043,NAN,,NAN,2.65,3.35,,0,97,97,97,1,98,Sam,Acc,Participant_Images/60c7fd00cce7a43663968b17/60c7fd00cce7a43663968b17_Images/60c7fd00cce7a43663968b17_Image_19.jpeg,liked,2.843822497,,,,,,,,,,,,,,,,,,,,,,,
,,60c7fd00cce7a43663968b17,6685aa9113c938e83b4f1ea0,669b448c896ecc945771fd3a,2024-07-19_22h04.54.430,WTP_SM_Choice,2022.2.1,Win32,23.98081535,,,,,space,1.143,NAN,,NAN,2.65,3.35,,0,98,98,98,1,99,Sam,Acc,Participant_Images/60c7fd00cce7a43663968b17/60c7fd00cce7a43663968b17_Images/60c7fd00cce7a43663968b17_Image_21.jpeg,did not like,3.546495948,,,,,,,,,,,,,,,,,,,,,,,
,,60c7fd00cce7a43663968b17,6685aa9113c938e83b4f1ea0,669b448c896ecc945771fd3a,2024-07-19_22h04.54.430,WTP_SM_Choice,2022.2.1,Win32,23.98081535,,,,,,,,,,,,,,,,,,96,,,,,,space,0.6954,space,1.8244,0.01,1,1.006,0,0,0,0,1,Write in my journal after a good long day ,Play board games with my family ,0.01,0.05,3.3,1,,,,,
,,60c7fd00cce7a43663968b17,6685aa9113c938e83b4f1ea0,669b448c896ecc945771fd3a,2024-07-19_22h04.54.430,WTP_SM_Choice,2022.2.1,Win32,23.98081535,,,,,,,,,,,,,,,,,,97,,,,,,,,,,0.02,1,1.3749,0,1,1,1,1,Go out at night to eat with friends ,Play on my switch on a rainy day ,0.02,0.05,1.1,0,,,,,
,,60c7fd00cce7a43663968b17,6685aa9113c938e83b4f1ea0,669b448c896ecc945771fd3a,2024-07-19_22h04.54.430,WTP_SM_Choice,2022.2.1,Win32,23.98081535,,,,,,,,,,,,,,,,,,98,,,,,,,,,,0.05,2,3.1914,0,2,2,2,1,Go on hikes with friends in the morning,Organize my wardrobe at midnight looking for outfits,0.03,0.05,1.1,0,,,,,
,,60c7fd00cce7a43663968b17,6685aa9113c938e83b4f1ea0,669b448c896ecc945771fd3a,2024-07-19_22h04.54.430,WTP_SM_Choice,2022.2.1,Win32,23.98081535,,,,,,,,,,,,,,,,,,99,,,,,,,,,,0.04,1,4.9699,0,3,3,3,1,Go running soon after I wake up in cool weather ,Play video games with friends,0.04,0.05,3.3,1,,,,,
,,60c7fd00cce7a43663968b17,6685aa9113c938e83b4f1ea0,669b448c896ecc945771fd3a,2024-07-19_22h04.54.430,WTP_SM_Choice,2022.2.1,Win32,23.98081535,,,,,,,,,,,,,,,,,,100,,,,,,,,,,0.05,1,1.5987,0,4,4,4,1,Write in my journal after a good long day ,Go on hikes with friends in the morning,0.05,0.05,4.4,1,,,,,
,,60c7fd00cce7a43663968b17,6685aa9113c938e83b4f1ea0,669b448c896ecc945771fd3a,2024-07-19_22h04.54.430,WTP_SM_Choice,2022.2.1,Win32,23.98081535,,,,,,,4,,2,2.82,3.18,,0,99,99,99,1,100,Sam,Acc,Participant_Images/60c7fd00cce7a43663968b17/60c7fd00cce7a43663968b17_Images/60c7fd00cce7a43663968b17_Image_3.jpeg,liked,1.672012706,,,,,,,,,,,,,,,,,,,space,0.623,,,
,,60c7fd00cce7a43663968b17,6685aa9113c938e83b4f1ea0,669b448c896ecc945771fd3a,2024-07-19_22h04.54.430,WTP_SM_Choice,2022.2.1,Win32,23.98081535,,,,,,,,,,,,,,,,,,,,,,,,,,,,,,,,,,,,,,,,,,,,,space,0.6412
