endwelcomescreen_keys.keys,endwelcomescreen_keys.rt,participant,STUDY_ID,SESSION_ID,date,expName,psychopyVersion,OS,frameRate,endinstructionscreen_keys.keys,endinstructionscreen_keys.rt,endpartnermatch_keys.keys,endpartnermatch_keys.rt,sharenextphoto_key.keys,sharenextphoto_key.rt,salience_rating,key_resp.keys,stress_level,subtract_bonus,TOTAL_TASK_BONUS,stresslevel_keypress.keys,entiretaskloop.thisRepN,entiretaskloop.thisTrialN,entiretaskloop.thisN,entiretaskloop.thisIndex,entiretaskloop.ran,TrialNumber,Partner,Condition,Photos,Feedback,FeedbackWait,WTP_ins_keys1.keys,WTP_ins_keys1.rt,WTP_ins_keys2.keys,WTP_ins_keys2.rt,decision_price,responses.keys,responses.rt,WTPTaskLoop.thisRepN,WTPTaskLoop.thisTrialN,WTPTaskLoop.thisN,WTPTaskLoop.thisIndex,WTPTaskLoop.ran,right,left,leftmoney,rightmoney,WTP_ITI,social_left,Resume_keys.keys,Resume_keys.rt,end_screen_keys.keys,end_screen_keys.rt
space,4.7295,60c8467d9872c0d83f695499,6685aa9113c938e83b4f1ea0,670735432bfedf46fb341934,2024-10-09_22h01.37.672,WTP_SM_Choice,2022.2.1,Win32,60.60606061,,,,,,,,,,,,,,,,,,,,,,,,,,,,,,,,,,,,,,,,,,,,,
,,60c8467d9872c0d83f695499,6685aa9113c938e83b4f1ea0,670735432bfedf46fb341934,2024-10-09_22h01.37.672,WTP_SM_Choice,2022.2.1,Win32,60.60606061,space,13.0276,,,,,,,,,,,,,,,,,,,,,,,,,,,,,,,,,,,,,,,,,,,
,,60c8467d9872c0d83f695499,6685aa9113c938e83b4f1ea0,670735432bfedf46fb341934,2024-10-09_22h01.37.672,WTP_SM_Choice,2022.2.1,Win32,60.60606061,,,space,1.9131,space,0.809,NAN,,NAN,0,6,,0,0,0,0,1,1,Charlie,Rej,Participant_Images/60c8467d9872c0d83f695499/60c8467d9872c0d83f695499_Images/60c8467d9872c0d83f695499_Image_2.jpeg,did not like,3.613205605,,,,,,,,,,,,,,,,,,,,,,
,,60c8467d9872c0d83f695499,6685aa9113c938e83b4f1ea0,670735432bfedf46fb341934,2024-10-09_22h01.37.672,WTP_SM_Choice,2022.2.1,Win32,60.60606061,,,,,space,3.1112,NAN,,NAN,0,6,,0,1,1,1,1,2,Charlie,Rej,Participant_Images/60c8467d9872c0d83f695499/60c8467d9872c0d83f695499_Images/60c8467d9872c0d83f695499_Image_8.jpeg,did not like,4.988446431,,,,,,,,,,,,,,,,,,,,,,
,,60c8467d9872c0d83f695499,6685aa9113c938e83b4f1ea0,670735432bfedf46fb341934,2024-10-09_22h01.37.672,WTP_SM_Choice,2022.2.1,Win32,60.60606061,,,,,space,2.7553,NAN,,NAN,0,6,,0,2,2,2,1,3,Charlie,Rej,Participant_Images/60c8467d9872c0d83f695499/60c8467d9872c0d83f695499_Images/60c8467d9872c0d83f695499_Image_20.jpeg,did not like,3.470791822,,,,,,,,,,,,,,,,,,,,,,
,,60c8467d9872c0d83f695499,6685aa9113c938e83b4f1ea0,670735432bfedf46fb341934,2024-10-09_22h01.37.672,WTP_SM_Choice,2022.2.1,Win32,60.60606061,,,,,space,0.7143,NAN,,NAN,0,6,,0,3,3,3,1,4,Charlie,Rej,Participant_Images/60c8467d9872c0d83f695499/60c8467d9872c0d83f695499_Images/60c8467d9872c0d83f695499_Image_3.jpeg,liked,3.820572462,,,,,,,,,,,,,,,,,,,,,,
,,60c8467d9872c0d83f695499,6685aa9113c938e83b4f1ea0,670735432bfedf46fb341934,2024-10-09_22h01.37.672,WTP_SM_Choice,2022.2.1,Win32,60.60606061,,,,,,,,,,,,,,,,,,1,,,,,,space,29.2076,space,16.6615,0.01,1,2.8486,0,0,0,0,1,Shop for gifts with my mom during the holiday season,Do prolific studies while sitting on a comfy couch with a cup of cappuccino,0.01,0.01,4.4,0,,,,
,,60c8467d9872c0d83f695499,6685aa9113c938e83b4f1ea0,670735432bfedf46fb341934,2024-10-09_22h01.37.672,WTP_SM_Choice,2022.2.1,Win32,60.60606061,,,,,,,,,,,,,,,,,,2,,,,,,,,,,0.01,2,3.2194,0,1,1,1,1,Reading a non-fiction book to learn better lifestyle skills,Go on weekend camping trips with my husband in the forest,0.02,0.01,8.8,1,,,,
,,60c8467d9872c0d83f695499,6685aa9113c938e83b4f1ea0,670735432bfedf46fb341934,2024-10-09_22h01.37.672,WTP_SM_Choice,2022.2.1,Win32,60.60606061,,,,,,,,,,,,,,,,,,3,,,,,,,,,,0.03,1,5.0732,0,2,2,2,1,Cook dinner with my family on a holiday evening while sharing stories,Do prolific studies while sitting on a comfy couch with a cup of cappuccino,0.03,0.01,3.3,0,,,,
,,60c8467d9872c0d83f695499,6685aa9113c938e83b4f1ea0,670735432bfedf46fb341934,2024-10-09_22h01.37.672,WTP_SM_Choice,2022.2.1,Win32,60.60606061,,,,,,,,,,,,,,,,,,4,,,,,,,,,,0.04,1,2.7235,0,3,3,3,1,Reading a non-fiction book to learn better lifestyle skills,Shop for gifts with my mom during the holiday season,0.04,0.01,1.1,1,,,,
,,60c8467d9872c0d83f695499,6685aa9113c938e83b4f1ea0,670735432bfedf46fb341934,2024-10-09_22h01.37.672,WTP_SM_Choice,2022.2.1,Win32,60.60606061,,,,,,,,,,,,,,,,,,5,,,,,,,,,,0.05,1,1.9844,0,4,4,4,1,Watch a movie marathon with my partner on a rainy Saturday evening at home,Relax and watch hulu specifically the handmaids tale,0.05,0.01,1.1,0,,,,
,,60c8467d9872c0d83f695499,6685aa9113c938e83b4f1ea0,670735432bfedf46fb341934,2024-10-09_22h01.37.672,WTP_SM_Choice,2022.2.1,Win32,60.60606061,,,,,,,NAN,,NAN,0.14,5.86,,0,4,4,4,1,5,Charlie,Rej,Participant_Images/60c8467d9872c0d83f695499/60c8467d9872c0d83f695499_Images/60c8467d9872c0d83f695499_Image_4.jpeg,did not like,2.455989137,,,,,,,,,,,,,,,,,,,,,,
,,60c8467d9872c0d83f695499,6685aa9113c938e83b4f1ea0,670735432bfedf46fb341934,2024-10-09_22h01.37.672,WTP_SM_Choice,2022.2.1,Win32,60.60606061,,,,,space,1.5677,NAN,,NAN,0.14,5.86,,0,5,5,5,1,6,Charlie,Rej,Participant_Images/60c8467d9872c0d83f695499/60c8467d9872c0d83f695499_Images/60c8467d9872c0d83f695499_Image_15.jpeg,did not like,3.79605092,,,,,,,,,,,,,,,,,,,,,,
,,60c8467d9872c0d83f695499,6685aa9113c938e83b4f1ea0,670735432bfedf46fb341934,2024-10-09_22h01.37.672,WTP_SM_Choice,2022.2.1,Win32,60.60606061,,,,,space,0.9185,NAN,,NAN,0.14,5.86,,0,6,6,6,1,7,Charlie,Rej,Participant_Images/60c8467d9872c0d83f695499/60c8467d9872c0d83f695499_Images/60c8467d9872c0d83f695499_Image_25.jpeg,liked,3.562416326,,,,,,,,,,,,,,,,,,,,,,
,,60c8467d9872c0d83f695499,6685aa9113c938e83b4f1ea0,670735432bfedf46fb341934,2024-10-09_22h01.37.672,WTP_SM_Choice,2022.2.1,Win32,60.60606061,,,,,space,1.5762,NAN,,NAN,0.14,5.86,,0,7,7,7,1,8,Charlie,Rej,Participant_Images/60c8467d9872c0d83f695499/60c8467d9872c0d83f695499_Images/60c8467d9872c0d83f695499_Image_11.jpeg,did not like,2.843822497,,,,,,,,,,,,,,,,,,,,,,
,,60c8467d9872c0d83f695499,6685aa9113c938e83b4f1ea0,670735432bfedf46fb341934,2024-10-09_22h01.37.672,WTP_SM_Choice,2022.2.1,Win32,60.60606061,,,,,space,0.7364,NAN,,NAN,0.14,5.86,,0,8,8,8,1,9,Charlie,Rej,Participant_Images/60c8467d9872c0d83f695499/60c8467d9872c0d83f695499_Images/60c8467d9872c0d83f695499_Image_22.jpeg,did not like,3.546495948,,,,,,,,,,,,,,,,,,,,,,
,,60c8467d9872c0d83f695499,6685aa9113c938e83b4f1ea0,670735432bfedf46fb341934,2024-10-09_22h01.37.672,WTP_SM_Choice,2022.2.1,Win32,60.60606061,,,,,,,,,,,,,,,,,,6,,,,,,space,2.6522,space,0.9268,0.02,2,2.2233,0,0,0,0,1,Grill with family during a summer barbecue in the backyard,Sketching ideas for new art projects at my desk with soft lighting,0.01,0.02,3.3,0,,,,
,,60c8467d9872c0d83f695499,6685aa9113c938e83b4f1ea0,670735432bfedf46fb341934,2024-10-09_22h01.37.672,WTP_SM_Choice,2022.2.1,Win32,60.60606061,,,,,,,,,,,,,,,,,,7,,,,,,,,,,0.02,2,3.5622,0,1,1,1,1,Doing colorful diamond paintings to ease my mind when I’m stressed,Play board games with friends on a cozy winter night by the fireplace,0.02,0.02,1.1,1,,,,
,,60c8467d9872c0d83f695499,6685aa9113c938e83b4f1ea0,670735432bfedf46fb341934,2024-10-09_22h01.37.672,WTP_SM_Choice,2022.2.1,Win32,60.60606061,,,,,,,,,,,,,,,,,,8,,,,,,,,,,0.03,1,1.2436,0,2,2,2,1,Taking a peaceful walk through the neighborhood at sunset ,Go to the zoo with my child on a bright spring day,0.03,0.02,1.1,1,,,,
,,60c8467d9872c0d83f695499,6685aa9113c938e83b4f1ea0,670735432bfedf46fb341934,2024-10-09_22h01.37.672,WTP_SM_Choice,2022.2.1,Win32,60.60606061,,,,,,,,,,,,,,,,,,9,,,,,,,,,,0.04,1,0.841,0,3,3,3,1,Shop for gifts with my mom during the holiday season,Sipping cappuccino and watching the rain from my living room window,0.04,0.02,4.4,0,,,,
,,60c8467d9872c0d83f695499,6685aa9113c938e83b4f1ea0,670735432bfedf46fb341934,2024-10-09_22h01.37.672,WTP_SM_Choice,2022.2.1,Win32,60.60606061,,,,,,,,,,,,,,,,,,10,,,,,,,,,,0.05,1,1.0846,0,4,4,4,1,Relax and watch hulu specifically the handmaids tale,Cook dinner with my family on a holiday evening while sharing stories,0.05,0.02,1.1,1,,,,
,,60c8467d9872c0d83f695499,6685aa9113c938e83b4f1ea0,670735432bfedf46fb341934,2024-10-09_22h01.37.672,WTP_SM_Choice,2022.2.1,Win32,60.60606061,,,,,,,NAN,,NAN,0.3,5.7,,0,9,9,9,1,10,Charlie,Rej,Participant_Images/60c8467d9872c0d83f695499/60c8467d9872c0d83f695499_Images/60c8467d9872c0d83f695499_Image_21.jpeg,did not like,1.672012706,,,,,,,,,,,,,,,,,,,,,,
,,60c8467d9872c0d83f695499,6685aa9113c938e83b4f1ea0,670735432bfedf46fb341934,2024-10-09_22h01.37.672,WTP_SM_Choice,2022.2.1,Win32,60.60606061,,,,,space,8.0677,NAN,,NAN,0.3,5.7,,0,10,10,10,1,11,Charlie,Rej,Participant_Images/60c8467d9872c0d83f695499/60c8467d9872c0d83f695499_Images/60c8467d9872c0d83f695499_Image_6.jpeg,did not like,4.942172136,,,,,,,,,,,,,,,,,,,,,,
,,60c8467d9872c0d83f695499,6685aa9113c938e83b4f1ea0,670735432bfedf46fb341934,2024-10-09_22h01.37.672,WTP_SM_Choice,2022.2.1,Win32,60.60606061,,,,,space,0.9059,NAN,,NAN,0.3,5.7,,0,11,11,11,1,12,Charlie,Rej,Participant_Images/60c8467d9872c0d83f695499/60c8467d9872c0d83f695499_Images/60c8467d9872c0d83f695499_Image_13.jpeg,did not like,2.50187214,,,,,,,,,,,,,,,,,,,,,,
,,60c8467d9872c0d83f695499,6685aa9113c938e83b4f1ea0,670735432bfedf46fb341934,2024-10-09_22h01.37.672,WTP_SM_Choice,2022.2.1,Win32,60.60606061,,,,,space,3.9216,NAN,,NAN,0.3,5.7,,0,12,12,12,1,13,Charlie,Rej,Participant_Images/60c8467d9872c0d83f695499/60c8467d9872c0d83f695499_Images/60c8467d9872c0d83f695499_Image_16.jpeg,did not like,2.071164779,,,,,,,,,,,,,,,,,,,,,,
,,60c8467d9872c0d83f695499,6685aa9113c938e83b4f1ea0,670735432bfedf46fb341934,2024-10-09_22h01.37.672,WTP_SM_Choice,2022.2.1,Win32,60.60606061,,,,,space,1.0031,NAN,,NAN,0.3,5.7,,0,13,13,13,1,14,Charlie,Rej,Participant_Images/60c8467d9872c0d83f695499/60c8467d9872c0d83f695499_Images/60c8467d9872c0d83f695499_Image_1.jpeg,did not like,5.336503566,,,,,,,,,,,,,,,,,,,,,,
,,60c8467d9872c0d83f695499,6685aa9113c938e83b4f1ea0,670735432bfedf46fb341934,2024-10-09_22h01.37.672,WTP_SM_Choice,2022.2.1,Win32,60.60606061,,,,,,,,,,,,,,,,,,11,,,,,,space,2.7754,space,1.8328,0.03,2,2.3348,0,0,0,0,1,Grill with family during a summer barbecue in the backyard,Do prolific studies while sitting on a comfy couch with a cup of cappuccino,0.01,0.03,3.3,0,,,,
,,60c8467d9872c0d83f695499,6685aa9113c938e83b4f1ea0,670735432bfedf46fb341934,2024-10-09_22h01.37.672,WTP_SM_Choice,2022.2.1,Win32,60.60606061,,,,,,,,,,,,,,,,,,12,,,,,,,,,,0.03,2,1.3292,0,1,1,1,1,Planning future goals using a vision board with magazine cutouts and markers,Go to the zoo with my child on a bright spring day,0.02,0.03,4.4,1,,,,
,,60c8467d9872c0d83f695499,6685aa9113c938e83b4f1ea0,670735432bfedf46fb341934,2024-10-09_22h01.37.672,WTP_SM_Choice,2022.2.1,Win32,60.60606061,,,,,,,,,,,,,,,,,,13,,,,,,,,,,0.03,2,2.9416,0,2,2,2,1,Shop for gifts with my mom during the holiday season,Experimenting with new recipes in the kitchen while listening to relaxing music,0.03,0.03,1.1,0,,,,
,,60c8467d9872c0d83f695499,6685aa9113c938e83b4f1ea0,670735432bfedf46fb341934,2024-10-09_22h01.37.672,WTP_SM_Choice,2022.2.1,Win32,60.60606061,,,,,,,,,,,,,,,,,,14,,,,,,,,,,0.04,1,0.8542,0,3,3,3,1,Go to amusement parks with my husband on summer vacations,Sipping cappuccino and watching the rain from my living room window,0.04,0.03,3.3,0,,,,
,,60c8467d9872c0d83f695499,6685aa9113c938e83b4f1ea0,670735432bfedf46fb341934,2024-10-09_22h01.37.672,WTP_SM_Choice,2022.2.1,Win32,60.60606061,,,,,,,,,,,,,,,,,,15,,,,,,,,,,0.05,1,0.704,0,4,4,4,1,Experimenting with new recipes in the kitchen while listening to relaxing music,Watch a movie marathon with my partner on a rainy Saturday evening at home,0.05,0.03,4.4,1,,,,
,,60c8467d9872c0d83f695499,6685aa9113c938e83b4f1ea0,670735432bfedf46fb341934,2024-10-09_22h01.37.672,WTP_SM_Choice,2022.2.1,Win32,60.60606061,,,,,,,NAN,,NAN,0.48,5.52,,0,14,14,14,1,15,Charlie,Rej,Participant_Images/60c8467d9872c0d83f695499/60c8467d9872c0d83f695499_Images/60c8467d9872c0d83f695499_Image_17.jpeg,did not like,2.642157193,,,,,,,,,,,,,,,,,,,,,,
,,60c8467d9872c0d83f695499,6685aa9113c938e83b4f1ea0,670735432bfedf46fb341934,2024-10-09_22h01.37.672,WTP_SM_Choice,2022.2.1,Win32,60.60606061,,,,,space,2.6026,NAN,,NAN,0.48,5.52,,0,15,15,15,1,16,Charlie,Rej,Participant_Images/60c8467d9872c0d83f695499/60c8467d9872c0d83f695499_Images/60c8467d9872c0d83f695499_Image_19.jpeg,did not like,4.456234322,,,,,,,,,,,,,,,,,,,,,,
,,60c8467d9872c0d83f695499,6685aa9113c938e83b4f1ea0,670735432bfedf46fb341934,2024-10-09_22h01.37.672,WTP_SM_Choice,2022.2.1,Win32,60.60606061,,,,,space,0.9132,NAN,,NAN,0.48,5.52,,0,16,16,16,1,17,Charlie,Rej,Participant_Images/60c8467d9872c0d83f695499/60c8467d9872c0d83f695499_Images/60c8467d9872c0d83f695499_Image_12.jpeg,liked,4.438512181,,,,,,,,,,,,,,,,,,,,,,
,,60c8467d9872c0d83f695499,6685aa9113c938e83b4f1ea0,670735432bfedf46fb341934,2024-10-09_22h01.37.672,WTP_SM_Choice,2022.2.1,Win32,60.60606061,,,,,space,0.7858,NAN,,NAN,0.48,5.52,,0,17,17,17,1,18,Charlie,Rej,Participant_Images/60c8467d9872c0d83f695499/60c8467d9872c0d83f695499_Images/60c8467d9872c0d83f695499_Image_10.jpeg,did not like,2.682944783,,,,,,,,,,,,,,,,,,,,,,
,,60c8467d9872c0d83f695499,6685aa9113c938e83b4f1ea0,670735432bfedf46fb341934,2024-10-09_22h01.37.672,WTP_SM_Choice,2022.2.1,Win32,60.60606061,,,,,space,0.7939,NAN,,NAN,0.48,5.52,,0,18,18,18,1,19,Charlie,Rej,Participant_Images/60c8467d9872c0d83f695499/60c8467d9872c0d83f695499_Images/60c8467d9872c0d83f695499_Image_5.jpeg,did not like,4.51984296,,,,,,,,,,,,,,,,,,,,,,
,,60c8467d9872c0d83f695499,6685aa9113c938e83b4f1ea0,670735432bfedf46fb341934,2024-10-09_22h01.37.672,WTP_SM_Choice,2022.2.1,Win32,60.60606061,,,,,,,,,,,,,,,,,,16,,,,,,space,31.1326,space,1.8155,0.01,1,7.4369,0,0,0,0,1,Go on weekend camping trips with my husband in the forest,Meditating in a quiet room with essential oils diffusing,0.01,0.04,1.1,0,,,,
,,60c8467d9872c0d83f695499,6685aa9113c938e83b4f1ea0,670735432bfedf46fb341934,2024-10-09_22h01.37.672,WTP_SM_Choice,2022.2.1,Win32,60.60606061,,,,,,,,,,,,,,,,,,17,,,,,,,,,,0.02,1,1.0037,0,1,1,1,1,Experimenting with new recipes in the kitchen while listening to relaxing music,Take weekend trips with my partner to explore new cities,0.02,0.04,8.8,1,,,,
,,60c8467d9872c0d83f695499,6685aa9113c938e83b4f1ea0,670735432bfedf46fb341934,2024-10-09_22h01.37.672,WTP_SM_Choice,2022.2.1,Win32,60.60606061,,,,,,,,,,,,,,,,,,18,,,,,,,,,,0.03,1,1.3909,0,2,2,2,1,Grill with family during a summer barbecue in the backyard,Reading a non-fiction book to learn better lifestyle skills,0.03,0.04,3.3,0,,,,
,,60c8467d9872c0d83f695499,6685aa9113c938e83b4f1ea0,670735432bfedf46fb341934,2024-10-09_22h01.37.672,WTP_SM_Choice,2022.2.1,Win32,60.60606061,,,,,,,,,,,,,,,,,,19,,,,,,,,,,0.04,1,1.353,0,3,3,3,1,Cook dinner with my family on a holiday evening while sharing stories,Doing colorful diamond paintings to ease my mind when I’m stressed,0.04,0.04,3.3,0,,,,
,,60c8467d9872c0d83f695499,6685aa9113c938e83b4f1ea0,670735432bfedf46fb341934,2024-10-09_22h01.37.672,WTP_SM_Choice,2022.2.1,Win32,60.60606061,,,,,,,,,,,,,,,,,,20,,,,,,,,,,0.04,2,2.3947,0,4,4,4,1,Relax and watch hulu specifically the handmaids tale,Grill with family during a summer barbecue in the backyard,0.05,0.04,1.1,1,,,,
,,60c8467d9872c0d83f695499,6685aa9113c938e83b4f1ea0,670735432bfedf46fb341934,2024-10-09_22h01.37.672,WTP_SM_Choice,2022.2.1,Win32,60.60606061,,,,,,,NAN,,NAN,0.62,5.38,,0,19,19,19,1,20,Charlie,Rej,Participant_Images/60c8467d9872c0d83f695499/60c8467d9872c0d83f695499_Images/60c8467d9872c0d83f695499_Image_24.jpeg,did not like,3.195382774,,,,,,,,,,,,,,,,,,,,,,
,,60c8467d9872c0d83f695499,6685aa9113c938e83b4f1ea0,670735432bfedf46fb341934,2024-10-09_22h01.37.672,WTP_SM_Choice,2022.2.1,Win32,60.60606061,,,,,space,0.726,NAN,,NAN,0.62,5.38,,0,20,20,20,1,21,Charlie,Rej,Participant_Images/60c8467d9872c0d83f695499/60c8467d9872c0d83f695499_Images/60c8467d9872c0d83f695499_Image_7.jpeg,liked,1.779333479,,,,,,,,,,,,,,,,,,,,,,
,,60c8467d9872c0d83f695499,6685aa9113c938e83b4f1ea0,670735432bfedf46fb341934,2024-10-09_22h01.37.672,WTP_SM_Choice,2022.2.1,Win32,60.60606061,,,,,space,0.7898,NAN,,NAN,0.62,5.38,,0,21,21,21,1,22,Charlie,Rej,Participant_Images/60c8467d9872c0d83f695499/60c8467d9872c0d83f695499_Images/60c8467d9872c0d83f695499_Image_23.jpeg,liked,4.312468682,,,,,,,,,,,,,,,,,,,,,,
,,60c8467d9872c0d83f695499,6685aa9113c938e83b4f1ea0,670735432bfedf46fb341934,2024-10-09_22h01.37.672,WTP_SM_Choice,2022.2.1,Win32,60.60606061,,,,,space,0.6542,NAN,,NAN,0.62,5.38,,0,22,22,22,1,23,Charlie,Rej,Participant_Images/60c8467d9872c0d83f695499/60c8467d9872c0d83f695499_Images/60c8467d9872c0d83f695499_Image_14.jpeg,liked,4.940433059,,,,,,,,,,,,,,,,,,,,,,
,,60c8467d9872c0d83f695499,6685aa9113c938e83b4f1ea0,670735432bfedf46fb341934,2024-10-09_22h01.37.672,WTP_SM_Choice,2022.2.1,Win32,60.60606061,,,,,space,0.8597,NAN,,NAN,0.62,5.38,,0,23,23,23,1,24,Charlie,Rej,Participant_Images/60c8467d9872c0d83f695499/60c8467d9872c0d83f695499_Images/60c8467d9872c0d83f695499_Image_18.jpeg,liked,2.7105123,,,,,,,,,,,,,,,,,,,,,,
,,60c8467d9872c0d83f695499,6685aa9113c938e83b4f1ea0,670735432bfedf46fb341934,2024-10-09_22h01.37.672,WTP_SM_Choice,2022.2.1,Win32,60.60606061,,,,,,,,,,,,,,,,,,21,,,,,,space,2.3408,space,3.4341,0.05,2,3.2115,0,0,0,0,1,Go on weekend camping trips with my husband in the forest,Relax and watch hulu specifically the handmaids tale,0.01,0.05,8.8,0,,,,
,,60c8467d9872c0d83f695499,6685aa9113c938e83b4f1ea0,670735432bfedf46fb341934,2024-10-09_22h01.37.672,WTP_SM_Choice,2022.2.1,Win32,60.60606061,,,,,,,,,,,,,,,,,,22,,,,,,,,,,0.02,1,2.1885,0,1,1,1,1,Taking a peaceful walk through the neighborhood at sunset ,Grill with family during a summer barbecue in the backyard,0.02,0.05,4.4,1,,,,
,,60c8467d9872c0d83f695499,6685aa9113c938e83b4f1ea0,670735432bfedf46fb341934,2024-10-09_22h01.37.672,WTP_SM_Choice,2022.2.1,Win32,60.60606061,,,,,,,,,,,,,,,,,,23,,,,,,,,,,0.03,1,1.7206,0,2,2,2,1,Bake cookies with my child during the winter holidays,Experimenting with new recipes in the kitchen while listening to relaxing music,0.03,0.05,1.1,0,,,,
,,60c8467d9872c0d83f695499,6685aa9113c938e83b4f1ea0,670735432bfedf46fb341934,2024-10-09_22h01.37.672,WTP_SM_Choice,2022.2.1,Win32,60.60606061,,,,,,,,,,,,,,,,,,24,,,,,,,,,,0.04,1,1.8472,0,3,3,3,1,Watch a movie marathon with my partner on a rainy Saturday evening at home,Doing colorful diamond paintings to ease my mind when I’m stressed,0.04,0.05,4.4,0,,,,
,,60c8467d9872c0d83f695499,6685aa9113c938e83b4f1ea0,670735432bfedf46fb341934,2024-10-09_22h01.37.672,WTP_SM_Choice,2022.2.1,Win32,60.60606061,,,,,,,,,,,,,,,,,,25,,,,,,,,,,0.05,2,1.9868,0,4,4,4,1,Shop for gifts with my mom during the holiday season,Planning future goals using a vision board with magazine cutouts and markers,0.05,0.05,3.3,0,,,,
,,60c8467d9872c0d83f695499,6685aa9113c938e83b4f1ea0,670735432bfedf46fb341934,2024-10-09_22h01.37.672,WTP_SM_Choice,2022.2.1,Win32,60.60606061,,,,,,,1,,1,0.81,5.19,,0,24,24,24,1,25,Charlie,Rej,Participant_Images/60c8467d9872c0d83f695499/60c8467d9872c0d83f695499_Images/60c8467d9872c0d83f695499_Image_9.jpeg,did not like,3.602308302,,,,,,,,,,,,,,,,,,,space,0.8128,,
,,60c8467d9872c0d83f695499,6685aa9113c938e83b4f1ea0,670735432bfedf46fb341934,2024-10-09_22h01.37.672,WTP_SM_Choice,2022.2.1,Win32,60.60606061,,,space,1.6459,space,0.6273,NAN,,NAN,0.81,5.19,,0,25,25,25,1,26,Alex,Acc,Participant_Images/60c8467d9872c0d83f695499/60c8467d9872c0d83f695499_Images/60c8467d9872c0d83f695499_Image_9.jpeg,liked,4.106391878,,,,,,,,,,,,,,,,,,,,,,
,,60c8467d9872c0d83f695499,6685aa9113c938e83b4f1ea0,670735432bfedf46fb341934,2024-10-09_22h01.37.672,WTP_SM_Choice,2022.2.1,Win32,60.60606061,,,,,space,0.6744,NAN,,NAN,0.81,5.19,,0,26,26,26,1,27,Alex,Acc,Participant_Images/60c8467d9872c0d83f695499/60c8467d9872c0d83f695499_Images/60c8467d9872c0d83f695499_Image_13.jpeg,did not like,3.799433026,,,,,,,,,,,,,,,,,,,,,,
,,60c8467d9872c0d83f695499,6685aa9113c938e83b4f1ea0,670735432bfedf46fb341934,2024-10-09_22h01.37.672,WTP_SM_Choice,2022.2.1,Win32,60.60606061,,,,,space,2.0617,NAN,,NAN,0.81,5.19,,0,27,27,27,1,28,Alex,Acc,Participant_Images/60c8467d9872c0d83f695499/60c8467d9872c0d83f695499_Images/60c8467d9872c0d83f695499_Image_20.jpeg,did not like,5.246980764,,,,,,,,,,,,,,,,,,,,,,
,,60c8467d9872c0d83f695499,6685aa9113c938e83b4f1ea0,670735432bfedf46fb341934,2024-10-09_22h01.37.672,WTP_SM_Choice,2022.2.1,Win32,60.60606061,,,,,space,0.7259,NAN,,NAN,0.81,5.19,,0,28,28,28,1,29,Alex,Acc,Participant_Images/60c8467d9872c0d83f695499/60c8467d9872c0d83f695499_Images/60c8467d9872c0d83f695499_Image_17.jpeg,liked,3.30081769,,,,,,,,,,,,,,,,,,,,,,
,,60c8467d9872c0d83f695499,6685aa9113c938e83b4f1ea0,670735432bfedf46fb341934,2024-10-09_22h01.37.672,WTP_SM_Choice,2022.2.1,Win32,60.60606061,,,,,,,,,,,,,,,,,,26,,,,,,space,11.6941,space,1.0181,0.01,2,1.7336,0,0,0,0,1,Go to amusement parks with my husband on summer vacations,Relax and watch hulu specifically the handmaids tale,0.01,0.01,4.4,0,,,,
,,60c8467d9872c0d83f695499,6685aa9113c938e83b4f1ea0,670735432bfedf46fb341934,2024-10-09_22h01.37.672,WTP_SM_Choice,2022.2.1,Win32,60.60606061,,,,,,,,,,,,,,,,,,27,,,,,,,,,,0.01,2,2.7963,0,1,1,1,1,Do prolific studies while sitting on a comfy couch with a cup of cappuccino,Go on weekend camping trips with my husband in the forest,0.02,0.01,3.3,1,,,,
,,60c8467d9872c0d83f695499,6685aa9113c938e83b4f1ea0,670735432bfedf46fb341934,2024-10-09_22h01.37.672,WTP_SM_Choice,2022.2.1,Win32,60.60606061,,,,,,,,,,,,,,,,,,28,,,,,,,,,,0.01,2,1.6312,0,2,2,2,1,Relax and watch hulu specifically the handmaids tale,Bake cookies with my child during the winter holidays,0.03,0.01,3.3,1,,,,
,,60c8467d9872c0d83f695499,6685aa9113c938e83b4f1ea0,670735432bfedf46fb341934,2024-10-09_22h01.37.672,WTP_SM_Choice,2022.2.1,Win32,60.60606061,,,,,,,,,,,,,,,,,,29,,,,,,,,,,0.01,2,2.1599,0,3,3,3,1,Go to the zoo with my child on a bright spring day,Sipping cappuccino and watching the rain from my living room window,0.04,0.01,4.4,0,,,,
,,60c8467d9872c0d83f695499,6685aa9113c938e83b4f1ea0,670735432bfedf46fb341934,2024-10-09_22h01.37.672,WTP_SM_Choice,2022.2.1,Win32,60.60606061,,,,,,,,,,,,,,,,,,30,,,,,,,,,,0.05,1,1.7831,0,4,4,4,1,Take weekend trips with my partner to explore new cities,Taking a peaceful walk through the neighborhood at sunset ,0.05,0.01,8.8,0,,,,
,,60c8467d9872c0d83f695499,6685aa9113c938e83b4f1ea0,670735432bfedf46fb341934,2024-10-09_22h01.37.672,WTP_SM_Choice,2022.2.1,Win32,60.60606061,,,,,,,NAN,,NAN,0.9,5.1,,0,29,29,29,1,30,Alex,Acc,Participant_Images/60c8467d9872c0d83f695499/60c8467d9872c0d83f695499_Images/60c8467d9872c0d83f695499_Image_12.jpeg,liked,1.661473164,,,,,,,,,,,,,,,,,,,,,,
,,60c8467d9872c0d83f695499,6685aa9113c938e83b4f1ea0,670735432bfedf46fb341934,2024-10-09_22h01.37.672,WTP_SM_Choice,2022.2.1,Win32,60.60606061,,,,,space,1.6394,NAN,,NAN,0.9,5.1,,0,30,30,30,1,31,Alex,Acc,Participant_Images/60c8467d9872c0d83f695499/60c8467d9872c0d83f695499_Images/60c8467d9872c0d83f695499_Image_5.jpeg,did not like,3.613205605,,,,,,,,,,,,,,,,,,,,,,
,,60c8467d9872c0d83f695499,6685aa9113c938e83b4f1ea0,670735432bfedf46fb341934,2024-10-09_22h01.37.672,WTP_SM_Choice,2022.2.1,Win32,60.60606061,,,,,space,1.212,NAN,,NAN,0.9,5.1,,0,31,31,31,1,32,Alex,Acc,Participant_Images/60c8467d9872c0d83f695499/60c8467d9872c0d83f695499_Images/60c8467d9872c0d83f695499_Image_23.jpeg,did not like,4.988446431,,,,,,,,,,,,,,,,,,,,,,
,,60c8467d9872c0d83f695499,6685aa9113c938e83b4f1ea0,670735432bfedf46fb341934,2024-10-09_22h01.37.672,WTP_SM_Choice,2022.2.1,Win32,60.60606061,,,,,space,1.4783,NAN,,NAN,0.9,5.1,,0,32,32,32,1,33,Alex,Acc,Participant_Images/60c8467d9872c0d83f695499/60c8467d9872c0d83f695499_Images/60c8467d9872c0d83f695499_Image_3.jpeg,liked,3.470791822,,,,,,,,,,,,,,,,,,,,,,
,,60c8467d9872c0d83f695499,6685aa9113c938e83b4f1ea0,670735432bfedf46fb341934,2024-10-09_22h01.37.672,WTP_SM_Choice,2022.2.1,Win32,60.60606061,,,,,space,1.053,NAN,,NAN,0.9,5.1,,0,33,33,33,1,34,Alex,Acc,Participant_Images/60c8467d9872c0d83f695499/60c8467d9872c0d83f695499_Images/60c8467d9872c0d83f695499_Image_7.jpeg,liked,3.820572462,,,,,,,,,,,,,,,,,,,,,,
,,60c8467d9872c0d83f695499,6685aa9113c938e83b4f1ea0,670735432bfedf46fb341934,2024-10-09_22h01.37.672,WTP_SM_Choice,2022.2.1,Win32,60.60606061,,,,,,,,,,,,,,,,,,31,,,,,,space,1.5896,space,0.6819,0.01,1,1.3515,0,0,0,0,1,Go on weekend camping trips with my husband in the forest,Taking a peaceful walk through the neighborhood at sunset ,0.01,0.02,8.8,0,,,,
,,60c8467d9872c0d83f695499,6685aa9113c938e83b4f1ea0,670735432bfedf46fb341934,2024-10-09_22h01.37.672,WTP_SM_Choice,2022.2.1,Win32,60.60606061,,,,,,,,,,,,,,,,,,32,,,,,,,,,,0.02,1,1.4746,0,1,1,1,1,Play board games with friends on a cozy winter night by the fireplace,Planning future goals using a vision board with magazine cutouts and markers,0.02,0.02,1.1,0,,,,
,,60c8467d9872c0d83f695499,6685aa9113c938e83b4f1ea0,670735432bfedf46fb341934,2024-10-09_22h01.37.672,WTP_SM_Choice,2022.2.1,Win32,60.60606061,,,,,,,,,,,,,,,,,,33,,,,,,,,,,0.02,2,3.0572,0,2,2,2,1,Sketching ideas for new art projects at my desk with soft lighting,Shop for gifts with my mom during the holiday season,0.03,0.02,4.4,1,,,,
,,60c8467d9872c0d83f695499,6685aa9113c938e83b4f1ea0,670735432bfedf46fb341934,2024-10-09_22h01.37.672,WTP_SM_Choice,2022.2.1,Win32,60.60606061,,,,,,,,,,,,,,,,,,34,,,,,,,,,,0.02,2,1.3448,0,3,3,3,1,Play board games with friends on a cozy winter night by the fireplace,Meditating in a quiet room with essential oils diffusing,0.04,0.02,3.3,0,,,,
,,60c8467d9872c0d83f695499,6685aa9113c938e83b4f1ea0,670735432bfedf46fb341934,2024-10-09_22h01.37.672,WTP_SM_Choice,2022.2.1,Win32,60.60606061,,,,,,,,,,,,,,,,,,35,,,,,,,,,,0.02,2,1.45,0,4,4,4,1,Sipping cappuccino and watching the rain from my living room window,Grill with family during a summer barbecue in the backyard,0.05,0.02,1.1,1,,,,
,,60c8467d9872c0d83f695499,6685aa9113c938e83b4f1ea0,670735432bfedf46fb341934,2024-10-09_22h01.37.672,WTP_SM_Choice,2022.2.1,Win32,60.60606061,,,,,,,NAN,,NAN,0.99,5.01,,0,34,34,34,1,35,Alex,Acc,Participant_Images/60c8467d9872c0d83f695499/60c8467d9872c0d83f695499_Images/60c8467d9872c0d83f695499_Image_10.jpeg,liked,2.455989137,,,,,,,,,,,,,,,,,,,,,,
,,60c8467d9872c0d83f695499,6685aa9113c938e83b4f1ea0,670735432bfedf46fb341934,2024-10-09_22h01.37.672,WTP_SM_Choice,2022.2.1,Win32,60.60606061,,,,,space,1.8943,NAN,,NAN,0.99,5.01,,0,35,35,35,1,36,Alex,Acc,Participant_Images/60c8467d9872c0d83f695499/60c8467d9872c0d83f695499_Images/60c8467d9872c0d83f695499_Image_14.jpeg,liked,3.79605092,,,,,,,,,,,,,,,,,,,,,,
,,60c8467d9872c0d83f695499,6685aa9113c938e83b4f1ea0,670735432bfedf46fb341934,2024-10-09_22h01.37.672,WTP_SM_Choice,2022.2.1,Win32,60.60606061,,,,,space,1.0776,NAN,,NAN,0.99,5.01,,0,36,36,36,1,37,Alex,Acc,Participant_Images/60c8467d9872c0d83f695499/60c8467d9872c0d83f695499_Images/60c8467d9872c0d83f695499_Image_1.jpeg,liked,3.562416326,,,,,,,,,,,,,,,,,,,,,,
,,60c8467d9872c0d83f695499,6685aa9113c938e83b4f1ea0,670735432bfedf46fb341934,2024-10-09_22h01.37.672,WTP_SM_Choice,2022.2.1,Win32,60.60606061,,,,,space,5.6598,NAN,,NAN,0.99,5.01,,0,37,37,37,1,38,Alex,Acc,Participant_Images/60c8467d9872c0d83f695499/60c8467d9872c0d83f695499_Images/60c8467d9872c0d83f695499_Image_11.jpeg,liked,2.843822497,,,,,,,,,,,,,,,,,,,,,,
,,60c8467d9872c0d83f695499,6685aa9113c938e83b4f1ea0,670735432bfedf46fb341934,2024-10-09_22h01.37.672,WTP_SM_Choice,2022.2.1,Win32,60.60606061,,,,,space,0.8743,NAN,,NAN,0.99,5.01,,0,38,38,38,1,39,Alex,Acc,Participant_Images/60c8467d9872c0d83f695499/60c8467d9872c0d83f695499_Images/60c8467d9872c0d83f695499_Image_22.jpeg,liked,3.546495948,,,,,,,,,,,,,,,,,,,,,,
,,60c8467d9872c0d83f695499,6685aa9113c938e83b4f1ea0,670735432bfedf46fb341934,2024-10-09_22h01.37.672,WTP_SM_Choice,2022.2.1,Win32,60.60606061,,,,,,,,,,,,,,,,,,36,,,,,,space,0.9413,space,0.814,0.01,1,1.2043,0,0,0,0,1,Cook dinner with my family on a holiday evening while sharing stories,Experimenting with new recipes in the kitchen while listening to relaxing music,0.01,0.03,3.3,0,,,,
,,60c8467d9872c0d83f695499,6685aa9113c938e83b4f1ea0,670735432bfedf46fb341934,2024-10-09_22h01.37.672,WTP_SM_Choice,2022.2.1,Win32,60.60606061,,,,,,,,,,,,,,,,,,37,,,,,,,,,,0.02,1,2.3463,0,1,1,1,1,Take weekend trips with my partner to explore new cities,Meditating in a quiet room with essential oils diffusing,0.02,0.03,1.1,0,,,,
,,60c8467d9872c0d83f695499,6685aa9113c938e83b4f1ea0,670735432bfedf46fb341934,2024-10-09_22h01.37.672,WTP_SM_Choice,2022.2.1,Win32,60.60606061,,,,,,,,,,,,,,,,,,38,,,,,,,,,,0.03,1,1.4459,0,2,2,2,1,Shop for gifts with my mom during the holiday season,Doing colorful diamond paintings to ease my mind when I’m stressed,0.03,0.03,1.1,0,,,,
,,60c8467d9872c0d83f695499,6685aa9113c938e83b4f1ea0,670735432bfedf46fb341934,2024-10-09_22h01.37.672,WTP_SM_Choice,2022.2.1,Win32,60.60606061,,,,,,,,,,,,,,,,,,39,,,,,,,,,,0.03,2,0.9908,0,3,3,3,1,Go to amusement parks with my husband on summer vacations,Taking a peaceful walk through the neighborhood at sunset ,0.04,0.03,3.3,0,,,,
,,60c8467d9872c0d83f695499,6685aa9113c938e83b4f1ea0,670735432bfedf46fb341934,2024-10-09_22h01.37.672,WTP_SM_Choice,2022.2.1,Win32,60.60606061,,,,,,,,,,,,,,,,,,40,,,,,,,,,,0.03,2,0.8714,0,4,4,4,1,Meditating in a quiet room with essential oils diffusing,Go to the zoo with my child on a bright spring day,0.05,0.03,4.4,1,,,,
,,60c8467d9872c0d83f695499,6685aa9113c938e83b4f1ea0,670735432bfedf46fb341934,2024-10-09_22h01.37.672,WTP_SM_Choice,2022.2.1,Win32,60.60606061,,,,,,,NAN,,NAN,1.11,4.89,,0,39,39,39,1,40,Alex,Acc,Participant_Images/60c8467d9872c0d83f695499/60c8467d9872c0d83f695499_Images/60c8467d9872c0d83f695499_Image_2.jpeg,liked,1.672012706,,,,,,,,,,,,,,,,,,,,,,
,,60c8467d9872c0d83f695499,6685aa9113c938e83b4f1ea0,670735432bfedf46fb341934,2024-10-09_22h01.37.672,WTP_SM_Choice,2022.2.1,Win32,60.60606061,,,,,space,5.2527,NAN,,NAN,1.11,4.89,,0,40,40,40,1,41,Alex,Acc,Participant_Images/60c8467d9872c0d83f695499/60c8467d9872c0d83f695499_Images/60c8467d9872c0d83f695499_Image_6.jpeg,liked,4.942172136,,,,,,,,,,,,,,,,,,,,,,
,,60c8467d9872c0d83f695499,6685aa9113c938e83b4f1ea0,670735432bfedf46fb341934,2024-10-09_22h01.37.672,WTP_SM_Choice,2022.2.1,Win32,60.60606061,,,,,space,0.5535,NAN,,NAN,1.11,4.89,,0,41,41,41,1,42,Alex,Acc,Participant_Images/60c8467d9872c0d83f695499/60c8467d9872c0d83f695499_Images/60c8467d9872c0d83f695499_Image_15.jpeg,liked,2.50187214,,,,,,,,,,,,,,,,,,,,,,
,,60c8467d9872c0d83f695499,6685aa9113c938e83b4f1ea0,670735432bfedf46fb341934,2024-10-09_22h01.37.672,WTP_SM_Choice,2022.2.1,Win32,60.60606061,,,,,space,9.991,NAN,,NAN,1.11,4.89,,0,42,42,42,1,43,Alex,Acc,Participant_Images/60c8467d9872c0d83f695499/60c8467d9872c0d83f695499_Images/60c8467d9872c0d83f695499_Image_16.jpeg,did not like,2.071164779,,,,,,,,,,,,,,,,,,,,,,
,,60c8467d9872c0d83f695499,6685aa9113c938e83b4f1ea0,670735432bfedf46fb341934,2024-10-09_22h01.37.672,WTP_SM_Choice,2022.2.1,Win32,60.60606061,,,,,space,8.823,NAN,,NAN,1.11,4.89,,0,43,43,43,1,44,Alex,Acc,Participant_Images/60c8467d9872c0d83f695499/60c8467d9872c0d83f695499_Images/60c8467d9872c0d83f695499_Image_8.jpeg,liked,5.336503566,,,,,,,,,,,,,,,,,,,,,,
,,60c8467d9872c0d83f695499,6685aa9113c938e83b4f1ea0,670735432bfedf46fb341934,2024-10-09_22h01.37.672,WTP_SM_Choice,2022.2.1,Win32,60.60606061,,,,,,,,,,,,,,,,,,41,,,,,,space,0.7862,space,0.5452,0.01,1,1.074,0,0,0,0,1,Experimenting with new recipes in the kitchen while listening to relaxing music,Play board games with friends on a cozy winter night by the fireplace,0.01,0.04,1.1,1,,,,
,,60c8467d9872c0d83f695499,6685aa9113c938e83b4f1ea0,670735432bfedf46fb341934,2024-10-09_22h01.37.672,WTP_SM_Choice,2022.2.1,Win32,60.60606061,,,,,,,,,,,,,,,,,,42,,,,,,,,,,0.02,1,1.005,0,1,1,1,1,Play board games with friends on a cozy winter night by the fireplace,Relax and watch hulu specifically the handmaids tale,0.02,0.04,3.3,0,,,,
,,60c8467d9872c0d83f695499,6685aa9113c938e83b4f1ea0,670735432bfedf46fb341934,2024-10-09_22h01.37.672,WTP_SM_Choice,2022.2.1,Win32,60.60606061,,,,,,,,,,,,,,,,,,43,,,,,,,,,,0.03,1,0.9111,0,2,2,2,1,Watch a movie marathon with my partner on a rainy Saturday evening at home,Planning future goals using a vision board with magazine cutouts and markers,0.03,0.04,1.1,0,,,,
,,60c8467d9872c0d83f695499,6685aa9113c938e83b4f1ea0,670735432bfedf46fb341934,2024-10-09_22h01.37.672,WTP_SM_Choice,2022.2.1,Win32,60.60606061,,,,,,,,,,,,,,,,,,44,,,,,,,,,,0.04,1,1.7129,0,3,3,3,1,Do prolific studies while sitting on a comfy couch with a cup of cappuccino,Take weekend trips with my partner to explore new cities,0.04,0.04,1.1,1,,,,
,,60c8467d9872c0d83f695499,6685aa9113c938e83b4f1ea0,670735432bfedf46fb341934,2024-10-09_22h01.37.672,WTP_SM_Choice,2022.2.1,Win32,60.60606061,,,,,,,,,,,,,,,,,,45,,,,,,,,,,0.04,2,0.9511,0,4,4,4,1,Planning future goals using a vision board with magazine cutouts and markers,Bake cookies with my child during the winter holidays,0.05,0.04,4.4,1,,,,
,,60c8467d9872c0d83f695499,6685aa9113c938e83b4f1ea0,670735432bfedf46fb341934,2024-10-09_22h01.37.672,WTP_SM_Choice,2022.2.1,Win32,60.60606061,,,,,,,NAN,,NAN,1.25,4.75,,0,44,44,44,1,45,Alex,Acc,Participant_Images/60c8467d9872c0d83f695499/60c8467d9872c0d83f695499_Images/60c8467d9872c0d83f695499_Image_4.jpeg,liked,2.642157193,,,,,,,,,,,,,,,,,,,,,,
,,60c8467d9872c0d83f695499,6685aa9113c938e83b4f1ea0,670735432bfedf46fb341934,2024-10-09_22h01.37.672,WTP_SM_Choice,2022.2.1,Win32,60.60606061,,,,,space,2.2182,NAN,,NAN,1.25,4.75,,0,45,45,45,1,46,Alex,Acc,Participant_Images/60c8467d9872c0d83f695499/60c8467d9872c0d83f695499_Images/60c8467d9872c0d83f695499_Image_25.jpeg,did not like,4.456234322,,,,,,,,,,,,,,,,,,,,,,
,,60c8467d9872c0d83f695499,6685aa9113c938e83b4f1ea0,670735432bfedf46fb341934,2024-10-09_22h01.37.672,WTP_SM_Choice,2022.2.1,Win32,60.60606061,,,,,space,0.6968,NAN,,NAN,1.25,4.75,,0,46,46,46,1,47,Alex,Acc,Participant_Images/60c8467d9872c0d83f695499/60c8467d9872c0d83f695499_Images/60c8467d9872c0d83f695499_Image_21.jpeg,did not like,4.438512181,,,,,,,,,,,,,,,,,,,,,,
,,60c8467d9872c0d83f695499,6685aa9113c938e83b4f1ea0,670735432bfedf46fb341934,2024-10-09_22h01.37.672,WTP_SM_Choice,2022.2.1,Win32,60.60606061,,,,,space,0.5582,NAN,,NAN,1.25,4.75,,0,47,47,47,1,48,Alex,Acc,Participant_Images/60c8467d9872c0d83f695499/60c8467d9872c0d83f695499_Images/60c8467d9872c0d83f695499_Image_19.jpeg,liked,2.682944783,,,,,,,,,,,,,,,,,,,,,,
,,60c8467d9872c0d83f695499,6685aa9113c938e83b4f1ea0,670735432bfedf46fb341934,2024-10-09_22h01.37.672,WTP_SM_Choice,2022.2.1,Win32,60.60606061,,,,,space,8.4075,NAN,,NAN,1.25,4.75,,0,48,48,48,1,49,Alex,Acc,Participant_Images/60c8467d9872c0d83f695499/60c8467d9872c0d83f695499_Images/60c8467d9872c0d83f695499_Image_24.jpeg,liked,4.51984296,,,,,,,,,,,,,,,,,,,,,,
,,60c8467d9872c0d83f695499,6685aa9113c938e83b4f1ea0,670735432bfedf46fb341934,2024-10-09_22h01.37.672,WTP_SM_Choice,2022.2.1,Win32,60.60606061,,,,,,,,,,,,,,,,,,46,,,,,,space,0.7147,space,0.6335,0.01,1,1.1682,0,0,0,0,1,Do prolific studies while sitting on a comfy couch with a cup of cappuccino,Watch a movie marathon with my partner on a rainy Saturday evening at home,0.01,0.05,8.8,1,,,,
,,60c8467d9872c0d83f695499,6685aa9113c938e83b4f1ea0,670735432bfedf46fb341934,2024-10-09_22h01.37.672,WTP_SM_Choice,2022.2.1,Win32,60.60606061,,,,,,,,,,,,,,,,,,47,,,,,,,,,,0.02,1,1.1636,0,1,1,1,1,Reading a non-fiction book to learn better lifestyle skills,Go to the zoo with my child on a bright spring day,0.02,0.05,1.1,1,,,,
,,60c8467d9872c0d83f695499,6685aa9113c938e83b4f1ea0,670735432bfedf46fb341934,2024-10-09_22h01.37.672,WTP_SM_Choice,2022.2.1,Win32,60.60606061,,,,,,,,,,,,,,,,,,48,,,,,,,,,,0.03,1,0.9642,0,2,2,2,1,Cook dinner with my family on a holiday evening while sharing stories,Planning future goals using a vision board with magazine cutouts and markers,0.03,0.05,4.4,0,,,,
,,60c8467d9872c0d83f695499,6685aa9113c938e83b4f1ea0,670735432bfedf46fb341934,2024-10-09_22h01.37.672,WTP_SM_Choice,2022.2.1,Win32,60.60606061,,,,,,,,,,,,,,,,,,49,,,,,,,,,,0.04,1,1.0593,0,3,3,3,1,Grill with family during a summer barbecue in the backyard,Experimenting with new recipes in the kitchen while listening to relaxing music,0.04,0.05,3.3,0,,,,
,,60c8467d9872c0d83f695499,6685aa9113c938e83b4f1ea0,670735432bfedf46fb341934,2024-10-09_22h01.37.672,WTP_SM_Choice,2022.2.1,Win32,60.60606061,,,,,,,,,,,,,,,,,,50,,,,,,,,,,0.05,1,1.0156,0,4,4,4,1,Do prolific studies while sitting on a comfy couch with a cup of cappuccino,Go to the zoo with my child on a bright spring day,0.05,0.05,1.1,1,,,,
,,60c8467d9872c0d83f695499,6685aa9113c938e83b4f1ea0,670735432bfedf46fb341934,2024-10-09_22h01.37.672,WTP_SM_Choice,2022.2.1,Win32,60.60606061,,,,,,,1,,1,1.4,4.6,,0,49,49,49,1,50,Alex,Acc,Participant_Images/60c8467d9872c0d83f695499/60c8467d9872c0d83f695499_Images/60c8467d9872c0d83f695499_Image_18.jpeg,liked,3.195382774,,,,,,,,,,,,,,,,,,,space,0.7912,,
,,60c8467d9872c0d83f695499,6685aa9113c938e83b4f1ea0,670735432bfedf46fb341934,2024-10-09_22h01.37.672,WTP_SM_Choice,2022.2.1,Win32,60.60606061,,,space,1.1237,space,0.7188,NAN,,NAN,1.4,4.6,,0,50,50,50,1,51,Riley,Rej,Participant_Images/60c8467d9872c0d83f695499/60c8467d9872c0d83f695499_Images/60c8467d9872c0d83f695499_Image_10.jpeg,did not like,1.779333479,,,,,,,,,,,,,,,,,,,,,,
,,60c8467d9872c0d83f695499,6685aa9113c938e83b4f1ea0,670735432bfedf46fb341934,2024-10-09_22h01.37.672,WTP_SM_Choice,2022.2.1,Win32,60.60606061,,,,,space,0.6498,NAN,,NAN,1.4,4.6,,0,51,51,51,1,52,Riley,Rej,Participant_Images/60c8467d9872c0d83f695499/60c8467d9872c0d83f695499_Images/60c8467d9872c0d83f695499_Image_15.jpeg,liked,4.312468682,,,,,,,,,,,,,,,,,,,,,,
,,60c8467d9872c0d83f695499,6685aa9113c938e83b4f1ea0,670735432bfedf46fb341934,2024-10-09_22h01.37.672,WTP_SM_Choice,2022.2.1,Win32,60.60606061,,,,,space,0.7038,NAN,,NAN,1.4,4.6,,0,52,52,52,1,53,Riley,Rej,Participant_Images/60c8467d9872c0d83f695499/60c8467d9872c0d83f695499_Images/60c8467d9872c0d83f695499_Image_5.jpeg,did not like,4.940433059,,,,,,,,,,,,,,,,,,,,,,
,,60c8467d9872c0d83f695499,6685aa9113c938e83b4f1ea0,670735432bfedf46fb341934,2024-10-09_22h01.37.672,WTP_SM_Choice,2022.2.1,Win32,60.60606061,,,,,space,6.6418,NAN,,NAN,1.4,4.6,,0,53,53,53,1,54,Riley,Rej,Participant_Images/60c8467d9872c0d83f695499/60c8467d9872c0d83f695499_Images/60c8467d9872c0d83f695499_Image_11.jpeg,did not like,2.7105123,,,,,,,,,,,,,,,,,,,,,,
,,60c8467d9872c0d83f695499,6685aa9113c938e83b4f1ea0,670735432bfedf46fb341934,2024-10-09_22h01.37.672,WTP_SM_Choice,2022.2.1,Win32,60.60606061,,,,,,,,,,,,,,,,,,51,,,,,,space,0.6739,space,0.6486,0.01,1,0.7364,0,0,0,0,1,Sipping cappuccino and watching the rain from my living room window,Take weekend trips with my partner to explore new cities,0.01,0.01,1.1,1,,,,
,,60c8467d9872c0d83f695499,6685aa9113c938e83b4f1ea0,670735432bfedf46fb341934,2024-10-09_22h01.37.672,WTP_SM_Choice,2022.2.1,Win32,60.60606061,,,,,,,,,,,,,,,,,,52,,,,,,,,,,0.01,2,0.9863,0,1,1,1,1,Reading a non-fiction book to learn better lifestyle skills,Go to amusement parks with my husband on summer vacations,0.02,0.01,3.3,1,,,,
,,60c8467d9872c0d83f695499,6685aa9113c938e83b4f1ea0,670735432bfedf46fb341934,2024-10-09_22h01.37.672,WTP_SM_Choice,2022.2.1,Win32,60.60606061,,,,,,,,,,,,,,,,,,53,,,,,,,,,,0.01,2,0.9109,0,2,2,2,1,Take weekend trips with my partner to explore new cities,Sketching ideas for new art projects at my desk with soft lighting,0.03,0.01,1.1,0,,,,
,,60c8467d9872c0d83f695499,6685aa9113c938e83b4f1ea0,670735432bfedf46fb341934,2024-10-09_22h01.37.672,WTP_SM_Choice,2022.2.1,Win32,60.60606061,,,,,,,,,,,,,,,,,,54,,,,,,,,,,0.01,2,0.761,0,3,3,3,1,Bake cookies with my child during the winter holidays,Reading a non-fiction book to learn better lifestyle skills,0.04,0.01,4.4,0,,,,
,,60c8467d9872c0d83f695499,6685aa9113c938e83b4f1ea0,670735432bfedf46fb341934,2024-10-09_22h01.37.672,WTP_SM_Choice,2022.2.1,Win32,60.60606061,,,,,,,,,,,,,,,,,,55,,,,,,,,,,0.01,2,0.9426,0,4,4,4,1,Sketching ideas for new art projects at my desk with soft lighting,Go to amusement parks with my husband on summer vacations,0.05,0.01,1.1,1,,,,
,,60c8467d9872c0d83f695499,6685aa9113c938e83b4f1ea0,670735432bfedf46fb341934,2024-10-09_22h01.37.672,WTP_SM_Choice,2022.2.1,Win32,60.60606061,,,,,,,NAN,,NAN,1.45,4.55,,0,54,54,54,1,55,Riley,Rej,Participant_Images/60c8467d9872c0d83f695499/60c8467d9872c0d83f695499_Images/60c8467d9872c0d83f695499_Image_3.jpeg,did not like,3.602308302,,,,,,,,,,,,,,,,,,,,,,
,,60c8467d9872c0d83f695499,6685aa9113c938e83b4f1ea0,670735432bfedf46fb341934,2024-10-09_22h01.37.672,WTP_SM_Choice,2022.2.1,Win32,60.60606061,,,,,space,1.0696,NAN,,NAN,1.45,4.55,,0,55,55,55,1,56,Riley,Rej,Participant_Images/60c8467d9872c0d83f695499/60c8467d9872c0d83f695499_Images/60c8467d9872c0d83f695499_Image_13.jpeg,did not like,4.106391878,,,,,,,,,,,,,,,,,,,,,,
,,60c8467d9872c0d83f695499,6685aa9113c938e83b4f1ea0,670735432bfedf46fb341934,2024-10-09_22h01.37.672,WTP_SM_Choice,2022.2.1,Win32,60.60606061,,,,,space,1.2437,NAN,,NAN,1.45,4.55,,0,56,56,56,1,57,Riley,Rej,Participant_Images/60c8467d9872c0d83f695499/60c8467d9872c0d83f695499_Images/60c8467d9872c0d83f695499_Image_12.jpeg,liked,3.799433026,,,,,,,,,,,,,,,,,,,,,,
,,60c8467d9872c0d83f695499,6685aa9113c938e83b4f1ea0,670735432bfedf46fb341934,2024-10-09_22h01.37.672,WTP_SM_Choice,2022.2.1,Win32,60.60606061,,,,,space,7.4655,NAN,,NAN,1.45,4.55,,0,57,57,57,1,58,Riley,Rej,Participant_Images/60c8467d9872c0d83f695499/60c8467d9872c0d83f695499_Images/60c8467d9872c0d83f695499_Image_24.jpeg,did not like,5.246980764,,,,,,,,,,,,,,,,,,,,,,
,,60c8467d9872c0d83f695499,6685aa9113c938e83b4f1ea0,670735432bfedf46fb341934,2024-10-09_22h01.37.672,WTP_SM_Choice,2022.2.1,Win32,60.60606061,,,,,space,0.6234,NAN,,NAN,1.45,4.55,,0,58,58,58,1,59,Riley,Rej,Participant_Images/60c8467d9872c0d83f695499/60c8467d9872c0d83f695499_Images/60c8467d9872c0d83f695499_Image_7.jpeg,did not like,3.30081769,,,,,,,,,,,,,,,,,,,,,,
,,60c8467d9872c0d83f695499,6685aa9113c938e83b4f1ea0,670735432bfedf46fb341934,2024-10-09_22h01.37.672,WTP_SM_Choice,2022.2.1,Win32,60.60606061,,,,,,,,,,,,,,,,,,56,,,,,,space,0.826,space,0.627,0.01,1,1.2825,0,0,0,0,1,Taking a peaceful walk through the neighborhood at sunset ,Shop for gifts with my mom during the holiday season,0.01,0.02,8.8,1,,,,
,,60c8467d9872c0d83f695499,6685aa9113c938e83b4f1ea0,670735432bfedf46fb341934,2024-10-09_22h01.37.672,WTP_SM_Choice,2022.2.1,Win32,60.60606061,,,,,,,,,,,,,,,,,,57,,,,,,,,,,0.02,1,1.1852,0,1,1,1,1,Watch a movie marathon with my partner on a rainy Saturday evening at home,Sketching ideas for new art projects at my desk with soft lighting,0.02,0.02,4.4,0,,,,
,,60c8467d9872c0d83f695499,6685aa9113c938e83b4f1ea0,670735432bfedf46fb341934,2024-10-09_22h01.37.672,WTP_SM_Choice,2022.2.1,Win32,60.60606061,,,,,,,,,,,,,,,,,,58,,,,,,,,,,0.02,2,1.4284,0,2,2,2,1,Go to amusement parks with my husband on summer vacations,Doing colorful diamond paintings to ease my mind when I’m stressed,0.03,0.02,4.4,0,,,,
,,60c8467d9872c0d83f695499,6685aa9113c938e83b4f1ea0,670735432bfedf46fb341934,2024-10-09_22h01.37.672,WTP_SM_Choice,2022.2.1,Win32,60.60606061,,,,,,,,,,,,,,,,,,59,,,,,,,,,,0.02,2,0.993,0,3,3,3,1,Watch a movie marathon with my partner on a rainy Saturday evening at home,Sipping cappuccino and watching the rain from my living room window,0.04,0.02,4.4,0,,,,
,,60c8467d9872c0d83f695499,6685aa9113c938e83b4f1ea0,670735432bfedf46fb341934,2024-10-09_22h01.37.672,WTP_SM_Choice,2022.2.1,Win32,60.60606061,,,,,,,,,,,,,,,,,,60,,,,,,,,,,0.02,2,1.125,0,4,4,4,1,Do prolific studies while sitting on a comfy couch with a cup of cappuccino,Bake cookies with my child during the winter holidays,0.05,0.02,1.1,1,,,,
,,60c8467d9872c0d83f695499,6685aa9113c938e83b4f1ea0,670735432bfedf46fb341934,2024-10-09_22h01.37.672,WTP_SM_Choice,2022.2.1,Win32,60.60606061,,,,,,,NAN,,NAN,1.54,4.46,,0,59,59,59,1,60,Riley,Rej,Participant_Images/60c8467d9872c0d83f695499/60c8467d9872c0d83f695499_Images/60c8467d9872c0d83f695499_Image_9.jpeg,liked,1.661473164,,,,,,,,,,,,,,,,,,,,,,
,,60c8467d9872c0d83f695499,6685aa9113c938e83b4f1ea0,670735432bfedf46fb341934,2024-10-09_22h01.37.672,WTP_SM_Choice,2022.2.1,Win32,60.60606061,,,,,space,1.1406,NAN,,NAN,1.54,4.46,,0,60,60,60,1,61,Riley,Rej,Participant_Images/60c8467d9872c0d83f695499/60c8467d9872c0d83f695499_Images/60c8467d9872c0d83f695499_Image_18.jpeg,did not like,3.613205605,,,,,,,,,,,,,,,,,,,,,,
,,60c8467d9872c0d83f695499,6685aa9113c938e83b4f1ea0,670735432bfedf46fb341934,2024-10-09_22h01.37.672,WTP_SM_Choice,2022.2.1,Win32,60.60606061,,,,,space,0.8587,NAN,,NAN,1.54,4.46,,0,61,61,61,1,62,Riley,Rej,Participant_Images/60c8467d9872c0d83f695499/60c8467d9872c0d83f695499_Images/60c8467d9872c0d83f695499_Image_22.jpeg,did not like,4.988446431,,,,,,,,,,,,,,,,,,,,,,
,,60c8467d9872c0d83f695499,6685aa9113c938e83b4f1ea0,670735432bfedf46fb341934,2024-10-09_22h01.37.672,WTP_SM_Choice,2022.2.1,Win32,60.60606061,,,,,space,0.5991,NAN,,NAN,1.54,4.46,,0,62,62,62,1,63,Riley,Rej,Participant_Images/60c8467d9872c0d83f695499/60c8467d9872c0d83f695499_Images/60c8467d9872c0d83f695499_Image_4.jpeg,liked,3.470791822,,,,,,,,,,,,,,,,,,,,,,
,,60c8467d9872c0d83f695499,6685aa9113c938e83b4f1ea0,670735432bfedf46fb341934,2024-10-09_22h01.37.672,WTP_SM_Choice,2022.2.1,Win32,60.60606061,,,,,space,5.5488,NAN,,NAN,1.54,4.46,,0,63,63,63,1,64,Riley,Rej,Participant_Images/60c8467d9872c0d83f695499/60c8467d9872c0d83f695499_Images/60c8467d9872c0d83f695499_Image_16.jpeg,liked,3.820572462,,,,,,,,,,,,,,,,,,,,,,
,,60c8467d9872c0d83f695499,6685aa9113c938e83b4f1ea0,670735432bfedf46fb341934,2024-10-09_22h01.37.672,WTP_SM_Choice,2022.2.1,Win32,60.60606061,,,,,,,,,,,,,,,,,,61,,,,,,space,0.7234,space,0.5605,0.01,1,1.2503,0,0,0,0,1,Go on weekend camping trips with my husband in the forest,Experimenting with new recipes in the kitchen while listening to relaxing music,0.01,0.03,3.3,0,,,,
,,60c8467d9872c0d83f695499,6685aa9113c938e83b4f1ea0,670735432bfedf46fb341934,2024-10-09_22h01.37.672,WTP_SM_Choice,2022.2.1,Win32,60.60606061,,,,,,,,,,,,,,,,,,62,,,,,,,,,,0.02,1,0.931,0,1,1,1,1,Doing colorful diamond paintings to ease my mind when I’m stressed,Take weekend trips with my partner to explore new cities,0.02,0.03,3.3,1,,,,
,,60c8467d9872c0d83f695499,6685aa9113c938e83b4f1ea0,670735432bfedf46fb341934,2024-10-09_22h01.37.672,WTP_SM_Choice,2022.2.1,Win32,60.60606061,,,,,,,,,,,,,,,,,,63,,,,,,,,,,0.03,1,1.2789,0,2,2,2,1,Relax and watch hulu specifically the handmaids tale,Go to the zoo with my child on a bright spring day,0.03,0.03,3.3,1,,,,
,,60c8467d9872c0d83f695499,6685aa9113c938e83b4f1ea0,670735432bfedf46fb341934,2024-10-09_22h01.37.672,WTP_SM_Choice,2022.2.1,Win32,60.60606061,,,,,,,,,,,,,,,,,,64,,,,,,,,,,0.03,2,1.0345,0,3,3,3,1,Take weekend trips with my partner to explore new cities,Relax and watch hulu specifically the handmaids tale,0.04,0.03,1.1,0,,,,
,,60c8467d9872c0d83f695499,6685aa9113c938e83b4f1ea0,670735432bfedf46fb341934,2024-10-09_22h01.37.672,WTP_SM_Choice,2022.2.1,Win32,60.60606061,,,,,,,,,,,,,,,,,,65,,,,,,,,,,0.03,2,1.032,0,4,4,4,1,Reading a non-fiction book to learn better lifestyle skills,Cook dinner with my family on a holiday evening while sharing stories,0.05,0.03,1.1,1,,,,
,,60c8467d9872c0d83f695499,6685aa9113c938e83b4f1ea0,670735432bfedf46fb341934,2024-10-09_22h01.37.672,WTP_SM_Choice,2022.2.1,Win32,60.60606061,,,,,,,NAN,,NAN,1.66,4.34,,0,64,64,64,1,65,Riley,Rej,Participant_Images/60c8467d9872c0d83f695499/60c8467d9872c0d83f695499_Images/60c8467d9872c0d83f695499_Image_19.jpeg,liked,2.455989137,,,,,,,,,,,,,,,,,,,,,,
,,60c8467d9872c0d83f695499,6685aa9113c938e83b4f1ea0,670735432bfedf46fb341934,2024-10-09_22h01.37.672,WTP_SM_Choice,2022.2.1,Win32,60.60606061,,,,,space,5.6034,NAN,,NAN,1.66,4.34,,0,65,65,65,1,66,Riley,Rej,Participant_Images/60c8467d9872c0d83f695499/60c8467d9872c0d83f695499_Images/60c8467d9872c0d83f695499_Image_8.jpeg,did not like,3.79605092,,,,,,,,,,,,,,,,,,,,,,
,,60c8467d9872c0d83f695499,6685aa9113c938e83b4f1ea0,670735432bfedf46fb341934,2024-10-09_22h01.37.672,WTP_SM_Choice,2022.2.1,Win32,60.60606061,,,,,space,0.5852,NAN,,NAN,1.66,4.34,,0,66,66,66,1,67,Riley,Rej,Participant_Images/60c8467d9872c0d83f695499/60c8467d9872c0d83f695499_Images/60c8467d9872c0d83f695499_Image_21.jpeg,did not like,3.562416326,,,,,,,,,,,,,,,,,,,,,,
,,60c8467d9872c0d83f695499,6685aa9113c938e83b4f1ea0,670735432bfedf46fb341934,2024-10-09_22h01.37.672,WTP_SM_Choice,2022.2.1,Win32,60.60606061,,,,,space,0.5193,NAN,,NAN,1.66,4.34,,0,67,67,67,1,68,Riley,Rej,Participant_Images/60c8467d9872c0d83f695499/60c8467d9872c0d83f695499_Images/60c8467d9872c0d83f695499_Image_1.jpeg,did not like,2.843822497,,,,,,,,,,,,,,,,,,,,,,
,,60c8467d9872c0d83f695499,6685aa9113c938e83b4f1ea0,670735432bfedf46fb341934,2024-10-09_22h01.37.672,WTP_SM_Choice,2022.2.1,Win32,60.60606061,,,,,space,0.609,NAN,,NAN,1.66,4.34,,0,68,68,68,1,69,Riley,Rej,Participant_Images/60c8467d9872c0d83f695499/60c8467d9872c0d83f695499_Images/60c8467d9872c0d83f695499_Image_2.jpeg,did not like,3.546495948,,,,,,,,,,,,,,,,,,,,,,
,,60c8467d9872c0d83f695499,6685aa9113c938e83b4f1ea0,670735432bfedf46fb341934,2024-10-09_22h01.37.672,WTP_SM_Choice,2022.2.1,Win32,60.60606061,,,,,,,,,,,,,,,,,,66,,,,,,space,0.6408,space,0.6105,0.01,1,1.6406,0,0,0,0,1,Sketching ideas for new art projects at my desk with soft lighting,Cook dinner with my family on a holiday evening while sharing stories,0.01,0.04,1.1,1,,,,
,,60c8467d9872c0d83f695499,6685aa9113c938e83b4f1ea0,670735432bfedf46fb341934,2024-10-09_22h01.37.672,WTP_SM_Choice,2022.2.1,Win32,60.60606061,,,,,,,,,,,,,,,,,,67,,,,,,,,,,0.02,1,1.4112,0,1,1,1,1,Planning future goals using a vision board with magazine cutouts and markers,Grill with family during a summer barbecue in the backyard,0.02,0.04,8.8,1,,,,
,,60c8467d9872c0d83f695499,6685aa9113c938e83b4f1ea0,670735432bfedf46fb341934,2024-10-09_22h01.37.672,WTP_SM_Choice,2022.2.1,Win32,60.60606061,,,,,,,,,,,,,,,,,,68,,,,,,,,,,0.03,1,1.2618,0,2,2,2,1,Doing colorful diamond paintings to ease my mind when I’m stressed,Grill with family during a summer barbecue in the backyard,0.03,0.04,4.4,1,,,,
,,60c8467d9872c0d83f695499,6685aa9113c938e83b4f1ea0,670735432bfedf46fb341934,2024-10-09_22h01.37.672,WTP_SM_Choice,2022.2.1,Win32,60.60606061,,,,,,,,,,,,,,,,,,69,,,,,,,,,,0.04,1,1.2158,0,3,3,3,1,Doing colorful diamond paintings to ease my mind when I’m stressed,Bake cookies with my child during the winter holidays,0.04,0.04,1.1,1,,,,
,,60c8467d9872c0d83f695499,6685aa9113c938e83b4f1ea0,670735432bfedf46fb341934,2024-10-09_22h01.37.672,WTP_SM_Choice,2022.2.1,Win32,60.60606061,,,,,,,,,,,,,,,,,,70,,,,,,,,,,0.04,2,1.1422,0,4,4,4,1,Bake cookies with my child during the winter holidays,Taking a peaceful walk through the neighborhood at sunset ,0.05,0.04,1.1,0,,,,
,,60c8467d9872c0d83f695499,6685aa9113c938e83b4f1ea0,670735432bfedf46fb341934,2024-10-09_22h01.37.672,WTP_SM_Choice,2022.2.1,Win32,60.60606061,,,,,,,NAN,,NAN,1.8,4.2,,0,69,69,69,1,70,Riley,Rej,Participant_Images/60c8467d9872c0d83f695499/60c8467d9872c0d83f695499_Images/60c8467d9872c0d83f695499_Image_25.jpeg,liked,1.672012706,,,,,,,,,,,,,,,,,,,,,,
,,60c8467d9872c0d83f695499,6685aa9113c938e83b4f1ea0,670735432bfedf46fb341934,2024-10-09_22h01.37.672,WTP_SM_Choice,2022.2.1,Win32,60.60606061,,,,,space,0.639,NAN,,NAN,1.8,4.2,,0,70,70,70,1,71,Riley,Rej,Participant_Images/60c8467d9872c0d83f695499/60c8467d9872c0d83f695499_Images/60c8467d9872c0d83f695499_Image_17.jpeg,did not like,4.942172136,,,,,,,,,,,,,,,,,,,,,,
,,60c8467d9872c0d83f695499,6685aa9113c938e83b4f1ea0,670735432bfedf46fb341934,2024-10-09_22h01.37.672,WTP_SM_Choice,2022.2.1,Win32,60.60606061,,,,,space,0.7243,NAN,,NAN,1.8,4.2,,0,71,71,71,1,72,Riley,Rej,Participant_Images/60c8467d9872c0d83f695499/60c8467d9872c0d83f695499_Images/60c8467d9872c0d83f695499_Image_23.jpeg,did not like,2.50187214,,,,,,,,,,,,,,,,,,,,,,
,,60c8467d9872c0d83f695499,6685aa9113c938e83b4f1ea0,670735432bfedf46fb341934,2024-10-09_22h01.37.672,WTP_SM_Choice,2022.2.1,Win32,60.60606061,,,,,space,0.5248,NAN,,NAN,1.8,4.2,,0,72,72,72,1,73,Riley,Rej,Participant_Images/60c8467d9872c0d83f695499/60c8467d9872c0d83f695499_Images/60c8467d9872c0d83f695499_Image_14.jpeg,did not like,2.071164779,,,,,,,,,,,,,,,,,,,,,,
,,60c8467d9872c0d83f695499,6685aa9113c938e83b4f1ea0,670735432bfedf46fb341934,2024-10-09_22h01.37.672,WTP_SM_Choice,2022.2.1,Win32,60.60606061,,,,,space,3.3426,NAN,,NAN,1.8,4.2,,0,73,73,73,1,74,Riley,Rej,Participant_Images/60c8467d9872c0d83f695499/60c8467d9872c0d83f695499_Images/60c8467d9872c0d83f695499_Image_20.jpeg,did not like,5.336503566,,,,,,,,,,,,,,,,,,,,,,
,,60c8467d9872c0d83f695499,6685aa9113c938e83b4f1ea0,670735432bfedf46fb341934,2024-10-09_22h01.37.672,WTP_SM_Choice,2022.2.1,Win32,60.60606061,,,,,,,,,,,,,,,,,,71,,,,,,space,3.9003,space,0.6853,0.01,1,1.1343,0,0,0,0,1,Meditating in a quiet room with essential oils diffusing,Cook dinner with my family on a holiday evening while sharing stories,0.01,0.05,3.3,1,,,,
,,60c8467d9872c0d83f695499,6685aa9113c938e83b4f1ea0,670735432bfedf46fb341934,2024-10-09_22h01.37.672,WTP_SM_Choice,2022.2.1,Win32,60.60606061,,,,,,,,,,,,,,,,,,72,,,,,,,,,,0.02,1,1.3824,0,1,1,1,1,Reading a non-fiction book to learn better lifestyle skills,Watch a movie marathon with my partner on a rainy Saturday evening at home,0.02,0.05,8.8,1,,,,
,,60c8467d9872c0d83f695499,6685aa9113c938e83b4f1ea0,670735432bfedf46fb341934,2024-10-09_22h01.37.672,WTP_SM_Choice,2022.2.1,Win32,60.60606061,,,,,,,,,,,,,,,,,,73,,,,,,,,,,0.03,1,1.2816,0,2,2,2,1,Reading a non-fiction book to learn better lifestyle skills,Play board games with friends on a cozy winter night by the fireplace,0.03,0.05,3.3,1,,,,
,,60c8467d9872c0d83f695499,6685aa9113c938e83b4f1ea0,670735432bfedf46fb341934,2024-10-09_22h01.37.672,WTP_SM_Choice,2022.2.1,Win32,60.60606061,,,,,,,,,,,,,,,,,,74,,,,,,,,,,0.04,1,1.1961,0,3,3,3,1,Planning future goals using a vision board with magazine cutouts and markers,Go to amusement parks with my husband on summer vacations,0.04,0.05,4.4,1,,,,
,,60c8467d9872c0d83f695499,6685aa9113c938e83b4f1ea0,670735432bfedf46fb341934,2024-10-09_22h01.37.672,WTP_SM_Choice,2022.2.1,Win32,60.60606061,,,,,,,,,,,,,,,,,,75,,,,,,,,,,0.05,1,1.1759,0,4,4,4,1,Go to the zoo with my child on a bright spring day,Doing colorful diamond paintings to ease my mind when I’m stressed,0.05,0.05,3.3,0,,,,
,,60c8467d9872c0d83f695499,6685aa9113c938e83b4f1ea0,670735432bfedf46fb341934,2024-10-09_22h01.37.672,WTP_SM_Choice,2022.2.1,Win32,60.60606061,,,,,,,1,,5,1.95,4.05,,0,74,74,74,1,75,Riley,Rej,Participant_Images/60c8467d9872c0d83f695499/60c8467d9872c0d83f695499_Images/60c8467d9872c0d83f695499_Image_6.jpeg,did not like,2.642157193,,,,,,,,,,,,,,,,,,,space,0.8418,,
,,60c8467d9872c0d83f695499,6685aa9113c938e83b4f1ea0,670735432bfedf46fb341934,2024-10-09_22h01.37.672,WTP_SM_Choice,2022.2.1,Win32,60.60606061,,,space,1.3115,space,0.7597,NAN,,NAN,1.95,4.05,,0,75,75,75,1,76,Sam,Acc,Participant_Images/60c8467d9872c0d83f695499/60c8467d9872c0d83f695499_Images/60c8467d9872c0d83f695499_Image_1.jpeg,liked,4.456234322,,,,,,,,,,,,,,,,,,,,,,
,,60c8467d9872c0d83f695499,6685aa9113c938e83b4f1ea0,670735432bfedf46fb341934,2024-10-09_22h01.37.672,WTP_SM_Choice,2022.2.1,Win32,60.60606061,,,,,space,0.54,NAN,,NAN,1.95,4.05,,0,76,76,76,1,77,Sam,Acc,Participant_Images/60c8467d9872c0d83f695499/60c8467d9872c0d83f695499_Images/60c8467d9872c0d83f695499_Image_15.jpeg,liked,4.438512181,,,,,,,,,,,,,,,,,,,,,,
,,60c8467d9872c0d83f695499,6685aa9113c938e83b4f1ea0,670735432bfedf46fb341934,2024-10-09_22h01.37.672,WTP_SM_Choice,2022.2.1,Win32,60.60606061,,,,,space,0.5397,NAN,,NAN,1.95,4.05,,0,77,77,77,1,78,Sam,Acc,Participant_Images/60c8467d9872c0d83f695499/60c8467d9872c0d83f695499_Images/60c8467d9872c0d83f695499_Image_6.jpeg,liked,2.682944783,,,,,,,,,,,,,,,,,,,,,,
,,60c8467d9872c0d83f695499,6685aa9113c938e83b4f1ea0,670735432bfedf46fb341934,2024-10-09_22h01.37.672,WTP_SM_Choice,2022.2.1,Win32,60.60606061,,,,,space,0.5302,NAN,,NAN,1.95,4.05,,0,78,78,78,1,79,Sam,Acc,Participant_Images/60c8467d9872c0d83f695499/60c8467d9872c0d83f695499_Images/60c8467d9872c0d83f695499_Image_18.jpeg,liked,4.51984296,,,,,,,,,,,,,,,,,,,,,,
,,60c8467d9872c0d83f695499,6685aa9113c938e83b4f1ea0,670735432bfedf46fb341934,2024-10-09_22h01.37.672,WTP_SM_Choice,2022.2.1,Win32,60.60606061,,,,,,,,,,,,,,,,,,76,,,,,,space,0.4908,space,0.529,0.01,1,1.1776,0,0,0,0,1,Doing colorful diamond paintings to ease my mind when I’m stressed,Go on weekend camping trips with my husband in the forest,0.01,0.01,1.1,1,,,,
,,60c8467d9872c0d83f695499,6685aa9113c938e83b4f1ea0,670735432bfedf46fb341934,2024-10-09_22h01.37.672,WTP_SM_Choice,2022.2.1,Win32,60.60606061,,,,,,,,,,,,,,,,,,77,,,,,,,,,,0.01,2,1.0834,0,1,1,1,1,Do prolific studies while sitting on a comfy couch with a cup of cappuccino,Go to amusement parks with my husband on summer vacations,0.02,0.01,8.8,1,,,,
,,60c8467d9872c0d83f695499,6685aa9113c938e83b4f1ea0,670735432bfedf46fb341934,2024-10-09_22h01.37.672,WTP_SM_Choice,2022.2.1,Win32,60.60606061,,,,,,,,,,,,,,,,,,78,,,,,,,,,,0.01,2,1.1982,0,2,2,2,1,Bake cookies with my child during the winter holidays,Meditating in a quiet room with essential oils diffusing,0.03,0.01,1.1,0,,,,
,,60c8467d9872c0d83f695499,6685aa9113c938e83b4f1ea0,670735432bfedf46fb341934,2024-10-09_22h01.37.672,WTP_SM_Choice,2022.2.1,Win32,60.60606061,,,,,,,,,,,,,,,,,,79,,,,,,,,,,0.01,2,0.8698,0,3,3,3,1,Taking a peaceful walk through the neighborhood at sunset ,Watch a movie marathon with my partner on a rainy Saturday evening at home,0.04,0.01,1.1,1,,,,
,,60c8467d9872c0d83f695499,6685aa9113c938e83b4f1ea0,670735432bfedf46fb341934,2024-10-09_22h01.37.672,WTP_SM_Choice,2022.2.1,Win32,60.60606061,,,,,,,,,,,,,,,,,,80,,,,,,,,,,0.01,2,0.7822,0,4,4,4,1,Go to amusement parks with my husband on summer vacations,Meditating in a quiet room with essential oils diffusing,0.05,0.01,4.4,0,,,,
,,60c8467d9872c0d83f695499,6685aa9113c938e83b4f1ea0,670735432bfedf46fb341934,2024-10-09_22h01.37.672,WTP_SM_Choice,2022.2.1,Win32,60.60606061,,,,,,,NAN,,NAN,2,4,,0,79,79,79,1,80,Sam,Acc,Participant_Images/60c8467d9872c0d83f695499/60c8467d9872c0d83f695499_Images/60c8467d9872c0d83f695499_Image_2.jpeg,did not like,3.195382774,,,,,,,,,,,,,,,,,,,,,,
,,60c8467d9872c0d83f695499,6685aa9113c938e83b4f1ea0,670735432bfedf46fb341934,2024-10-09_22h01.37.672,WTP_SM_Choice,2022.2.1,Win32,60.60606061,,,,,space,0.7247,NAN,,NAN,2,4,,0,80,80,80,1,81,Sam,Acc,Participant_Images/60c8467d9872c0d83f695499/60c8467d9872c0d83f695499_Images/60c8467d9872c0d83f695499_Image_7.jpeg,liked,1.779333479,,,,,,,,,,,,,,,,,,,,,,
,,60c8467d9872c0d83f695499,6685aa9113c938e83b4f1ea0,670735432bfedf46fb341934,2024-10-09_22h01.37.672,WTP_SM_Choice,2022.2.1,Win32,60.60606061,,,,,space,0.6195,NAN,,NAN,2,4,,0,81,81,81,1,82,Sam,Acc,Participant_Images/60c8467d9872c0d83f695499/60c8467d9872c0d83f695499_Images/60c8467d9872c0d83f695499_Image_16.jpeg,did not like,4.312468682,,,,,,,,,,,,,,,,,,,,,,
,,60c8467d9872c0d83f695499,6685aa9113c938e83b4f1ea0,670735432bfedf46fb341934,2024-10-09_22h01.37.672,WTP_SM_Choice,2022.2.1,Win32,60.60606061,,,,,space,0.7278,NAN,,NAN,2,4,,0,82,82,82,1,83,Sam,Acc,Participant_Images/60c8467d9872c0d83f695499/60c8467d9872c0d83f695499_Images/60c8467d9872c0d83f695499_Image_13.jpeg,did not like,4.940433059,,,,,,,,,,,,,,,,,,,,,,
,,60c8467d9872c0d83f695499,6685aa9113c938e83b4f1ea0,670735432bfedf46fb341934,2024-10-09_22h01.37.672,WTP_SM_Choice,2022.2.1,Win32,60.60606061,,,,,space,0.7421,NAN,,NAN,2,4,,0,83,83,83,1,84,Sam,Acc,Participant_Images/60c8467d9872c0d83f695499/60c8467d9872c0d83f695499_Images/60c8467d9872c0d83f695499_Image_8.jpeg,liked,2.7105123,,,,,,,,,,,,,,,,,,,,,,
,,60c8467d9872c0d83f695499,6685aa9113c938e83b4f1ea0,670735432bfedf46fb341934,2024-10-09_22h01.37.672,WTP_SM_Choice,2022.2.1,Win32,60.60606061,,,,,,,,,,,,,,,,,,81,,,,,,space,0.6327,space,0.4546,0.01,1,0.989,0,0,0,0,1,Go to the zoo with my child on a bright spring day,Sketching ideas for new art projects at my desk with soft lighting,0.01,0.02,3.3,0,,,,
,,60c8467d9872c0d83f695499,6685aa9113c938e83b4f1ea0,670735432bfedf46fb341934,2024-10-09_22h01.37.672,WTP_SM_Choice,2022.2.1,Win32,60.60606061,,,,,,,,,,,,,,,,,,82,,,,,,,,,,0.02,2,0.9954,0,1,1,1,1,Meditating in a quiet room with essential oils diffusing,Shop for gifts with my mom during the holiday season,0.02,0.02,4.4,1,,,,
,,60c8467d9872c0d83f695499,6685aa9113c938e83b4f1ea0,670735432bfedf46fb341934,2024-10-09_22h01.37.672,WTP_SM_Choice,2022.2.1,Win32,60.60606061,,,,,,,,,,,,,,,,,,83,,,,,,,,,,0.02,2,1.3043,0,2,2,2,1,Take weekend trips with my partner to explore new cities,Planning future goals using a vision board with magazine cutouts and markers,0.03,0.02,1.1,0,,,,
,,60c8467d9872c0d83f695499,6685aa9113c938e83b4f1ea0,670735432bfedf46fb341934,2024-10-09_22h01.37.672,WTP_SM_Choice,2022.2.1,Win32,60.60606061,,,,,,,,,,,,,,,,,,84,,,,,,,,,,0.02,2,0.7866,0,3,3,3,1,Taking a peaceful walk through the neighborhood at sunset ,Play board games with friends on a cozy winter night by the fireplace,0.04,0.02,3.3,1,,,,
,,60c8467d9872c0d83f695499,6685aa9113c938e83b4f1ea0,670735432bfedf46fb341934,2024-10-09_22h01.37.672,WTP_SM_Choice,2022.2.1,Win32,60.60606061,,,,,,,,,,,,,,,,,,85,,,,,,,,,,0.02,2,0.929,0,4,4,4,1,Bake cookies with my child during the winter holidays,Sipping cappuccino and watching the rain from my living room window,0.05,0.02,3.3,0,,,,
,,60c8467d9872c0d83f695499,6685aa9113c938e83b4f1ea0,670735432bfedf46fb341934,2024-10-09_22h01.37.672,WTP_SM_Choice,2022.2.1,Win32,60.60606061,,,,,,,NAN,,NAN,2.09,3.91,,0,84,84,84,1,85,Sam,Acc,Participant_Images/60c8467d9872c0d83f695499/60c8467d9872c0d83f695499_Images/60c8467d9872c0d83f695499_Image_19.jpeg,did not like,3.602308302,,,,,,,,,,,,,,,,,,,,,,
,,60c8467d9872c0d83f695499,6685aa9113c938e83b4f1ea0,670735432bfedf46fb341934,2024-10-09_22h01.37.672,WTP_SM_Choice,2022.2.1,Win32,60.60606061,,,,,space,0.7217,NAN,,NAN,2.09,3.91,,0,85,85,85,1,86,Sam,Acc,Participant_Images/60c8467d9872c0d83f695499/60c8467d9872c0d83f695499_Images/60c8467d9872c0d83f695499_Image_9.jpeg,liked,4.106391878,,,,,,,,,,,,,,,,,,,,,,
,,60c8467d9872c0d83f695499,6685aa9113c938e83b4f1ea0,670735432bfedf46fb341934,2024-10-09_22h01.37.672,WTP_SM_Choice,2022.2.1,Win32,60.60606061,,,,,space,0.6531,NAN,,NAN,2.09,3.91,,0,86,86,86,1,87,Sam,Acc,Participant_Images/60c8467d9872c0d83f695499/60c8467d9872c0d83f695499_Images/60c8467d9872c0d83f695499_Image_22.jpeg,did not like,3.799433026,,,,,,,,,,,,,,,,,,,,,,
,,60c8467d9872c0d83f695499,6685aa9113c938e83b4f1ea0,670735432bfedf46fb341934,2024-10-09_22h01.37.672,WTP_SM_Choice,2022.2.1,Win32,60.60606061,,,,,space,0.5062,NAN,,NAN,2.09,3.91,,0,87,87,87,1,88,Sam,Acc,Participant_Images/60c8467d9872c0d83f695499/60c8467d9872c0d83f695499_Images/60c8467d9872c0d83f695499_Image_17.jpeg,liked,5.246980764,,,,,,,,,,,,,,,,,,,,,,
,,60c8467d9872c0d83f695499,6685aa9113c938e83b4f1ea0,670735432bfedf46fb341934,2024-10-09_22h01.37.672,WTP_SM_Choice,2022.2.1,Win32,60.60606061,,,,,space,0.467,NAN,,NAN,2.09,3.91,,0,88,88,88,1,89,Sam,Acc,Participant_Images/60c8467d9872c0d83f695499/60c8467d9872c0d83f695499_Images/60c8467d9872c0d83f695499_Image_14.jpeg,liked,3.30081769,,,,,,,,,,,,,,,,,,,,,,
,,60c8467d9872c0d83f695499,6685aa9113c938e83b4f1ea0,670735432bfedf46fb341934,2024-10-09_22h01.37.672,WTP_SM_Choice,2022.2.1,Win32,60.60606061,,,,,,,,,,,,,,,,,,86,,,,,,space,0.5539,space,0.5788,0.01,1,0.8769,0,0,0,0,1,Go on weekend camping trips with my husband in the forest,Sketching ideas for new art projects at my desk with soft lighting,0.01,0.03,1.1,0,,,,
,,60c8467d9872c0d83f695499,6685aa9113c938e83b4f1ea0,670735432bfedf46fb341934,2024-10-09_22h01.37.672,WTP_SM_Choice,2022.2.1,Win32,60.60606061,,,,,,,,,,,,,,,,,,87,,,,,,,,,,0.02,1,1.1463,0,1,1,1,1,Cook dinner with my family on a holiday evening while sharing stories,Taking a peaceful walk through the neighborhood at sunset ,0.02,0.03,4.4,0,,,,
,,60c8467d9872c0d83f695499,6685aa9113c938e83b4f1ea0,670735432bfedf46fb341934,2024-10-09_22h01.37.672,WTP_SM_Choice,2022.2.1,Win32,60.60606061,,,,,,,,,,,,,,,,,,88,,,,,,,,,,0.03,1,0.9429,0,2,2,2,1,Sketching ideas for new art projects at my desk with soft lighting,Play board games with friends on a cozy winter night by the fireplace,0.03,0.03,1.1,1,,,,
,,60c8467d9872c0d83f695499,6685aa9113c938e83b4f1ea0,670735432bfedf46fb341934,2024-10-09_22h01.37.672,WTP_SM_Choice,2022.2.1,Win32,60.60606061,,,,,,,,,,,,,,,,,,89,,,,,,,,,,0.03,2,0.9108,0,3,3,3,1,Play board games with friends on a cozy winter night by the fireplace,Do prolific studies while sitting on a comfy couch with a cup of cappuccino,0.04,0.03,3.3,0,,,,
,,60c8467d9872c0d83f695499,6685aa9113c938e83b4f1ea0,670735432bfedf46fb341934,2024-10-09_22h01.37.672,WTP_SM_Choice,2022.2.1,Win32,60.60606061,,,,,,,,,,,,,,,,,,90,,,,,,,,,,0.03,2,1.0313,0,4,4,4,1,Go to amusement parks with my husband on summer vacations,Experimenting with new recipes in the kitchen while listening to relaxing music,0.05,0.03,8.8,0,,,,
,,60c8467d9872c0d83f695499,6685aa9113c938e83b4f1ea0,670735432bfedf46fb341934,2024-10-09_22h01.37.672,WTP_SM_Choice,2022.2.1,Win32,60.60606061,,,,,,,NAN,,NAN,2.21,3.79,,0,89,89,89,1,90,Sam,Acc,Participant_Images/60c8467d9872c0d83f695499/60c8467d9872c0d83f695499_Images/60c8467d9872c0d83f695499_Image_5.jpeg,liked,1.661473164,,,,,,,,,,,,,,,,,,,,,,
,,60c8467d9872c0d83f695499,6685aa9113c938e83b4f1ea0,670735432bfedf46fb341934,2024-10-09_22h01.37.672,WTP_SM_Choice,2022.2.1,Win32,60.60606061,,,,,space,1.7775,NAN,,NAN,2.21,3.79,,0,90,90,90,1,91,Sam,Acc,Participant_Images/60c8467d9872c0d83f695499/60c8467d9872c0d83f695499_Images/60c8467d9872c0d83f695499_Image_21.jpeg,liked,3.613205605,,,,,,,,,,,,,,,,,,,,,,
,,60c8467d9872c0d83f695499,6685aa9113c938e83b4f1ea0,670735432bfedf46fb341934,2024-10-09_22h01.37.672,WTP_SM_Choice,2022.2.1,Win32,60.60606061,,,,,space,1.226,NAN,,NAN,2.21,3.79,,0,91,91,91,1,92,Sam,Acc,Participant_Images/60c8467d9872c0d83f695499/60c8467d9872c0d83f695499_Images/60c8467d9872c0d83f695499_Image_24.jpeg,liked,4.988446431,,,,,,,,,,,,,,,,,,,,,,
,,60c8467d9872c0d83f695499,6685aa9113c938e83b4f1ea0,670735432bfedf46fb341934,2024-10-09_22h01.37.672,WTP_SM_Choice,2022.2.1,Win32,60.60606061,,,,,space,0.5932,NAN,,NAN,2.21,3.79,,0,92,92,92,1,93,Sam,Acc,Participant_Images/60c8467d9872c0d83f695499/60c8467d9872c0d83f695499_Images/60c8467d9872c0d83f695499_Image_20.jpeg,liked,3.470791822,,,,,,,,,,,,,,,,,,,,,,
,,60c8467d9872c0d83f695499,6685aa9113c938e83b4f1ea0,670735432bfedf46fb341934,2024-10-09_22h01.37.672,WTP_SM_Choice,2022.2.1,Win32,60.60606061,,,,,space,0.5611,NAN,,NAN,2.21,3.79,,0,93,93,93,1,94,Sam,Acc,Participant_Images/60c8467d9872c0d83f695499/60c8467d9872c0d83f695499_Images/60c8467d9872c0d83f695499_Image_3.jpeg,did not like,3.820572462,,,,,,,,,,,,,,,,,,,,,,
,,60c8467d9872c0d83f695499,6685aa9113c938e83b4f1ea0,670735432bfedf46fb341934,2024-10-09_22h01.37.672,WTP_SM_Choice,2022.2.1,Win32,60.60606061,,,,,,,,,,,,,,,,,,91,,,,,,space,0.5706,space,0.4936,0.01,1,0.6199,0,0,0,0,1,Meditating in a quiet room with essential oils diffusing,Watch a movie marathon with my partner on a rainy Saturday evening at home,0.01,0.04,3.3,1,,,,
,,60c8467d9872c0d83f695499,6685aa9113c938e83b4f1ea0,670735432bfedf46fb341934,2024-10-09_22h01.37.672,WTP_SM_Choice,2022.2.1,Win32,60.60606061,,,,,,,,,,,,,,,,,,92,,,,,,,,,,0.02,1,0.9023,0,1,1,1,1,Meditating in a quiet room with essential oils diffusing,Grill with family during a summer barbecue in the backyard,0.02,0.04,8.8,1,,,,
,,60c8467d9872c0d83f695499,6685aa9113c938e83b4f1ea0,670735432bfedf46fb341934,2024-10-09_22h01.37.672,WTP_SM_Choice,2022.2.1,Win32,60.60606061,,,,,,,,,,,,,,,,,,93,,,,,,,,,,0.03,1,0.9799,0,2,2,2,1,Reading a non-fiction book to learn better lifestyle skills,Take weekend trips with my partner to explore new cities,0.03,0.04,1.1,1,,,,
,,60c8467d9872c0d83f695499,6685aa9113c938e83b4f1ea0,670735432bfedf46fb341934,2024-10-09_22h01.37.672,WTP_SM_Choice,2022.2.1,Win32,60.60606061,,,,,,,,,,,,,,,,,,94,,,,,,,,,,0.04,2,1.3319,0,3,3,3,1,Relax and watch hulu specifically the handmaids tale,Shop for gifts with my mom during the holiday season,0.04,0.04,4.4,1,,,,
,,60c8467d9872c0d83f695499,6685aa9113c938e83b4f1ea0,670735432bfedf46fb341934,2024-10-09_22h01.37.672,WTP_SM_Choice,2022.2.1,Win32,60.60606061,,,,,,,,,,,,,,,,,,95,,,,,,,,,,0.04,2,0.9584,0,4,4,4,1,Sipping cappuccino and watching the rain from my living room window,Cook dinner with my family on a holiday evening while sharing stories,0.05,0.04,4.4,1,,,,
,,60c8467d9872c0d83f695499,6685aa9113c938e83b4f1ea0,670735432bfedf46fb341934,2024-10-09_22h01.37.672,WTP_SM_Choice,2022.2.1,Win32,60.60606061,,,,,,,NAN,,NAN,2.35,3.65,,0,94,94,94,1,95,Sam,Acc,Participant_Images/60c8467d9872c0d83f695499/60c8467d9872c0d83f695499_Images/60c8467d9872c0d83f695499_Image_11.jpeg,did not like,2.455989137,,,,,,,,,,,,,,,,,,,,,,
,,60c8467d9872c0d83f695499,6685aa9113c938e83b4f1ea0,670735432bfedf46fb341934,2024-10-09_22h01.37.672,WTP_SM_Choice,2022.2.1,Win32,60.60606061,,,,,space,0.7137,NAN,,NAN,2.35,3.65,,0,95,95,95,1,96,Sam,Acc,Participant_Images/60c8467d9872c0d83f695499/60c8467d9872c0d83f695499_Images/60c8467d9872c0d83f695499_Image_4.jpeg,liked,3.79605092,,,,,,,,,,,,,,,,,,,,,,
,,60c8467d9872c0d83f695499,6685aa9113c938e83b4f1ea0,670735432bfedf46fb341934,2024-10-09_22h01.37.672,WTP_SM_Choice,2022.2.1,Win32,60.60606061,,,,,space,0.7345,NAN,,NAN,2.35,3.65,,0,96,96,96,1,97,Sam,Acc,Participant_Images/60c8467d9872c0d83f695499/60c8467d9872c0d83f695499_Images/60c8467d9872c0d83f695499_Image_23.jpeg,liked,3.562416326,,,,,,,,,,,,,,,,,,,,,,
,,60c8467d9872c0d83f695499,6685aa9113c938e83b4f1ea0,670735432bfedf46fb341934,2024-10-09_22h01.37.672,WTP_SM_Choice,2022.2.1,Win32,60.60606061,,,,,space,0.643,NAN,,NAN,2.35,3.65,,0,97,97,97,1,98,Sam,Acc,Participant_Images/60c8467d9872c0d83f695499/60c8467d9872c0d83f695499_Images/60c8467d9872c0d83f695499_Image_12.jpeg,liked,2.843822497,,,,,,,,,,,,,,,,,,,,,,
,,60c8467d9872c0d83f695499,6685aa9113c938e83b4f1ea0,670735432bfedf46fb341934,2024-10-09_22h01.37.672,WTP_SM_Choice,2022.2.1,Win32,60.60606061,,,,,space,0.4962,NAN,,NAN,2.35,3.65,,0,98,98,98,1,99,Sam,Acc,Participant_Images/60c8467d9872c0d83f695499/60c8467d9872c0d83f695499_Images/60c8467d9872c0d83f695499_Image_10.jpeg,liked,3.546495948,,,,,,,,,,,,,,,,,,,,,,
,,60c8467d9872c0d83f695499,6685aa9113c938e83b4f1ea0,670735432bfedf46fb341934,2024-10-09_22h01.37.672,WTP_SM_Choice,2022.2.1,Win32,60.60606061,,,,,,,,,,,,,,,,,,96,,,,,,space,0.6247,space,0.5129,0.01,1,0.8311,0,0,0,0,1,Go to the zoo with my child on a bright spring day,Experimenting with new recipes in the kitchen while listening to relaxing music,0.01,0.05,3.3,0,,,,
,,60c8467d9872c0d83f695499,6685aa9113c938e83b4f1ea0,670735432bfedf46fb341934,2024-10-09_22h01.37.672,WTP_SM_Choice,2022.2.1,Win32,60.60606061,,,,,,,,,,,,,,,,,,97,,,,,,,,,,0.02,1,0.8604,0,1,1,1,1,Sipping cappuccino and watching the rain from my living room window,Go on weekend camping trips with my husband in the forest,0.02,0.05,1.1,1,,,,
,,60c8467d9872c0d83f695499,6685aa9113c938e83b4f1ea0,670735432bfedf46fb341934,2024-10-09_22h01.37.672,WTP_SM_Choice,2022.2.1,Win32,60.60606061,,,,,,,,,,,,,,,,,,98,,,,,,,,,,0.03,1,0.9909,0,2,2,2,1,Sipping cappuccino and watching the rain from my living room window,Play board games with friends on a cozy winter night by the fireplace,0.03,0.05,1.1,1,,,,
,,60c8467d9872c0d83f695499,6685aa9113c938e83b4f1ea0,670735432bfedf46fb341934,2024-10-09_22h01.37.672,WTP_SM_Choice,2022.2.1,Win32,60.60606061,,,,,,,,,,,,,,,,,,99,,,,,,,,,,0.04,1,1.3783,0,3,3,3,1,Bake cookies with my child during the winter holidays,Sketching ideas for new art projects at my desk with soft lighting,0.04,0.05,3.3,0,,,,
,,60c8467d9872c0d83f695499,6685aa9113c938e83b4f1ea0,670735432bfedf46fb341934,2024-10-09_22h01.37.672,WTP_SM_Choice,2022.2.1,Win32,60.60606061,,,,,,,,,,,,,,,,,,100,,,,,,,,,,0.05,1,1.038,0,4,4,4,1,Go on weekend camping trips with my husband in the forest,Planning future goals using a vision board with magazine cutouts and markers,0.05,0.05,4.4,0,,,,
,,60c8467d9872c0d83f695499,6685aa9113c938e83b4f1ea0,670735432bfedf46fb341934,2024-10-09_22h01.37.672,WTP_SM_Choice,2022.2.1,Win32,60.60606061,,,,,,,3,,7,2.5,3.5,,0,99,99,99,1,100,Sam,Acc,Participant_Images/60c8467d9872c0d83f695499/60c8467d9872c0d83f695499_Images/60c8467d9872c0d83f695499_Image_25.jpeg,liked,1.672012706,,,,,,,,,,,,,,,,,,,space,0.6814,,
,,60c8467d9872c0d83f695499,6685aa9113c938e83b4f1ea0,670735432bfedf46fb341934,2024-10-09_22h01.37.672,WTP_SM_Choice,2022.2.1,Win32,60.60606061,,,,,,,,,,,,,,,,,,,,,,,,,,,,,,,,,,,,,,,,,,,,space,3.3245
