endwelcomescreen_keys.keys,endwelcomescreen_keys.rt,participant,date,expName,psychopyVersion,OS,frameRate,endinstructionscreen_keys.keys,endinstructionscreen_keys.rt,endpartnermatch_keys.keys,endpartnermatch_keys.rt,sharenextphoto_key.keys,sharenextphoto_key.rt,salience_rating,key_resp.keys,stress_level,subtract_bonus,TOTAL_TASK_BONUS,stresslevel_keypress.keys,entiretaskloop.thisRepN,entiretaskloop.thisTrialN,entiretaskloop.thisN,entiretaskloop.thisIndex,entiretaskloop.ran,TrialNumber,Partner,Condition,Photos,Feedback,FeedbackWait,WTP_ins_keys1.keys,WTP_ins_keys1.rt,WTP_ins_keys2.keys,WTP_ins_keys2.rt,decision_price,responses.keys,responses.rt,WTPTaskLoop.thisRepN,WTPTaskLoop.thisTrialN,WTPTaskLoop.thisN,WTPTaskLoop.thisIndex,WTPTaskLoop.ran,right,left,leftmoney,rightmoney,WTP_ITI,social_left,Resume_keys.keys,Resume_keys.rt,key_resp.rt,end_screen_keys.keys,end_screen_keys.rt
space,3.9532,60fdc3ada5f9d93d7976cc0c,2024-09-13_12h44.36.877,WTP_SM_Choice,2022.2.1,MacIntel,60.24096386,,,,,,,,,,,,,,,,,,,,,,,,,,,,,,,,,,,,,,,,,,,,,,
,,60fdc3ada5f9d93d7976cc0c,2024-09-13_12h44.36.877,WTP_SM_Choice,2022.2.1,MacIntel,60.24096386,space,1.0546,,,,,,,,,,,,,,,,,,,,,,,,,,,,,,,,,,,,,,,,,,,,
,,60fdc3ada5f9d93d7976cc0c,2024-09-13_12h44.36.877,WTP_SM_Choice,2022.2.1,MacIntel,60.24096386,,,space,1.4483,space,0.5793,NAN,,NAN,0,6,,0,0,0,0,1,1,Charlie,Rej,Participant_Images/60fdc3ada5f9d93d7976cc0c/60fdc3ada5f9d93d7976cc0c_Images/60fdc3ada5f9d93d7976cc0c_Image_17.jpeg,liked,3.613205605,,,,,,,,,,,,,,,,,,,,,,,
,,60fdc3ada5f9d93d7976cc0c,2024-09-13_12h44.36.877,WTP_SM_Choice,2022.2.1,MacIntel,60.24096386,,,,,space,2.644,NAN,,NAN,0,6,,0,1,1,1,1,2,Charlie,Rej,Participant_Images/60fdc3ada5f9d93d7976cc0c/60fdc3ada5f9d93d7976cc0c_Images/60fdc3ada5f9d93d7976cc0c_Image_20.jpeg,did not like,4.988446431,,,,,,,,,,,,,,,,,,,,,,,
,,60fdc3ada5f9d93d7976cc0c,2024-09-13_12h44.36.877,WTP_SM_Choice,2022.2.1,MacIntel,60.24096386,,,,,space,10.3891,NAN,,NAN,0,6,,0,2,2,2,1,3,Charlie,Rej,Participant_Images/60fdc3ada5f9d93d7976cc0c/60fdc3ada5f9d93d7976cc0c_Images/60fdc3ada5f9d93d7976cc0c_Image_9.jpeg,liked,3.470791822,,,,,,,,,,,,,,,,,,,,,,,
,,60fdc3ada5f9d93d7976cc0c,2024-09-13_12h44.36.877,WTP_SM_Choice,2022.2.1,MacIntel,60.24096386,,,,,space,0.4487,NAN,,NAN,0,6,,0,3,3,3,1,4,Charlie,Rej,Participant_Images/60fdc3ada5f9d93d7976cc0c/60fdc3ada5f9d93d7976cc0c_Images/60fdc3ada5f9d93d7976cc0c_Image_15.jpeg,did not like,3.820572462,,,,,,,,,,,,,,,,,,,,,,,
,,60fdc3ada5f9d93d7976cc0c,2024-09-13_12h44.36.877,WTP_SM_Choice,2022.2.1,MacIntel,60.24096386,,,,,,,,,,,,,,,,,,1,,,,,,space,0.3579,space,4.6352,0.01,1,6.2085,0,0,0,0,1,Talk on the phone and catch up with friends,Bake a new dessert for the first time,0.01,0.01,4.4,0,,,,,
,,60fdc3ada5f9d93d7976cc0c,2024-09-13_12h44.36.877,WTP_SM_Choice,2022.2.1,MacIntel,60.24096386,,,,,,,,,,,,,,,,,,2,,,,,,,,,,0.01,2,0.539,0,1,1,1,1,Needlepoint a canvas on a rainy day,Drink a fun cocktail together with my parents,0.02,0.01,8.8,1,,,,,
,,60fdc3ada5f9d93d7976cc0c,2024-09-13_12h44.36.877,WTP_SM_Choice,2022.2.1,MacIntel,60.24096386,,,,,,,,,,,,,,,,,,3,,,,,,,,,,0.03,1,0.3952,0,2,2,2,1,Listen to my favorite music on my record player,Drink a fun cocktail together with my parents,0.03,0.01,3.3,1,,,,,
,,60fdc3ada5f9d93d7976cc0c,2024-09-13_12h44.36.877,WTP_SM_Choice,2022.2.1,MacIntel,60.24096386,,,,,,,,,,,,,,,,,,4,,,,,,,,,,0.01,2,0.415,0,3,3,3,1,Scroll on my phone in bed,Try a new restaurant with my friends,0.04,0.01,1.1,1,,,,,
,,60fdc3ada5f9d93d7976cc0c,2024-09-13_12h44.36.877,WTP_SM_Choice,2022.2.1,MacIntel,60.24096386,,,,,,,,,,,,,,,,,,5,,,,,,,,,,0.05,1,1.0922,0,4,4,4,1,Start a new reality tv show,Cook a new recipe with my mom,0.05,0.01,1.1,1,,,,,
,,60fdc3ada5f9d93d7976cc0c,2024-09-13_12h44.36.877,WTP_SM_Choice,2022.2.1,MacIntel,60.24096386,,,,,,,NAN,,NAN,0.11,5.89,,0,4,4,4,1,5,Charlie,Rej,Participant_Images/60fdc3ada5f9d93d7976cc0c/60fdc3ada5f9d93d7976cc0c_Images/60fdc3ada5f9d93d7976cc0c_Image_24.jpeg,did not like,2.455989137,,,,,,,,,,,,,,,,,,,,,,,
,,60fdc3ada5f9d93d7976cc0c,2024-09-13_12h44.36.877,WTP_SM_Choice,2022.2.1,MacIntel,60.24096386,,,,,space,3.9216,NAN,,NAN,0.11,5.89,,0,5,5,5,1,6,Charlie,Rej,Participant_Images/60fdc3ada5f9d93d7976cc0c/60fdc3ada5f9d93d7976cc0c_Images/60fdc3ada5f9d93d7976cc0c_Image_10.jpeg,liked,3.79605092,,,,,,,,,,,,,,,,,,,,,,,
,,60fdc3ada5f9d93d7976cc0c,2024-09-13_12h44.36.877,WTP_SM_Choice,2022.2.1,MacIntel,60.24096386,,,,,space,0.784,NAN,,NAN,0.11,5.89,,0,6,6,6,1,7,Charlie,Rej,Participant_Images/60fdc3ada5f9d93d7976cc0c/60fdc3ada5f9d93d7976cc0c_Images/60fdc3ada5f9d93d7976cc0c_Image_14.jpeg,did not like,3.562416326,,,,,,,,,,,,,,,,,,,,,,,
,,60fdc3ada5f9d93d7976cc0c,2024-09-13_12h44.36.877,WTP_SM_Choice,2022.2.1,MacIntel,60.24096386,,,,,space,0.101,NAN,,NAN,0.11,5.89,,0,7,7,7,1,8,Charlie,Rej,Participant_Images/60fdc3ada5f9d93d7976cc0c/60fdc3ada5f9d93d7976cc0c_Images/60fdc3ada5f9d93d7976cc0c_Image_23.jpeg,did not like,2.843822497,,,,,,,,,,,,,,,,,,,,,,,
,,60fdc3ada5f9d93d7976cc0c,2024-09-13_12h44.36.877,WTP_SM_Choice,2022.2.1,MacIntel,60.24096386,,,,,space,6.1533,NAN,,NAN,0.11,5.89,,0,8,8,8,1,9,Charlie,Rej,Participant_Images/60fdc3ada5f9d93d7976cc0c/60fdc3ada5f9d93d7976cc0c_Images/60fdc3ada5f9d93d7976cc0c_Image_6.jpeg,liked,3.546495948,,,,,,,,,,,,,,,,,,,,,,,
,,60fdc3ada5f9d93d7976cc0c,2024-09-13_12h44.36.877,WTP_SM_Choice,2022.2.1,MacIntel,60.24096386,,,,,,,,,,,,,,,,,,6,,,,,,space,6.4413,space,1.2856,0.01,1,0.3488,0,0,0,0,1,Listen to my favorite music on my record player,Go on a walk with my best friend,0.01,0.02,3.3,1,,,,,
,,60fdc3ada5f9d93d7976cc0c,2024-09-13_12h44.36.877,WTP_SM_Choice,2022.2.1,MacIntel,60.24096386,,,,,,,,,,,,,,,,,,7,,,,,,,,,,0.02,2,0.9493,0,1,1,1,1,Play a board game with my family,Shop online on my laptop,0.02,0.02,1.1,0,,,,,
,,60fdc3ada5f9d93d7976cc0c,2024-09-13_12h44.36.877,WTP_SM_Choice,2022.2.1,MacIntel,60.24096386,,,,,,,,,,,,,,,,,,8,,,,,,,,,,0.03,1,1.1266,0,2,2,2,1,Watch our favorite tv show with my boyfiend,Bake a new dessert for the first time,0.03,0.02,1.1,0,,,,,
,,60fdc3ada5f9d93d7976cc0c,2024-09-13_12h44.36.877,WTP_SM_Choice,2022.2.1,MacIntel,60.24096386,,,,,,,,,,,,,,,,,,9,,,,,,,,,,0.04,1,2.7875,0,3,3,3,1,Go on a long walk,Talk on the phone and catch up with friends,0.04,0.02,4.4,1,,,,,
,,60fdc3ada5f9d93d7976cc0c,2024-09-13_12h44.36.877,WTP_SM_Choice,2022.2.1,MacIntel,60.24096386,,,,,,,,,,,,,,,,,,10,,,,,,,,,,0.02,2,0.3808,0,4,4,4,1,Read our books in bed with my boyfriend,Listen to my favorite music on my record player,0.05,0.02,1.1,0,,,,,
,,60fdc3ada5f9d93d7976cc0c,2024-09-13_12h44.36.877,WTP_SM_Choice,2022.2.1,MacIntel,60.24096386,,,,,,,NAN,,NAN,0.23,5.77,,0,9,9,9,1,10,Charlie,Rej,Participant_Images/60fdc3ada5f9d93d7976cc0c/60fdc3ada5f9d93d7976cc0c_Images/60fdc3ada5f9d93d7976cc0c_Image_12.jpeg,did not like,1.672012706,,,,,,,,,,,,,,,,,,,,,,,
,,60fdc3ada5f9d93d7976cc0c,2024-09-13_12h44.36.877,WTP_SM_Choice,2022.2.1,MacIntel,60.24096386,,,,,space,11.228,NAN,,NAN,0.23,5.77,,0,10,10,10,1,11,Charlie,Rej,Participant_Images/60fdc3ada5f9d93d7976cc0c/60fdc3ada5f9d93d7976cc0c_Images/60fdc3ada5f9d93d7976cc0c_Image_25.jpeg,did not like,4.942172136,,,,,,,,,,,,,,,,,,,,,,,
,,60fdc3ada5f9d93d7976cc0c,2024-09-13_12h44.36.877,WTP_SM_Choice,2022.2.1,MacIntel,60.24096386,,,,,space,3.0977,NAN,,NAN,0.23,5.77,,0,11,11,11,1,12,Charlie,Rej,Participant_Images/60fdc3ada5f9d93d7976cc0c/60fdc3ada5f9d93d7976cc0c_Images/60fdc3ada5f9d93d7976cc0c_Image_4.jpeg,did not like,2.50187214,,,,,,,,,,,,,,,,,,,,,,,
,,60fdc3ada5f9d93d7976cc0c,2024-09-13_12h44.36.877,WTP_SM_Choice,2022.2.1,MacIntel,60.24096386,,,,,space,0.65,NAN,,NAN,0.23,5.77,,0,12,12,12,1,13,Charlie,Rej,Participant_Images/60fdc3ada5f9d93d7976cc0c/60fdc3ada5f9d93d7976cc0c_Images/60fdc3ada5f9d93d7976cc0c_Image_1.jpeg,did not like,2.071164779,,,,,,,,,,,,,,,,,,,,,,,
,,60fdc3ada5f9d93d7976cc0c,2024-09-13_12h44.36.877,WTP_SM_Choice,2022.2.1,MacIntel,60.24096386,,,,,space,1.1839,NAN,,NAN,0.23,5.77,,0,13,13,13,1,14,Charlie,Rej,Participant_Images/60fdc3ada5f9d93d7976cc0c/60fdc3ada5f9d93d7976cc0c_Images/60fdc3ada5f9d93d7976cc0c_Image_7.jpeg,did not like,5.336503566,,,,,,,,,,,,,,,,,,,,,,,
,,60fdc3ada5f9d93d7976cc0c,2024-09-13_12h44.36.877,WTP_SM_Choice,2022.2.1,MacIntel,60.24096386,,,,,,,,,,,,,,,,,,11,,,,,,space,0.3939,space,0.4697,0.01,1,0.436,0,0,0,0,1,Scroll on my phone in bed,Watch our favorite tv show with my boyfiend,0.01,0.03,3.3,1,,,,,
,,60fdc3ada5f9d93d7976cc0c,2024-09-13_12h44.36.877,WTP_SM_Choice,2022.2.1,MacIntel,60.24096386,,,,,,,,,,,,,,,,,,12,,,,,,,,,,0.03,2,0.5392,0,1,1,1,1,Shop online on my laptop,Cook a new recipe with my mom,0.02,0.03,4.4,1,,,,,
,,60fdc3ada5f9d93d7976cc0c,2024-09-13_12h44.36.877,WTP_SM_Choice,2022.2.1,MacIntel,60.24096386,,,,,,,,,,,,,,,,,,13,,,,,,,,,,0.03,2,0.6224,0,2,2,2,1,Listen to my favorite music on my record player,Travel to a new place with my boyfriend,0.03,0.03,1.1,1,,,,,
,,60fdc3ada5f9d93d7976cc0c,2024-09-13_12h44.36.877,WTP_SM_Choice,2022.2.1,MacIntel,60.24096386,,,,,,,,,,,,,,,,,,14,,,,,,,,,,0.04,1,3.6021,0,3,3,3,1,Go on a walk with my best friend,Needlepoint a canvas on a rainy day,0.04,0.03,3.3,0,,,,,
,,60fdc3ada5f9d93d7976cc0c,2024-09-13_12h44.36.877,WTP_SM_Choice,2022.2.1,MacIntel,60.24096386,,,,,,,,,,,,,,,,,,15,,,,,,,,,,0.05,1,2.2515,0,4,4,4,1,Needlepoint a canvas on a rainy day,Talk on the phone and catch up with friends,0.05,0.03,4.4,1,,,,,
,,60fdc3ada5f9d93d7976cc0c,2024-09-13_12h44.36.877,WTP_SM_Choice,2022.2.1,MacIntel,60.24096386,,,,,,,NAN,,NAN,0.39,5.61,,0,14,14,14,1,15,Charlie,Rej,Participant_Images/60fdc3ada5f9d93d7976cc0c/60fdc3ada5f9d93d7976cc0c_Images/60fdc3ada5f9d93d7976cc0c_Image_2.jpeg,did not like,2.642157193,,,,,,,,,,,,,,,,,,,,,,,
,,60fdc3ada5f9d93d7976cc0c,2024-09-13_12h44.36.877,WTP_SM_Choice,2022.2.1,MacIntel,60.24096386,,,,,space,0.7085,NAN,,NAN,0.39,5.61,,0,15,15,15,1,16,Charlie,Rej,Participant_Images/60fdc3ada5f9d93d7976cc0c/60fdc3ada5f9d93d7976cc0c_Images/60fdc3ada5f9d93d7976cc0c_Image_18.jpeg,did not like,4.456234322,,,,,,,,,,,,,,,,,,,,,,,
,,60fdc3ada5f9d93d7976cc0c,2024-09-13_12h44.36.877,WTP_SM_Choice,2022.2.1,MacIntel,60.24096386,,,,,space,1.5628,NAN,,NAN,0.39,5.61,,0,16,16,16,1,17,Charlie,Rej,Participant_Images/60fdc3ada5f9d93d7976cc0c/60fdc3ada5f9d93d7976cc0c_Images/60fdc3ada5f9d93d7976cc0c_Image_13.jpeg,did not like,4.438512181,,,,,,,,,,,,,,,,,,,,,,,
,,60fdc3ada5f9d93d7976cc0c,2024-09-13_12h44.36.877,WTP_SM_Choice,2022.2.1,MacIntel,60.24096386,,,,,space,3.6239,NAN,,NAN,0.39,5.61,,0,17,17,17,1,18,Charlie,Rej,Participant_Images/60fdc3ada5f9d93d7976cc0c/60fdc3ada5f9d93d7976cc0c_Images/60fdc3ada5f9d93d7976cc0c_Image_22.jpeg,did not like,2.682944783,,,,,,,,,,,,,,,,,,,,,,,
,,60fdc3ada5f9d93d7976cc0c,2024-09-13_12h44.36.877,WTP_SM_Choice,2022.2.1,MacIntel,60.24096386,,,,,space,0.0183,NAN,,NAN,0.39,5.61,,0,18,18,18,1,19,Charlie,Rej,Participant_Images/60fdc3ada5f9d93d7976cc0c/60fdc3ada5f9d93d7976cc0c_Images/60fdc3ada5f9d93d7976cc0c_Image_19.jpeg,did not like,4.51984296,,,,,,,,,,,,,,,,,,,,,,,
,,60fdc3ada5f9d93d7976cc0c,2024-09-13_12h44.36.877,WTP_SM_Choice,2022.2.1,MacIntel,60.24096386,,,,,,,,,,,,,,,,,,16,,,,,,space,1.3227,space,0.542,0.04,2,1.009,0,0,0,0,1,Drink a fun cocktail together with my parents,Scroll on my phone in bed,0.01,0.04,1.1,0,,,,,
,,60fdc3ada5f9d93d7976cc0c,2024-09-13_12h44.36.877,WTP_SM_Choice,2022.2.1,MacIntel,60.24096386,,,,,,,,,,,,,,,,,,17,,,,,,,,,,0.02,1,0.8348,0,1,1,1,1,Try a new restaurant with my friends,Bake a new dessert for the first time,0.02,0.04,8.8,0,,,,,
,,60fdc3ada5f9d93d7976cc0c,2024-09-13_12h44.36.877,WTP_SM_Choice,2022.2.1,MacIntel,60.24096386,,,,,,,,,,,,,,,,,,18,,,,,,,,,,0.03,1,0.5711,0,2,2,2,1,Drink a nice bottle of wine while watching a show,Travel to a new place with my boyfriend,0.03,0.04,3.3,1,,,,,
,,60fdc3ada5f9d93d7976cc0c,2024-09-13_12h44.36.877,WTP_SM_Choice,2022.2.1,MacIntel,60.24096386,,,,,,,,,,,,,,,,,,19,,,,,,,,,,0.04,1,0.2908,0,3,3,3,1,Cook a delicious meal for dinner,Try a new restaurant with my friends,0.04,0.04,3.3,1,,,,,
,,60fdc3ada5f9d93d7976cc0c,2024-09-13_12h44.36.877,WTP_SM_Choice,2022.2.1,MacIntel,60.24096386,,,,,,,,,,,,,,,,,,20,,,,,,,,,,0.04,2,0.441,0,4,4,4,1,Bake a new dessert for the first time,Read our books in bed with my boyfriend,0.05,0.04,1.1,1,,,,,
,,60fdc3ada5f9d93d7976cc0c,2024-09-13_12h44.36.877,WTP_SM_Choice,2022.2.1,MacIntel,60.24096386,,,,,,,NAN,,NAN,0.56,5.44,,0,19,19,19,1,20,Charlie,Rej,Participant_Images/60fdc3ada5f9d93d7976cc0c/60fdc3ada5f9d93d7976cc0c_Images/60fdc3ada5f9d93d7976cc0c_Image_11.jpeg,did not like,3.195382774,,,,,,,,,,,,,,,,,,,,,,,
,,60fdc3ada5f9d93d7976cc0c,2024-09-13_12h44.36.877,WTP_SM_Choice,2022.2.1,MacIntel,60.24096386,,,,,space,0.6655,NAN,,NAN,0.56,5.44,,0,20,20,20,1,21,Charlie,Rej,Participant_Images/60fdc3ada5f9d93d7976cc0c/60fdc3ada5f9d93d7976cc0c_Images/60fdc3ada5f9d93d7976cc0c_Image_21.jpeg,did not like,1.779333479,,,,,,,,,,,,,,,,,,,,,,,
,,60fdc3ada5f9d93d7976cc0c,2024-09-13_12h44.36.877,WTP_SM_Choice,2022.2.1,MacIntel,60.24096386,,,,,space,6.8251,NAN,,NAN,0.56,5.44,,0,21,21,21,1,22,Charlie,Rej,Participant_Images/60fdc3ada5f9d93d7976cc0c/60fdc3ada5f9d93d7976cc0c_Images/60fdc3ada5f9d93d7976cc0c_Image_3.jpeg,liked,4.312468682,,,,,,,,,,,,,,,,,,,,,,,
,,60fdc3ada5f9d93d7976cc0c,2024-09-13_12h44.36.877,WTP_SM_Choice,2022.2.1,MacIntel,60.24096386,,,,,space,0.6855,NAN,,NAN,0.56,5.44,,0,22,22,22,1,23,Charlie,Rej,Participant_Images/60fdc3ada5f9d93d7976cc0c/60fdc3ada5f9d93d7976cc0c_Images/60fdc3ada5f9d93d7976cc0c_Image_16.jpeg,liked,4.940433059,,,,,,,,,,,,,,,,,,,,,,,
,,60fdc3ada5f9d93d7976cc0c,2024-09-13_12h44.36.877,WTP_SM_Choice,2022.2.1,MacIntel,60.24096386,,,,,space,0.6244,NAN,,NAN,0.56,5.44,,0,23,23,23,1,24,Charlie,Rej,Participant_Images/60fdc3ada5f9d93d7976cc0c/60fdc3ada5f9d93d7976cc0c_Images/60fdc3ada5f9d93d7976cc0c_Image_5.jpeg,liked,2.7105123,,,,,,,,,,,,,,,,,,,,,,,
,,60fdc3ada5f9d93d7976cc0c,2024-09-13_12h44.36.877,WTP_SM_Choice,2022.2.1,MacIntel,60.24096386,,,,,,,,,,,,,,,,,,21,,,,,,space,0.6937,space,0.518,0.01,1,0.4478,0,0,0,0,1,Scroll on my phone in bed,Go on a walk with my best friend,0.01,0.05,8.8,1,,,,,
,,60fdc3ada5f9d93d7976cc0c,2024-09-13_12h44.36.877,WTP_SM_Choice,2022.2.1,MacIntel,60.24096386,,,,,,,,,,,,,,,,,,22,,,,,,,,,,0.05,2,1.4725,0,1,1,1,1,Needlepoint a canvas on a rainy day,Read our books in bed with my boyfriend,0.02,0.05,4.4,1,,,,,
,,60fdc3ada5f9d93d7976cc0c,2024-09-13_12h44.36.877,WTP_SM_Choice,2022.2.1,MacIntel,60.24096386,,,,,,,,,,,,,,,,,,23,,,,,,,,,,0.03,1,0.4658,0,2,2,2,1,Go on a long walk,Travel to a new place with my boyfriend,0.03,0.05,1.1,1,,,,,
,,60fdc3ada5f9d93d7976cc0c,2024-09-13_12h44.36.877,WTP_SM_Choice,2022.2.1,MacIntel,60.24096386,,,,,,,,,,,,,,,,,,24,,,,,,,,,,0.05,2,0.5231,0,3,3,3,1,Play a board game with my family,Read a book in the park,0.04,0.05,4.4,0,,,,,
,,60fdc3ada5f9d93d7976cc0c,2024-09-13_12h44.36.877,WTP_SM_Choice,2022.2.1,MacIntel,60.24096386,,,,,,,,,,,,,,,,,,25,,,,,,,,,,0.05,1,0.3365,0,4,4,4,1,Play a board game with my family,Bake a new dessert for the first time,0.05,0.05,3.3,0,,,,,
,,60fdc3ada5f9d93d7976cc0c,2024-09-13_12h44.36.877,WTP_SM_Choice,2022.2.1,MacIntel,60.24096386,,,,,,,4,,4,0.75,5.25,,0,24,24,24,1,25,Charlie,Rej,Participant_Images/60fdc3ada5f9d93d7976cc0c/60fdc3ada5f9d93d7976cc0c_Images/60fdc3ada5f9d93d7976cc0c_Image_8.jpeg,did not like,3.602308302,,,,,,,,,,,,,,,,,,,space,0.8269,,,
,,60fdc3ada5f9d93d7976cc0c,2024-09-13_12h44.36.877,WTP_SM_Choice,2022.2.1,MacIntel,60.24096386,,,space,1.8936,space,0.3784,NAN,,NAN,0.75,5.25,,0,25,25,25,1,26,Alex,Rej,Participant_Images/60fdc3ada5f9d93d7976cc0c/60fdc3ada5f9d93d7976cc0c_Images/60fdc3ada5f9d93d7976cc0c_Image_2.jpeg,did not like,4.106391878,,,,,,,,,,,,,,,,,,,,,,,
,,60fdc3ada5f9d93d7976cc0c,2024-09-13_12h44.36.877,WTP_SM_Choice,2022.2.1,MacIntel,60.24096386,,,,,space,0.4079,NAN,,NAN,0.75,5.25,,0,26,26,26,1,27,Alex,Rej,Participant_Images/60fdc3ada5f9d93d7976cc0c/60fdc3ada5f9d93d7976cc0c_Images/60fdc3ada5f9d93d7976cc0c_Image_12.jpeg,did not like,3.799433026,,,,,,,,,,,,,,,,,,,,,,,
,,60fdc3ada5f9d93d7976cc0c,2024-09-13_12h44.36.877,WTP_SM_Choice,2022.2.1,MacIntel,60.24096386,,,,,space,0.2524,NAN,,NAN,0.75,5.25,,0,27,27,27,1,28,Alex,Rej,Participant_Images/60fdc3ada5f9d93d7976cc0c/60fdc3ada5f9d93d7976cc0c_Images/60fdc3ada5f9d93d7976cc0c_Image_11.jpeg,liked,5.246980764,,,,,,,,,,,,,,,,,,,,,,,
,,60fdc3ada5f9d93d7976cc0c,2024-09-13_12h44.36.877,WTP_SM_Choice,2022.2.1,MacIntel,60.24096386,,,,,space,2.5989,NAN,,NAN,0.75,5.25,,0,28,28,28,1,29,Alex,Rej,Participant_Images/60fdc3ada5f9d93d7976cc0c/60fdc3ada5f9d93d7976cc0c_Images/60fdc3ada5f9d93d7976cc0c_Image_15.jpeg,liked,3.30081769,,,,,,,,,,,,,,,,,,,,,,,
,,60fdc3ada5f9d93d7976cc0c,2024-09-13_12h44.36.877,WTP_SM_Choice,2022.2.1,MacIntel,60.24096386,,,,,,,,,,,,,,,,,,26,,,,,,space,4.6985,space,0.795,0.01,2,0.8656,0,0,0,0,1,Listen to my favorite music on my record player,Watch our favorite tv show with my boyfiend,0.01,0.01,4.4,1,,,,,
,,60fdc3ada5f9d93d7976cc0c,2024-09-13_12h44.36.877,WTP_SM_Choice,2022.2.1,MacIntel,60.24096386,,,,,,,,,,,,,,,,,,27,,,,,,,,,,0.01,2,0.1876,0,1,1,1,1,Drink a nice bottle of wine while watching a show,Play a board game with my family,0.02,0.01,3.3,1,,,,,
,,60fdc3ada5f9d93d7976cc0c,2024-09-13_12h44.36.877,WTP_SM_Choice,2022.2.1,MacIntel,60.24096386,,,,,,,,,,,,,,,,,,28,,,,,,,,,,0.03,1,0.0003,0,2,2,2,1,Start a new reality tv show,Try a new restaurant with my friends,0.03,0.01,3.3,1,,,,,
,,60fdc3ada5f9d93d7976cc0c,2024-09-13_12h44.36.877,WTP_SM_Choice,2022.2.1,MacIntel,60.24096386,,,,,,,,,,,,,,,,,,29,,,,,,,,,,0.04,1,0.0005,0,3,3,3,1,Drink a fun cocktail together with my parents,Bake a new dessert for the first time,0.04,0.01,4.4,0,,,,,
,,60fdc3ada5f9d93d7976cc0c,2024-09-13_12h44.36.877,WTP_SM_Choice,2022.2.1,MacIntel,60.24096386,,,,,,,,,,,,,,,,,,30,,,,,,,,,,0.01,2,0.1328,0,4,4,4,1,Cook a delicious meal for dinner,Talk on the phone and catch up with friends,0.05,0.01,8.8,1,,,,,
,,60fdc3ada5f9d93d7976cc0c,2024-09-13_12h44.36.877,WTP_SM_Choice,2022.2.1,MacIntel,60.24096386,,,,,,,NAN,,NAN,0.85,5.15,,0,29,29,29,1,30,Alex,Rej,Participant_Images/60fdc3ada5f9d93d7976cc0c/60fdc3ada5f9d93d7976cc0c_Images/60fdc3ada5f9d93d7976cc0c_Image_4.jpeg,did not like,1.661473164,,,,,,,,,,,,,,,,,,,,,,,
,,60fdc3ada5f9d93d7976cc0c,2024-09-13_12h44.36.877,WTP_SM_Choice,2022.2.1,MacIntel,60.24096386,,,,,space,9.6839,NAN,,NAN,0.85,5.15,,0,30,30,30,1,31,Alex,Rej,Participant_Images/60fdc3ada5f9d93d7976cc0c/60fdc3ada5f9d93d7976cc0c_Images/60fdc3ada5f9d93d7976cc0c_Image_25.jpeg,did not like,3.613205605,,,,,,,,,,,,,,,,,,,,,,,
,,60fdc3ada5f9d93d7976cc0c,2024-09-13_12h44.36.877,WTP_SM_Choice,2022.2.1,MacIntel,60.24096386,,,,,space,16.2005,NAN,,NAN,0.85,5.15,,0,31,31,31,1,32,Alex,Rej,Participant_Images/60fdc3ada5f9d93d7976cc0c/60fdc3ada5f9d93d7976cc0c_Images/60fdc3ada5f9d93d7976cc0c_Image_1.jpeg,did not like,4.988446431,,,,,,,,,,,,,,,,,,,,,,,
,,60fdc3ada5f9d93d7976cc0c,2024-09-13_12h44.36.877,WTP_SM_Choice,2022.2.1,MacIntel,60.24096386,,,,,space,0.4683,NAN,,NAN,0.85,5.15,,0,32,32,32,1,33,Alex,Rej,Participant_Images/60fdc3ada5f9d93d7976cc0c/60fdc3ada5f9d93d7976cc0c_Images/60fdc3ada5f9d93d7976cc0c_Image_10.jpeg,did not like,3.470791822,,,,,,,,,,,,,,,,,,,,,,,
,,60fdc3ada5f9d93d7976cc0c,2024-09-13_12h44.36.877,WTP_SM_Choice,2022.2.1,MacIntel,60.24096386,,,,,space,0.2446,NAN,,NAN,0.85,5.15,,0,33,33,33,1,34,Alex,Rej,Participant_Images/60fdc3ada5f9d93d7976cc0c/60fdc3ada5f9d93d7976cc0c_Images/60fdc3ada5f9d93d7976cc0c_Image_9.jpeg,did not like,3.820572462,,,,,,,,,,,,,,,,,,,,,,,
,,60fdc3ada5f9d93d7976cc0c,2024-09-13_12h44.36.877,WTP_SM_Choice,2022.2.1,MacIntel,60.24096386,,,,,,,,,,,,,,,,,,31,,,,,,space,0.2222,space,0.3267,0.02,2,1.598,0,0,0,0,1,Cook a new recipe with my mom,Cook a delicious meal for dinner,0.01,0.02,8.8,0,,,,,
,,60fdc3ada5f9d93d7976cc0c,2024-09-13_12h44.36.877,WTP_SM_Choice,2022.2.1,MacIntel,60.24096386,,,,,,,,,,,,,,,,,,32,,,,,,,,,,0.02,2,0.3417,0,1,1,1,1,Shop online on my laptop,Talk on the phone and catch up with friends,0.02,0.02,1.1,1,,,,,
,,60fdc3ada5f9d93d7976cc0c,2024-09-13_12h44.36.877,WTP_SM_Choice,2022.2.1,MacIntel,60.24096386,,,,,,,,,,,,,,,,,,33,,,,,,,,,,0.02,2,2.8573,0,2,2,2,1,Cook a new recipe with my mom,Bake a new dessert for the first time,0.03,0.02,4.4,0,,,,,
,,60fdc3ada5f9d93d7976cc0c,2024-09-13_12h44.36.877,WTP_SM_Choice,2022.2.1,MacIntel,60.24096386,,,,,,,,,,,,,,,,,,34,,,,,,,,,,0.04,1,1.859,0,3,3,3,1,Travel to a new place with my boyfriend,Scroll on my phone in bed,0.04,0.02,3.3,0,,,,,
,,60fdc3ada5f9d93d7976cc0c,2024-09-13_12h44.36.877,WTP_SM_Choice,2022.2.1,MacIntel,60.24096386,,,,,,,,,,,,,,,,,,35,,,,,,,,,,0.02,2,0.4247,0,4,4,4,1,Watch our favorite tv show with my boyfiend,Needlepoint a canvas on a rainy day,0.05,0.02,1.1,0,,,,,
,,60fdc3ada5f9d93d7976cc0c,2024-09-13_12h44.36.877,WTP_SM_Choice,2022.2.1,MacIntel,60.24096386,,,,,,,NAN,,NAN,0.97,5.03,,0,34,34,34,1,35,Alex,Rej,Participant_Images/60fdc3ada5f9d93d7976cc0c/60fdc3ada5f9d93d7976cc0c_Images/60fdc3ada5f9d93d7976cc0c_Image_22.jpeg,did not like,2.455989137,,,,,,,,,,,,,,,,,,,,,,,
,,60fdc3ada5f9d93d7976cc0c,2024-09-13_12h44.36.877,WTP_SM_Choice,2022.2.1,MacIntel,60.24096386,,,,,space,0.1775,NAN,,NAN,0.97,5.03,,0,35,35,35,1,36,Alex,Rej,Participant_Images/60fdc3ada5f9d93d7976cc0c/60fdc3ada5f9d93d7976cc0c_Images/60fdc3ada5f9d93d7976cc0c_Image_16.jpeg,did not like,3.79605092,,,,,,,,,,,,,,,,,,,,,,,
,,60fdc3ada5f9d93d7976cc0c,2024-09-13_12h44.36.877,WTP_SM_Choice,2022.2.1,MacIntel,60.24096386,,,,,space,1.5626,NAN,,NAN,0.97,5.03,,0,36,36,36,1,37,Alex,Rej,Participant_Images/60fdc3ada5f9d93d7976cc0c/60fdc3ada5f9d93d7976cc0c_Images/60fdc3ada5f9d93d7976cc0c_Image_6.jpeg,did not like,3.562416326,,,,,,,,,,,,,,,,,,,,,,,
,,60fdc3ada5f9d93d7976cc0c,2024-09-13_12h44.36.877,WTP_SM_Choice,2022.2.1,MacIntel,60.24096386,,,,,space,0.1834,NAN,,NAN,0.97,5.03,,0,37,37,37,1,38,Alex,Rej,Participant_Images/60fdc3ada5f9d93d7976cc0c/60fdc3ada5f9d93d7976cc0c_Images/60fdc3ada5f9d93d7976cc0c_Image_20.jpeg,did not like,2.843822497,,,,,,,,,,,,,,,,,,,,,,,
,,60fdc3ada5f9d93d7976cc0c,2024-09-13_12h44.36.877,WTP_SM_Choice,2022.2.1,MacIntel,60.24096386,,,,,space,0.9608,NAN,,NAN,0.97,5.03,,0,38,38,38,1,39,Alex,Rej,Participant_Images/60fdc3ada5f9d93d7976cc0c/60fdc3ada5f9d93d7976cc0c_Images/60fdc3ada5f9d93d7976cc0c_Image_14.jpeg,did not like,3.546495948,,,,,,,,,,,,,,,,,,,,,,,
,,60fdc3ada5f9d93d7976cc0c,2024-09-13_12h44.36.877,WTP_SM_Choice,2022.2.1,MacIntel,60.24096386,,,,,,,,,,,,,,,,,,36,,,,,,space,0.1186,space,0.4759,0.01,1,1.3207,0,0,0,0,1,Read our books in bed with my boyfriend,Scroll on my phone in bed,0.01,0.03,3.3,0,,,,,
,,60fdc3ada5f9d93d7976cc0c,2024-09-13_12h44.36.877,WTP_SM_Choice,2022.2.1,MacIntel,60.24096386,,,,,,,,,,,,,,,,,,37,,,,,,,,,,0.03,2,0.4286,0,1,1,1,1,Bake a new dessert for the first time,Sit and chat at a coffee shop with my best friend,0.02,0.03,1.1,1,,,,,
,,60fdc3ada5f9d93d7976cc0c,2024-09-13_12h44.36.877,WTP_SM_Choice,2022.2.1,MacIntel,60.24096386,,,,,,,,,,,,,,,,,,38,,,,,,,,,,0.03,1,0.4563,0,2,2,2,1,Read our books in bed with my boyfriend,Cook a delicious meal for dinner,0.03,0.03,1.1,0,,,,,
,,60fdc3ada5f9d93d7976cc0c,2024-09-13_12h44.36.877,WTP_SM_Choice,2022.2.1,MacIntel,60.24096386,,,,,,,,,,,,,,,,,,39,,,,,,,,,,0.03,2,0.3638,0,3,3,3,1,Watch our favorite tv show with my boyfiend,Shop online on my laptop,0.04,0.03,3.3,0,,,,,
,,60fdc3ada5f9d93d7976cc0c,2024-09-13_12h44.36.877,WTP_SM_Choice,2022.2.1,MacIntel,60.24096386,,,,,,,,,,,,,,,,,,40,,,,,,,,,,0.05,1,0.386,0,4,4,4,1,Play a board game with my family,Start a new reality tv show,0.05,0.03,4.4,0,,,,,
,,60fdc3ada5f9d93d7976cc0c,2024-09-13_12h44.36.877,WTP_SM_Choice,2022.2.1,MacIntel,60.24096386,,,,,,,NAN,,NAN,1.12,4.88,,0,39,39,39,1,40,Alex,Rej,Participant_Images/60fdc3ada5f9d93d7976cc0c/60fdc3ada5f9d93d7976cc0c_Images/60fdc3ada5f9d93d7976cc0c_Image_21.jpeg,liked,1.672012706,,,,,,,,,,,,,,,,,,,,,,,
,,60fdc3ada5f9d93d7976cc0c,2024-09-13_12h44.36.877,WTP_SM_Choice,2022.2.1,MacIntel,60.24096386,,,,,space,0.2325,NAN,,NAN,1.12,4.88,,0,40,40,40,1,41,Alex,Rej,Participant_Images/60fdc3ada5f9d93d7976cc0c/60fdc3ada5f9d93d7976cc0c_Images/60fdc3ada5f9d93d7976cc0c_Image_7.jpeg,did not like,4.942172136,,,,,,,,,,,,,,,,,,,,,,,
,,60fdc3ada5f9d93d7976cc0c,2024-09-13_12h44.36.877,WTP_SM_Choice,2022.2.1,MacIntel,60.24096386,,,,,space,0.1896,NAN,,NAN,1.12,4.88,,0,41,41,41,1,42,Alex,Rej,Participant_Images/60fdc3ada5f9d93d7976cc0c/60fdc3ada5f9d93d7976cc0c_Images/60fdc3ada5f9d93d7976cc0c_Image_13.jpeg,liked,2.50187214,,,,,,,,,,,,,,,,,,,,,,,
,,60fdc3ada5f9d93d7976cc0c,2024-09-13_12h44.36.877,WTP_SM_Choice,2022.2.1,MacIntel,60.24096386,,,,,space,1.9215,NAN,,NAN,1.12,4.88,,0,42,42,42,1,43,Alex,Rej,Participant_Images/60fdc3ada5f9d93d7976cc0c/60fdc3ada5f9d93d7976cc0c_Images/60fdc3ada5f9d93d7976cc0c_Image_3.jpeg,did not like,2.071164779,,,,,,,,,,,,,,,,,,,,,,,
,,60fdc3ada5f9d93d7976cc0c,2024-09-13_12h44.36.877,WTP_SM_Choice,2022.2.1,MacIntel,60.24096386,,,,,space,0.5491,NAN,,NAN,1.12,4.88,,0,43,43,43,1,44,Alex,Rej,Participant_Images/60fdc3ada5f9d93d7976cc0c/60fdc3ada5f9d93d7976cc0c_Images/60fdc3ada5f9d93d7976cc0c_Image_23.jpeg,liked,5.336503566,,,,,,,,,,,,,,,,,,,,,,,
,,60fdc3ada5f9d93d7976cc0c,2024-09-13_12h44.36.877,WTP_SM_Choice,2022.2.1,MacIntel,60.24096386,,,,,,,,,,,,,,,,,,41,,,,,,space,2.8689,space,0.3696,0.04,2,3.5317,0,0,0,0,1,Cook a new recipe with my mom,Scroll on my phone in bed,0.01,0.04,1.1,0,,,,,
,,60fdc3ada5f9d93d7976cc0c,2024-09-13_12h44.36.877,WTP_SM_Choice,2022.2.1,MacIntel,60.24096386,,,,,,,,,,,,,,,,,,42,,,,,,,,,,0.02,1,3.6311,0,1,1,1,1,Start a new reality tv show,Drink a fun cocktail together with my parents,0.02,0.04,3.3,1,,,,,
,,60fdc3ada5f9d93d7976cc0c,2024-09-13_12h44.36.877,WTP_SM_Choice,2022.2.1,MacIntel,60.24096386,,,,,,,,,,,,,,,,,,43,,,,,,,,,,0.03,1,0.0005,0,2,2,2,1,Read our books in bed with my boyfriend,Read a book in the park,0.03,0.04,1.1,0,,,,,
,,60fdc3ada5f9d93d7976cc0c,2024-09-13_12h44.36.877,WTP_SM_Choice,2022.2.1,MacIntel,60.24096386,,,,,,,,,,,,,,,,,,44,,,,,,,,,,0.04,1,3.7041,0,3,3,3,1,Cook a delicious meal for dinner,Play a board game with my family,0.04,0.04,1.1,1,,,,,
,,60fdc3ada5f9d93d7976cc0c,2024-09-13_12h44.36.877,WTP_SM_Choice,2022.2.1,MacIntel,60.24096386,,,,,,,,,,,,,,,,,,45,,,,,,,,,,0.05,1,0.7183,0,4,4,4,1,Play a board game with my family,Go on a long walk,0.05,0.04,4.4,0,,,,,
,,60fdc3ada5f9d93d7976cc0c,2024-09-13_12h44.36.877,WTP_SM_Choice,2022.2.1,MacIntel,60.24096386,,,,,,,NAN,,NAN,1.3,4.7,,0,44,44,44,1,45,Alex,Rej,Participant_Images/60fdc3ada5f9d93d7976cc0c/60fdc3ada5f9d93d7976cc0c_Images/60fdc3ada5f9d93d7976cc0c_Image_17.jpeg,did not like,2.642157193,,,,,,,,,,,,,,,,,,,,,,,
,,60fdc3ada5f9d93d7976cc0c,2024-09-13_12h44.36.877,WTP_SM_Choice,2022.2.1,MacIntel,60.24096386,,,,,space,0.0518,NAN,,NAN,1.3,4.7,,0,45,45,45,1,46,Alex,Rej,Participant_Images/60fdc3ada5f9d93d7976cc0c/60fdc3ada5f9d93d7976cc0c_Images/60fdc3ada5f9d93d7976cc0c_Image_18.jpeg,did not like,4.456234322,,,,,,,,,,,,,,,,,,,,,,,
,,60fdc3ada5f9d93d7976cc0c,2024-09-13_12h44.36.877,WTP_SM_Choice,2022.2.1,MacIntel,60.24096386,,,,,space,3.0457,NAN,,NAN,1.3,4.7,,0,46,46,46,1,47,Alex,Rej,Participant_Images/60fdc3ada5f9d93d7976cc0c/60fdc3ada5f9d93d7976cc0c_Images/60fdc3ada5f9d93d7976cc0c_Image_19.jpeg,did not like,4.438512181,,,,,,,,,,,,,,,,,,,,,,,
,,60fdc3ada5f9d93d7976cc0c,2024-09-13_12h44.36.877,WTP_SM_Choice,2022.2.1,MacIntel,60.24096386,,,,,space,0.4261,NAN,,NAN,1.3,4.7,,0,47,47,47,1,48,Alex,Rej,Participant_Images/60fdc3ada5f9d93d7976cc0c/60fdc3ada5f9d93d7976cc0c_Images/60fdc3ada5f9d93d7976cc0c_Image_24.jpeg,liked,2.682944783,,,,,,,,,,,,,,,,,,,,,,,
,,60fdc3ada5f9d93d7976cc0c,2024-09-13_12h44.36.877,WTP_SM_Choice,2022.2.1,MacIntel,60.24096386,,,,,space,0.3006,NAN,,NAN,1.3,4.7,,0,48,48,48,1,49,Alex,Rej,Participant_Images/60fdc3ada5f9d93d7976cc0c/60fdc3ada5f9d93d7976cc0c_Images/60fdc3ada5f9d93d7976cc0c_Image_8.jpeg,did not like,4.51984296,,,,,,,,,,,,,,,,,,,,,,,
,,60fdc3ada5f9d93d7976cc0c,2024-09-13_12h44.36.877,WTP_SM_Choice,2022.2.1,MacIntel,60.24096386,,,,,,,,,,,,,,,,,,46,,,,,,space,0.0456,space,0.6311,0.05,2,1.5966,0,0,0,0,1,Listen to my favorite music on my record player,Play a board game with my family,0.01,0.05,8.8,1,,,,,
,,60fdc3ada5f9d93d7976cc0c,2024-09-13_12h44.36.877,WTP_SM_Choice,2022.2.1,MacIntel,60.24096386,,,,,,,,,,,,,,,,,,47,,,,,,,,,,0.05,2,0.0425,0,1,1,1,1,Needlepoint a canvas on a rainy day,Travel to a new place with my boyfriend,0.02,0.05,1.1,1,,,,,
,,60fdc3ada5f9d93d7976cc0c,2024-09-13_12h44.36.877,WTP_SM_Choice,2022.2.1,MacIntel,60.24096386,,,,,,,,,,,,,,,,,,48,,,,,,,,,,0.03,1,0.0051,0,2,2,2,1,Drink a nice bottle of wine while watching a show,Cook a new recipe with my mom,0.03,0.05,4.4,1,,,,,
,,60fdc3ada5f9d93d7976cc0c,2024-09-13_12h44.36.877,WTP_SM_Choice,2022.2.1,MacIntel,60.24096386,,,,,,,,,,,,,,,,,,49,,,,,,,,,,0.04,1,3.0856,0,3,3,3,1,Sit and chat at a coffee shop with my best friend,Drink a nice bottle of wine while watching a show,0.04,0.05,3.3,0,,,,,
,,60fdc3ada5f9d93d7976cc0c,2024-09-13_12h44.36.877,WTP_SM_Choice,2022.2.1,MacIntel,60.24096386,,,,,,,,,,,,,,,,,,50,,,,,,,,,,0.05,2,0.0038,0,4,4,4,1,Shop online on my laptop,Sit and chat at a coffee shop with my best friend,0.05,0.05,1.1,1,,,,,
,,60fdc3ada5f9d93d7976cc0c,2024-09-13_12h44.36.877,WTP_SM_Choice,2022.2.1,MacIntel,60.24096386,,,,,,,2,,5,1.52,4.48,,0,49,49,49,1,50,Alex,Rej,Participant_Images/60fdc3ada5f9d93d7976cc0c/60fdc3ada5f9d93d7976cc0c_Images/60fdc3ada5f9d93d7976cc0c_Image_5.jpeg,liked,3.195382774,,,,,,,,,,,,,,,,,,,space,1.6834,,,
,,60fdc3ada5f9d93d7976cc0c,2024-09-13_12h44.36.877,WTP_SM_Choice,2022.2.1,MacIntel,60.24096386,,,space,7.2283,space,10.3807,NAN,,NAN,1.52,4.48,,0,50,50,50,1,51,Sam,Acc,Participant_Images/60fdc3ada5f9d93d7976cc0c/60fdc3ada5f9d93d7976cc0c_Images/60fdc3ada5f9d93d7976cc0c_Image_5.jpeg,liked,1.779333479,,,,,,,,,,,,,,,,,,,,,,,
,,60fdc3ada5f9d93d7976cc0c,2024-09-13_12h44.36.877,WTP_SM_Choice,2022.2.1,MacIntel,60.24096386,,,,,space,0.6491,NAN,,NAN,1.52,4.48,,0,51,51,51,1,52,Sam,Acc,Participant_Images/60fdc3ada5f9d93d7976cc0c/60fdc3ada5f9d93d7976cc0c_Images/60fdc3ada5f9d93d7976cc0c_Image_8.jpeg,did not like,4.312468682,,,,,,,,,,,,,,,,,,,,,,,
,,60fdc3ada5f9d93d7976cc0c,2024-09-13_12h44.36.877,WTP_SM_Choice,2022.2.1,MacIntel,60.24096386,,,,,space,0.1362,NAN,,NAN,1.52,4.48,,0,52,52,52,1,53,Sam,Acc,Participant_Images/60fdc3ada5f9d93d7976cc0c/60fdc3ada5f9d93d7976cc0c_Images/60fdc3ada5f9d93d7976cc0c_Image_14.jpeg,liked,4.940433059,,,,,,,,,,,,,,,,,,,,,,,
,,60fdc3ada5f9d93d7976cc0c,2024-09-13_12h44.36.877,WTP_SM_Choice,2022.2.1,MacIntel,60.24096386,,,,,space,1.9717,NAN,,NAN,1.52,4.48,,0,53,53,53,1,54,Sam,Acc,Participant_Images/60fdc3ada5f9d93d7976cc0c/60fdc3ada5f9d93d7976cc0c_Images/60fdc3ada5f9d93d7976cc0c_Image_9.jpeg,did not like,2.7105123,,,,,,,,,,,,,,,,,,,,,,,
,,60fdc3ada5f9d93d7976cc0c,2024-09-13_12h44.36.877,WTP_SM_Choice,2022.2.1,MacIntel,60.24096386,,,,,,,,,,,,,,,,,,51,,,,,,space,0.0336,space,0.4005,0.01,1,1.1389,0,0,0,0,1,Watch our favorite tv show with my boyfiend,Read a book in the park,0.01,0.01,1.1,0,,,,,
,,60fdc3ada5f9d93d7976cc0c,2024-09-13_12h44.36.877,WTP_SM_Choice,2022.2.1,MacIntel,60.24096386,,,,,,,,,,,,,,,,,,52,,,,,,,,,,0.01,2,0.1582,0,1,1,1,1,Drink a nice bottle of wine while watching a show,Read our books in bed with my boyfriend,0.02,0.01,3.3,1,,,,,
,,60fdc3ada5f9d93d7976cc0c,2024-09-13_12h44.36.877,WTP_SM_Choice,2022.2.1,MacIntel,60.24096386,,,,,,,,,,,,,,,,,,53,,,,,,,,,,0.01,2,0.1299,0,2,2,2,1,Drink a fun cocktail together with my parents,Go on a long walk,0.03,0.01,1.1,0,,,,,
,,60fdc3ada5f9d93d7976cc0c,2024-09-13_12h44.36.877,WTP_SM_Choice,2022.2.1,MacIntel,60.24096386,,,,,,,,,,,,,,,,,,54,,,,,,,,,,0.04,1,0.1901,0,3,3,3,1,Go on a walk with my best friend,Shop online on my laptop,0.04,0.01,4.4,0,,,,,
,,60fdc3ada5f9d93d7976cc0c,2024-09-13_12h44.36.877,WTP_SM_Choice,2022.2.1,MacIntel,60.24096386,,,,,,,,,,,,,,,,,,55,,,,,,,,,,0.05,1,0.1813,0,4,4,4,1,Read our books in bed with my boyfriend,Shop online on my laptop,0.05,0.01,1.1,0,,,,,
,,60fdc3ada5f9d93d7976cc0c,2024-09-13_12h44.36.877,WTP_SM_Choice,2022.2.1,MacIntel,60.24096386,,,,,,,NAN,,NAN,1.64,4.36,,0,54,54,54,1,55,Sam,Acc,Participant_Images/60fdc3ada5f9d93d7976cc0c/60fdc3ada5f9d93d7976cc0c_Images/60fdc3ada5f9d93d7976cc0c_Image_6.jpeg,liked,3.602308302,,,,,,,,,,,,,,,,,,,,,,,
,,60fdc3ada5f9d93d7976cc0c,2024-09-13_12h44.36.877,WTP_SM_Choice,2022.2.1,MacIntel,60.24096386,,,,,space,1.916,NAN,,NAN,1.64,4.36,,0,55,55,55,1,56,Sam,Acc,Participant_Images/60fdc3ada5f9d93d7976cc0c/60fdc3ada5f9d93d7976cc0c_Images/60fdc3ada5f9d93d7976cc0c_Image_1.jpeg,did not like,4.106391878,,,,,,,,,,,,,,,,,,,,,,,
,,60fdc3ada5f9d93d7976cc0c,2024-09-13_12h44.36.877,WTP_SM_Choice,2022.2.1,MacIntel,60.24096386,,,,,space,6.8557,NAN,,NAN,1.64,4.36,,0,56,56,56,1,57,Sam,Acc,Participant_Images/60fdc3ada5f9d93d7976cc0c/60fdc3ada5f9d93d7976cc0c_Images/60fdc3ada5f9d93d7976cc0c_Image_21.jpeg,did not like,3.799433026,,,,,,,,,,,,,,,,,,,,,,,
,,60fdc3ada5f9d93d7976cc0c,2024-09-13_12h44.36.877,WTP_SM_Choice,2022.2.1,MacIntel,60.24096386,,,,,space,0.0713,NAN,,NAN,1.64,4.36,,0,57,57,57,1,58,Sam,Acc,Participant_Images/60fdc3ada5f9d93d7976cc0c/60fdc3ada5f9d93d7976cc0c_Images/60fdc3ada5f9d93d7976cc0c_Image_23.jpeg,did not like,5.246980764,,,,,,,,,,,,,,,,,,,,,,,
,,60fdc3ada5f9d93d7976cc0c,2024-09-13_12h44.36.877,WTP_SM_Choice,2022.2.1,MacIntel,60.24096386,,,,,space,2.8781,NAN,,NAN,1.64,4.36,,0,58,58,58,1,59,Sam,Acc,Participant_Images/60fdc3ada5f9d93d7976cc0c/60fdc3ada5f9d93d7976cc0c_Images/60fdc3ada5f9d93d7976cc0c_Image_22.jpeg,liked,3.30081769,,,,,,,,,,,,,,,,,,,,,,,
,,60fdc3ada5f9d93d7976cc0c,2024-09-13_12h44.36.877,WTP_SM_Choice,2022.2.1,MacIntel,60.24096386,,,,,,,,,,,,,,,,,,56,,,,,,space,0.0564,space,1.4924,0.02,2,1.4942,0,0,0,0,1,Scroll on my phone in bed,Sit and chat at a coffee shop with my best friend,0.01,0.02,8.8,1,,,,,
,,60fdc3ada5f9d93d7976cc0c,2024-09-13_12h44.36.877,WTP_SM_Choice,2022.2.1,MacIntel,60.24096386,,,,,,,,,,,,,,,,,,57,,,,,,,,,,0.02,2,0.1726,0,1,1,1,1,Bake a new dessert for the first time,Go on a walk with my best friend,0.02,0.02,4.4,1,,,,,
,,60fdc3ada5f9d93d7976cc0c,2024-09-13_12h44.36.877,WTP_SM_Choice,2022.2.1,MacIntel,60.24096386,,,,,,,,,,,,,,,,,,58,,,,,,,,,,0.03,1,0.7109,0,2,2,2,1,Cook a delicious meal for dinner,Sit and chat at a coffee shop with my best friend,0.03,0.02,4.4,1,,,,,
,,60fdc3ada5f9d93d7976cc0c,2024-09-13_12h44.36.877,WTP_SM_Choice,2022.2.1,MacIntel,60.24096386,,,,,,,,,,,,,,,,,,59,,,,,,,,,,0.04,1,0.318,0,3,3,3,1,Drink a nice bottle of wine while watching a show,Talk on the phone and catch up with friends,0.04,0.02,4.4,1,,,,,
,,60fdc3ada5f9d93d7976cc0c,2024-09-13_12h44.36.877,WTP_SM_Choice,2022.2.1,MacIntel,60.24096386,,,,,,,,,,,,,,,,,,60,,,,,,,,,,0.02,2,0.0381,0,4,4,4,1,Read a book in the park,Drink a fun cocktail together with my parents,0.05,0.02,1.1,1,,,,,
,,60fdc3ada5f9d93d7976cc0c,2024-09-13_12h44.36.877,WTP_SM_Choice,2022.2.1,MacIntel,60.24096386,,,,,,,NAN,,NAN,1.77,4.23,,0,59,59,59,1,60,Sam,Acc,Participant_Images/60fdc3ada5f9d93d7976cc0c/60fdc3ada5f9d93d7976cc0c_Images/60fdc3ada5f9d93d7976cc0c_Image_17.jpeg,liked,1.661473164,,,,,,,,,,,,,,,,,,,,,,,
,,60fdc3ada5f9d93d7976cc0c,2024-09-13_12h44.36.877,WTP_SM_Choice,2022.2.1,MacIntel,60.24096386,,,,,space,12.2276,NAN,,NAN,1.77,4.23,,0,60,60,60,1,61,Sam,Acc,Participant_Images/60fdc3ada5f9d93d7976cc0c/60fdc3ada5f9d93d7976cc0c_Images/60fdc3ada5f9d93d7976cc0c_Image_2.jpeg,liked,3.613205605,,,,,,,,,,,,,,,,,,,,,,,
,,60fdc3ada5f9d93d7976cc0c,2024-09-13_12h44.36.877,WTP_SM_Choice,2022.2.1,MacIntel,60.24096386,,,,,space,0.3944,NAN,,NAN,1.77,4.23,,0,61,61,61,1,62,Sam,Acc,Participant_Images/60fdc3ada5f9d93d7976cc0c/60fdc3ada5f9d93d7976cc0c_Images/60fdc3ada5f9d93d7976cc0c_Image_13.jpeg,liked,4.988446431,,,,,,,,,,,,,,,,,,,,,,,
,,60fdc3ada5f9d93d7976cc0c,2024-09-13_12h44.36.877,WTP_SM_Choice,2022.2.1,MacIntel,60.24096386,,,,,space,0.1255,NAN,,NAN,1.77,4.23,,0,62,62,62,1,63,Sam,Acc,Participant_Images/60fdc3ada5f9d93d7976cc0c/60fdc3ada5f9d93d7976cc0c_Images/60fdc3ada5f9d93d7976cc0c_Image_24.jpeg,liked,3.470791822,,,,,,,,,,,,,,,,,,,,,,,
,,60fdc3ada5f9d93d7976cc0c,2024-09-13_12h44.36.877,WTP_SM_Choice,2022.2.1,MacIntel,60.24096386,,,,,space,0.1276,NAN,,NAN,1.77,4.23,,0,63,63,63,1,64,Sam,Acc,Participant_Images/60fdc3ada5f9d93d7976cc0c/60fdc3ada5f9d93d7976cc0c_Images/60fdc3ada5f9d93d7976cc0c_Image_18.jpeg,liked,3.820572462,,,,,,,,,,,,,,,,,,,,,,,
,,60fdc3ada5f9d93d7976cc0c,2024-09-13_12h44.36.877,WTP_SM_Choice,2022.2.1,MacIntel,60.24096386,,,,,,,,,,,,,,,,,,61,,,,,,space,0.3315,space,0.4588,0.03,2,1.2459,0,0,0,0,1,Cook a delicious meal for dinner,Drink a fun cocktail together with my parents,0.01,0.03,3.3,1,,,,,
,,60fdc3ada5f9d93d7976cc0c,2024-09-13_12h44.36.877,WTP_SM_Choice,2022.2.1,MacIntel,60.24096386,,,,,,,,,,,,,,,,,,62,,,,,,,,,,0.02,1,0.5496,0,1,1,1,1,Start a new reality tv show,Go on a walk with my best friend,0.02,0.03,3.3,1,,,,,
,,60fdc3ada5f9d93d7976cc0c,2024-09-13_12h44.36.877,WTP_SM_Choice,2022.2.1,MacIntel,60.24096386,,,,,,,,,,,,,,,,,,63,,,,,,,,,,0.03,2,2.2676,0,2,2,2,1,Try a new restaurant with my friends,Shop online on my laptop,0.03,0.03,3.3,0,,,,,
,,60fdc3ada5f9d93d7976cc0c,2024-09-13_12h44.36.877,WTP_SM_Choice,2022.2.1,MacIntel,60.24096386,,,,,,,,,,,,,,,,,,64,,,,,,,,,,0.04,1,0.5227,0,3,3,3,1,Go on a walk with my best friend,Drink a nice bottle of wine while watching a show,0.04,0.03,1.1,0,,,,,
,,60fdc3ada5f9d93d7976cc0c,2024-09-13_12h44.36.877,WTP_SM_Choice,2022.2.1,MacIntel,60.24096386,,,,,,,,,,,,,,,,,,65,,,,,,,,,,0.05,1,0.2513,0,4,4,4,1,Talk on the phone and catch up with friends,Listen to my favorite music on my record player,0.05,0.03,1.1,0,,,,,
,,60fdc3ada5f9d93d7976cc0c,2024-09-13_12h44.36.877,WTP_SM_Choice,2022.2.1,MacIntel,60.24096386,,,,,,,NAN,,NAN,1.94,4.06,,0,64,64,64,1,65,Sam,Acc,Participant_Images/60fdc3ada5f9d93d7976cc0c/60fdc3ada5f9d93d7976cc0c_Images/60fdc3ada5f9d93d7976cc0c_Image_25.jpeg,liked,2.455989137,,,,,,,,,,,,,,,,,,,,,,,
,,60fdc3ada5f9d93d7976cc0c,2024-09-13_12h44.36.877,WTP_SM_Choice,2022.2.1,MacIntel,60.24096386,,,,,space,4.1156,NAN,,NAN,1.94,4.06,,0,65,65,65,1,66,Sam,Acc,Participant_Images/60fdc3ada5f9d93d7976cc0c/60fdc3ada5f9d93d7976cc0c_Images/60fdc3ada5f9d93d7976cc0c_Image_10.jpeg,liked,3.79605092,,,,,,,,,,,,,,,,,,,,,,,
,,60fdc3ada5f9d93d7976cc0c,2024-09-13_12h44.36.877,WTP_SM_Choice,2022.2.1,MacIntel,60.24096386,,,,,space,0.05,NAN,,NAN,1.94,4.06,,0,66,66,66,1,67,Sam,Acc,Participant_Images/60fdc3ada5f9d93d7976cc0c/60fdc3ada5f9d93d7976cc0c_Images/60fdc3ada5f9d93d7976cc0c_Image_16.jpeg,liked,3.562416326,,,,,,,,,,,,,,,,,,,,,,,
,,60fdc3ada5f9d93d7976cc0c,2024-09-13_12h44.36.877,WTP_SM_Choice,2022.2.1,MacIntel,60.24096386,,,,,space,0.2037,NAN,,NAN,1.94,4.06,,0,67,67,67,1,68,Sam,Acc,Participant_Images/60fdc3ada5f9d93d7976cc0c/60fdc3ada5f9d93d7976cc0c_Images/60fdc3ada5f9d93d7976cc0c_Image_15.jpeg,liked,2.843822497,,,,,,,,,,,,,,,,,,,,,,,
,,60fdc3ada5f9d93d7976cc0c,2024-09-13_12h44.36.877,WTP_SM_Choice,2022.2.1,MacIntel,60.24096386,,,,,space,0.0512,NAN,,NAN,1.94,4.06,,0,68,68,68,1,69,Sam,Acc,Participant_Images/60fdc3ada5f9d93d7976cc0c/60fdc3ada5f9d93d7976cc0c_Images/60fdc3ada5f9d93d7976cc0c_Image_12.jpeg,liked,3.546495948,,,,,,,,,,,,,,,,,,,,,,,
,,60fdc3ada5f9d93d7976cc0c,2024-09-13_12h44.36.877,WTP_SM_Choice,2022.2.1,MacIntel,60.24096386,,,,,,,,,,,,,,,,,,66,,,,,,space,0.2064,space,1.2856,0.04,2,7.8378,0,0,0,0,1,Read a book in the park,Try a new restaurant with my friends,0.01,0.04,1.1,1,,,,,
,,60fdc3ada5f9d93d7976cc0c,2024-09-13_12h44.36.877,WTP_SM_Choice,2022.2.1,MacIntel,60.24096386,,,,,,,,,,,,,,,,,,67,,,,,,,,,,0.02,1,0.1511,0,1,1,1,1,Sit and chat at a coffee shop with my best friend,Go on a long walk,0.02,0.04,8.8,0,,,,,
,,60fdc3ada5f9d93d7976cc0c,2024-09-13_12h44.36.877,WTP_SM_Choice,2022.2.1,MacIntel,60.24096386,,,,,,,,,,,,,,,,,,68,,,,,,,,,,0.04,2,0.0563,0,2,2,2,1,Go on a long walk,Read our books in bed with my boyfriend,0.03,0.04,4.4,1,,,,,
,,60fdc3ada5f9d93d7976cc0c,2024-09-13_12h44.36.877,WTP_SM_Choice,2022.2.1,MacIntel,60.24096386,,,,,,,,,,,,,,,,,,69,,,,,,,,,,0.04,1,0.4893,0,3,3,3,1,Watch our favorite tv show with my boyfiend,Start a new reality tv show,0.04,0.04,1.1,0,,,,,
,,60fdc3ada5f9d93d7976cc0c,2024-09-13_12h44.36.877,WTP_SM_Choice,2022.2.1,MacIntel,60.24096386,,,,,,,,,,,,,,,,,,70,,,,,,,,,,0.05,1,0.0944,0,4,4,4,1,Watch our favorite tv show with my boyfiend,Cook a delicious meal for dinner,0.05,0.04,1.1,0,,,,,
,,60fdc3ada5f9d93d7976cc0c,2024-09-13_12h44.36.877,WTP_SM_Choice,2022.2.1,MacIntel,60.24096386,,,,,,,NAN,,NAN,2.13,3.87,,0,69,69,69,1,70,Sam,Acc,Participant_Images/60fdc3ada5f9d93d7976cc0c/60fdc3ada5f9d93d7976cc0c_Images/60fdc3ada5f9d93d7976cc0c_Image_3.jpeg,did not like,1.672012706,,,,,,,,,,,,,,,,,,,,,,,
,,60fdc3ada5f9d93d7976cc0c,2024-09-13_12h44.36.877,WTP_SM_Choice,2022.2.1,MacIntel,60.24096386,,,,,space,1.2093,NAN,,NAN,2.13,3.87,,0,70,70,70,1,71,Sam,Acc,Participant_Images/60fdc3ada5f9d93d7976cc0c/60fdc3ada5f9d93d7976cc0c_Images/60fdc3ada5f9d93d7976cc0c_Image_11.jpeg,liked,4.942172136,,,,,,,,,,,,,,,,,,,,,,,
,,60fdc3ada5f9d93d7976cc0c,2024-09-13_12h44.36.877,WTP_SM_Choice,2022.2.1,MacIntel,60.24096386,,,,,space,2.1857,NAN,,NAN,2.13,3.87,,0,71,71,71,1,72,Sam,Acc,Participant_Images/60fdc3ada5f9d93d7976cc0c/60fdc3ada5f9d93d7976cc0c_Images/60fdc3ada5f9d93d7976cc0c_Image_4.jpeg,liked,2.50187214,,,,,,,,,,,,,,,,,,,,,,,
,,60fdc3ada5f9d93d7976cc0c,2024-09-13_12h44.36.877,WTP_SM_Choice,2022.2.1,MacIntel,60.24096386,,,,,space,3.3427,NAN,,NAN,2.13,3.87,,0,72,72,72,1,73,Sam,Acc,Participant_Images/60fdc3ada5f9d93d7976cc0c/60fdc3ada5f9d93d7976cc0c_Images/60fdc3ada5f9d93d7976cc0c_Image_20.jpeg,did not like,2.071164779,,,,,,,,,,,,,,,,,,,,,,,
,,60fdc3ada5f9d93d7976cc0c,2024-09-13_12h44.36.877,WTP_SM_Choice,2022.2.1,MacIntel,60.24096386,,,,,space,1.3609,NAN,,NAN,2.13,3.87,,0,73,73,73,1,74,Sam,Acc,Participant_Images/60fdc3ada5f9d93d7976cc0c/60fdc3ada5f9d93d7976cc0c_Images/60fdc3ada5f9d93d7976cc0c_Image_19.jpeg,liked,5.336503566,,,,,,,,,,,,,,,,,,,,,,,
,,60fdc3ada5f9d93d7976cc0c,2024-09-13_12h44.36.877,WTP_SM_Choice,2022.2.1,MacIntel,60.24096386,,,,,,,,,,,,,,,,,,71,,,,,,space,3.5147,space,0.675,0.01,1,0.2508,0,0,0,0,1,Go on a long walk,Watch our favorite tv show with my boyfiend,0.01,0.05,3.3,1,,,,,
,,60fdc3ada5f9d93d7976cc0c,2024-09-13_12h44.36.877,WTP_SM_Choice,2022.2.1,MacIntel,60.24096386,,,,,,,,,,,,,,,,,,72,,,,,,,,,,0.02,1,0.2009,0,1,1,1,1,Bake a new dessert for the first time,Travel to a new place with my boyfriend,0.02,0.05,8.8,1,,,,,
,,60fdc3ada5f9d93d7976cc0c,2024-09-13_12h44.36.877,WTP_SM_Choice,2022.2.1,MacIntel,60.24096386,,,,,,,,,,,,,,,,,,73,,,,,,,,,,0.05,2,0.0081,0,2,2,2,1,Scroll on my phone in bed,Talk on the phone and catch up with friends,0.03,0.05,3.3,1,,,,,
,,60fdc3ada5f9d93d7976cc0c,2024-09-13_12h44.36.877,WTP_SM_Choice,2022.2.1,MacIntel,60.24096386,,,,,,,,,,,,,,,,,,74,,,,,,,,,,0.05,2,0.4025,0,3,3,3,1,Talk on the phone and catch up with friends,Read a book in the park,0.04,0.05,4.4,0,,,,,
,,60fdc3ada5f9d93d7976cc0c,2024-09-13_12h44.36.877,WTP_SM_Choice,2022.2.1,MacIntel,60.24096386,,,,,,,,,,,,,,,,,,75,,,,,,,,,,0.05,2,6.6232,0,4,4,4,1,Cook a new recipe with my mom,Needlepoint a canvas on a rainy day,0.05,0.05,3.3,0,,,,,
,,60fdc3ada5f9d93d7976cc0c,2024-09-13_12h44.36.877,WTP_SM_Choice,2022.2.1,MacIntel,60.24096386,,,,,,,5,,6,2.31,3.69,,0,74,74,74,1,75,Sam,Acc,Participant_Images/60fdc3ada5f9d93d7976cc0c/60fdc3ada5f9d93d7976cc0c_Images/60fdc3ada5f9d93d7976cc0c_Image_7.jpeg,liked,2.642157193,,,,,,,,,,,,,,,,,,,space,0.6763,,,
,,60fdc3ada5f9d93d7976cc0c,2024-09-13_12h44.36.877,WTP_SM_Choice,2022.2.1,MacIntel,60.24096386,,,space,12.461,space,2.6308,NAN,,NAN,2.31,3.69,,0,75,75,75,1,76,Riley,Acc,Participant_Images/60fdc3ada5f9d93d7976cc0c/60fdc3ada5f9d93d7976cc0c_Images/60fdc3ada5f9d93d7976cc0c_Image_9.jpeg,liked,4.456234322,,,,,,,,,,,,,,,,,,,,,,,
,,60fdc3ada5f9d93d7976cc0c,2024-09-13_12h44.36.877,WTP_SM_Choice,2022.2.1,MacIntel,60.24096386,,,,,space,2.3447,NAN,,NAN,2.31,3.69,,0,76,76,76,1,77,Riley,Acc,Participant_Images/60fdc3ada5f9d93d7976cc0c/60fdc3ada5f9d93d7976cc0c_Images/60fdc3ada5f9d93d7976cc0c_Image_25.jpeg,liked,4.438512181,,,,,,,,,,,,,,,,,,,,,,,
,,60fdc3ada5f9d93d7976cc0c,2024-09-13_12h44.36.877,WTP_SM_Choice,2022.2.1,MacIntel,60.24096386,,,,,space,1.9325,NAN,,NAN,2.31,3.69,,0,77,77,77,1,78,Riley,Acc,Participant_Images/60fdc3ada5f9d93d7976cc0c/60fdc3ada5f9d93d7976cc0c_Images/60fdc3ada5f9d93d7976cc0c_Image_16.jpeg,liked,2.682944783,,,,,,,,,,,,,,,,,,,,,,,
,,60fdc3ada5f9d93d7976cc0c,2024-09-13_12h44.36.877,WTP_SM_Choice,2022.2.1,MacIntel,60.24096386,,,,,space,0.5497,NAN,,NAN,2.31,3.69,,0,78,78,78,1,79,Riley,Acc,Participant_Images/60fdc3ada5f9d93d7976cc0c/60fdc3ada5f9d93d7976cc0c_Images/60fdc3ada5f9d93d7976cc0c_Image_1.jpeg,liked,4.51984296,,,,,,,,,,,,,,,,,,,,,,,
,,60fdc3ada5f9d93d7976cc0c,2024-09-13_12h44.36.877,WTP_SM_Choice,2022.2.1,MacIntel,60.24096386,,,,,,,,,,,,,,,,,,76,,,,,,space,0.4081,space,0.8091,0.01,1,0.0005,0,0,0,0,1,Travel to a new place with my boyfriend,Read a book in the park,0.01,0.01,1.1,0,,,,,
,,60fdc3ada5f9d93d7976cc0c,2024-09-13_12h44.36.877,WTP_SM_Choice,2022.2.1,MacIntel,60.24096386,,,,,,,,,,,,,,,,,,77,,,,,,,,,,0.02,1,0.3078,0,1,1,1,1,Try a new restaurant with my friends,Listen to my favorite music on my record player,0.02,0.01,8.8,0,,,,,
,,60fdc3ada5f9d93d7976cc0c,2024-09-13_12h44.36.877,WTP_SM_Choice,2022.2.1,MacIntel,60.24096386,,,,,,,,,,,,,,,,,,78,,,,,,,,,,0.01,2,0.0937,0,2,2,2,1,Travel to a new place with my boyfriend,Shop online on my laptop,0.03,0.01,1.1,0,,,,,
,,60fdc3ada5f9d93d7976cc0c,2024-09-13_12h44.36.877,WTP_SM_Choice,2022.2.1,MacIntel,60.24096386,,,,,,,,,,,,,,,,,,79,,,,,,,,,,0.04,1,1.3903,0,3,3,3,1,Cook a new recipe with my mom,Go on a long walk,0.04,0.01,1.1,0,,,,,
,,60fdc3ada5f9d93d7976cc0c,2024-09-13_12h44.36.877,WTP_SM_Choice,2022.2.1,MacIntel,60.24096386,,,,,,,,,,,,,,,,,,80,,,,,,,,,,0.05,1,0.8952,0,4,4,4,1,Go on a walk with my best friend,Read a book in the park,0.05,0.01,4.4,0,,,,,
,,60fdc3ada5f9d93d7976cc0c,2024-09-13_12h44.36.877,WTP_SM_Choice,2022.2.1,MacIntel,60.24096386,,,,,,,NAN,,NAN,2.44,3.56,,0,79,79,79,1,80,Riley,Acc,Participant_Images/60fdc3ada5f9d93d7976cc0c/60fdc3ada5f9d93d7976cc0c_Images/60fdc3ada5f9d93d7976cc0c_Image_19.jpeg,liked,3.195382774,,,,,,,,,,,,,,,,,,,,,,,
,,60fdc3ada5f9d93d7976cc0c,2024-09-13_12h44.36.877,WTP_SM_Choice,2022.2.1,MacIntel,60.24096386,,,,,space,0.6491,NAN,,NAN,2.44,3.56,,0,80,80,80,1,81,Riley,Acc,Participant_Images/60fdc3ada5f9d93d7976cc0c/60fdc3ada5f9d93d7976cc0c_Images/60fdc3ada5f9d93d7976cc0c_Image_13.jpeg,liked,1.779333479,,,,,,,,,,,,,,,,,,,,,,,
,,60fdc3ada5f9d93d7976cc0c,2024-09-13_12h44.36.877,WTP_SM_Choice,2022.2.1,MacIntel,60.24096386,,,,,space,1.0459,NAN,,NAN,2.44,3.56,,0,81,81,81,1,82,Riley,Acc,Participant_Images/60fdc3ada5f9d93d7976cc0c/60fdc3ada5f9d93d7976cc0c_Images/60fdc3ada5f9d93d7976cc0c_Image_11.jpeg,liked,4.312468682,,,,,,,,,,,,,,,,,,,,,,,
,,60fdc3ada5f9d93d7976cc0c,2024-09-13_12h44.36.877,WTP_SM_Choice,2022.2.1,MacIntel,60.24096386,,,,,space,0.2764,NAN,,NAN,2.44,3.56,,0,82,82,82,1,83,Riley,Acc,Participant_Images/60fdc3ada5f9d93d7976cc0c/60fdc3ada5f9d93d7976cc0c_Images/60fdc3ada5f9d93d7976cc0c_Image_14.jpeg,liked,4.940433059,,,,,,,,,,,,,,,,,,,,,,,
,,60fdc3ada5f9d93d7976cc0c,2024-09-13_12h44.36.877,WTP_SM_Choice,2022.2.1,MacIntel,60.24096386,,,,,space,0.243,NAN,,NAN,2.44,3.56,,0,83,83,83,1,84,Riley,Acc,Participant_Images/60fdc3ada5f9d93d7976cc0c/60fdc3ada5f9d93d7976cc0c_Images/60fdc3ada5f9d93d7976cc0c_Image_24.jpeg,liked,2.7105123,,,,,,,,,,,,,,,,,,,,,,,
,,60fdc3ada5f9d93d7976cc0c,2024-09-13_12h44.36.877,WTP_SM_Choice,2022.2.1,MacIntel,60.24096386,,,,,,,,,,,,,,,,,,81,,,,,,space,3.4197,space,2.3601,0.01,1,0.0425,0,0,0,0,1,Sit and chat at a coffee shop with my best friend,Listen to my favorite music on my record player,0.01,0.02,3.3,0,,,,,
,,60fdc3ada5f9d93d7976cc0c,2024-09-13_12h44.36.877,WTP_SM_Choice,2022.2.1,MacIntel,60.24096386,,,,,,,,,,,,,,,,,,82,,,,,,,,,,0.02,1,0.5763,0,1,1,1,1,Try a new restaurant with my friends,Go on a long walk,0.02,0.02,4.4,0,,,,,
,,60fdc3ada5f9d93d7976cc0c,2024-09-13_12h44.36.877,WTP_SM_Choice,2022.2.1,MacIntel,60.24096386,,,,,,,,,,,,,,,,,,83,,,,,,,,,,0.02,2,1.435,0,2,2,2,1,Travel to a new place with my boyfriend,Cook a delicious meal for dinner,0.03,0.02,1.1,0,,,,,
,,60fdc3ada5f9d93d7976cc0c,2024-09-13_12h44.36.877,WTP_SM_Choice,2022.2.1,MacIntel,60.24096386,,,,,,,,,,,,,,,,,,84,,,,,,,,,,0.04,1,0.4418,0,3,3,3,1,Go on a walk with my best friend,Cook a delicious meal for dinner,0.04,0.02,3.3,0,,,,,
,,60fdc3ada5f9d93d7976cc0c,2024-09-13_12h44.36.877,WTP_SM_Choice,2022.2.1,MacIntel,60.24096386,,,,,,,,,,,,,,,,,,85,,,,,,,,,,0.05,1,1.0477,0,4,4,4,1,Sit and chat at a coffee shop with my best friend,Start a new reality tv show,0.05,0.02,3.3,0,,,,,
,,60fdc3ada5f9d93d7976cc0c,2024-09-13_12h44.36.877,WTP_SM_Choice,2022.2.1,MacIntel,60.24096386,,,,,,,NAN,,NAN,2.58,3.42,,0,84,84,84,1,85,Riley,Acc,Participant_Images/60fdc3ada5f9d93d7976cc0c/60fdc3ada5f9d93d7976cc0c_Images/60fdc3ada5f9d93d7976cc0c_Image_18.jpeg,did not like,3.602308302,,,,,,,,,,,,,,,,,,,,,,,
,,60fdc3ada5f9d93d7976cc0c,2024-09-13_12h44.36.877,WTP_SM_Choice,2022.2.1,MacIntel,60.24096386,,,,,space,0.8338,NAN,,NAN,2.58,3.42,,0,85,85,85,1,86,Riley,Acc,Participant_Images/60fdc3ada5f9d93d7976cc0c/60fdc3ada5f9d93d7976cc0c_Images/60fdc3ada5f9d93d7976cc0c_Image_17.jpeg,liked,4.106391878,,,,,,,,,,,,,,,,,,,,,,,
,,60fdc3ada5f9d93d7976cc0c,2024-09-13_12h44.36.877,WTP_SM_Choice,2022.2.1,MacIntel,60.24096386,,,,,space,0.129,NAN,,NAN,2.58,3.42,,0,86,86,86,1,87,Riley,Acc,Participant_Images/60fdc3ada5f9d93d7976cc0c/60fdc3ada5f9d93d7976cc0c_Images/60fdc3ada5f9d93d7976cc0c_Image_10.jpeg,liked,3.799433026,,,,,,,,,,,,,,,,,,,,,,,
,,60fdc3ada5f9d93d7976cc0c,2024-09-13_12h44.36.877,WTP_SM_Choice,2022.2.1,MacIntel,60.24096386,,,,,space,0.4162,NAN,,NAN,2.58,3.42,,0,87,87,87,1,88,Riley,Acc,Participant_Images/60fdc3ada5f9d93d7976cc0c/60fdc3ada5f9d93d7976cc0c_Images/60fdc3ada5f9d93d7976cc0c_Image_4.jpeg,liked,5.246980764,,,,,,,,,,,,,,,,,,,,,,,
,,60fdc3ada5f9d93d7976cc0c,2024-09-13_12h44.36.877,WTP_SM_Choice,2022.2.1,MacIntel,60.24096386,,,,,space,0.5006,NAN,,NAN,2.58,3.42,,0,88,88,88,1,89,Riley,Acc,Participant_Images/60fdc3ada5f9d93d7976cc0c/60fdc3ada5f9d93d7976cc0c_Images/60fdc3ada5f9d93d7976cc0c_Image_15.jpeg,liked,3.30081769,,,,,,,,,,,,,,,,,,,,,,,
,,60fdc3ada5f9d93d7976cc0c,2024-09-13_12h44.36.877,WTP_SM_Choice,2022.2.1,MacIntel,60.24096386,,,,,,,,,,,,,,,,,,86,,,,,,space,0.1528,space,0.6321,0.03,2,0.4034,0,0,0,0,1,Shop online on my laptop,Drink a fun cocktail together with my parents,0.01,0.03,1.1,1,,,,,
,,60fdc3ada5f9d93d7976cc0c,2024-09-13_12h44.36.877,WTP_SM_Choice,2022.2.1,MacIntel,60.24096386,,,,,,,,,,,,,,,,,,87,,,,,,,,,,0.03,2,0.0783,0,1,1,1,1,Drink a nice bottle of wine while watching a show,Try a new restaurant with my friends,0.02,0.03,4.4,1,,,,,
,,60fdc3ada5f9d93d7976cc0c,2024-09-13_12h44.36.877,WTP_SM_Choice,2022.2.1,MacIntel,60.24096386,,,,,,,,,,,,,,,,,,88,,,,,,,,,,0.03,2,0.0554,0,2,2,2,1,Needlepoint a canvas on a rainy day,Sit and chat at a coffee shop with my best friend,0.03,0.03,1.1,1,,,,,
,,60fdc3ada5f9d93d7976cc0c,2024-09-13_12h44.36.877,WTP_SM_Choice,2022.2.1,MacIntel,60.24096386,,,,,,,,,,,,,,,,,,89,,,,,,,,,,0.03,2,0.0088,0,3,3,3,1,Start a new reality tv show,Talk on the phone and catch up with friends,0.04,0.03,3.3,1,,,,,
,,60fdc3ada5f9d93d7976cc0c,2024-09-13_12h44.36.877,WTP_SM_Choice,2022.2.1,MacIntel,60.24096386,,,,,,,,,,,,,,,,,,90,,,,,,,,,,0.05,1,0.0154,0,4,4,4,1,Read our books in bed with my boyfriend,Start a new reality tv show,0.05,0.03,8.8,0,,,,,
,,60fdc3ada5f9d93d7976cc0c,2024-09-13_12h44.36.877,WTP_SM_Choice,2022.2.1,MacIntel,60.24096386,,,,,,,NAN,,NAN,2.75,3.25,,0,89,89,89,1,90,Riley,Acc,Participant_Images/60fdc3ada5f9d93d7976cc0c/60fdc3ada5f9d93d7976cc0c_Images/60fdc3ada5f9d93d7976cc0c_Image_23.jpeg,liked,1.661473164,,,,,,,,,,,,,,,,,,,,,,,
,,60fdc3ada5f9d93d7976cc0c,2024-09-13_12h44.36.877,WTP_SM_Choice,2022.2.1,MacIntel,60.24096386,,,,,space,0.1934,NAN,,NAN,2.75,3.25,,0,90,90,90,1,91,Riley,Acc,Participant_Images/60fdc3ada5f9d93d7976cc0c/60fdc3ada5f9d93d7976cc0c_Images/60fdc3ada5f9d93d7976cc0c_Image_22.jpeg,did not like,3.613205605,,,,,,,,,,,,,,,,,,,,,,,
,,60fdc3ada5f9d93d7976cc0c,2024-09-13_12h44.36.877,WTP_SM_Choice,2022.2.1,MacIntel,60.24096386,,,,,space,0.4677,NAN,,NAN,2.75,3.25,,0,91,91,91,1,92,Riley,Acc,Participant_Images/60fdc3ada5f9d93d7976cc0c/60fdc3ada5f9d93d7976cc0c_Images/60fdc3ada5f9d93d7976cc0c_Image_6.jpeg,liked,4.988446431,,,,,,,,,,,,,,,,,,,,,,,
,,60fdc3ada5f9d93d7976cc0c,2024-09-13_12h44.36.877,WTP_SM_Choice,2022.2.1,MacIntel,60.24096386,,,,,space,0.4048,NAN,,NAN,2.75,3.25,,0,92,92,92,1,93,Riley,Acc,Participant_Images/60fdc3ada5f9d93d7976cc0c/60fdc3ada5f9d93d7976cc0c_Images/60fdc3ada5f9d93d7976cc0c_Image_5.jpeg,did not like,3.470791822,,,,,,,,,,,,,,,,,,,,,,,
,,60fdc3ada5f9d93d7976cc0c,2024-09-13_12h44.36.877,WTP_SM_Choice,2022.2.1,MacIntel,60.24096386,,,,,space,0.1429,NAN,,NAN,2.75,3.25,,0,93,93,93,1,94,Riley,Acc,Participant_Images/60fdc3ada5f9d93d7976cc0c/60fdc3ada5f9d93d7976cc0c_Images/60fdc3ada5f9d93d7976cc0c_Image_3.jpeg,liked,3.820572462,,,,,,,,,,,,,,,,,,,,,,,
,,60fdc3ada5f9d93d7976cc0c,2024-09-13_12h44.36.877,WTP_SM_Choice,2022.2.1,MacIntel,60.24096386,,,,,,,,,,,,,,,,,,91,,,,,,space,0.5518,space,0.47,0.04,2,0.4541,0,0,0,0,1,Listen to my favorite music on my record player,Cook a new recipe with my mom,0.01,0.04,3.3,1,,,,,
,,60fdc3ada5f9d93d7976cc0c,2024-09-13_12h44.36.877,WTP_SM_Choice,2022.2.1,MacIntel,60.24096386,,,,,,,,,,,,,,,,,,92,,,,,,,,,,0.02,1,0.2473,0,1,1,1,1,Play a board game with my family,Scroll on my phone in bed,0.02,0.04,8.8,0,,,,,
,,60fdc3ada5f9d93d7976cc0c,2024-09-13_12h44.36.877,WTP_SM_Choice,2022.2.1,MacIntel,60.24096386,,,,,,,,,,,,,,,,,,93,,,,,,,,,,0.03,1,0.0005,0,2,2,2,1,Play a board game with my family,Needlepoint a canvas on a rainy day,0.03,0.04,1.1,0,,,,,
,,60fdc3ada5f9d93d7976cc0c,2024-09-13_12h44.36.877,WTP_SM_Choice,2022.2.1,MacIntel,60.24096386,,,,,,,,,,,,,,,,,,94,,,,,,,,,,0.04,2,0.0004,0,3,3,3,1,Read a book in the park,Cook a new recipe with my mom,0.04,0.04,4.4,1,,,,,
,,60fdc3ada5f9d93d7976cc0c,2024-09-13_12h44.36.877,WTP_SM_Choice,2022.2.1,MacIntel,60.24096386,,,,,,,,,,,,,,,,,,95,,,,,,,,,,0.04,2,0.2328,0,4,4,4,1,Try a new restaurant with my friends,Needlepoint a canvas on a rainy day,0.05,0.04,4.4,0,,,,,
,,60fdc3ada5f9d93d7976cc0c,2024-09-13_12h44.36.877,WTP_SM_Choice,2022.2.1,MacIntel,60.24096386,,,,,,,NAN,,NAN,2.92,3.08,,0,94,94,94,1,95,Riley,Acc,Participant_Images/60fdc3ada5f9d93d7976cc0c/60fdc3ada5f9d93d7976cc0c_Images/60fdc3ada5f9d93d7976cc0c_Image_21.jpeg,liked,2.455989137,,,,,,,,,,,,,,,,,,,,,,,
,,60fdc3ada5f9d93d7976cc0c,2024-09-13_12h44.36.877,WTP_SM_Choice,2022.2.1,MacIntel,60.24096386,,,,,space,0.3996,NAN,,NAN,2.92,3.08,,0,95,95,95,1,96,Riley,Acc,Participant_Images/60fdc3ada5f9d93d7976cc0c/60fdc3ada5f9d93d7976cc0c_Images/60fdc3ada5f9d93d7976cc0c_Image_7.jpeg,did not like,3.79605092,,,,,,,,,,,,,,,,,,,,,,,
,,60fdc3ada5f9d93d7976cc0c,2024-09-13_12h44.36.877,WTP_SM_Choice,2022.2.1,MacIntel,60.24096386,,,,,space,0.0337,NAN,,NAN,2.92,3.08,,0,96,96,96,1,97,Riley,Acc,Participant_Images/60fdc3ada5f9d93d7976cc0c/60fdc3ada5f9d93d7976cc0c_Images/60fdc3ada5f9d93d7976cc0c_Image_12.jpeg,did not like,3.562416326,,,,,,,,,,,,,,,,,,,,,,,
,,60fdc3ada5f9d93d7976cc0c,2024-09-13_12h44.36.877,WTP_SM_Choice,2022.2.1,MacIntel,60.24096386,,,,,space,1.8201,NAN,,NAN,2.92,3.08,,0,97,97,97,1,98,Riley,Acc,Participant_Images/60fdc3ada5f9d93d7976cc0c/60fdc3ada5f9d93d7976cc0c_Images/60fdc3ada5f9d93d7976cc0c_Image_8.jpeg,did not like,2.843822497,,,,,,,,,,,,,,,,,,,,,,,
,,60fdc3ada5f9d93d7976cc0c,2024-09-13_12h44.36.877,WTP_SM_Choice,2022.2.1,MacIntel,60.24096386,,,,,space,0.7045,NAN,,NAN,2.92,3.08,,0,98,98,98,1,99,Riley,Acc,Participant_Images/60fdc3ada5f9d93d7976cc0c/60fdc3ada5f9d93d7976cc0c_Images/60fdc3ada5f9d93d7976cc0c_Image_20.jpeg,liked,3.546495948,,,,,,,,,,,,,,,,,,,,,,,
,,60fdc3ada5f9d93d7976cc0c,2024-09-13_12h44.36.877,WTP_SM_Choice,2022.2.1,MacIntel,60.24096386,,,,,,,,,,,,,,,,,,96,,,,,,space,0.1927,space,0.4513,0.05,2,0.4067,0,0,0,0,1,Start a new reality tv show,Travel to a new place with my boyfriend,0.01,0.05,3.3,1,,,,,
,,60fdc3ada5f9d93d7976cc0c,2024-09-13_12h44.36.877,WTP_SM_Choice,2022.2.1,MacIntel,60.24096386,,,,,,,,,,,,,,,,,,97,,,,,,,,,,0.05,2,0.0003,0,1,1,1,1,Read a book in the park,Sit and chat at a coffee shop with my best friend,0.02,0.05,1.1,1,,,,,
,,60fdc3ada5f9d93d7976cc0c,2024-09-13_12h44.36.877,WTP_SM_Choice,2022.2.1,MacIntel,60.24096386,,,,,,,,,,,,,,,,,,98,,,,,,,,,,0.05,2,0.0435,0,2,2,2,1,Go on a long walk,Go on a walk with my best friend,0.03,0.05,1.1,1,,,,,
,,60fdc3ada5f9d93d7976cc0c,2024-09-13_12h44.36.877,WTP_SM_Choice,2022.2.1,MacIntel,60.24096386,,,,,,,,,,,,,,,,,,99,,,,,,,,,,0.05,2,0.0003,0,3,3,3,1,Watch our favorite tv show with my boyfiend,Drink a nice bottle of wine while watching a show,0.04,0.05,3.3,0,,,,,
,,60fdc3ada5f9d93d7976cc0c,2024-09-13_12h44.36.877,WTP_SM_Choice,2022.2.1,MacIntel,60.24096386,,,,,,,,,,,,,,,,,,100,,,,,,,,,,0.05,1,0.1601,0,4,4,4,1,Drink a fun cocktail together with my parents,Drink a nice bottle of wine while watching a show,0.05,0.05,4.4,0,,,,,
,,60fdc3ada5f9d93d7976cc0c,2024-09-13_12h44.36.877,WTP_SM_Choice,2022.2.1,MacIntel,60.24096386,,,,,,,NAN,space,5,3.17,2.83,,0,99,99,99,1,100,Riley,Acc,Participant_Images/60fdc3ada5f9d93d7976cc0c/60fdc3ada5f9d93d7976cc0c_Images/60fdc3ada5f9d93d7976cc0c_Image_2.jpeg,did not like,1.672012706,,,,,,,,,,,,,,,,,,,space,0.4963,0.6288,,
,,60fdc3ada5f9d93d7976cc0c,2024-09-13_12h44.36.877,WTP_SM_Choice,2022.2.1,MacIntel,60.24096386,,,,,,,,,,,,,,,,,,,,,,,,,,,,,,,,,,,,,,,,,,,,,space,1.8005
