endwelcomescreen_keys.keys,endwelcomescreen_keys.rt,participant,STUDY_ID,SESSION_ID,date,expName,psychopyVersion,OS,frameRate,endinstructionscreen_keys.keys,endinstructionscreen_keys.rt,endpartnermatch_keys.keys,endpartnermatch_keys.rt,sharenextphoto_key.keys,sharenextphoto_key.rt,salience_rating,key_resp.keys,stress_level,subtract_bonus,TOTAL_TASK_BONUS,stresslevel_keypress.keys,entiretaskloop.thisRepN,entiretaskloop.thisTrialN,entiretaskloop.thisN,entiretaskloop.thisIndex,entiretaskloop.ran,TrialNumber,Partner,Condition,Photos,Feedback,FeedbackWait,WTP_ins_keys1.keys,WTP_ins_keys1.rt,WTP_ins_keys2.keys,WTP_ins_keys2.rt,decision_price,responses.keys,responses.rt,WTPTaskLoop.thisRepN,WTPTaskLoop.thisTrialN,WTPTaskLoop.thisN,WTPTaskLoop.thisIndex,WTPTaskLoop.ran,right,left,leftmoney,rightmoney,WTP_ITI,social_left,Resume_keys.keys,Resume_keys.rt,key_resp.rt,end_screen_keys.keys,end_screen_keys.rt
space,4.1287,60fd83ff5af11073b7d1ed62,6685aa9113c938e83b4f1ea0,66fe90317ffb54dd09ad669e,2024-10-03_07h38.34.414,WTP_SM_Choice,2022.2.1,Win32,60.24096386,,,,,,,,,,,,,,,,,,,,,,,,,,,,,,,,,,,,,,,,,,,,,,
,,60fd83ff5af11073b7d1ed62,6685aa9113c938e83b4f1ea0,66fe90317ffb54dd09ad669e,2024-10-03_07h38.34.414,WTP_SM_Choice,2022.2.1,Win32,60.24096386,space,9.9104,,,,,,,,,,,,,,,,,,,,,,,,,,,,,,,,,,,,,,,,,,,,
,,60fd83ff5af11073b7d1ed62,6685aa9113c938e83b4f1ea0,66fe90317ffb54dd09ad669e,2024-10-03_07h38.34.414,WTP_SM_Choice,2022.2.1,Win32,60.24096386,,,space,1.5342,space,1.1487,NAN,,NAN,0,6,,0,0,0,0,1,1,Sam,Rej,Participant_Images/60fd83ff5af11073b7d1ed62/60fd83ff5af11073b7d1ed62_Images/60fd83ff5af11073b7d1ed62_Image_17.jpeg,did not like,3.613205605,,,,,,,,,,,,,,,,,,,,,,,
,,60fd83ff5af11073b7d1ed62,6685aa9113c938e83b4f1ea0,66fe90317ffb54dd09ad669e,2024-10-03_07h38.34.414,WTP_SM_Choice,2022.2.1,Win32,60.24096386,,,,,space,0.6337,NAN,,NAN,0,6,,0,1,1,1,1,2,Sam,Rej,Participant_Images/60fd83ff5af11073b7d1ed62/60fd83ff5af11073b7d1ed62_Images/60fd83ff5af11073b7d1ed62_Image_20.jpeg,did not like,4.988446431,,,,,,,,,,,,,,,,,,,,,,,
,,60fd83ff5af11073b7d1ed62,6685aa9113c938e83b4f1ea0,66fe90317ffb54dd09ad669e,2024-10-03_07h38.34.414,WTP_SM_Choice,2022.2.1,Win32,60.24096386,,,,,space,0.7429,NAN,,NAN,0,6,,0,2,2,2,1,3,Sam,Rej,Participant_Images/60fd83ff5af11073b7d1ed62/60fd83ff5af11073b7d1ed62_Images/60fd83ff5af11073b7d1ed62_Image_5.jpeg,liked,3.470791822,,,,,,,,,,,,,,,,,,,,,,,
,,60fd83ff5af11073b7d1ed62,6685aa9113c938e83b4f1ea0,66fe90317ffb54dd09ad669e,2024-10-03_07h38.34.414,WTP_SM_Choice,2022.2.1,Win32,60.24096386,,,,,space,0.7846,NAN,,NAN,0,6,,0,3,3,3,1,4,Sam,Rej,Participant_Images/60fd83ff5af11073b7d1ed62/60fd83ff5af11073b7d1ed62_Images/60fd83ff5af11073b7d1ed62_Image_2.jpeg,liked,3.820572462,,,,,,,,,,,,,,,,,,,,,,,
,,60fd83ff5af11073b7d1ed62,6685aa9113c938e83b4f1ea0,66fe90317ffb54dd09ad669e,2024-10-03_07h38.34.414,WTP_SM_Choice,2022.2.1,Win32,60.24096386,,,,,,,,,,,,,,,,,,1,,,,,,space,13.9861,space,3.6809,0.01,2,5.5807,0,0,0,0,1,Take long walks through nature trails during the fall,Go out for coffee with my coworkers during break time,0.01,0.01,4.4,1,,,,,
,,60fd83ff5af11073b7d1ed62,6685aa9113c938e83b4f1ea0,66fe90317ffb54dd09ad669e,2024-10-03_07h38.34.414,WTP_SM_Choice,2022.2.1,Win32,60.24096386,,,,,,,,,,,,,,,,,,2,,,,,,,,,,0.02,1,7.3439,0,1,1,1,1,Explore local festivals with friends to experience new cultures,Try different specialty drinks at trendy coffee shops,0.02,0.01,8.8,0,,,,,
,,60fd83ff5af11073b7d1ed62,6685aa9113c938e83b4f1ea0,66fe90317ffb54dd09ad669e,2024-10-03_07h38.34.414,WTP_SM_Choice,2022.2.1,Win32,60.24096386,,,,,,,,,,,,,,,,,,3,,,,,,,,,,0.01,2,2.4114,0,2,2,2,1,Travel to italy and exploring hidden gems in the countryside,Host game nights with my family at home on weekends,0.03,0.01,3.3,1,,,,,
,,60fd83ff5af11073b7d1ed62,6685aa9113c938e83b4f1ea0,66fe90317ffb54dd09ad669e,2024-10-03_07h38.34.414,WTP_SM_Choice,2022.2.1,Win32,60.24096386,,,,,,,,,,,,,,,,,,4,,,,,,,,,,0.04,1,3.3493,0,3,3,3,1,Listen to music while organizing my space,Participate in trivia nights at a local pub with coworkers,0.04,0.01,1.1,1,,,,,
,,60fd83ff5af11073b7d1ed62,6685aa9113c938e83b4f1ea0,66fe90317ffb54dd09ad669e,2024-10-03_07h38.34.414,WTP_SM_Choice,2022.2.1,Win32,60.24096386,,,,,,,,,,,,,,,,,,5,,,,,,,,,,0.05,1,2.4178,0,4,4,4,1,Spend evenings enjoying the sunset from my pool ,Share cocktails and stories with friends during summer rooftop gatherings,0.05,0.01,1.1,1,,,,,
,,60fd83ff5af11073b7d1ed62,6685aa9113c938e83b4f1ea0,66fe90317ffb54dd09ad669e,2024-10-03_07h38.34.414,WTP_SM_Choice,2022.2.1,Win32,60.24096386,,,,,,,NAN,,NAN,0.13,5.87,,0,4,4,4,1,5,Sam,Rej,Participant_Images/60fd83ff5af11073b7d1ed62/60fd83ff5af11073b7d1ed62_Images/60fd83ff5af11073b7d1ed62_Image_23.jpeg,did not like,2.455989137,,,,,,,,,,,,,,,,,,,,,,,
,,60fd83ff5af11073b7d1ed62,6685aa9113c938e83b4f1ea0,66fe90317ffb54dd09ad669e,2024-10-03_07h38.34.414,WTP_SM_Choice,2022.2.1,Win32,60.24096386,,,,,space,0.65,NAN,,NAN,0.13,5.87,,0,5,5,5,1,6,Sam,Rej,Participant_Images/60fd83ff5af11073b7d1ed62/60fd83ff5af11073b7d1ed62_Images/60fd83ff5af11073b7d1ed62_Image_11.jpeg,did not like,3.79605092,,,,,,,,,,,,,,,,,,,,,,,
,,60fd83ff5af11073b7d1ed62,6685aa9113c938e83b4f1ea0,66fe90317ffb54dd09ad669e,2024-10-03_07h38.34.414,WTP_SM_Choice,2022.2.1,Win32,60.24096386,,,,,space,2.0184,NAN,,NAN,0.13,5.87,,0,6,6,6,1,7,Sam,Rej,Participant_Images/60fd83ff5af11073b7d1ed62/60fd83ff5af11073b7d1ed62_Images/60fd83ff5af11073b7d1ed62_Image_22.jpeg,did not like,3.562416326,,,,,,,,,,,,,,,,,,,,,,,
,,60fd83ff5af11073b7d1ed62,6685aa9113c938e83b4f1ea0,66fe90317ffb54dd09ad669e,2024-10-03_07h38.34.414,WTP_SM_Choice,2022.2.1,Win32,60.24096386,,,,,space,1.5739,NAN,,NAN,0.13,5.87,,0,7,7,7,1,8,Sam,Rej,Participant_Images/60fd83ff5af11073b7d1ed62/60fd83ff5af11073b7d1ed62_Images/60fd83ff5af11073b7d1ed62_Image_8.jpeg,did not like,2.843822497,,,,,,,,,,,,,,,,,,,,,,,
,,60fd83ff5af11073b7d1ed62,6685aa9113c938e83b4f1ea0,66fe90317ffb54dd09ad669e,2024-10-03_07h38.34.414,WTP_SM_Choice,2022.2.1,Win32,60.24096386,,,,,space,0.824,NAN,,NAN,0.13,5.87,,0,8,8,8,1,9,Sam,Rej,Participant_Images/60fd83ff5af11073b7d1ed62/60fd83ff5af11073b7d1ed62_Images/60fd83ff5af11073b7d1ed62_Image_3.jpeg,liked,3.546495948,,,,,,,,,,,,,,,,,,,,,,,
,,60fd83ff5af11073b7d1ed62,6685aa9113c938e83b4f1ea0,66fe90317ffb54dd09ad669e,2024-10-03_07h38.34.414,WTP_SM_Choice,2022.2.1,Win32,60.24096386,,,,,,,,,,,,,,,,,,6,,,,,,space,5.8733,space,2.9464,0.01,1,8.1719,0,0,0,0,1,Take long walks through nature trails during the fall,Explore local festivals with friends to experience new cultures,0.01,0.02,3.3,1,,,,,
,,60fd83ff5af11073b7d1ed62,6685aa9113c938e83b4f1ea0,66fe90317ffb54dd09ad669e,2024-10-03_07h38.34.414,WTP_SM_Choice,2022.2.1,Win32,60.24096386,,,,,,,,,,,,,,,,,,7,,,,,,,,,,0.02,2,3.4721,0,1,1,1,1,Share cocktails and stories with friends during summer rooftop gatherings,Take long walks through nature trails during the fall,0.02,0.02,1.1,0,,,,,
,,60fd83ff5af11073b7d1ed62,6685aa9113c938e83b4f1ea0,66fe90317ffb54dd09ad669e,2024-10-03_07h38.34.414,WTP_SM_Choice,2022.2.1,Win32,60.24096386,,,,,,,,,,,,,,,,,,8,,,,,,,,,,0.02,2,4.2843,0,2,2,2,1,Cook homemade meals and experimenting with new recipes in the kitchen,Play board games with my roommates for a fun night in,0.03,0.02,1.1,1,,,,,
,,60fd83ff5af11073b7d1ed62,6685aa9113c938e83b4f1ea0,66fe90317ffb54dd09ad669e,2024-10-03_07h38.34.414,WTP_SM_Choice,2022.2.1,Win32,60.24096386,,,,,,,,,,,,,,,,,,9,,,,,,,,,,0.04,1,5.3913,0,3,3,3,1,Enjoy quiet evenings curled up with my two cats,Host game nights with my family at home on weekends,0.04,0.02,4.4,1,,,,,
,,60fd83ff5af11073b7d1ed62,6685aa9113c938e83b4f1ea0,66fe90317ffb54dd09ad669e,2024-10-03_07h38.34.414,WTP_SM_Choice,2022.2.1,Win32,60.24096386,,,,,,,,,,,,,,,,,,10,,,,,,,,,,0.02,2,3.7593,0,4,4,4,1,Participate in trivia nights at a local pub with coworkers,Go on spontaneous target runs to find new home essentials,0.05,0.02,1.1,0,,,,,
,,60fd83ff5af11073b7d1ed62,6685aa9113c938e83b4f1ea0,66fe90317ffb54dd09ad669e,2024-10-03_07h38.34.414,WTP_SM_Choice,2022.2.1,Win32,60.24096386,,,,,,,NAN,,NAN,0.24,5.76,,0,9,9,9,1,10,Sam,Rej,Participant_Images/60fd83ff5af11073b7d1ed62/60fd83ff5af11073b7d1ed62_Images/60fd83ff5af11073b7d1ed62_Image_25.jpeg,did not like,1.672012706,,,,,,,,,,,,,,,,,,,,,,,
,,60fd83ff5af11073b7d1ed62,6685aa9113c938e83b4f1ea0,66fe90317ffb54dd09ad669e,2024-10-03_07h38.34.414,WTP_SM_Choice,2022.2.1,Win32,60.24096386,,,,,space,1.2178,NAN,,NAN,0.24,5.76,,0,10,10,10,1,11,Sam,Rej,Participant_Images/60fd83ff5af11073b7d1ed62/60fd83ff5af11073b7d1ed62_Images/60fd83ff5af11073b7d1ed62_Image_21.jpeg,did not like,4.942172136,,,,,,,,,,,,,,,,,,,,,,,
,,60fd83ff5af11073b7d1ed62,6685aa9113c938e83b4f1ea0,66fe90317ffb54dd09ad669e,2024-10-03_07h38.34.414,WTP_SM_Choice,2022.2.1,Win32,60.24096386,,,,,space,0.6371,NAN,,NAN,0.24,5.76,,0,11,11,11,1,12,Sam,Rej,Participant_Images/60fd83ff5af11073b7d1ed62/60fd83ff5af11073b7d1ed62_Images/60fd83ff5af11073b7d1ed62_Image_13.jpeg,did not like,2.50187214,,,,,,,,,,,,,,,,,,,,,,,
,,60fd83ff5af11073b7d1ed62,6685aa9113c938e83b4f1ea0,66fe90317ffb54dd09ad669e,2024-10-03_07h38.34.414,WTP_SM_Choice,2022.2.1,Win32,60.24096386,,,,,space,0.3829,NAN,,NAN,0.24,5.76,,0,12,12,12,1,13,Sam,Rej,Participant_Images/60fd83ff5af11073b7d1ed62/60fd83ff5af11073b7d1ed62_Images/60fd83ff5af11073b7d1ed62_Image_19.jpeg,did not like,2.071164779,,,,,,,,,,,,,,,,,,,,,,,
,,60fd83ff5af11073b7d1ed62,6685aa9113c938e83b4f1ea0,66fe90317ffb54dd09ad669e,2024-10-03_07h38.34.414,WTP_SM_Choice,2022.2.1,Win32,60.24096386,,,,,space,0.5524,NAN,,NAN,0.24,5.76,,0,13,13,13,1,14,Sam,Rej,Participant_Images/60fd83ff5af11073b7d1ed62/60fd83ff5af11073b7d1ed62_Images/60fd83ff5af11073b7d1ed62_Image_7.jpeg,liked,5.336503566,,,,,,,,,,,,,,,,,,,,,,,
,,60fd83ff5af11073b7d1ed62,6685aa9113c938e83b4f1ea0,66fe90317ffb54dd09ad669e,2024-10-03_07h38.34.414,WTP_SM_Choice,2022.2.1,Win32,60.24096386,,,,,,,,,,,,,,,,,,11,,,,,,space,2.6646,space,1.6997,0.01,1,2.9962,0,0,0,0,1,Go on spontaneous target runs to find new home essentials,Cook dinner together with family during the holidays,0.01,0.03,3.3,1,,,,,
,,60fd83ff5af11073b7d1ed62,6685aa9113c938e83b4f1ea0,66fe90317ffb54dd09ad669e,2024-10-03_07h38.34.414,WTP_SM_Choice,2022.2.1,Win32,60.24096386,,,,,,,,,,,,,,,,,,12,,,,,,,,,,0.03,2,2.0543,0,1,1,1,1,Share cocktails and stories with friends during summer rooftop gatherings,Cook homemade meals and experimenting with new recipes in the kitchen,0.02,0.03,4.4,0,,,,,
,,60fd83ff5af11073b7d1ed62,6685aa9113c938e83b4f1ea0,66fe90317ffb54dd09ad669e,2024-10-03_07h38.34.414,WTP_SM_Choice,2022.2.1,Win32,60.24096386,,,,,,,,,,,,,,,,,,13,,,,,,,,,,0.03,2,5.6709,0,2,2,2,1,Spend evenings enjoying the sunset from my pool ,Participate in trivia nights at a local pub with coworkers,0.03,0.03,1.1,1,,,,,
,,60fd83ff5af11073b7d1ed62,6685aa9113c938e83b4f1ea0,66fe90317ffb54dd09ad669e,2024-10-03_07h38.34.414,WTP_SM_Choice,2022.2.1,Win32,60.24096386,,,,,,,,,,,,,,,,,,14,,,,,,,,,,0.03,2,1.9241,0,3,3,3,1,Go out for coffee with my coworkers during break time,Listen to music while organizing my space,0.04,0.03,3.3,0,,,,,
,,60fd83ff5af11073b7d1ed62,6685aa9113c938e83b4f1ea0,66fe90317ffb54dd09ad669e,2024-10-03_07h38.34.414,WTP_SM_Choice,2022.2.1,Win32,60.24096386,,,,,,,,,,,,,,,,,,15,,,,,,,,,,0.03,2,5.5087,0,4,4,4,1,Hike scenic trails with my boyfriend on crisp autumn weekends,Take long walks through nature trails during the fall,0.05,0.03,4.4,0,,,,,
,,60fd83ff5af11073b7d1ed62,6685aa9113c938e83b4f1ea0,66fe90317ffb54dd09ad669e,2024-10-03_07h38.34.414,WTP_SM_Choice,2022.2.1,Win32,60.24096386,,,,,,,NAN,,NAN,0.37,5.63,,0,14,14,14,1,15,Sam,Rej,Participant_Images/60fd83ff5af11073b7d1ed62/60fd83ff5af11073b7d1ed62_Images/60fd83ff5af11073b7d1ed62_Image_9.jpeg,did not like,2.642157193,,,,,,,,,,,,,,,,,,,,,,,
,,60fd83ff5af11073b7d1ed62,6685aa9113c938e83b4f1ea0,66fe90317ffb54dd09ad669e,2024-10-03_07h38.34.414,WTP_SM_Choice,2022.2.1,Win32,60.24096386,,,,,space,0.8136,NAN,,NAN,0.37,5.63,,0,15,15,15,1,16,Sam,Rej,Participant_Images/60fd83ff5af11073b7d1ed62/60fd83ff5af11073b7d1ed62_Images/60fd83ff5af11073b7d1ed62_Image_18.jpeg,liked,4.456234322,,,,,,,,,,,,,,,,,,,,,,,
,,60fd83ff5af11073b7d1ed62,6685aa9113c938e83b4f1ea0,66fe90317ffb54dd09ad669e,2024-10-03_07h38.34.414,WTP_SM_Choice,2022.2.1,Win32,60.24096386,,,,,space,0.2898,NAN,,NAN,0.37,5.63,,0,16,16,16,1,17,Sam,Rej,Participant_Images/60fd83ff5af11073b7d1ed62/60fd83ff5af11073b7d1ed62_Images/60fd83ff5af11073b7d1ed62_Image_10.jpeg,did not like,4.438512181,,,,,,,,,,,,,,,,,,,,,,,
,,60fd83ff5af11073b7d1ed62,6685aa9113c938e83b4f1ea0,66fe90317ffb54dd09ad669e,2024-10-03_07h38.34.414,WTP_SM_Choice,2022.2.1,Win32,60.24096386,,,,,space,0.4994,NAN,,NAN,0.37,5.63,,0,17,17,17,1,18,Sam,Rej,Participant_Images/60fd83ff5af11073b7d1ed62/60fd83ff5af11073b7d1ed62_Images/60fd83ff5af11073b7d1ed62_Image_6.jpeg,liked,2.682944783,,,,,,,,,,,,,,,,,,,,,,,
,,60fd83ff5af11073b7d1ed62,6685aa9113c938e83b4f1ea0,66fe90317ffb54dd09ad669e,2024-10-03_07h38.34.414,WTP_SM_Choice,2022.2.1,Win32,60.24096386,,,,,space,0.3429,NAN,,NAN,0.37,5.63,,0,18,18,18,1,19,Sam,Rej,Participant_Images/60fd83ff5af11073b7d1ed62/60fd83ff5af11073b7d1ed62_Images/60fd83ff5af11073b7d1ed62_Image_14.jpeg,did not like,4.51984296,,,,,,,,,,,,,,,,,,,,,,,
,,60fd83ff5af11073b7d1ed62,6685aa9113c938e83b4f1ea0,66fe90317ffb54dd09ad669e,2024-10-03_07h38.34.414,WTP_SM_Choice,2022.2.1,Win32,60.24096386,,,,,,,,,,,,,,,,,,16,,,,,,space,2.7307,space,2.1328,0.04,2,2.0176,0,0,0,0,1,Hike scenic trails with my boyfriend on crisp autumn weekends,Listen to music while organizing my space,0.01,0.04,1.1,0,,,,,
,,60fd83ff5af11073b7d1ed62,6685aa9113c938e83b4f1ea0,66fe90317ffb54dd09ad669e,2024-10-03_07h38.34.414,WTP_SM_Choice,2022.2.1,Win32,60.24096386,,,,,,,,,,,,,,,,,,17,,,,,,,,,,0.02,1,3.7422,0,1,1,1,1,Play board games with my roommates for a fun night in,Travel to italy and exploring hidden gems in the countryside,0.02,0.04,8.8,0,,,,,
,,60fd83ff5af11073b7d1ed62,6685aa9113c938e83b4f1ea0,66fe90317ffb54dd09ad669e,2024-10-03_07h38.34.414,WTP_SM_Choice,2022.2.1,Win32,60.24096386,,,,,,,,,,,,,,,,,,18,,,,,,,,,,0.03,1,8.8436,0,2,2,2,1,Travel to new cities with my best friends for weekend escapes,Travel to italy and exploring hidden gems in the countryside,0.03,0.04,3.3,0,,,,,
,,60fd83ff5af11073b7d1ed62,6685aa9113c938e83b4f1ea0,66fe90317ffb54dd09ad669e,2024-10-03_07h38.34.414,WTP_SM_Choice,2022.2.1,Win32,60.24096386,,,,,,,,,,,,,,,,,,19,,,,,,,,,,0.04,2,4.3278,0,3,3,3,1,Travel to new cities with my best friends for weekend escapes,Cook homemade meals and experimenting with new recipes in the kitchen,0.04,0.04,3.3,0,,,,,
,,60fd83ff5af11073b7d1ed62,6685aa9113c938e83b4f1ea0,66fe90317ffb54dd09ad669e,2024-10-03_07h38.34.414,WTP_SM_Choice,2022.2.1,Win32,60.24096386,,,,,,,,,,,,,,,,,,20,,,,,,,,,,0.05,1,2.7252,0,4,4,4,1,Scroll through tiktok for new outfit inspiration and fun trends,Cook dinner together with family during the holidays,0.05,0.04,1.1,1,,,,,
,,60fd83ff5af11073b7d1ed62,6685aa9113c938e83b4f1ea0,66fe90317ffb54dd09ad669e,2024-10-03_07h38.34.414,WTP_SM_Choice,2022.2.1,Win32,60.24096386,,,,,,,NAN,,NAN,0.55,5.45,,0,19,19,19,1,20,Sam,Rej,Participant_Images/60fd83ff5af11073b7d1ed62/60fd83ff5af11073b7d1ed62_Images/60fd83ff5af11073b7d1ed62_Image_16.jpeg,did not like,3.195382774,,,,,,,,,,,,,,,,,,,,,,,
,,60fd83ff5af11073b7d1ed62,6685aa9113c938e83b4f1ea0,66fe90317ffb54dd09ad669e,2024-10-03_07h38.34.414,WTP_SM_Choice,2022.2.1,Win32,60.24096386,,,,,space,1.0509,NAN,,NAN,0.55,5.45,,0,20,20,20,1,21,Sam,Rej,Participant_Images/60fd83ff5af11073b7d1ed62/60fd83ff5af11073b7d1ed62_Images/60fd83ff5af11073b7d1ed62_Image_4.jpeg,did not like,1.779333479,,,,,,,,,,,,,,,,,,,,,,,
,,60fd83ff5af11073b7d1ed62,6685aa9113c938e83b4f1ea0,66fe90317ffb54dd09ad669e,2024-10-03_07h38.34.414,WTP_SM_Choice,2022.2.1,Win32,60.24096386,,,,,space,1.3071,NAN,,NAN,0.55,5.45,,0,21,21,21,1,22,Sam,Rej,Participant_Images/60fd83ff5af11073b7d1ed62/60fd83ff5af11073b7d1ed62_Images/60fd83ff5af11073b7d1ed62_Image_12.jpeg,liked,4.312468682,,,,,,,,,,,,,,,,,,,,,,,
,,60fd83ff5af11073b7d1ed62,6685aa9113c938e83b4f1ea0,66fe90317ffb54dd09ad669e,2024-10-03_07h38.34.414,WTP_SM_Choice,2022.2.1,Win32,60.24096386,,,,,space,1.607,NAN,,NAN,0.55,5.45,,0,22,22,22,1,23,Sam,Rej,Participant_Images/60fd83ff5af11073b7d1ed62/60fd83ff5af11073b7d1ed62_Images/60fd83ff5af11073b7d1ed62_Image_24.jpeg,did not like,4.940433059,,,,,,,,,,,,,,,,,,,,,,,
,,60fd83ff5af11073b7d1ed62,6685aa9113c938e83b4f1ea0,66fe90317ffb54dd09ad669e,2024-10-03_07h38.34.414,WTP_SM_Choice,2022.2.1,Win32,60.24096386,,,,,space,0.8671,NAN,,NAN,0.55,5.45,,0,23,23,23,1,24,Sam,Rej,Participant_Images/60fd83ff5af11073b7d1ed62/60fd83ff5af11073b7d1ed62_Images/60fd83ff5af11073b7d1ed62_Image_1.jpeg,did not like,2.7105123,,,,,,,,,,,,,,,,,,,,,,,
,,60fd83ff5af11073b7d1ed62,6685aa9113c938e83b4f1ea0,66fe90317ffb54dd09ad669e,2024-10-03_07h38.34.414,WTP_SM_Choice,2022.2.1,Win32,60.24096386,,,,,,,,,,,,,,,,,,21,,,,,,space,23.0647,space,2.0011,0.01,1,3.2533,0,0,0,0,1,Explore local festivals with friends to experience new cultures,Scroll through tiktok for new outfit inspiration and fun trends,0.01,0.05,8.8,0,,,,,
,,60fd83ff5af11073b7d1ed62,6685aa9113c938e83b4f1ea0,66fe90317ffb54dd09ad669e,2024-10-03_07h38.34.414,WTP_SM_Choice,2022.2.1,Win32,60.24096386,,,,,,,,,,,,,,,,,,22,,,,,,,,,,0.05,2,2.1016,0,1,1,1,1,Host game nights with my family at home on weekends,Go on spontaneous target runs to find new home essentials,0.02,0.05,4.4,0,,,,,
,,60fd83ff5af11073b7d1ed62,6685aa9113c938e83b4f1ea0,66fe90317ffb54dd09ad669e,2024-10-03_07h38.34.414,WTP_SM_Choice,2022.2.1,Win32,60.24096386,,,,,,,,,,,,,,,,,,23,,,,,,,,,,0.05,2,2.8617,0,2,2,2,1,Enjoy quiet evenings curled up with my two cats,Play board games with my roommates for a fun night in,0.03,0.05,1.1,1,,,,,
,,60fd83ff5af11073b7d1ed62,6685aa9113c938e83b4f1ea0,66fe90317ffb54dd09ad669e,2024-10-03_07h38.34.414,WTP_SM_Choice,2022.2.1,Win32,60.24096386,,,,,,,,,,,,,,,,,,24,,,,,,,,,,0.05,2,1.1523,0,3,3,3,1,Travel to italy and exploring hidden gems in the countryside,Explore farmers markets with my friends on saturday mornings,0.04,0.05,4.4,1,,,,,
,,60fd83ff5af11073b7d1ed62,6685aa9113c938e83b4f1ea0,66fe90317ffb54dd09ad669e,2024-10-03_07h38.34.414,WTP_SM_Choice,2022.2.1,Win32,60.24096386,,,,,,,,,,,,,,,,,,25,,,,,,,,,,0.05,1,4.2553,0,4,4,4,1,Participate in trivia nights at a local pub with coworkers,Take long walks through nature trails during the fall,0.05,0.05,3.3,0,,,,,
,,60fd83ff5af11073b7d1ed62,6685aa9113c938e83b4f1ea0,66fe90317ffb54dd09ad669e,2024-10-03_07h38.34.414,WTP_SM_Choice,2022.2.1,Win32,60.24096386,,,,,,,2,space,6,0.76,5.24,,0,24,24,24,1,25,Sam,Rej,Participant_Images/60fd83ff5af11073b7d1ed62/60fd83ff5af11073b7d1ed62_Images/60fd83ff5af11073b7d1ed62_Image_15.jpeg,did not like,3.602308302,,,,,,,,,,,,,,,,,,,space,1.1776,4.8064,,
,,60fd83ff5af11073b7d1ed62,6685aa9113c938e83b4f1ea0,66fe90317ffb54dd09ad669e,2024-10-03_07h38.34.414,WTP_SM_Choice,2022.2.1,Win32,60.24096386,,,space,1.3812,space,1.1749,NAN,,NAN,0.76,5.24,,0,25,25,25,1,26,Charlie,Acc,Participant_Images/60fd83ff5af11073b7d1ed62/60fd83ff5af11073b7d1ed62_Images/60fd83ff5af11073b7d1ed62_Image_13.jpeg,liked,4.106391878,,,,,,,,,,,,,,,,,,,,,,,
,,60fd83ff5af11073b7d1ed62,6685aa9113c938e83b4f1ea0,66fe90317ffb54dd09ad669e,2024-10-03_07h38.34.414,WTP_SM_Choice,2022.2.1,Win32,60.24096386,,,,,space,0.9201,NAN,,NAN,0.76,5.24,,0,26,26,26,1,27,Charlie,Acc,Participant_Images/60fd83ff5af11073b7d1ed62/60fd83ff5af11073b7d1ed62_Images/60fd83ff5af11073b7d1ed62_Image_25.jpeg,did not like,3.799433026,,,,,,,,,,,,,,,,,,,,,,,
,,60fd83ff5af11073b7d1ed62,6685aa9113c938e83b4f1ea0,66fe90317ffb54dd09ad669e,2024-10-03_07h38.34.414,WTP_SM_Choice,2022.2.1,Win32,60.24096386,,,,,space,1.1015,NAN,,NAN,0.76,5.24,,0,27,27,27,1,28,Charlie,Acc,Participant_Images/60fd83ff5af11073b7d1ed62/60fd83ff5af11073b7d1ed62_Images/60fd83ff5af11073b7d1ed62_Image_21.jpeg,liked,5.246980764,,,,,,,,,,,,,,,,,,,,,,,
,,60fd83ff5af11073b7d1ed62,6685aa9113c938e83b4f1ea0,66fe90317ffb54dd09ad669e,2024-10-03_07h38.34.414,WTP_SM_Choice,2022.2.1,Win32,60.24096386,,,,,space,1.2001,NAN,,NAN,0.76,5.24,,0,28,28,28,1,29,Charlie,Acc,Participant_Images/60fd83ff5af11073b7d1ed62/60fd83ff5af11073b7d1ed62_Images/60fd83ff5af11073b7d1ed62_Image_22.jpeg,liked,3.30081769,,,,,,,,,,,,,,,,,,,,,,,
,,60fd83ff5af11073b7d1ed62,6685aa9113c938e83b4f1ea0,66fe90317ffb54dd09ad669e,2024-10-03_07h38.34.414,WTP_SM_Choice,2022.2.1,Win32,60.24096386,,,,,,,,,,,,,,,,,,26,,,,,,space,1.2296,space,2.782,0.01,2,3.3917,0,0,0,0,1,Cook dinner together with family during the holidays,Cook homemade meals and experimenting with new recipes in the kitchen,0.01,0.01,4.4,0,,,,,
,,60fd83ff5af11073b7d1ed62,6685aa9113c938e83b4f1ea0,66fe90317ffb54dd09ad669e,2024-10-03_07h38.34.414,WTP_SM_Choice,2022.2.1,Win32,60.24096386,,,,,,,,,,,,,,,,,,27,,,,,,,,,,0.01,2,4.3542,0,1,1,1,1,Host game nights with my family at home on weekends,Cook homemade meals and experimenting with new recipes in the kitchen,0.02,0.01,3.3,0,,,,,
,,60fd83ff5af11073b7d1ed62,6685aa9113c938e83b4f1ea0,66fe90317ffb54dd09ad669e,2024-10-03_07h38.34.414,WTP_SM_Choice,2022.2.1,Win32,60.24096386,,,,,,,,,,,,,,,,,,28,,,,,,,,,,0.01,2,1.9168,0,2,2,2,1,Hike scenic trails with my boyfriend on crisp autumn weekends,Go on spontaneous target runs to find new home essentials,0.03,0.01,3.3,0,,,,,
,,60fd83ff5af11073b7d1ed62,6685aa9113c938e83b4f1ea0,66fe90317ffb54dd09ad669e,2024-10-03_07h38.34.414,WTP_SM_Choice,2022.2.1,Win32,60.24096386,,,,,,,,,,,,,,,,,,29,,,,,,,,,,0.01,2,7.462,0,3,3,3,1,Try my hand at photography while capturing natural beauty ,Go out for coffee with my coworkers during break time,0.04,0.01,4.4,1,,,,,
,,60fd83ff5af11073b7d1ed62,6685aa9113c938e83b4f1ea0,66fe90317ffb54dd09ad669e,2024-10-03_07h38.34.414,WTP_SM_Choice,2022.2.1,Win32,60.24096386,,,,,,,,,,,,,,,,,,30,,,,,,,,,,0.01,2,9.4335,0,4,4,4,1,Participate in trivia nights at a local pub with coworkers,Scroll through tiktok for new outfit inspiration and fun trends,0.05,0.01,8.8,0,,,,,
,,60fd83ff5af11073b7d1ed62,6685aa9113c938e83b4f1ea0,66fe90317ffb54dd09ad669e,2024-10-03_07h38.34.414,WTP_SM_Choice,2022.2.1,Win32,60.24096386,,,,,,,NAN,,NAN,0.81,5.19,,0,29,29,29,1,30,Charlie,Acc,Participant_Images/60fd83ff5af11073b7d1ed62/60fd83ff5af11073b7d1ed62_Images/60fd83ff5af11073b7d1ed62_Image_24.jpeg,did not like,1.661473164,,,,,,,,,,,,,,,,,,,,,,,
,,60fd83ff5af11073b7d1ed62,6685aa9113c938e83b4f1ea0,66fe90317ffb54dd09ad669e,2024-10-03_07h38.34.414,WTP_SM_Choice,2022.2.1,Win32,60.24096386,,,,,space,9.9343,NAN,,NAN,0.81,5.19,,0,30,30,30,1,31,Charlie,Acc,Participant_Images/60fd83ff5af11073b7d1ed62/60fd83ff5af11073b7d1ed62_Images/60fd83ff5af11073b7d1ed62_Image_7.jpeg,liked,3.613205605,,,,,,,,,,,,,,,,,,,,,,,
,,60fd83ff5af11073b7d1ed62,6685aa9113c938e83b4f1ea0,66fe90317ffb54dd09ad669e,2024-10-03_07h38.34.414,WTP_SM_Choice,2022.2.1,Win32,60.24096386,,,,,space,1.9373,NAN,,NAN,0.81,5.19,,0,31,31,31,1,32,Charlie,Acc,Participant_Images/60fd83ff5af11073b7d1ed62/60fd83ff5af11073b7d1ed62_Images/60fd83ff5af11073b7d1ed62_Image_6.jpeg,did not like,4.988446431,,,,,,,,,,,,,,,,,,,,,,,
,,60fd83ff5af11073b7d1ed62,6685aa9113c938e83b4f1ea0,66fe90317ffb54dd09ad669e,2024-10-03_07h38.34.414,WTP_SM_Choice,2022.2.1,Win32,60.24096386,,,,,space,0.4671,NAN,,NAN,0.81,5.19,,0,32,32,32,1,33,Charlie,Acc,Participant_Images/60fd83ff5af11073b7d1ed62/60fd83ff5af11073b7d1ed62_Images/60fd83ff5af11073b7d1ed62_Image_16.jpeg,liked,3.470791822,,,,,,,,,,,,,,,,,,,,,,,
,,60fd83ff5af11073b7d1ed62,6685aa9113c938e83b4f1ea0,66fe90317ffb54dd09ad669e,2024-10-03_07h38.34.414,WTP_SM_Choice,2022.2.1,Win32,60.24096386,,,,,space,1.5556,NAN,,NAN,0.81,5.19,,0,33,33,33,1,34,Charlie,Acc,Participant_Images/60fd83ff5af11073b7d1ed62/60fd83ff5af11073b7d1ed62_Images/60fd83ff5af11073b7d1ed62_Image_1.jpeg,did not like,3.820572462,,,,,,,,,,,,,,,,,,,,,,,
,,60fd83ff5af11073b7d1ed62,6685aa9113c938e83b4f1ea0,66fe90317ffb54dd09ad669e,2024-10-03_07h38.34.414,WTP_SM_Choice,2022.2.1,Win32,60.24096386,,,,,,,,,,,,,,,,,,31,,,,,,space,8.8302,space,5.7878,0.02,2,2.0204,0,0,0,0,1,Travel to new cities with my best friends for weekend escapes,Try different specialty drinks at trendy coffee shops,0.01,0.02,8.8,0,,,,,
,,60fd83ff5af11073b7d1ed62,6685aa9113c938e83b4f1ea0,66fe90317ffb54dd09ad669e,2024-10-03_07h38.34.414,WTP_SM_Choice,2022.2.1,Win32,60.24096386,,,,,,,,,,,,,,,,,,32,,,,,,,,,,0.02,2,2.7037,0,1,1,1,1,Host game nights with my family at home on weekends,Spend evenings enjoying the sunset from my pool ,0.02,0.02,1.1,0,,,,,
,,60fd83ff5af11073b7d1ed62,6685aa9113c938e83b4f1ea0,66fe90317ffb54dd09ad669e,2024-10-03_07h38.34.414,WTP_SM_Choice,2022.2.1,Win32,60.24096386,,,,,,,,,,,,,,,,,,33,,,,,,,,,,0.03,1,5.164,0,2,2,2,1,Scroll through tiktok for new outfit inspiration and fun trends,Host game nights with my family at home on weekends,0.03,0.02,4.4,1,,,,,
,,60fd83ff5af11073b7d1ed62,6685aa9113c938e83b4f1ea0,66fe90317ffb54dd09ad669e,2024-10-03_07h38.34.414,WTP_SM_Choice,2022.2.1,Win32,60.24096386,,,,,,,,,,,,,,,,,,34,,,,,,,,,,0.04,1,2.4908,0,3,3,3,1,Scroll through tiktok for new outfit inspiration and fun trends,Share cocktails and stories with friends during summer rooftop gatherings,0.04,0.02,3.3,1,,,,,
,,60fd83ff5af11073b7d1ed62,6685aa9113c938e83b4f1ea0,66fe90317ffb54dd09ad669e,2024-10-03_07h38.34.414,WTP_SM_Choice,2022.2.1,Win32,60.24096386,,,,,,,,,,,,,,,,,,35,,,,,,,,,,0.02,2,3.1093,0,4,4,4,1,Travel to italy and exploring hidden gems in the countryside,Explore local festivals with friends to experience new cultures,0.05,0.02,1.1,1,,,,,
,,60fd83ff5af11073b7d1ed62,6685aa9113c938e83b4f1ea0,66fe90317ffb54dd09ad669e,2024-10-03_07h38.34.414,WTP_SM_Choice,2022.2.1,Win32,60.24096386,,,,,,,NAN,,NAN,0.94,5.06,,0,34,34,34,1,35,Charlie,Acc,Participant_Images/60fd83ff5af11073b7d1ed62/60fd83ff5af11073b7d1ed62_Images/60fd83ff5af11073b7d1ed62_Image_8.jpeg,liked,2.455989137,,,,,,,,,,,,,,,,,,,,,,,
,,60fd83ff5af11073b7d1ed62,6685aa9113c938e83b4f1ea0,66fe90317ffb54dd09ad669e,2024-10-03_07h38.34.414,WTP_SM_Choice,2022.2.1,Win32,60.24096386,,,,,space,4.3684,NAN,,NAN,0.94,5.06,,0,35,35,35,1,36,Charlie,Acc,Participant_Images/60fd83ff5af11073b7d1ed62/60fd83ff5af11073b7d1ed62_Images/60fd83ff5af11073b7d1ed62_Image_23.jpeg,did not like,3.79605092,,,,,,,,,,,,,,,,,,,,,,,
,,60fd83ff5af11073b7d1ed62,6685aa9113c938e83b4f1ea0,66fe90317ffb54dd09ad669e,2024-10-03_07h38.34.414,WTP_SM_Choice,2022.2.1,Win32,60.24096386,,,,,space,2.1877,NAN,,NAN,0.94,5.06,,0,36,36,36,1,37,Charlie,Acc,Participant_Images/60fd83ff5af11073b7d1ed62/60fd83ff5af11073b7d1ed62_Images/60fd83ff5af11073b7d1ed62_Image_19.jpeg,liked,3.562416326,,,,,,,,,,,,,,,,,,,,,,,
,,60fd83ff5af11073b7d1ed62,6685aa9113c938e83b4f1ea0,66fe90317ffb54dd09ad669e,2024-10-03_07h38.34.414,WTP_SM_Choice,2022.2.1,Win32,60.24096386,,,,,space,0.8338,NAN,,NAN,0.94,5.06,,0,37,37,37,1,38,Charlie,Acc,Participant_Images/60fd83ff5af11073b7d1ed62/60fd83ff5af11073b7d1ed62_Images/60fd83ff5af11073b7d1ed62_Image_5.jpeg,liked,2.843822497,,,,,,,,,,,,,,,,,,,,,,,
,,60fd83ff5af11073b7d1ed62,6685aa9113c938e83b4f1ea0,66fe90317ffb54dd09ad669e,2024-10-03_07h38.34.414,WTP_SM_Choice,2022.2.1,Win32,60.24096386,,,,,space,54.0871,NAN,,NAN,0.94,5.06,,0,38,38,38,1,39,Charlie,Acc,Participant_Images/60fd83ff5af11073b7d1ed62/60fd83ff5af11073b7d1ed62_Images/60fd83ff5af11073b7d1ed62_Image_20.jpeg,liked,3.546495948,,,,,,,,,,,,,,,,,,,,,,,
,,60fd83ff5af11073b7d1ed62,6685aa9113c938e83b4f1ea0,66fe90317ffb54dd09ad669e,2024-10-03_07h38.34.414,WTP_SM_Choice,2022.2.1,Win32,60.24096386,,,,,,,,,,,,,,,,,,36,,,,,,space,1.2716,space,4.5989,0.01,1,1.9794,0,0,0,0,1,Try different specialty drinks at trendy coffee shops,Host game nights with my family at home on weekends,0.01,0.03,3.3,1,,,,,
,,60fd83ff5af11073b7d1ed62,6685aa9113c938e83b4f1ea0,66fe90317ffb54dd09ad669e,2024-10-03_07h38.34.414,WTP_SM_Choice,2022.2.1,Win32,60.24096386,,,,,,,,,,,,,,,,,,37,,,,,,,,,,0.02,1,2.4053,0,1,1,1,1,Enjoy quiet evenings curled up with my two cats,Travel to new cities with my best friends for weekend escapes,0.02,0.03,1.1,1,,,,,
,,60fd83ff5af11073b7d1ed62,6685aa9113c938e83b4f1ea0,66fe90317ffb54dd09ad669e,2024-10-03_07h38.34.414,WTP_SM_Choice,2022.2.1,Win32,60.24096386,,,,,,,,,,,,,,,,,,38,,,,,,,,,,0.03,1,2.9732,0,2,2,2,1,Go on spontaneous target runs to find new home essentials,Explore farmers markets with my friends on saturday mornings,0.03,0.03,1.1,1,,,,,
,,60fd83ff5af11073b7d1ed62,6685aa9113c938e83b4f1ea0,66fe90317ffb54dd09ad669e,2024-10-03_07h38.34.414,WTP_SM_Choice,2022.2.1,Win32,60.24096386,,,,,,,,,,,,,,,,,,39,,,,,,,,,,0.04,1,2.552,0,3,3,3,1,Share cocktails and stories with friends during summer rooftop gatherings,Travel to italy and exploring hidden gems in the countryside,0.04,0.03,3.3,0,,,,,
,,60fd83ff5af11073b7d1ed62,6685aa9113c938e83b4f1ea0,66fe90317ffb54dd09ad669e,2024-10-03_07h38.34.414,WTP_SM_Choice,2022.2.1,Win32,60.24096386,,,,,,,,,,,,,,,,,,40,,,,,,,,,,0.03,2,2.0423,0,4,4,4,1,Share cocktails and stories with friends during summer rooftop gatherings,Try my hand at photography while capturing natural beauty ,0.05,0.03,4.4,0,,,,,
,,60fd83ff5af11073b7d1ed62,6685aa9113c938e83b4f1ea0,66fe90317ffb54dd09ad669e,2024-10-03_07h38.34.414,WTP_SM_Choice,2022.2.1,Win32,60.24096386,,,,,,,NAN,,NAN,1.07,4.93,,0,39,39,39,1,40,Charlie,Acc,Participant_Images/60fd83ff5af11073b7d1ed62/60fd83ff5af11073b7d1ed62_Images/60fd83ff5af11073b7d1ed62_Image_4.jpeg,liked,1.672012706,,,,,,,,,,,,,,,,,,,,,,,
,,60fd83ff5af11073b7d1ed62,6685aa9113c938e83b4f1ea0,66fe90317ffb54dd09ad669e,2024-10-03_07h38.34.414,WTP_SM_Choice,2022.2.1,Win32,60.24096386,,,,,space,0.8987,NAN,,NAN,1.07,4.93,,0,40,40,40,1,41,Charlie,Acc,Participant_Images/60fd83ff5af11073b7d1ed62/60fd83ff5af11073b7d1ed62_Images/60fd83ff5af11073b7d1ed62_Image_10.jpeg,liked,4.942172136,,,,,,,,,,,,,,,,,,,,,,,
,,60fd83ff5af11073b7d1ed62,6685aa9113c938e83b4f1ea0,66fe90317ffb54dd09ad669e,2024-10-03_07h38.34.414,WTP_SM_Choice,2022.2.1,Win32,60.24096386,,,,,space,1.1326,NAN,,NAN,1.07,4.93,,0,41,41,41,1,42,Charlie,Acc,Participant_Images/60fd83ff5af11073b7d1ed62/60fd83ff5af11073b7d1ed62_Images/60fd83ff5af11073b7d1ed62_Image_14.jpeg,liked,2.50187214,,,,,,,,,,,,,,,,,,,,,,,
,,60fd83ff5af11073b7d1ed62,6685aa9113c938e83b4f1ea0,66fe90317ffb54dd09ad669e,2024-10-03_07h38.34.414,WTP_SM_Choice,2022.2.1,Win32,60.24096386,,,,,space,1.024,NAN,,NAN,1.07,4.93,,0,42,42,42,1,43,Charlie,Acc,Participant_Images/60fd83ff5af11073b7d1ed62/60fd83ff5af11073b7d1ed62_Images/60fd83ff5af11073b7d1ed62_Image_15.jpeg,liked,2.071164779,,,,,,,,,,,,,,,,,,,,,,,
,,60fd83ff5af11073b7d1ed62,6685aa9113c938e83b4f1ea0,66fe90317ffb54dd09ad669e,2024-10-03_07h38.34.414,WTP_SM_Choice,2022.2.1,Win32,60.24096386,,,,,space,0.8456,NAN,,NAN,1.07,4.93,,0,43,43,43,1,44,Charlie,Acc,Participant_Images/60fd83ff5af11073b7d1ed62/60fd83ff5af11073b7d1ed62_Images/60fd83ff5af11073b7d1ed62_Image_12.jpeg,did not like,5.336503566,,,,,,,,,,,,,,,,,,,,,,,
,,60fd83ff5af11073b7d1ed62,6685aa9113c938e83b4f1ea0,66fe90317ffb54dd09ad669e,2024-10-03_07h38.34.414,WTP_SM_Choice,2022.2.1,Win32,60.24096386,,,,,,,,,,,,,,,,,,41,,,,,,space,1.218,space,0.7752,0.01,1,1.9037,0,0,0,0,1,Go on spontaneous target runs to find new home essentials,Explore local festivals with friends to experience new cultures,0.01,0.04,1.1,1,,,,,
,,60fd83ff5af11073b7d1ed62,6685aa9113c938e83b4f1ea0,66fe90317ffb54dd09ad669e,2024-10-03_07h38.34.414,WTP_SM_Choice,2022.2.1,Win32,60.24096386,,,,,,,,,,,,,,,,,,42,,,,,,,,,,0.04,2,1.7074,0,1,1,1,1,Cook dinner together with family during the holidays,Spend evenings enjoying the sunset from my pool ,0.02,0.04,3.3,0,,,,,
,,60fd83ff5af11073b7d1ed62,6685aa9113c938e83b4f1ea0,66fe90317ffb54dd09ad669e,2024-10-03_07h38.34.414,WTP_SM_Choice,2022.2.1,Win32,60.24096386,,,,,,,,,,,,,,,,,,43,,,,,,,,,,0.03,1,2.4521,0,2,2,2,1,Enjoy quiet evenings curled up with my two cats,Cook dinner together with family during the holidays,0.03,0.04,1.1,1,,,,,
,,60fd83ff5af11073b7d1ed62,6685aa9113c938e83b4f1ea0,66fe90317ffb54dd09ad669e,2024-10-03_07h38.34.414,WTP_SM_Choice,2022.2.1,Win32,60.24096386,,,,,,,,,,,,,,,,,,44,,,,,,,,,,0.04,1,1.3688,0,3,3,3,1,Play board games with my roommates for a fun night in,Listen to music while organizing my space,0.04,0.04,1.1,0,,,,,
,,60fd83ff5af11073b7d1ed62,6685aa9113c938e83b4f1ea0,66fe90317ffb54dd09ad669e,2024-10-03_07h38.34.414,WTP_SM_Choice,2022.2.1,Win32,60.24096386,,,,,,,,,,,,,,,,,,45,,,,,,,,,,0.04,2,2.7382,0,4,4,4,1,Hike scenic trails with my boyfriend on crisp autumn weekends,Try different specialty drinks at trendy coffee shops,0.05,0.04,4.4,0,,,,,
,,60fd83ff5af11073b7d1ed62,6685aa9113c938e83b4f1ea0,66fe90317ffb54dd09ad669e,2024-10-03_07h38.34.414,WTP_SM_Choice,2022.2.1,Win32,60.24096386,,,,,,,NAN,,NAN,1.23,4.77,,0,44,44,44,1,45,Charlie,Acc,Participant_Images/60fd83ff5af11073b7d1ed62/60fd83ff5af11073b7d1ed62_Images/60fd83ff5af11073b7d1ed62_Image_11.jpeg,liked,2.642157193,,,,,,,,,,,,,,,,,,,,,,,
,,60fd83ff5af11073b7d1ed62,6685aa9113c938e83b4f1ea0,66fe90317ffb54dd09ad669e,2024-10-03_07h38.34.414,WTP_SM_Choice,2022.2.1,Win32,60.24096386,,,,,space,1.4836,NAN,,NAN,1.23,4.77,,0,45,45,45,1,46,Charlie,Acc,Participant_Images/60fd83ff5af11073b7d1ed62/60fd83ff5af11073b7d1ed62_Images/60fd83ff5af11073b7d1ed62_Image_3.jpeg,did not like,4.456234322,,,,,,,,,,,,,,,,,,,,,,,
,,60fd83ff5af11073b7d1ed62,6685aa9113c938e83b4f1ea0,66fe90317ffb54dd09ad669e,2024-10-03_07h38.34.414,WTP_SM_Choice,2022.2.1,Win32,60.24096386,,,,,space,1.3177,NAN,,NAN,1.23,4.77,,0,46,46,46,1,47,Charlie,Acc,Participant_Images/60fd83ff5af11073b7d1ed62/60fd83ff5af11073b7d1ed62_Images/60fd83ff5af11073b7d1ed62_Image_2.jpeg,liked,4.438512181,,,,,,,,,,,,,,,,,,,,,,,
,,60fd83ff5af11073b7d1ed62,6685aa9113c938e83b4f1ea0,66fe90317ffb54dd09ad669e,2024-10-03_07h38.34.414,WTP_SM_Choice,2022.2.1,Win32,60.24096386,,,,,space,6.8861,NAN,,NAN,1.23,4.77,,0,47,47,47,1,48,Charlie,Acc,Participant_Images/60fd83ff5af11073b7d1ed62/60fd83ff5af11073b7d1ed62_Images/60fd83ff5af11073b7d1ed62_Image_18.jpeg,liked,2.682944783,,,,,,,,,,,,,,,,,,,,,,,
,,60fd83ff5af11073b7d1ed62,6685aa9113c938e83b4f1ea0,66fe90317ffb54dd09ad669e,2024-10-03_07h38.34.414,WTP_SM_Choice,2022.2.1,Win32,60.24096386,,,,,space,1.0397,NAN,,NAN,1.23,4.77,,0,48,48,48,1,49,Charlie,Acc,Participant_Images/60fd83ff5af11073b7d1ed62/60fd83ff5af11073b7d1ed62_Images/60fd83ff5af11073b7d1ed62_Image_9.jpeg,liked,4.51984296,,,,,,,,,,,,,,,,,,,,,,,
,,60fd83ff5af11073b7d1ed62,6685aa9113c938e83b4f1ea0,66fe90317ffb54dd09ad669e,2024-10-03_07h38.34.414,WTP_SM_Choice,2022.2.1,Win32,60.24096386,,,,,,,,,,,,,,,,,,46,,,,,,space,6.6327,space,7.2751,0.05,2,4.3579,0,0,0,0,1,Enjoy quiet evenings curled up with my two cats,Go out for coffee with my coworkers during break time,0.01,0.05,8.8,1,,,,,
,,60fd83ff5af11073b7d1ed62,6685aa9113c938e83b4f1ea0,66fe90317ffb54dd09ad669e,2024-10-03_07h38.34.414,WTP_SM_Choice,2022.2.1,Win32,60.24096386,,,,,,,,,,,,,,,,,,47,,,,,,,,,,0.02,1,2.4546,0,1,1,1,1,Participate in trivia nights at a local pub with coworkers,Try my hand at photography while capturing natural beauty ,0.02,0.05,1.1,0,,,,,
,,60fd83ff5af11073b7d1ed62,6685aa9113c938e83b4f1ea0,66fe90317ffb54dd09ad669e,2024-10-03_07h38.34.414,WTP_SM_Choice,2022.2.1,Win32,60.24096386,,,,,,,,,,,,,,,,,,48,,,,,,,,,,0.03,1,2.8558,0,2,2,2,1,Scroll through tiktok for new outfit inspiration and fun trends,Explore farmers markets with my friends on saturday mornings,0.03,0.05,4.4,1,,,,,
,,60fd83ff5af11073b7d1ed62,6685aa9113c938e83b4f1ea0,66fe90317ffb54dd09ad669e,2024-10-03_07h38.34.414,WTP_SM_Choice,2022.2.1,Win32,60.24096386,,,,,,,,,,,,,,,,,,49,,,,,,,,,,0.04,1,1.891,0,3,3,3,1,Try my hand at photography while capturing natural beauty ,Explore farmers markets with my friends on saturday mornings,0.04,0.05,3.3,1,,,,,
,,60fd83ff5af11073b7d1ed62,6685aa9113c938e83b4f1ea0,66fe90317ffb54dd09ad669e,2024-10-03_07h38.34.414,WTP_SM_Choice,2022.2.1,Win32,60.24096386,,,,,,,,,,,,,,,,,,50,,,,,,,,,,0.05,1,2.4607,0,4,4,4,1,Go out for coffee with my coworkers during break time,Scroll through tiktok for new outfit inspiration and fun trends,0.05,0.05,1.1,0,,,,,
,,60fd83ff5af11073b7d1ed62,6685aa9113c938e83b4f1ea0,66fe90317ffb54dd09ad669e,2024-10-03_07h38.34.414,WTP_SM_Choice,2022.2.1,Win32,60.24096386,,,,,,,NAN,space,6,1.42,4.58,,0,49,49,49,1,50,Charlie,Acc,Participant_Images/60fd83ff5af11073b7d1ed62/60fd83ff5af11073b7d1ed62_Images/60fd83ff5af11073b7d1ed62_Image_17.jpeg,liked,3.195382774,,,,,,,,,,,,,,,,,,,space,2.4009,0.4335,,
,,60fd83ff5af11073b7d1ed62,6685aa9113c938e83b4f1ea0,66fe90317ffb54dd09ad669e,2024-10-03_07h38.34.414,WTP_SM_Choice,2022.2.1,Win32,60.24096386,,,space,1.6342,space,1.123,NAN,,NAN,1.42,4.58,,0,50,50,50,1,51,Riley,Acc,Participant_Images/60fd83ff5af11073b7d1ed62/60fd83ff5af11073b7d1ed62_Images/60fd83ff5af11073b7d1ed62_Image_13.jpeg,did not like,1.779333479,,,,,,,,,,,,,,,,,,,,,,,
,,60fd83ff5af11073b7d1ed62,6685aa9113c938e83b4f1ea0,66fe90317ffb54dd09ad669e,2024-10-03_07h38.34.414,WTP_SM_Choice,2022.2.1,Win32,60.24096386,,,,,space,1.7579,NAN,,NAN,1.42,4.58,,0,51,51,51,1,52,Riley,Acc,Participant_Images/60fd83ff5af11073b7d1ed62/60fd83ff5af11073b7d1ed62_Images/60fd83ff5af11073b7d1ed62_Image_21.jpeg,did not like,4.312468682,,,,,,,,,,,,,,,,,,,,,,,
,,60fd83ff5af11073b7d1ed62,6685aa9113c938e83b4f1ea0,66fe90317ffb54dd09ad669e,2024-10-03_07h38.34.414,WTP_SM_Choice,2022.2.1,Win32,60.24096386,,,,,space,1.0991,NAN,,NAN,1.42,4.58,,0,52,52,52,1,53,Riley,Acc,Participant_Images/60fd83ff5af11073b7d1ed62/60fd83ff5af11073b7d1ed62_Images/60fd83ff5af11073b7d1ed62_Image_20.jpeg,liked,4.940433059,,,,,,,,,,,,,,,,,,,,,,,
,,60fd83ff5af11073b7d1ed62,6685aa9113c938e83b4f1ea0,66fe90317ffb54dd09ad669e,2024-10-03_07h38.34.414,WTP_SM_Choice,2022.2.1,Win32,60.24096386,,,,,space,1.4854,NAN,,NAN,1.42,4.58,,0,53,53,53,1,54,Riley,Acc,Participant_Images/60fd83ff5af11073b7d1ed62/60fd83ff5af11073b7d1ed62_Images/60fd83ff5af11073b7d1ed62_Image_1.jpeg,liked,2.7105123,,,,,,,,,,,,,,,,,,,,,,,
,,60fd83ff5af11073b7d1ed62,6685aa9113c938e83b4f1ea0,66fe90317ffb54dd09ad669e,2024-10-03_07h38.34.414,WTP_SM_Choice,2022.2.1,Win32,60.24096386,,,,,,,,,,,,,,,,,,51,,,,,,space,1.208,space,1.2217,0.01,1,2.4216,0,0,0,0,1,Listen to music while organizing my space,Cook dinner together with family during the holidays,0.01,0.01,1.1,1,,,,,
,,60fd83ff5af11073b7d1ed62,6685aa9113c938e83b4f1ea0,66fe90317ffb54dd09ad669e,2024-10-03_07h38.34.414,WTP_SM_Choice,2022.2.1,Win32,60.24096386,,,,,,,,,,,,,,,,,,52,,,,,,,,,,0.01,2,2.5424,0,1,1,1,1,Spend evenings enjoying the sunset from my pool ,Play board games with my roommates for a fun night in,0.02,0.01,3.3,1,,,,,
,,60fd83ff5af11073b7d1ed62,6685aa9113c938e83b4f1ea0,66fe90317ffb54dd09ad669e,2024-10-03_07h38.34.414,WTP_SM_Choice,2022.2.1,Win32,60.24096386,,,,,,,,,,,,,,,,,,53,,,,,,,,,,0.03,1,1.9017,0,2,2,2,1,Try my hand at photography while capturing natural beauty ,Explore local festivals with friends to experience new cultures,0.03,0.01,1.1,1,,,,,
,,60fd83ff5af11073b7d1ed62,6685aa9113c938e83b4f1ea0,66fe90317ffb54dd09ad669e,2024-10-03_07h38.34.414,WTP_SM_Choice,2022.2.1,Win32,60.24096386,,,,,,,,,,,,,,,,,,54,,,,,,,,,,0.01,2,2.5693,0,3,3,3,1,Take long walks through nature trails during the fall,Play board games with my roommates for a fun night in,0.04,0.01,4.4,1,,,,,
,,60fd83ff5af11073b7d1ed62,6685aa9113c938e83b4f1ea0,66fe90317ffb54dd09ad669e,2024-10-03_07h38.34.414,WTP_SM_Choice,2022.2.1,Win32,60.24096386,,,,,,,,,,,,,,,,,,55,,,,,,,,,,0.05,1,3.401,0,4,4,4,1,Spend evenings enjoying the sunset from my pool ,Travel to new cities with my best friends for weekend escapes,0.05,0.01,1.1,1,,,,,
,,60fd83ff5af11073b7d1ed62,6685aa9113c938e83b4f1ea0,66fe90317ffb54dd09ad669e,2024-10-03_07h38.34.414,WTP_SM_Choice,2022.2.1,Win32,60.24096386,,,,,,,NAN,,NAN,1.53,4.47,,0,54,54,54,1,55,Riley,Acc,Participant_Images/60fd83ff5af11073b7d1ed62/60fd83ff5af11073b7d1ed62_Images/60fd83ff5af11073b7d1ed62_Image_3.jpeg,liked,3.602308302,,,,,,,,,,,,,,,,,,,,,,,
,,60fd83ff5af11073b7d1ed62,6685aa9113c938e83b4f1ea0,66fe90317ffb54dd09ad669e,2024-10-03_07h38.34.414,WTP_SM_Choice,2022.2.1,Win32,60.24096386,,,,,space,5.268,NAN,,NAN,1.53,4.47,,0,55,55,55,1,56,Riley,Acc,Participant_Images/60fd83ff5af11073b7d1ed62/60fd83ff5af11073b7d1ed62_Images/60fd83ff5af11073b7d1ed62_Image_18.jpeg,liked,4.106391878,,,,,,,,,,,,,,,,,,,,,,,
,,60fd83ff5af11073b7d1ed62,6685aa9113c938e83b4f1ea0,66fe90317ffb54dd09ad669e,2024-10-03_07h38.34.414,WTP_SM_Choice,2022.2.1,Win32,60.24096386,,,,,space,3.8199,NAN,,NAN,1.53,4.47,,0,56,56,56,1,57,Riley,Acc,Participant_Images/60fd83ff5af11073b7d1ed62/60fd83ff5af11073b7d1ed62_Images/60fd83ff5af11073b7d1ed62_Image_22.jpeg,liked,3.799433026,,,,,,,,,,,,,,,,,,,,,,,
,,60fd83ff5af11073b7d1ed62,6685aa9113c938e83b4f1ea0,66fe90317ffb54dd09ad669e,2024-10-03_07h38.34.414,WTP_SM_Choice,2022.2.1,Win32,60.24096386,,,,,space,1.1861,NAN,,NAN,1.53,4.47,,0,57,57,57,1,58,Riley,Acc,Participant_Images/60fd83ff5af11073b7d1ed62/60fd83ff5af11073b7d1ed62_Images/60fd83ff5af11073b7d1ed62_Image_19.jpeg,liked,5.246980764,,,,,,,,,,,,,,,,,,,,,,,
,,60fd83ff5af11073b7d1ed62,6685aa9113c938e83b4f1ea0,66fe90317ffb54dd09ad669e,2024-10-03_07h38.34.414,WTP_SM_Choice,2022.2.1,Win32,60.24096386,,,,,space,1.5577,NAN,,NAN,1.53,4.47,,0,58,58,58,1,59,Riley,Acc,Participant_Images/60fd83ff5af11073b7d1ed62/60fd83ff5af11073b7d1ed62_Images/60fd83ff5af11073b7d1ed62_Image_7.jpeg,liked,3.30081769,,,,,,,,,,,,,,,,,,,,,,,
,,60fd83ff5af11073b7d1ed62,6685aa9113c938e83b4f1ea0,66fe90317ffb54dd09ad669e,2024-10-03_07h38.34.414,WTP_SM_Choice,2022.2.1,Win32,60.24096386,,,,,,,,,,,,,,,,,,56,,,,,,space,1.9388,space,1.0883,0.02,2,3.5899,0,0,0,0,1,Cook dinner together with family during the holidays,Take long walks through nature trails during the fall,0.01,0.02,8.8,0,,,,,
,,60fd83ff5af11073b7d1ed62,6685aa9113c938e83b4f1ea0,66fe90317ffb54dd09ad669e,2024-10-03_07h38.34.414,WTP_SM_Choice,2022.2.1,Win32,60.24096386,,,,,,,,,,,,,,,,,,57,,,,,,,,,,,,,0,1,1,1,1,Cook homemade meals and experimenting with new recipes in the kitchen,Explore local festivals with friends to experience new cultures,0.02,0.02,4.4,1,,,,,
,,60fd83ff5af11073b7d1ed62,6685aa9113c938e83b4f1ea0,66fe90317ffb54dd09ad669e,2024-10-03_07h38.34.414,WTP_SM_Choice,2022.2.1,Win32,60.24096386,,,,,,,,,,,,,,,,,,58,,,,,,,,,,0.02,2,1.6519,0,2,2,2,1,Travel to italy and exploring hidden gems in the countryside,Cook dinner together with family during the holidays,0.03,0.02,4.4,1,,,,,
,,60fd83ff5af11073b7d1ed62,6685aa9113c938e83b4f1ea0,66fe90317ffb54dd09ad669e,2024-10-03_07h38.34.414,WTP_SM_Choice,2022.2.1,Win32,60.24096386,,,,,,,,,,,,,,,,,,59,,,,,,,,,,0.02,2,2.2872,0,3,3,3,1,Travel to new cities with my best friends for weekend escapes,Scroll through tiktok for new outfit inspiration and fun trends,0.04,0.02,4.4,0,,,,,
,,60fd83ff5af11073b7d1ed62,6685aa9113c938e83b4f1ea0,66fe90317ffb54dd09ad669e,2024-10-03_07h38.34.414,WTP_SM_Choice,2022.2.1,Win32,60.24096386,,,,,,,,,,,,,,,,,,60,,,,,,,,,,0.05,1,2.1166,0,4,4,4,1,Go on spontaneous target runs to find new home essentials,Go out for coffee with my coworkers during break time,0.05,0.02,1.1,1,,,,,
,,60fd83ff5af11073b7d1ed62,6685aa9113c938e83b4f1ea0,66fe90317ffb54dd09ad669e,2024-10-03_07h38.34.414,WTP_SM_Choice,2022.2.1,Win32,60.24096386,,,,,,,NAN,,NAN,1.64,4.36,,0,59,59,59,1,60,Riley,Acc,Participant_Images/60fd83ff5af11073b7d1ed62/60fd83ff5af11073b7d1ed62_Images/60fd83ff5af11073b7d1ed62_Image_24.jpeg,liked,1.661473164,,,,,,,,,,,,,,,,,,,,,,,
,,60fd83ff5af11073b7d1ed62,6685aa9113c938e83b4f1ea0,66fe90317ffb54dd09ad669e,2024-10-03_07h38.34.414,WTP_SM_Choice,2022.2.1,Win32,60.24096386,,,,,space,2.8837,NAN,,NAN,1.64,4.36,,0,60,60,60,1,61,Riley,Acc,Participant_Images/60fd83ff5af11073b7d1ed62/60fd83ff5af11073b7d1ed62_Images/60fd83ff5af11073b7d1ed62_Image_14.jpeg,liked,3.613205605,,,,,,,,,,,,,,,,,,,,,,,
,,60fd83ff5af11073b7d1ed62,6685aa9113c938e83b4f1ea0,66fe90317ffb54dd09ad669e,2024-10-03_07h38.34.414,WTP_SM_Choice,2022.2.1,Win32,60.24096386,,,,,space,1.3824,NAN,,NAN,1.64,4.36,,0,61,61,61,1,62,Riley,Acc,Participant_Images/60fd83ff5af11073b7d1ed62/60fd83ff5af11073b7d1ed62_Images/60fd83ff5af11073b7d1ed62_Image_5.jpeg,did not like,4.988446431,,,,,,,,,,,,,,,,,,,,,,,
,,60fd83ff5af11073b7d1ed62,6685aa9113c938e83b4f1ea0,66fe90317ffb54dd09ad669e,2024-10-03_07h38.34.414,WTP_SM_Choice,2022.2.1,Win32,60.24096386,,,,,space,1.2493,NAN,,NAN,1.64,4.36,,0,62,62,62,1,63,Riley,Acc,Participant_Images/60fd83ff5af11073b7d1ed62/60fd83ff5af11073b7d1ed62_Images/60fd83ff5af11073b7d1ed62_Image_8.jpeg,liked,3.470791822,,,,,,,,,,,,,,,,,,,,,,,
,,60fd83ff5af11073b7d1ed62,6685aa9113c938e83b4f1ea0,66fe90317ffb54dd09ad669e,2024-10-03_07h38.34.414,WTP_SM_Choice,2022.2.1,Win32,60.24096386,,,,,space,0.6174,NAN,,NAN,1.64,4.36,,0,63,63,63,1,64,Riley,Acc,Participant_Images/60fd83ff5af11073b7d1ed62/60fd83ff5af11073b7d1ed62_Images/60fd83ff5af11073b7d1ed62_Image_16.jpeg,liked,3.820572462,,,,,,,,,,,,,,,,,,,,,,,
,,60fd83ff5af11073b7d1ed62,6685aa9113c938e83b4f1ea0,66fe90317ffb54dd09ad669e,2024-10-03_07h38.34.414,WTP_SM_Choice,2022.2.1,Win32,60.24096386,,,,,,,,,,,,,,,,,,61,,,,,,space,140.1799,space,1.8694,0.03,2,2.4915,0,0,0,0,1,Share cocktails and stories with friends during summer rooftop gatherings,Try different specialty drinks at trendy coffee shops,0.01,0.03,3.3,0,,,,,
,,60fd83ff5af11073b7d1ed62,6685aa9113c938e83b4f1ea0,66fe90317ffb54dd09ad669e,2024-10-03_07h38.34.414,WTP_SM_Choice,2022.2.1,Win32,60.24096386,,,,,,,,,,,,,,,,,,62,,,,,,,,,,0.02,1,2.6095,0,1,1,1,1,Go out for coffee with my coworkers during break time,Cook homemade meals and experimenting with new recipes in the kitchen,0.02,0.03,3.3,0,,,,,
,,60fd83ff5af11073b7d1ed62,6685aa9113c938e83b4f1ea0,66fe90317ffb54dd09ad669e,2024-10-03_07h38.34.414,WTP_SM_Choice,2022.2.1,Win32,60.24096386,,,,,,,,,,,,,,,,,,63,,,,,,,,,,0.03,2,3.4628,0,2,2,2,1,Host game nights with my family at home on weekends,Listen to music while organizing my space,0.03,0.03,3.3,0,,,,,
,,60fd83ff5af11073b7d1ed62,6685aa9113c938e83b4f1ea0,66fe90317ffb54dd09ad669e,2024-10-03_07h38.34.414,WTP_SM_Choice,2022.2.1,Win32,60.24096386,,,,,,,,,,,,,,,,,,64,,,,,,,,,,0.04,1,6.4181,0,3,3,3,1,Try different specialty drinks at trendy coffee shops,Explore farmers markets with my friends on saturday mornings,0.04,0.03,1.1,1,,,,,
,,60fd83ff5af11073b7d1ed62,6685aa9113c938e83b4f1ea0,66fe90317ffb54dd09ad669e,2024-10-03_07h38.34.414,WTP_SM_Choice,2022.2.1,Win32,60.24096386,,,,,,,,,,,,,,,,,,65,,,,,,,,,,0.03,2,2.2597,0,4,4,4,1,Travel to italy and exploring hidden gems in the countryside,Go out for coffee with my coworkers during break time,0.05,0.03,1.1,1,,,,,
,,60fd83ff5af11073b7d1ed62,6685aa9113c938e83b4f1ea0,66fe90317ffb54dd09ad669e,2024-10-03_07h38.34.414,WTP_SM_Choice,2022.2.1,Win32,60.24096386,,,,,,,NAN,,NAN,1.79,4.21,,0,64,64,64,1,65,Riley,Acc,Participant_Images/60fd83ff5af11073b7d1ed62/60fd83ff5af11073b7d1ed62_Images/60fd83ff5af11073b7d1ed62_Image_11.jpeg,did not like,2.455989137,,,,,,,,,,,,,,,,,,,,,,,
,,60fd83ff5af11073b7d1ed62,6685aa9113c938e83b4f1ea0,66fe90317ffb54dd09ad669e,2024-10-03_07h38.34.414,WTP_SM_Choice,2022.2.1,Win32,60.24096386,,,,,space,2.2164,NAN,,NAN,1.79,4.21,,0,65,65,65,1,66,Riley,Acc,Participant_Images/60fd83ff5af11073b7d1ed62/60fd83ff5af11073b7d1ed62_Images/60fd83ff5af11073b7d1ed62_Image_15.jpeg,liked,3.79605092,,,,,,,,,,,,,,,,,,,,,,,
,,60fd83ff5af11073b7d1ed62,6685aa9113c938e83b4f1ea0,66fe90317ffb54dd09ad669e,2024-10-03_07h38.34.414,WTP_SM_Choice,2022.2.1,Win32,60.24096386,,,,,space,2.9218,NAN,,NAN,1.79,4.21,,0,66,66,66,1,67,Riley,Acc,Participant_Images/60fd83ff5af11073b7d1ed62/60fd83ff5af11073b7d1ed62_Images/60fd83ff5af11073b7d1ed62_Image_2.jpeg,liked,3.562416326,,,,,,,,,,,,,,,,,,,,,,,
,,60fd83ff5af11073b7d1ed62,6685aa9113c938e83b4f1ea0,66fe90317ffb54dd09ad669e,2024-10-03_07h38.34.414,WTP_SM_Choice,2022.2.1,Win32,60.24096386,,,,,space,3.3566,NAN,,NAN,1.79,4.21,,0,67,67,67,1,68,Riley,Acc,Participant_Images/60fd83ff5af11073b7d1ed62/60fd83ff5af11073b7d1ed62_Images/60fd83ff5af11073b7d1ed62_Image_25.jpeg,did not like,2.843822497,,,,,,,,,,,,,,,,,,,,,,,
,,60fd83ff5af11073b7d1ed62,6685aa9113c938e83b4f1ea0,66fe90317ffb54dd09ad669e,2024-10-03_07h38.34.414,WTP_SM_Choice,2022.2.1,Win32,60.24096386,,,,,space,4.1945,NAN,,NAN,1.79,4.21,,0,68,68,68,1,69,Riley,Acc,Participant_Images/60fd83ff5af11073b7d1ed62/60fd83ff5af11073b7d1ed62_Images/60fd83ff5af11073b7d1ed62_Image_6.jpeg,did not like,3.546495948,,,,,,,,,,,,,,,,,,,,,,,
,,60fd83ff5af11073b7d1ed62,6685aa9113c938e83b4f1ea0,66fe90317ffb54dd09ad669e,2024-10-03_07h38.34.414,WTP_SM_Choice,2022.2.1,Win32,60.24096386,,,,,,,,,,,,,,,,,,66,,,,,,space,27.8287,space,2.5697,0.01,1,2.0859,0,0,0,0,1,Go out for coffee with my coworkers during break time,Try different specialty drinks at trendy coffee shops,0.01,0.04,1.1,0,,,,,
,,60fd83ff5af11073b7d1ed62,6685aa9113c938e83b4f1ea0,66fe90317ffb54dd09ad669e,2024-10-03_07h38.34.414,WTP_SM_Choice,2022.2.1,Win32,60.24096386,,,,,,,,,,,,,,,,,,67,,,,,,,,,,0.02,1,1.9199,0,1,1,1,1,Go on spontaneous target runs to find new home essentials,Travel to new cities with my best friends for weekend escapes,0.02,0.04,8.8,1,,,,,
,,60fd83ff5af11073b7d1ed62,6685aa9113c938e83b4f1ea0,66fe90317ffb54dd09ad669e,2024-10-03_07h38.34.414,WTP_SM_Choice,2022.2.1,Win32,60.24096386,,,,,,,,,,,,,,,,,,68,,,,,,,,,,0.03,1,1.7056,0,2,2,2,1,Scroll through tiktok for new outfit inspiration and fun trends,Hike scenic trails with my boyfriend on crisp autumn weekends,0.03,0.04,4.4,1,,,,,
,,60fd83ff5af11073b7d1ed62,6685aa9113c938e83b4f1ea0,66fe90317ffb54dd09ad669e,2024-10-03_07h38.34.414,WTP_SM_Choice,2022.2.1,Win32,60.24096386,,,,,,,,,,,,,,,,,,69,,,,,,,,,,0.04,1,2.976,0,3,3,3,1,Take long walks through nature trails during the fall,Host game nights with my family at home on weekends,0.04,0.04,1.1,1,,,,,
,,60fd83ff5af11073b7d1ed62,6685aa9113c938e83b4f1ea0,66fe90317ffb54dd09ad669e,2024-10-03_07h38.34.414,WTP_SM_Choice,2022.2.1,Win32,60.24096386,,,,,,,,,,,,,,,,,,70,,,,,,,,,,0.05,1,1.6052,0,4,4,4,1,Listen to music while organizing my space,Travel to new cities with my best friends for weekend escapes,0.05,0.04,1.1,1,,,,,
,,60fd83ff5af11073b7d1ed62,6685aa9113c938e83b4f1ea0,66fe90317ffb54dd09ad669e,2024-10-03_07h38.34.414,WTP_SM_Choice,2022.2.1,Win32,60.24096386,,,,,,,NAN,,NAN,1.94,4.06,,0,69,69,69,1,70,Riley,Acc,Participant_Images/60fd83ff5af11073b7d1ed62/60fd83ff5af11073b7d1ed62_Images/60fd83ff5af11073b7d1ed62_Image_17.jpeg,liked,1.672012706,,,,,,,,,,,,,,,,,,,,,,,
,,60fd83ff5af11073b7d1ed62,6685aa9113c938e83b4f1ea0,66fe90317ffb54dd09ad669e,2024-10-03_07h38.34.414,WTP_SM_Choice,2022.2.1,Win32,60.24096386,,,,,space,2.3971,NAN,,NAN,1.94,4.06,,0,70,70,70,1,71,Riley,Acc,Participant_Images/60fd83ff5af11073b7d1ed62/60fd83ff5af11073b7d1ed62_Images/60fd83ff5af11073b7d1ed62_Image_10.jpeg,liked,4.942172136,,,,,,,,,,,,,,,,,,,,,,,
,,60fd83ff5af11073b7d1ed62,6685aa9113c938e83b4f1ea0,66fe90317ffb54dd09ad669e,2024-10-03_07h38.34.414,WTP_SM_Choice,2022.2.1,Win32,60.24096386,,,,,space,1.2678,NAN,,NAN,1.94,4.06,,0,71,71,71,1,72,Riley,Acc,Participant_Images/60fd83ff5af11073b7d1ed62/60fd83ff5af11073b7d1ed62_Images/60fd83ff5af11073b7d1ed62_Image_4.jpeg,liked,2.50187214,,,,,,,,,,,,,,,,,,,,,,,
,,60fd83ff5af11073b7d1ed62,6685aa9113c938e83b4f1ea0,66fe90317ffb54dd09ad669e,2024-10-03_07h38.34.414,WTP_SM_Choice,2022.2.1,Win32,60.24096386,,,,,space,15.0017,NAN,,NAN,1.94,4.06,,0,72,72,72,1,73,Riley,Acc,Participant_Images/60fd83ff5af11073b7d1ed62/60fd83ff5af11073b7d1ed62_Images/60fd83ff5af11073b7d1ed62_Image_9.jpeg,liked,2.071164779,,,,,,,,,,,,,,,,,,,,,,,
,,60fd83ff5af11073b7d1ed62,6685aa9113c938e83b4f1ea0,66fe90317ffb54dd09ad669e,2024-10-03_07h38.34.414,WTP_SM_Choice,2022.2.1,Win32,60.24096386,,,,,space,0.8534,NAN,,NAN,1.94,4.06,,0,73,73,73,1,74,Riley,Acc,Participant_Images/60fd83ff5af11073b7d1ed62/60fd83ff5af11073b7d1ed62_Images/60fd83ff5af11073b7d1ed62_Image_12.jpeg,did not like,5.336503566,,,,,,,,,,,,,,,,,,,,,,,
,,60fd83ff5af11073b7d1ed62,6685aa9113c938e83b4f1ea0,66fe90317ffb54dd09ad669e,2024-10-03_07h38.34.414,WTP_SM_Choice,2022.2.1,Win32,60.24096386,,,,,,,,,,,,,,,,,,71,,,,,,space,2.5572,space,2.5546,0.05,2,1.6698,0,0,0,0,1,Cook dinner together with family during the holidays,Try my hand at photography while capturing natural beauty ,0.01,0.05,3.3,0,,,,,
,,60fd83ff5af11073b7d1ed62,6685aa9113c938e83b4f1ea0,66fe90317ffb54dd09ad669e,2024-10-03_07h38.34.414,WTP_SM_Choice,2022.2.1,Win32,60.24096386,,,,,,,,,,,,,,,,,,72,,,,,,,,,,0.05,2,2.0305,0,1,1,1,1,Host game nights with my family at home on weekends,Try my hand at photography while capturing natural beauty ,0.02,0.05,8.8,0,,,,,
,,60fd83ff5af11073b7d1ed62,6685aa9113c938e83b4f1ea0,66fe90317ffb54dd09ad669e,2024-10-03_07h38.34.414,WTP_SM_Choice,2022.2.1,Win32,60.24096386,,,,,,,,,,,,,,,,,,73,,,,,,,,,,0.05,2,4.2615,0,2,2,2,1,Explore farmers markets with my friends on saturday mornings,Listen to music while organizing my space,0.03,0.05,3.3,0,,,,,
,,60fd83ff5af11073b7d1ed62,6685aa9113c938e83b4f1ea0,66fe90317ffb54dd09ad669e,2024-10-03_07h38.34.414,WTP_SM_Choice,2022.2.1,Win32,60.24096386,,,,,,,,,,,,,,,,,,74,,,,,,,,,,0.04,1,4.0131,0,3,3,3,1,Cook homemade meals and experimenting with new recipes in the kitchen,Hike scenic trails with my boyfriend on crisp autumn weekends,0.04,0.05,4.4,1,,,,,
,,60fd83ff5af11073b7d1ed62,6685aa9113c938e83b4f1ea0,66fe90317ffb54dd09ad669e,2024-10-03_07h38.34.414,WTP_SM_Choice,2022.2.1,Win32,60.24096386,,,,,,,,,,,,,,,,,,75,,,,,,,,,,0.05,2,2.7738,0,4,4,4,1,Explore local festivals with friends to experience new cultures,Spend evenings enjoying the sunset from my pool ,0.05,0.05,3.3,0,,,,,
,,60fd83ff5af11073b7d1ed62,6685aa9113c938e83b4f1ea0,66fe90317ffb54dd09ad669e,2024-10-03_07h38.34.414,WTP_SM_Choice,2022.2.1,Win32,60.24096386,,,,,,,3,,6,2.18,3.82,,0,74,74,74,1,75,Riley,Acc,Participant_Images/60fd83ff5af11073b7d1ed62/60fd83ff5af11073b7d1ed62_Images/60fd83ff5af11073b7d1ed62_Image_23.jpeg,liked,2.642157193,,,,,,,,,,,,,,,,,,,space,1.6403,,,
,,60fd83ff5af11073b7d1ed62,6685aa9113c938e83b4f1ea0,66fe90317ffb54dd09ad669e,2024-10-03_07h38.34.414,WTP_SM_Choice,2022.2.1,Win32,60.24096386,,,space,2.1954,space,1.0559,NAN,,NAN,2.18,3.82,,0,75,75,75,1,76,Alex,Rej,Participant_Images/60fd83ff5af11073b7d1ed62/60fd83ff5af11073b7d1ed62_Images/60fd83ff5af11073b7d1ed62_Image_24.jpeg,did not like,4.456234322,,,,,,,,,,,,,,,,,,,,,,,
,,60fd83ff5af11073b7d1ed62,6685aa9113c938e83b4f1ea0,66fe90317ffb54dd09ad669e,2024-10-03_07h38.34.414,WTP_SM_Choice,2022.2.1,Win32,60.24096386,,,,,space,1.5711,NAN,,NAN,2.18,3.82,,0,76,76,76,1,77,Alex,Rej,Participant_Images/60fd83ff5af11073b7d1ed62/60fd83ff5af11073b7d1ed62_Images/60fd83ff5af11073b7d1ed62_Image_12.jpeg,did not like,4.438512181,,,,,,,,,,,,,,,,,,,,,,,
,,60fd83ff5af11073b7d1ed62,6685aa9113c938e83b4f1ea0,66fe90317ffb54dd09ad669e,2024-10-03_07h38.34.414,WTP_SM_Choice,2022.2.1,Win32,60.24096386,,,,,space,1.4522,NAN,,NAN,2.18,3.82,,0,77,77,77,1,78,Alex,Rej,Participant_Images/60fd83ff5af11073b7d1ed62/60fd83ff5af11073b7d1ed62_Images/60fd83ff5af11073b7d1ed62_Image_25.jpeg,liked,2.682944783,,,,,,,,,,,,,,,,,,,,,,,
,,60fd83ff5af11073b7d1ed62,6685aa9113c938e83b4f1ea0,66fe90317ffb54dd09ad669e,2024-10-03_07h38.34.414,WTP_SM_Choice,2022.2.1,Win32,60.24096386,,,,,space,1.4037,NAN,,NAN,2.18,3.82,,0,78,78,78,1,79,Alex,Rej,Participant_Images/60fd83ff5af11073b7d1ed62/60fd83ff5af11073b7d1ed62_Images/60fd83ff5af11073b7d1ed62_Image_9.jpeg,did not like,4.51984296,,,,,,,,,,,,,,,,,,,,,,,
,,60fd83ff5af11073b7d1ed62,6685aa9113c938e83b4f1ea0,66fe90317ffb54dd09ad669e,2024-10-03_07h38.34.414,WTP_SM_Choice,2022.2.1,Win32,60.24096386,,,,,,,,,,,,,,,,,,76,,,,,,space,9.2876,space,4.1821,0.01,1,6.3269,0,0,0,0,1,Play board games with my roommates for a fun night in,Scroll through tiktok for new outfit inspiration and fun trends,0.01,0.01,1.1,0,,,,,
,,60fd83ff5af11073b7d1ed62,6685aa9113c938e83b4f1ea0,66fe90317ffb54dd09ad669e,2024-10-03_07h38.34.414,WTP_SM_Choice,2022.2.1,Win32,60.24096386,,,,,,,,,,,,,,,,,,77,,,,,,,,,,0.02,1,1.6753,0,1,1,1,1,Participate in trivia nights at a local pub with coworkers,Try different specialty drinks at trendy coffee shops,0.02,0.01,8.8,0,,,,,
,,60fd83ff5af11073b7d1ed62,6685aa9113c938e83b4f1ea0,66fe90317ffb54dd09ad669e,2024-10-03_07h38.34.414,WTP_SM_Choice,2022.2.1,Win32,60.24096386,,,,,,,,,,,,,,,,,,78,,,,,,,,,,0.01,2,2.1231,0,2,2,2,1,Hike scenic trails with my boyfriend on crisp autumn weekends,Spend evenings enjoying the sunset from my pool ,0.03,0.01,1.1,0,,,,,
,,60fd83ff5af11073b7d1ed62,6685aa9113c938e83b4f1ea0,66fe90317ffb54dd09ad669e,2024-10-03_07h38.34.414,WTP_SM_Choice,2022.2.1,Win32,60.24096386,,,,,,,,,,,,,,,,,,79,,,,,,,,,,0.01,2,3.7877,0,3,3,3,1,Explore farmers markets with my friends on saturday mornings,Cook homemade meals and experimenting with new recipes in the kitchen,0.04,0.01,1.1,0,,,,,
,,60fd83ff5af11073b7d1ed62,6685aa9113c938e83b4f1ea0,66fe90317ffb54dd09ad669e,2024-10-03_07h38.34.414,WTP_SM_Choice,2022.2.1,Win32,60.24096386,,,,,,,,,,,,,,,,,,80,,,,,,,,,,0.01,2,2.9865,0,4,4,4,1,Take long walks through nature trails during the fall,Explore farmers markets with my friends on saturday mornings,0.05,0.01,4.4,1,,,,,
,,60fd83ff5af11073b7d1ed62,6685aa9113c938e83b4f1ea0,66fe90317ffb54dd09ad669e,2024-10-03_07h38.34.414,WTP_SM_Choice,2022.2.1,Win32,60.24096386,,,,,,,NAN,,NAN,2.24,3.76,,0,79,79,79,1,80,Alex,Rej,Participant_Images/60fd83ff5af11073b7d1ed62/60fd83ff5af11073b7d1ed62_Images/60fd83ff5af11073b7d1ed62_Image_3.jpeg,liked,3.195382774,,,,,,,,,,,,,,,,,,,,,,,
,,60fd83ff5af11073b7d1ed62,6685aa9113c938e83b4f1ea0,66fe90317ffb54dd09ad669e,2024-10-03_07h38.34.414,WTP_SM_Choice,2022.2.1,Win32,60.24096386,,,,,space,2.6486,NAN,,NAN,2.24,3.76,,0,80,80,80,1,81,Alex,Rej,Participant_Images/60fd83ff5af11073b7d1ed62/60fd83ff5af11073b7d1ed62_Images/60fd83ff5af11073b7d1ed62_Image_4.jpeg,liked,1.779333479,,,,,,,,,,,,,,,,,,,,,,,
,,60fd83ff5af11073b7d1ed62,6685aa9113c938e83b4f1ea0,66fe90317ffb54dd09ad669e,2024-10-03_07h38.34.414,WTP_SM_Choice,2022.2.1,Win32,60.24096386,,,,,space,4.5743,NAN,,NAN,2.24,3.76,,0,81,81,81,1,82,Alex,Rej,Participant_Images/60fd83ff5af11073b7d1ed62/60fd83ff5af11073b7d1ed62_Images/60fd83ff5af11073b7d1ed62_Image_13.jpeg,did not like,4.312468682,,,,,,,,,,,,,,,,,,,,,,,
,,60fd83ff5af11073b7d1ed62,6685aa9113c938e83b4f1ea0,66fe90317ffb54dd09ad669e,2024-10-03_07h38.34.414,WTP_SM_Choice,2022.2.1,Win32,60.24096386,,,,,space,1.6657,NAN,,NAN,2.24,3.76,,0,82,82,82,1,83,Alex,Rej,Participant_Images/60fd83ff5af11073b7d1ed62/60fd83ff5af11073b7d1ed62_Images/60fd83ff5af11073b7d1ed62_Image_7.jpeg,did not like,4.940433059,,,,,,,,,,,,,,,,,,,,,,,
,,60fd83ff5af11073b7d1ed62,6685aa9113c938e83b4f1ea0,66fe90317ffb54dd09ad669e,2024-10-03_07h38.34.414,WTP_SM_Choice,2022.2.1,Win32,60.24096386,,,,,space,2.1899,NAN,,NAN,2.24,3.76,,0,83,83,83,1,84,Alex,Rej,Participant_Images/60fd83ff5af11073b7d1ed62/60fd83ff5af11073b7d1ed62_Images/60fd83ff5af11073b7d1ed62_Image_20.jpeg,liked,2.7105123,,,,,,,,,,,,,,,,,,,,,,,
,,60fd83ff5af11073b7d1ed62,6685aa9113c938e83b4f1ea0,66fe90317ffb54dd09ad669e,2024-10-03_07h38.34.414,WTP_SM_Choice,2022.2.1,Win32,60.24096386,,,,,,,,,,,,,,,,,,81,,,,,,space,3.1313,space,2.6393,0.02,2,5.8013,0,0,0,0,1,Try different specialty drinks at trendy coffee shops,Play board games with my roommates for a fun night in,0.01,0.02,3.3,1,,,,,
,,60fd83ff5af11073b7d1ed62,6685aa9113c938e83b4f1ea0,66fe90317ffb54dd09ad669e,2024-10-03_07h38.34.414,WTP_SM_Choice,2022.2.1,Win32,60.24096386,,,,,,,,,,,,,,,,,,82,,,,,,,,,,0.02,2,1.5657,0,1,1,1,1,Share cocktails and stories with friends during summer rooftop gatherings,Go on spontaneous target runs to find new home essentials,0.02,0.02,4.4,0,,,,,
,,60fd83ff5af11073b7d1ed62,6685aa9113c938e83b4f1ea0,66fe90317ffb54dd09ad669e,2024-10-03_07h38.34.414,WTP_SM_Choice,2022.2.1,Win32,60.24096386,,,,,,,,,,,,,,,,,,83,,,,,,,,,,0.02,2,2.9185,0,2,2,2,1,Explore local festivals with friends to experience new cultures,Listen to music while organizing my space,0.03,0.02,1.1,0,,,,,
,,60fd83ff5af11073b7d1ed62,6685aa9113c938e83b4f1ea0,66fe90317ffb54dd09ad669e,2024-10-03_07h38.34.414,WTP_SM_Choice,2022.2.1,Win32,60.24096386,,,,,,,,,,,,,,,,,,84,,,,,,,,,,0.02,2,4.3337,0,3,3,3,1,Cook dinner together with family during the holidays,Try different specialty drinks at trendy coffee shops,0.04,0.02,3.3,0,,,,,
,,60fd83ff5af11073b7d1ed62,6685aa9113c938e83b4f1ea0,66fe90317ffb54dd09ad669e,2024-10-03_07h38.34.414,WTP_SM_Choice,2022.2.1,Win32,60.24096386,,,,,,,,,,,,,,,,,,85,,,,,,,,,,0.02,2,2.4149,0,4,4,4,1,Cook homemade meals and experimenting with new recipes in the kitchen,Participate in trivia nights at a local pub with coworkers,0.05,0.02,3.3,1,,,,,
,,60fd83ff5af11073b7d1ed62,6685aa9113c938e83b4f1ea0,66fe90317ffb54dd09ad669e,2024-10-03_07h38.34.414,WTP_SM_Choice,2022.2.1,Win32,60.24096386,,,,,,,NAN,,NAN,2.34,3.66,,0,84,84,84,1,85,Alex,Rej,Participant_Images/60fd83ff5af11073b7d1ed62/60fd83ff5af11073b7d1ed62_Images/60fd83ff5af11073b7d1ed62_Image_6.jpeg,did not like,3.602308302,,,,,,,,,,,,,,,,,,,,,,,
,,60fd83ff5af11073b7d1ed62,6685aa9113c938e83b4f1ea0,66fe90317ffb54dd09ad669e,2024-10-03_07h38.34.414,WTP_SM_Choice,2022.2.1,Win32,60.24096386,,,,,space,1.3558,NAN,,NAN,2.34,3.66,,0,85,85,85,1,86,Alex,Rej,Participant_Images/60fd83ff5af11073b7d1ed62/60fd83ff5af11073b7d1ed62_Images/60fd83ff5af11073b7d1ed62_Image_1.jpeg,did not like,4.106391878,,,,,,,,,,,,,,,,,,,,,,,
,,60fd83ff5af11073b7d1ed62,6685aa9113c938e83b4f1ea0,66fe90317ffb54dd09ad669e,2024-10-03_07h38.34.414,WTP_SM_Choice,2022.2.1,Win32,60.24096386,,,,,space,1.4574,NAN,,NAN,2.34,3.66,,0,86,86,86,1,87,Alex,Rej,Participant_Images/60fd83ff5af11073b7d1ed62/60fd83ff5af11073b7d1ed62_Images/60fd83ff5af11073b7d1ed62_Image_11.jpeg,did not like,3.799433026,,,,,,,,,,,,,,,,,,,,,,,
,,60fd83ff5af11073b7d1ed62,6685aa9113c938e83b4f1ea0,66fe90317ffb54dd09ad669e,2024-10-03_07h38.34.414,WTP_SM_Choice,2022.2.1,Win32,60.24096386,,,,,space,5.6926,NAN,,NAN,2.34,3.66,,0,87,87,87,1,88,Alex,Rej,Participant_Images/60fd83ff5af11073b7d1ed62/60fd83ff5af11073b7d1ed62_Images/60fd83ff5af11073b7d1ed62_Image_10.jpeg,did not like,5.246980764,,,,,,,,,,,,,,,,,,,,,,,
,,60fd83ff5af11073b7d1ed62,6685aa9113c938e83b4f1ea0,66fe90317ffb54dd09ad669e,2024-10-03_07h38.34.414,WTP_SM_Choice,2022.2.1,Win32,60.24096386,,,,,space,3.7541,NAN,,NAN,2.34,3.66,,0,88,88,88,1,89,Alex,Rej,Participant_Images/60fd83ff5af11073b7d1ed62/60fd83ff5af11073b7d1ed62_Images/60fd83ff5af11073b7d1ed62_Image_16.jpeg,liked,3.30081769,,,,,,,,,,,,,,,,,,,,,,,
,,60fd83ff5af11073b7d1ed62,6685aa9113c938e83b4f1ea0,66fe90317ffb54dd09ad669e,2024-10-03_07h38.34.414,WTP_SM_Choice,2022.2.1,Win32,60.24096386,,,,,,,,,,,,,,,,,,86,,,,,,space,24.0371,space,0.7369,0.03,2,1.4584,0,0,0,0,1,Share cocktails and stories with friends during summer rooftop gatherings,Listen to music while organizing my space,0.01,0.03,1.1,0,,,,,
,,60fd83ff5af11073b7d1ed62,6685aa9113c938e83b4f1ea0,66fe90317ffb54dd09ad669e,2024-10-03_07h38.34.414,WTP_SM_Choice,2022.2.1,Win32,60.24096386,,,,,,,,,,,,,,,,,,87,,,,,,,,,,0.02,1,4.929,0,1,1,1,1,Spend evenings enjoying the sunset from my pool ,Explore farmers markets with my friends on saturday mornings,0.02,0.03,4.4,1,,,,,
,,60fd83ff5af11073b7d1ed62,6685aa9113c938e83b4f1ea0,66fe90317ffb54dd09ad669e,2024-10-03_07h38.34.414,WTP_SM_Choice,2022.2.1,Win32,60.24096386,,,,,,,,,,,,,,,,,,88,,,,,,,,,,0.03,1,2.3372,0,2,2,2,1,Enjoy quiet evenings curled up with my two cats,Hike scenic trails with my boyfriend on crisp autumn weekends,0.03,0.03,1.1,1,,,,,
,,60fd83ff5af11073b7d1ed62,6685aa9113c938e83b4f1ea0,66fe90317ffb54dd09ad669e,2024-10-03_07h38.34.414,WTP_SM_Choice,2022.2.1,Win32,60.24096386,,,,,,,,,,,,,,,,,,89,,,,,,,,,,0.04,1,5.273,0,3,3,3,1,Take long walks through nature trails during the fall,Travel to new cities with my best friends for weekend escapes,0.04,0.03,3.3,1,,,,,
,,60fd83ff5af11073b7d1ed62,6685aa9113c938e83b4f1ea0,66fe90317ffb54dd09ad669e,2024-10-03_07h38.34.414,WTP_SM_Choice,2022.2.1,Win32,60.24096386,,,,,,,,,,,,,,,,,,90,,,,,,,,,,0.05,1,4.7863,0,4,4,4,1,Try my hand at photography while capturing natural beauty ,Travel to new cities with my best friends for weekend escapes,0.05,0.03,8.8,1,,,,,
,,60fd83ff5af11073b7d1ed62,6685aa9113c938e83b4f1ea0,66fe90317ffb54dd09ad669e,2024-10-03_07h38.34.414,WTP_SM_Choice,2022.2.1,Win32,60.24096386,,,,,,,NAN,,NAN,2.51,3.49,,0,89,89,89,1,90,Alex,Rej,Participant_Images/60fd83ff5af11073b7d1ed62/60fd83ff5af11073b7d1ed62_Images/60fd83ff5af11073b7d1ed62_Image_15.jpeg,did not like,1.661473164,,,,,,,,,,,,,,,,,,,,,,,
,,60fd83ff5af11073b7d1ed62,6685aa9113c938e83b4f1ea0,66fe90317ffb54dd09ad669e,2024-10-03_07h38.34.414,WTP_SM_Choice,2022.2.1,Win32,60.24096386,,,,,space,1.7333,NAN,,NAN,2.51,3.49,,0,90,90,90,1,91,Alex,Rej,Participant_Images/60fd83ff5af11073b7d1ed62/60fd83ff5af11073b7d1ed62_Images/60fd83ff5af11073b7d1ed62_Image_22.jpeg,did not like,3.613205605,,,,,,,,,,,,,,,,,,,,,,,
,,60fd83ff5af11073b7d1ed62,6685aa9113c938e83b4f1ea0,66fe90317ffb54dd09ad669e,2024-10-03_07h38.34.414,WTP_SM_Choice,2022.2.1,Win32,60.24096386,,,,,space,1.8683,NAN,,NAN,2.51,3.49,,0,91,91,91,1,92,Alex,Rej,Participant_Images/60fd83ff5af11073b7d1ed62/60fd83ff5af11073b7d1ed62_Images/60fd83ff5af11073b7d1ed62_Image_14.jpeg,did not like,4.988446431,,,,,,,,,,,,,,,,,,,,,,,
,,60fd83ff5af11073b7d1ed62,6685aa9113c938e83b4f1ea0,66fe90317ffb54dd09ad669e,2024-10-03_07h38.34.414,WTP_SM_Choice,2022.2.1,Win32,60.24096386,,,,,space,0.8441,NAN,,NAN,2.51,3.49,,0,92,92,92,1,93,Alex,Rej,Participant_Images/60fd83ff5af11073b7d1ed62/60fd83ff5af11073b7d1ed62_Images/60fd83ff5af11073b7d1ed62_Image_23.jpeg,did not like,3.470791822,,,,,,,,,,,,,,,,,,,,,,,
,,60fd83ff5af11073b7d1ed62,6685aa9113c938e83b4f1ea0,66fe90317ffb54dd09ad669e,2024-10-03_07h38.34.414,WTP_SM_Choice,2022.2.1,Win32,60.24096386,,,,,space,0.8862,NAN,,NAN,2.51,3.49,,0,93,93,93,1,94,Alex,Rej,Participant_Images/60fd83ff5af11073b7d1ed62/60fd83ff5af11073b7d1ed62_Images/60fd83ff5af11073b7d1ed62_Image_5.jpeg,did not like,3.820572462,,,,,,,,,,,,,,,,,,,,,,,
,,60fd83ff5af11073b7d1ed62,6685aa9113c938e83b4f1ea0,66fe90317ffb54dd09ad669e,2024-10-03_07h38.34.414,WTP_SM_Choice,2022.2.1,Win32,60.24096386,,,,,,,,,,,,,,,,,,91,,,,,,space,1.2991,space,0.6722,0.01,1,2.0349,0,0,0,0,1,Explore local festivals with friends to experience new cultures,Enjoy quiet evenings curled up with my two cats,0.01,0.04,3.3,0,,,,,
,,60fd83ff5af11073b7d1ed62,6685aa9113c938e83b4f1ea0,66fe90317ffb54dd09ad669e,2024-10-03_07h38.34.414,WTP_SM_Choice,2022.2.1,Win32,60.24096386,,,,,,,,,,,,,,,,,,92,,,,,,,,,,0.02,1,1.0797,0,1,1,1,1,Participate in trivia nights at a local pub with coworkers,Travel to italy and exploring hidden gems in the countryside,0.02,0.04,8.8,0,,,,,
,,60fd83ff5af11073b7d1ed62,6685aa9113c938e83b4f1ea0,66fe90317ffb54dd09ad669e,2024-10-03_07h38.34.414,WTP_SM_Choice,2022.2.1,Win32,60.24096386,,,,,,,,,,,,,,,,,,93,,,,,,,,,,0.04,2,2.3533,0,2,2,2,1,Share cocktails and stories with friends during summer rooftop gatherings,Enjoy quiet evenings curled up with my two cats,0.03,0.04,1.1,0,,,,,
,,60fd83ff5af11073b7d1ed62,6685aa9113c938e83b4f1ea0,66fe90317ffb54dd09ad669e,2024-10-03_07h38.34.414,WTP_SM_Choice,2022.2.1,Win32,60.24096386,,,,,,,,,,,,,,,,,,94,,,,,,,,,,0.04,2,7.4107,0,3,3,3,1,Go on spontaneous target runs to find new home essentials,Play board games with my roommates for a fun night in,0.04,0.04,4.4,1,,,,,
,,60fd83ff5af11073b7d1ed62,6685aa9113c938e83b4f1ea0,66fe90317ffb54dd09ad669e,2024-10-03_07h38.34.414,WTP_SM_Choice,2022.2.1,Win32,60.24096386,,,,,,,,,,,,,,,,,,95,,,,,,,,,,0.04,2,2.1379,0,4,4,4,1,Try my hand at photography while capturing natural beauty ,Play board games with my roommates for a fun night in,0.05,0.04,4.4,1,,,,,
,,60fd83ff5af11073b7d1ed62,6685aa9113c938e83b4f1ea0,66fe90317ffb54dd09ad669e,2024-10-03_07h38.34.414,WTP_SM_Choice,2022.2.1,Win32,60.24096386,,,,,,,NAN,,NAN,2.66,3.34,,0,94,94,94,1,95,Alex,Rej,Participant_Images/60fd83ff5af11073b7d1ed62/60fd83ff5af11073b7d1ed62_Images/60fd83ff5af11073b7d1ed62_Image_18.jpeg,did not like,2.455989137,,,,,,,,,,,,,,,,,,,,,,,
,,60fd83ff5af11073b7d1ed62,6685aa9113c938e83b4f1ea0,66fe90317ffb54dd09ad669e,2024-10-03_07h38.34.414,WTP_SM_Choice,2022.2.1,Win32,60.24096386,,,,,space,1.3496,NAN,,NAN,2.66,3.34,,0,95,95,95,1,96,Alex,Rej,Participant_Images/60fd83ff5af11073b7d1ed62/60fd83ff5af11073b7d1ed62_Images/60fd83ff5af11073b7d1ed62_Image_21.jpeg,did not like,3.79605092,,,,,,,,,,,,,,,,,,,,,,,
,,60fd83ff5af11073b7d1ed62,6685aa9113c938e83b4f1ea0,66fe90317ffb54dd09ad669e,2024-10-03_07h38.34.414,WTP_SM_Choice,2022.2.1,Win32,60.24096386,,,,,space,0.7245,NAN,,NAN,2.66,3.34,,0,96,96,96,1,97,Alex,Rej,Participant_Images/60fd83ff5af11073b7d1ed62/60fd83ff5af11073b7d1ed62_Images/60fd83ff5af11073b7d1ed62_Image_2.jpeg,liked,3.562416326,,,,,,,,,,,,,,,,,,,,,,,
,,60fd83ff5af11073b7d1ed62,6685aa9113c938e83b4f1ea0,66fe90317ffb54dd09ad669e,2024-10-03_07h38.34.414,WTP_SM_Choice,2022.2.1,Win32,60.24096386,,,,,space,0.5507,NAN,,NAN,2.66,3.34,,0,97,97,97,1,98,Alex,Rej,Participant_Images/60fd83ff5af11073b7d1ed62/60fd83ff5af11073b7d1ed62_Images/60fd83ff5af11073b7d1ed62_Image_17.jpeg,liked,2.843822497,,,,,,,,,,,,,,,,,,,,,,,
,,60fd83ff5af11073b7d1ed62,6685aa9113c938e83b4f1ea0,66fe90317ffb54dd09ad669e,2024-10-03_07h38.34.414,WTP_SM_Choice,2022.2.1,Win32,60.24096386,,,,,space,0.8997,NAN,,NAN,2.66,3.34,,0,98,98,98,1,99,Alex,Rej,Participant_Images/60fd83ff5af11073b7d1ed62/60fd83ff5af11073b7d1ed62_Images/60fd83ff5af11073b7d1ed62_Image_19.jpeg,did not like,3.546495948,,,,,,,,,,,,,,,,,,,,,,,
,,60fd83ff5af11073b7d1ed62,6685aa9113c938e83b4f1ea0,66fe90317ffb54dd09ad669e,2024-10-03_07h38.34.414,WTP_SM_Choice,2022.2.1,Win32,60.24096386,,,,,,,,,,,,,,,,,,96,,,,,,space,1.8235,space,4.3331,0.01,1,2.4937,0,0,0,0,1,Enjoy quiet evenings curled up with my two cats,Explore farmers markets with my friends on saturday mornings,0.01,0.05,3.3,1,,,,,
,,60fd83ff5af11073b7d1ed62,6685aa9113c938e83b4f1ea0,66fe90317ffb54dd09ad669e,2024-10-03_07h38.34.414,WTP_SM_Choice,2022.2.1,Win32,60.24096386,,,,,,,,,,,,,,,,,,97,,,,,,,,,,0.05,2,2.4624,0,1,1,1,1,Hike scenic trails with my boyfriend on crisp autumn weekends,Try my hand at photography while capturing natural beauty ,0.02,0.05,1.1,0,,,,,
,,60fd83ff5af11073b7d1ed62,6685aa9113c938e83b4f1ea0,66fe90317ffb54dd09ad669e,2024-10-03_07h38.34.414,WTP_SM_Choice,2022.2.1,Win32,60.24096386,,,,,,,,,,,,,,,,,,98,,,,,,,,,,0.05,2,2.1563,0,2,2,2,1,Travel to italy and exploring hidden gems in the countryside,Hike scenic trails with my boyfriend on crisp autumn weekends,0.03,0.05,1.1,1,,,,,
,,60fd83ff5af11073b7d1ed62,6685aa9113c938e83b4f1ea0,66fe90317ffb54dd09ad669e,2024-10-03_07h38.34.414,WTP_SM_Choice,2022.2.1,Win32,60.24096386,,,,,,,,,,,,,,,,,,99,,,,,,,,,,0.04,1,4.5496,0,3,3,3,1,Go out for coffee with my coworkers during break time,Spend evenings enjoying the sunset from my pool ,0.04,0.05,3.3,0,,,,,
,,60fd83ff5af11073b7d1ed62,6685aa9113c938e83b4f1ea0,66fe90317ffb54dd09ad669e,2024-10-03_07h38.34.414,WTP_SM_Choice,2022.2.1,Win32,60.24096386,,,,,,,,,,,,,,,,,,100,,,,,,,,,,0.05,1,2.8846,0,4,4,4,1,Participate in trivia nights at a local pub with coworkers,Enjoy quiet evenings curled up with my two cats,0.05,0.05,4.4,0,,,,,
,,60fd83ff5af11073b7d1ed62,6685aa9113c938e83b4f1ea0,66fe90317ffb54dd09ad669e,2024-10-03_07h38.34.414,WTP_SM_Choice,2022.2.1,Win32,60.24096386,,,,,,,2,,7,2.86,3.14,,0,99,99,99,1,100,Alex,Rej,Participant_Images/60fd83ff5af11073b7d1ed62/60fd83ff5af11073b7d1ed62_Images/60fd83ff5af11073b7d1ed62_Image_8.jpeg,did not like,1.672012706,,,,,,,,,,,,,,,,,,,space,1.5472,,,
,,60fd83ff5af11073b7d1ed62,6685aa9113c938e83b4f1ea0,66fe90317ffb54dd09ad669e,2024-10-03_07h38.34.414,WTP_SM_Choice,2022.2.1,Win32,60.24096386,,,,,,,,,,,,,,,,,,,,,,,,,,,,,,,,,,,,,,,,,,,,,space,4.7582
