endwelcomescreen_keys.keys,endwelcomescreen_keys.rt,participant,STUDY_ID,SESSION_ID,date,expName,psychopyVersion,OS,frameRate,endinstructionscreen_keys.keys,endinstructionscreen_keys.rt,endpartnermatch_keys.keys,endpartnermatch_keys.rt,sharenextphoto_key.keys,sharenextphoto_key.rt,salience_rating,key_resp.keys,stress_level,subtract_bonus,TOTAL_TASK_BONUS,stresslevel_keypress.keys,entiretaskloop.thisRepN,entiretaskloop.thisTrialN,entiretaskloop.thisN,entiretaskloop.thisIndex,entiretaskloop.ran,TrialNumber,Partner,Condition,Photos,Feedback,FeedbackWait,WTP_ins_keys1.keys,WTP_ins_keys1.rt,WTP_ins_keys2.keys,WTP_ins_keys2.rt,decision_price,responses.keys,responses.rt,WTPTaskLoop.thisRepN,WTPTaskLoop.thisTrialN,WTPTaskLoop.thisN,WTPTaskLoop.thisIndex,WTPTaskLoop.ran,right,left,leftmoney,rightmoney,WTP_ITI,social_left,Resume_keys.keys,Resume_keys.rt,end_screen_keys.keys,end_screen_keys.rt
space,3.4727,610f303cfb519f6dc89edd5f,6685aa9113c938e83b4f1ea0,672d013f15c5cf809bb120b5,2024-11-07_13h07.09.866,WTP_SM_Choice,2022.2.1,MacIntel,60.60606061,,,,,,,,,,,,,,,,,,,,,,,,,,,,,,,,,,,,,,,,,,,,,
,,610f303cfb519f6dc89edd5f,6685aa9113c938e83b4f1ea0,672d013f15c5cf809bb120b5,2024-11-07_13h07.09.866,WTP_SM_Choice,2022.2.1,MacIntel,60.60606061,space,12.3857,,,,,,,,,,,,,,,,,,,,,,,,,,,,,,,,,,,,,,,,,,,
,,610f303cfb519f6dc89edd5f,6685aa9113c938e83b4f1ea0,672d013f15c5cf809bb120b5,2024-11-07_13h07.09.866,WTP_SM_Choice,2022.2.1,MacIntel,60.60606061,,,space,18.9026,space,13.8134,NAN,,NAN,0,6,,0,0,0,0,1,1,Riley,Rej,Participant_Images/610f303cfb519f6dc89edd5f/610f303cfb519f6dc89edd5f_Images/610f303cfb519f6dc89edd5f_Image_21.jpeg,did not like,3.613205605,,,,,,,,,,,,,,,,,,,,,,
,,610f303cfb519f6dc89edd5f,6685aa9113c938e83b4f1ea0,672d013f15c5cf809bb120b5,2024-11-07_13h07.09.866,WTP_SM_Choice,2022.2.1,MacIntel,60.60606061,,,,,space,1.2577,NAN,,NAN,0,6,,0,1,1,1,1,2,Riley,Rej,Participant_Images/610f303cfb519f6dc89edd5f/610f303cfb519f6dc89edd5f_Images/610f303cfb519f6dc89edd5f_Image_4.jpeg,did not like,4.988446431,,,,,,,,,,,,,,,,,,,,,,
,,610f303cfb519f6dc89edd5f,6685aa9113c938e83b4f1ea0,672d013f15c5cf809bb120b5,2024-11-07_13h07.09.866,WTP_SM_Choice,2022.2.1,MacIntel,60.60606061,,,,,space,1.0698,NAN,,NAN,0,6,,0,2,2,2,1,3,Riley,Rej,Participant_Images/610f303cfb519f6dc89edd5f/610f303cfb519f6dc89edd5f_Images/610f303cfb519f6dc89edd5f_Image_25.jpeg,did not like,3.470791822,,,,,,,,,,,,,,,,,,,,,,
,,610f303cfb519f6dc89edd5f,6685aa9113c938e83b4f1ea0,672d013f15c5cf809bb120b5,2024-11-07_13h07.09.866,WTP_SM_Choice,2022.2.1,MacIntel,60.60606061,,,,,space,6.1884,NAN,,NAN,0,6,,0,3,3,3,1,4,Riley,Rej,Participant_Images/610f303cfb519f6dc89edd5f/610f303cfb519f6dc89edd5f_Images/610f303cfb519f6dc89edd5f_Image_5.jpeg,did not like,3.820572462,,,,,,,,,,,,,,,,,,,,,,
,,610f303cfb519f6dc89edd5f,6685aa9113c938e83b4f1ea0,672d013f15c5cf809bb120b5,2024-11-07_13h07.09.866,WTP_SM_Choice,2022.2.1,MacIntel,60.60606061,,,,,,,,,,,,,,,,,,1,,,,,,space,33.8784,space,5.5052,0.01,1,4.5539,0,0,0,0,1,Make reservations at a restaurant to have some good food and drinks with friends,Listen to live music while sipping on a delicious tequila margerita,0.01,0.01,4.4,0,,,,
,,610f303cfb519f6dc89edd5f,6685aa9113c938e83b4f1ea0,672d013f15c5cf809bb120b5,2024-11-07_13h07.09.866,WTP_SM_Choice,2022.2.1,MacIntel,60.60606061,,,,,,,,,,,,,,,,,,2,,,,,,,,,,0.02,1,4.0225,0,1,1,1,1,Receive a massage in a low lit room with the smell of a fruity candle burning,Wake up and going on a long Saturday bike ride and then going to a bakery for some fresh sweets after with my friends,0.02,0.01,8.8,1,,,,
,,610f303cfb519f6dc89edd5f,6685aa9113c938e83b4f1ea0,672d013f15c5cf809bb120b5,2024-11-07_13h07.09.866,WTP_SM_Choice,2022.2.1,MacIntel,60.60606061,,,,,,,,,,,,,,,,,,3,,,,,,,,,,0.03,1,4.7497,0,2,2,2,1,Watch football with friends and making some game day snacks with my family friends and partner,Go on a walk by the beach with the sun shining in my face and a gentle breeze flowing through the air,0.03,0.01,3.3,0,,,,
,,610f303cfb519f6dc89edd5f,6685aa9113c938e83b4f1ea0,672d013f15c5cf809bb120b5,2024-11-07_13h07.09.866,WTP_SM_Choice,2022.2.1,MacIntel,60.60606061,,,,,,,,,,,,,,,,,,4,,,,,,,,,,0.04,1,2.7584,0,3,3,3,1,Go on a walk by the beach with the sun shining in my face and a gentle breeze flowing through the air,Make reservations at a restaurant to have some good food and drinks with friends,0.04,0.01,1.1,1,,,,
,,610f303cfb519f6dc89edd5f,6685aa9113c938e83b4f1ea0,672d013f15c5cf809bb120b5,2024-11-07_13h07.09.866,WTP_SM_Choice,2022.2.1,MacIntel,60.60606061,,,,,,,,,,,,,,,,,,5,,,,,,,,,,0.01,2,2.1684,0,4,4,4,1,Go to the gym to get a lift in and feel strong ,Host a dinner party at my place with my friends family and partner,0.05,0.01,1.1,1,,,,
,,610f303cfb519f6dc89edd5f,6685aa9113c938e83b4f1ea0,672d013f15c5cf809bb120b5,2024-11-07_13h07.09.866,WTP_SM_Choice,2022.2.1,MacIntel,60.60606061,,,,,,,NAN,,NAN,0.11,5.89,,0,4,4,4,1,5,Riley,Rej,Participant_Images/610f303cfb519f6dc89edd5f/610f303cfb519f6dc89edd5f_Images/610f303cfb519f6dc89edd5f_Image_20.jpeg,did not like,2.455989137,,,,,,,,,,,,,,,,,,,,,,
,,610f303cfb519f6dc89edd5f,6685aa9113c938e83b4f1ea0,672d013f15c5cf809bb120b5,2024-11-07_13h07.09.866,WTP_SM_Choice,2022.2.1,MacIntel,60.60606061,,,,,space,4.0212,NAN,,NAN,0.11,5.89,,0,5,5,5,1,6,Riley,Rej,Participant_Images/610f303cfb519f6dc89edd5f/610f303cfb519f6dc89edd5f_Images/610f303cfb519f6dc89edd5f_Image_16.jpeg,liked,3.79605092,,,,,,,,,,,,,,,,,,,,,,
,,610f303cfb519f6dc89edd5f,6685aa9113c938e83b4f1ea0,672d013f15c5cf809bb120b5,2024-11-07_13h07.09.866,WTP_SM_Choice,2022.2.1,MacIntel,60.60606061,,,,,space,5.64,NAN,,NAN,0.11,5.89,,0,6,6,6,1,7,Riley,Rej,Participant_Images/610f303cfb519f6dc89edd5f/610f303cfb519f6dc89edd5f_Images/610f303cfb519f6dc89edd5f_Image_17.jpeg,did not like,3.562416326,,,,,,,,,,,,,,,,,,,,,,
,,610f303cfb519f6dc89edd5f,6685aa9113c938e83b4f1ea0,672d013f15c5cf809bb120b5,2024-11-07_13h07.09.866,WTP_SM_Choice,2022.2.1,MacIntel,60.60606061,,,,,space,2.0017,NAN,,NAN,0.11,5.89,,0,7,7,7,1,8,Riley,Rej,Participant_Images/610f303cfb519f6dc89edd5f/610f303cfb519f6dc89edd5f_Images/610f303cfb519f6dc89edd5f_Image_23.jpeg,did not like,2.843822497,,,,,,,,,,,,,,,,,,,,,,
,,610f303cfb519f6dc89edd5f,6685aa9113c938e83b4f1ea0,672d013f15c5cf809bb120b5,2024-11-07_13h07.09.866,WTP_SM_Choice,2022.2.1,MacIntel,60.60606061,,,,,space,8.0183,NAN,,NAN,0.11,5.89,,0,8,8,8,1,9,Riley,Rej,Participant_Images/610f303cfb519f6dc89edd5f/610f303cfb519f6dc89edd5f_Images/610f303cfb519f6dc89edd5f_Image_7.jpeg,liked,3.546495948,,,,,,,,,,,,,,,,,,,,,,
,,610f303cfb519f6dc89edd5f,6685aa9113c938e83b4f1ea0,672d013f15c5cf809bb120b5,2024-11-07_13h07.09.866,WTP_SM_Choice,2022.2.1,MacIntel,60.60606061,,,,,,,,,,,,,,,,,,6,,,,,,space,0.3267,space,2.2134,0.01,1,1.7383,0,0,0,0,1,Stretch and doing some yoga after a long day of working and lifting,Schedule a day on the golf course with a friend,0.01,0.02,3.3,1,,,,
,,610f303cfb519f6dc89edd5f,6685aa9113c938e83b4f1ea0,672d013f15c5cf809bb120b5,2024-11-07_13h07.09.866,WTP_SM_Choice,2022.2.1,MacIntel,60.60606061,,,,,,,,,,,,,,,,,,7,,,,,,,,,,0.02,2,2.6419,0,1,1,1,1,Stretch and doing some yoga after a long day of working and lifting,Make time to go a farmers market on Sunday to stock up for the week with my partner,0.02,0.02,1.1,1,,,,
,,610f303cfb519f6dc89edd5f,6685aa9113c938e83b4f1ea0,672d013f15c5cf809bb120b5,2024-11-07_13h07.09.866,WTP_SM_Choice,2022.2.1,MacIntel,60.60606061,,,,,,,,,,,,,,,,,,8,,,,,,,,,,0.03,1,2.9724,0,2,2,2,1,Wake up feeling like I got a great nights sleep and jumping into a warm shower to start my day,Watch football with friends and making some game day snacks with my family friends and partner,0.03,0.02,1.1,1,,,,
,,610f303cfb519f6dc89edd5f,6685aa9113c938e83b4f1ea0,672d013f15c5cf809bb120b5,2024-11-07_13h07.09.866,WTP_SM_Choice,2022.2.1,MacIntel,60.60606061,,,,,,,,,,,,,,,,,,9,,,,,,,,,,0.04,1,1.7638,0,3,3,3,1,Make time to go a farmers market on Sunday to stock up for the week with my partner,Get dressed for a morning bike ride that includes a lot of incline,0.04,0.02,4.4,0,,,,
,,610f303cfb519f6dc89edd5f,6685aa9113c938e83b4f1ea0,672d013f15c5cf809bb120b5,2024-11-07_13h07.09.866,WTP_SM_Choice,2022.2.1,MacIntel,60.60606061,,,,,,,,,,,,,,,,,,10,,,,,,,,,,0.02,2,1.4692,0,4,4,4,1,Meet up to have a cup of coffee and a chat with a friend,Wake up feeling like I got a great nights sleep and jumping into a warm shower to start my day,0.05,0.02,1.1,0,,,,
,,610f303cfb519f6dc89edd5f,6685aa9113c938e83b4f1ea0,672d013f15c5cf809bb120b5,2024-11-07_13h07.09.866,WTP_SM_Choice,2022.2.1,MacIntel,60.60606061,,,,,,,NAN,,NAN,0.23,5.77,,0,9,9,9,1,10,Riley,Rej,Participant_Images/610f303cfb519f6dc89edd5f/610f303cfb519f6dc89edd5f_Images/610f303cfb519f6dc89edd5f_Image_10.jpeg,did not like,1.672012706,,,,,,,,,,,,,,,,,,,,,,
,,610f303cfb519f6dc89edd5f,6685aa9113c938e83b4f1ea0,672d013f15c5cf809bb120b5,2024-11-07_13h07.09.866,WTP_SM_Choice,2022.2.1,MacIntel,60.60606061,,,,,space,0.3703,NAN,,NAN,0.23,5.77,,0,10,10,10,1,11,Riley,Rej,Participant_Images/610f303cfb519f6dc89edd5f/610f303cfb519f6dc89edd5f_Images/610f303cfb519f6dc89edd5f_Image_6.jpeg,did not like,4.942172136,,,,,,,,,,,,,,,,,,,,,,
,,610f303cfb519f6dc89edd5f,6685aa9113c938e83b4f1ea0,672d013f15c5cf809bb120b5,2024-11-07_13h07.09.866,WTP_SM_Choice,2022.2.1,MacIntel,60.60606061,,,,,space,0.7397,NAN,,NAN,0.23,5.77,,0,11,11,11,1,12,Riley,Rej,Participant_Images/610f303cfb519f6dc89edd5f/610f303cfb519f6dc89edd5f_Images/610f303cfb519f6dc89edd5f_Image_11.jpeg,liked,2.50187214,,,,,,,,,,,,,,,,,,,,,,
,,610f303cfb519f6dc89edd5f,6685aa9113c938e83b4f1ea0,672d013f15c5cf809bb120b5,2024-11-07_13h07.09.866,WTP_SM_Choice,2022.2.1,MacIntel,60.60606061,,,,,space,0.5669,NAN,,NAN,0.23,5.77,,0,12,12,12,1,13,Riley,Rej,Participant_Images/610f303cfb519f6dc89edd5f/610f303cfb519f6dc89edd5f_Images/610f303cfb519f6dc89edd5f_Image_18.jpeg,did not like,2.071164779,,,,,,,,,,,,,,,,,,,,,,
,,610f303cfb519f6dc89edd5f,6685aa9113c938e83b4f1ea0,672d013f15c5cf809bb120b5,2024-11-07_13h07.09.866,WTP_SM_Choice,2022.2.1,MacIntel,60.60606061,,,,,space,0.5551,NAN,,NAN,0.23,5.77,,0,13,13,13,1,14,Riley,Rej,Participant_Images/610f303cfb519f6dc89edd5f/610f303cfb519f6dc89edd5f_Images/610f303cfb519f6dc89edd5f_Image_22.jpeg,did not like,5.336503566,,,,,,,,,,,,,,,,,,,,,,
,,610f303cfb519f6dc89edd5f,6685aa9113c938e83b4f1ea0,672d013f15c5cf809bb120b5,2024-11-07_13h07.09.866,WTP_SM_Choice,2022.2.1,MacIntel,60.60606061,,,,,,,,,,,,,,,,,,11,,,,,,space,5.9496,space,2.8644,0.01,1,2.2709,0,0,0,0,1,Meet up to have a cup of coffee and a chat with a friend,Stretch and doing some yoga after a long day of working and lifting,0.01,0.03,3.3,0,,,,
,,610f303cfb519f6dc89edd5f,6685aa9113c938e83b4f1ea0,672d013f15c5cf809bb120b5,2024-11-07_13h07.09.866,WTP_SM_Choice,2022.2.1,MacIntel,60.60606061,,,,,,,,,,,,,,,,,,12,,,,,,,,,,0.02,1,2.7925,0,1,1,1,1,Watch football with friends and making some game day snacks with my family friends and partner,Get dressed for a morning bike ride that includes a lot of incline,0.02,0.03,4.4,0,,,,
,,610f303cfb519f6dc89edd5f,6685aa9113c938e83b4f1ea0,672d013f15c5cf809bb120b5,2024-11-07_13h07.09.866,WTP_SM_Choice,2022.2.1,MacIntel,60.60606061,,,,,,,,,,,,,,,,,,13,,,,,,,,,,0.03,2,2.5691,0,2,2,2,1,Make reservations at a restaurant to have some good food and drinks with friends,Scroll on my phone and seeing what my friends are up to on various social media platforms,0.03,0.03,1.1,0,,,,
,,610f303cfb519f6dc89edd5f,6685aa9113c938e83b4f1ea0,672d013f15c5cf809bb120b5,2024-11-07_13h07.09.866,WTP_SM_Choice,2022.2.1,MacIntel,60.60606061,,,,,,,,,,,,,,,,,,14,,,,,,,,,,0.04,1,2.5096,0,3,3,3,1,Scroll on my phone and seeing what my friends are up to on various social media platforms,Schedule a day on the golf course with a friend,0.04,0.03,3.3,1,,,,
,,610f303cfb519f6dc89edd5f,6685aa9113c938e83b4f1ea0,672d013f15c5cf809bb120b5,2024-11-07_13h07.09.866,WTP_SM_Choice,2022.2.1,MacIntel,60.60606061,,,,,,,,,,,,,,,,,,15,,,,,,,,,,0.03,2,1.8515,0,4,4,4,1,Read an engaging book in the park while laying on a blanket on a beautiful spring day,Make reservations at a restaurant to have some good food and drinks with friends,0.05,0.03,4.4,1,,,,
,,610f303cfb519f6dc89edd5f,6685aa9113c938e83b4f1ea0,672d013f15c5cf809bb120b5,2024-11-07_13h07.09.866,WTP_SM_Choice,2022.2.1,MacIntel,60.60606061,,,,,,,NAN,,NAN,0.36,5.64,,0,14,14,14,1,15,Riley,Rej,Participant_Images/610f303cfb519f6dc89edd5f/610f303cfb519f6dc89edd5f_Images/610f303cfb519f6dc89edd5f_Image_9.jpeg,did not like,2.642157193,,,,,,,,,,,,,,,,,,,,,,
,,610f303cfb519f6dc89edd5f,6685aa9113c938e83b4f1ea0,672d013f15c5cf809bb120b5,2024-11-07_13h07.09.866,WTP_SM_Choice,2022.2.1,MacIntel,60.60606061,,,,,space,0.6547,NAN,,NAN,0.36,5.64,,0,15,15,15,1,16,Riley,Rej,Participant_Images/610f303cfb519f6dc89edd5f/610f303cfb519f6dc89edd5f_Images/610f303cfb519f6dc89edd5f_Image_2.jpeg,liked,4.456234322,,,,,,,,,,,,,,,,,,,,,,
,,610f303cfb519f6dc89edd5f,6685aa9113c938e83b4f1ea0,672d013f15c5cf809bb120b5,2024-11-07_13h07.09.866,WTP_SM_Choice,2022.2.1,MacIntel,60.60606061,,,,,space,0.8226,NAN,,NAN,0.36,5.64,,0,16,16,16,1,17,Riley,Rej,Participant_Images/610f303cfb519f6dc89edd5f/610f303cfb519f6dc89edd5f_Images/610f303cfb519f6dc89edd5f_Image_1.jpeg,did not like,4.438512181,,,,,,,,,,,,,,,,,,,,,,
,,610f303cfb519f6dc89edd5f,6685aa9113c938e83b4f1ea0,672d013f15c5cf809bb120b5,2024-11-07_13h07.09.866,WTP_SM_Choice,2022.2.1,MacIntel,60.60606061,,,,,space,0.6001,NAN,,NAN,0.36,5.64,,0,17,17,17,1,18,Riley,Rej,Participant_Images/610f303cfb519f6dc89edd5f/610f303cfb519f6dc89edd5f_Images/610f303cfb519f6dc89edd5f_Image_24.jpeg,liked,2.682944783,,,,,,,,,,,,,,,,,,,,,,
,,610f303cfb519f6dc89edd5f,6685aa9113c938e83b4f1ea0,672d013f15c5cf809bb120b5,2024-11-07_13h07.09.866,WTP_SM_Choice,2022.2.1,MacIntel,60.60606061,,,,,space,0.7714,NAN,,NAN,0.36,5.64,,0,18,18,18,1,19,Riley,Rej,Participant_Images/610f303cfb519f6dc89edd5f/610f303cfb519f6dc89edd5f_Images/610f303cfb519f6dc89edd5f_Image_14.jpeg,did not like,4.51984296,,,,,,,,,,,,,,,,,,,,,,
,,610f303cfb519f6dc89edd5f,6685aa9113c938e83b4f1ea0,672d013f15c5cf809bb120b5,2024-11-07_13h07.09.866,WTP_SM_Choice,2022.2.1,MacIntel,60.60606061,,,,,,,,,,,,,,,,,,16,,,,,,space,0.3822,space,0.5719,0.01,1,3.0205,0,0,0,0,1,Stretch and doing some yoga after a long day of working and lifting,Make reservations at a restaurant to have some good food and drinks with friends,0.01,0.04,1.1,1,,,,
,,610f303cfb519f6dc89edd5f,6685aa9113c938e83b4f1ea0,672d013f15c5cf809bb120b5,2024-11-07_13h07.09.866,WTP_SM_Choice,2022.2.1,MacIntel,60.60606061,,,,,,,,,,,,,,,,,,17,,,,,,,,,,0.04,2,1.8758,0,1,1,1,1,Schedule a day on the golf course with a friend,Get dressed for a morning bike ride that includes a lot of incline,0.02,0.04,8.8,0,,,,
,,610f303cfb519f6dc89edd5f,6685aa9113c938e83b4f1ea0,672d013f15c5cf809bb120b5,2024-11-07_13h07.09.866,WTP_SM_Choice,2022.2.1,MacIntel,60.60606061,,,,,,,,,,,,,,,,,,18,,,,,,,,,,0.03,1,1.6192,0,2,2,2,1,Watch football with friends and making some game day snacks with my family friends and partner,Go to the gym to get a lift in and feel strong ,0.03,0.04,3.3,0,,,,
,,610f303cfb519f6dc89edd5f,6685aa9113c938e83b4f1ea0,672d013f15c5cf809bb120b5,2024-11-07_13h07.09.866,WTP_SM_Choice,2022.2.1,MacIntel,60.60606061,,,,,,,,,,,,,,,,,,19,,,,,,,,,,0.04,2,4.5422,0,3,3,3,1,Get outside and going on a long walk to get more connected to nature with my partner,Wake up feeling like I got a great nights sleep and jumping into a warm shower to start my day,0.04,0.04,3.3,0,,,,
,,610f303cfb519f6dc89edd5f,6685aa9113c938e83b4f1ea0,672d013f15c5cf809bb120b5,2024-11-07_13h07.09.866,WTP_SM_Choice,2022.2.1,MacIntel,60.60606061,,,,,,,,,,,,,,,,,,20,,,,,,,,,,0.04,2,2.1258,0,4,4,4,1,Go to the gym to get a lift in and feel strong ,Get outside and going on a long walk to get more connected to nature with my partner,0.05,0.04,1.1,1,,,,
,,610f303cfb519f6dc89edd5f,6685aa9113c938e83b4f1ea0,672d013f15c5cf809bb120b5,2024-11-07_13h07.09.866,WTP_SM_Choice,2022.2.1,MacIntel,60.60606061,,,,,,,NAN,,NAN,0.52,5.48,,0,19,19,19,1,20,Riley,Rej,Participant_Images/610f303cfb519f6dc89edd5f/610f303cfb519f6dc89edd5f_Images/610f303cfb519f6dc89edd5f_Image_3.jpeg,did not like,3.195382774,,,,,,,,,,,,,,,,,,,,,,
,,610f303cfb519f6dc89edd5f,6685aa9113c938e83b4f1ea0,672d013f15c5cf809bb120b5,2024-11-07_13h07.09.866,WTP_SM_Choice,2022.2.1,MacIntel,60.60606061,,,,,space,0.8235,NAN,,NAN,0.52,5.48,,0,20,20,20,1,21,Riley,Rej,Participant_Images/610f303cfb519f6dc89edd5f/610f303cfb519f6dc89edd5f_Images/610f303cfb519f6dc89edd5f_Image_8.jpeg,liked,1.779333479,,,,,,,,,,,,,,,,,,,,,,
,,610f303cfb519f6dc89edd5f,6685aa9113c938e83b4f1ea0,672d013f15c5cf809bb120b5,2024-11-07_13h07.09.866,WTP_SM_Choice,2022.2.1,MacIntel,60.60606061,,,,,space,0.5167,NAN,,NAN,0.52,5.48,,0,21,21,21,1,22,Riley,Rej,Participant_Images/610f303cfb519f6dc89edd5f/610f303cfb519f6dc89edd5f_Images/610f303cfb519f6dc89edd5f_Image_12.jpeg,liked,4.312468682,,,,,,,,,,,,,,,,,,,,,,
,,610f303cfb519f6dc89edd5f,6685aa9113c938e83b4f1ea0,672d013f15c5cf809bb120b5,2024-11-07_13h07.09.866,WTP_SM_Choice,2022.2.1,MacIntel,60.60606061,,,,,space,1.8403,NAN,,NAN,0.52,5.48,,0,22,22,22,1,23,Riley,Rej,Participant_Images/610f303cfb519f6dc89edd5f/610f303cfb519f6dc89edd5f_Images/610f303cfb519f6dc89edd5f_Image_15.jpeg,did not like,4.940433059,,,,,,,,,,,,,,,,,,,,,,
,,610f303cfb519f6dc89edd5f,6685aa9113c938e83b4f1ea0,672d013f15c5cf809bb120b5,2024-11-07_13h07.09.866,WTP_SM_Choice,2022.2.1,MacIntel,60.60606061,,,,,space,0.5913,NAN,,NAN,0.52,5.48,,0,23,23,23,1,24,Riley,Rej,Participant_Images/610f303cfb519f6dc89edd5f/610f303cfb519f6dc89edd5f_Images/610f303cfb519f6dc89edd5f_Image_13.jpeg,did not like,2.7105123,,,,,,,,,,,,,,,,,,,,,,
,,610f303cfb519f6dc89edd5f,6685aa9113c938e83b4f1ea0,672d013f15c5cf809bb120b5,2024-11-07_13h07.09.866,WTP_SM_Choice,2022.2.1,MacIntel,60.60606061,,,,,,,,,,,,,,,,,,21,,,,,,space,0.9844,space,1.04,0.01,1,3.197,0,0,0,0,1,Plan to go to a yoga class to get the body moving with my friend and partner,Scroll on my phone and seeing what my friends are up to on various social media platforms,0.01,0.05,8.8,0,,,,
,,610f303cfb519f6dc89edd5f,6685aa9113c938e83b4f1ea0,672d013f15c5cf809bb120b5,2024-11-07_13h07.09.866,WTP_SM_Choice,2022.2.1,MacIntel,60.60606061,,,,,,,,,,,,,,,,,,22,,,,,,,,,,0.02,1,3.0548,0,1,1,1,1,Wake up and going on a long Saturday bike ride and then going to a bakery for some fresh sweets after with my friends,Stretch and doing some yoga after a long day of working and lifting,0.02,0.05,4.4,0,,,,
,,610f303cfb519f6dc89edd5f,6685aa9113c938e83b4f1ea0,672d013f15c5cf809bb120b5,2024-11-07_13h07.09.866,WTP_SM_Choice,2022.2.1,MacIntel,60.60606061,,,,,,,,,,,,,,,,,,23,,,,,,,,,,0.03,1,2.4247,0,2,2,2,1,Receive a massage in a low lit room with the smell of a fruity candle burning,Get outside and going on a long walk to get more connected to nature with my partner,0.03,0.05,1.1,1,,,,
,,610f303cfb519f6dc89edd5f,6685aa9113c938e83b4f1ea0,672d013f15c5cf809bb120b5,2024-11-07_13h07.09.866,WTP_SM_Choice,2022.2.1,MacIntel,60.60606061,,,,,,,,,,,,,,,,,,24,,,,,,,,,,0.04,1,4.2413,0,3,3,3,1,Watch football with friends and making some game day snacks with my family friends and partner,Stretch and doing some yoga after a long day of working and lifting,0.04,0.05,4.4,0,,,,
,,610f303cfb519f6dc89edd5f,6685aa9113c938e83b4f1ea0,672d013f15c5cf809bb120b5,2024-11-07_13h07.09.866,WTP_SM_Choice,2022.2.1,MacIntel,60.60606061,,,,,,,,,,,,,,,,,,25,,,,,,,,,,0.05,2,1.9255,0,4,4,4,1,Get dressed for a morning bike ride that includes a lot of incline,Plan to go to a yoga class to get the body moving with my friend and partner,0.05,0.05,3.3,1,,,,
,,610f303cfb519f6dc89edd5f,6685aa9113c938e83b4f1ea0,672d013f15c5cf809bb120b5,2024-11-07_13h07.09.866,WTP_SM_Choice,2022.2.1,MacIntel,60.60606061,,,,,,,2,,2,0.67,5.33,,0,24,24,24,1,25,Riley,Rej,Participant_Images/610f303cfb519f6dc89edd5f/610f303cfb519f6dc89edd5f_Images/610f303cfb519f6dc89edd5f_Image_19.jpeg,did not like,3.602308302,,,,,,,,,,,,,,,,,,,space,0.9477,,
,,610f303cfb519f6dc89edd5f,6685aa9113c938e83b4f1ea0,672d013f15c5cf809bb120b5,2024-11-07_13h07.09.866,WTP_SM_Choice,2022.2.1,MacIntel,60.60606061,,,space,1.2579,space,0.4504,NAN,,NAN,0.67,5.33,,0,25,25,25,1,26,Charlie,Acc,Participant_Images/610f303cfb519f6dc89edd5f/610f303cfb519f6dc89edd5f_Images/610f303cfb519f6dc89edd5f_Image_13.jpeg,liked,4.106391878,,,,,,,,,,,,,,,,,,,,,,
,,610f303cfb519f6dc89edd5f,6685aa9113c938e83b4f1ea0,672d013f15c5cf809bb120b5,2024-11-07_13h07.09.866,WTP_SM_Choice,2022.2.1,MacIntel,60.60606061,,,,,space,3.954,NAN,,NAN,0.67,5.33,,0,26,26,26,1,27,Charlie,Acc,Participant_Images/610f303cfb519f6dc89edd5f/610f303cfb519f6dc89edd5f_Images/610f303cfb519f6dc89edd5f_Image_2.jpeg,liked,3.799433026,,,,,,,,,,,,,,,,,,,,,,
,,610f303cfb519f6dc89edd5f,6685aa9113c938e83b4f1ea0,672d013f15c5cf809bb120b5,2024-11-07_13h07.09.866,WTP_SM_Choice,2022.2.1,MacIntel,60.60606061,,,,,space,0.4042,NAN,,NAN,0.67,5.33,,0,27,27,27,1,28,Charlie,Acc,Participant_Images/610f303cfb519f6dc89edd5f/610f303cfb519f6dc89edd5f_Images/610f303cfb519f6dc89edd5f_Image_5.jpeg,liked,5.246980764,,,,,,,,,,,,,,,,,,,,,,
,,610f303cfb519f6dc89edd5f,6685aa9113c938e83b4f1ea0,672d013f15c5cf809bb120b5,2024-11-07_13h07.09.866,WTP_SM_Choice,2022.2.1,MacIntel,60.60606061,,,,,space,0.5041,NAN,,NAN,0.67,5.33,,0,28,28,28,1,29,Charlie,Acc,Participant_Images/610f303cfb519f6dc89edd5f/610f303cfb519f6dc89edd5f_Images/610f303cfb519f6dc89edd5f_Image_14.jpeg,liked,3.30081769,,,,,,,,,,,,,,,,,,,,,,
,,610f303cfb519f6dc89edd5f,6685aa9113c938e83b4f1ea0,672d013f15c5cf809bb120b5,2024-11-07_13h07.09.866,WTP_SM_Choice,2022.2.1,MacIntel,60.60606061,,,,,,,,,,,,,,,,,,26,,,,,,space,1.5338,space,0.8707,0.01,2,1.5017,0,0,0,0,1,Schedule a day on the golf course with a friend,Listen to live music while sipping on a delicious tequila margerita,0.01,0.01,4.4,0,,,,
,,610f303cfb519f6dc89edd5f,6685aa9113c938e83b4f1ea0,672d013f15c5cf809bb120b5,2024-11-07_13h07.09.866,WTP_SM_Choice,2022.2.1,MacIntel,60.60606061,,,,,,,,,,,,,,,,,,27,,,,,,,,,,0.02,1,2.4733,0,1,1,1,1,Scroll on my phone and seeing what my friends are up to on various social media platforms,Meet up to have a cup of coffee and a chat with a friend,0.02,0.01,3.3,1,,,,
,,610f303cfb519f6dc89edd5f,6685aa9113c938e83b4f1ea0,672d013f15c5cf809bb120b5,2024-11-07_13h07.09.866,WTP_SM_Choice,2022.2.1,MacIntel,60.60606061,,,,,,,,,,,,,,,,,,28,,,,,,,,,,0.01,2,2.1875,0,2,2,2,1,Meet at a dog park to let our dogs have fun while we relax and chat with friends,Get dressed for a morning bike ride that includes a lot of incline,0.03,0.01,3.3,0,,,,
,,610f303cfb519f6dc89edd5f,6685aa9113c938e83b4f1ea0,672d013f15c5cf809bb120b5,2024-11-07_13h07.09.866,WTP_SM_Choice,2022.2.1,MacIntel,60.60606061,,,,,,,,,,,,,,,,,,29,,,,,,,,,,0.01,2,2.4199,0,3,3,3,1,Go on a walk by the beach with the sun shining in my face and a gentle breeze flowing through the air,Get outside and going on a long walk to get more connected to nature with my partner,0.04,0.01,4.4,1,,,,
,,610f303cfb519f6dc89edd5f,6685aa9113c938e83b4f1ea0,672d013f15c5cf809bb120b5,2024-11-07_13h07.09.866,WTP_SM_Choice,2022.2.1,MacIntel,60.60606061,,,,,,,,,,,,,,,,,,30,,,,,,,,,,0.01,2,4.51,0,4,4,4,1,Get outside and going on a long walk to get more connected to nature with my partner,Read an engaging book in the park while laying on a blanket on a beautiful spring day,0.05,0.01,8.8,0,,,,
,,610f303cfb519f6dc89edd5f,6685aa9113c938e83b4f1ea0,672d013f15c5cf809bb120b5,2024-11-07_13h07.09.866,WTP_SM_Choice,2022.2.1,MacIntel,60.60606061,,,,,,,NAN,,NAN,0.73,5.27,,0,29,29,29,1,30,Charlie,Acc,Participant_Images/610f303cfb519f6dc89edd5f/610f303cfb519f6dc89edd5f_Images/610f303cfb519f6dc89edd5f_Image_18.jpeg,liked,1.661473164,,,,,,,,,,,,,,,,,,,,,,
,,610f303cfb519f6dc89edd5f,6685aa9113c938e83b4f1ea0,672d013f15c5cf809bb120b5,2024-11-07_13h07.09.866,WTP_SM_Choice,2022.2.1,MacIntel,60.60606061,,,,,space,0.7198,NAN,,NAN,0.73,5.27,,0,30,30,30,1,31,Charlie,Acc,Participant_Images/610f303cfb519f6dc89edd5f/610f303cfb519f6dc89edd5f_Images/610f303cfb519f6dc89edd5f_Image_17.jpeg,liked,3.613205605,,,,,,,,,,,,,,,,,,,,,,
,,610f303cfb519f6dc89edd5f,6685aa9113c938e83b4f1ea0,672d013f15c5cf809bb120b5,2024-11-07_13h07.09.866,WTP_SM_Choice,2022.2.1,MacIntel,60.60606061,,,,,space,0.6025,NAN,,NAN,0.73,5.27,,0,31,31,31,1,32,Charlie,Acc,Participant_Images/610f303cfb519f6dc89edd5f/610f303cfb519f6dc89edd5f_Images/610f303cfb519f6dc89edd5f_Image_16.jpeg,liked,4.988446431,,,,,,,,,,,,,,,,,,,,,,
,,610f303cfb519f6dc89edd5f,6685aa9113c938e83b4f1ea0,672d013f15c5cf809bb120b5,2024-11-07_13h07.09.866,WTP_SM_Choice,2022.2.1,MacIntel,60.60606061,,,,,space,1.157,NAN,,NAN,0.73,5.27,,0,32,32,32,1,33,Charlie,Acc,Participant_Images/610f303cfb519f6dc89edd5f/610f303cfb519f6dc89edd5f_Images/610f303cfb519f6dc89edd5f_Image_1.jpeg,liked,3.470791822,,,,,,,,,,,,,,,,,,,,,,
,,610f303cfb519f6dc89edd5f,6685aa9113c938e83b4f1ea0,672d013f15c5cf809bb120b5,2024-11-07_13h07.09.866,WTP_SM_Choice,2022.2.1,MacIntel,60.60606061,,,,,space,0.5722,NAN,,NAN,0.73,5.27,,0,33,33,33,1,34,Charlie,Acc,Participant_Images/610f303cfb519f6dc89edd5f/610f303cfb519f6dc89edd5f_Images/610f303cfb519f6dc89edd5f_Image_10.jpeg,liked,3.820572462,,,,,,,,,,,,,,,,,,,,,,
,,610f303cfb519f6dc89edd5f,6685aa9113c938e83b4f1ea0,672d013f15c5cf809bb120b5,2024-11-07_13h07.09.866,WTP_SM_Choice,2022.2.1,MacIntel,60.60606061,,,,,,,,,,,,,,,,,,31,,,,,,space,0.7186,space,0.4654,0.01,1,1.4317,0,0,0,0,1,Scroll on my phone and seeing what my friends are up to on various social media platforms,Meet at a dog park to let our dogs have fun while we relax and chat with friends,0.01,0.02,8.8,1,,,,
,,610f303cfb519f6dc89edd5f,6685aa9113c938e83b4f1ea0,672d013f15c5cf809bb120b5,2024-11-07_13h07.09.866,WTP_SM_Choice,2022.2.1,MacIntel,60.60606061,,,,,,,,,,,,,,,,,,32,,,,,,,,,,0.02,2,1.1779,0,1,1,1,1,Get dressed for a morning bike ride that includes a lot of incline,Get outside and going on a long walk to get more connected to nature with my partner,0.02,0.02,1.1,1,,,,
,,610f303cfb519f6dc89edd5f,6685aa9113c938e83b4f1ea0,672d013f15c5cf809bb120b5,2024-11-07_13h07.09.866,WTP_SM_Choice,2022.2.1,MacIntel,60.60606061,,,,,,,,,,,,,,,,,,33,,,,,,,,,,0.03,1,1.852,0,2,2,2,1,Make time to go a farmers market on Sunday to stock up for the week with my partner,Cook a delicious steak dinner for my significant other and I while having a glass of red wine,0.03,0.02,4.4,0,,,,
,,610f303cfb519f6dc89edd5f,6685aa9113c938e83b4f1ea0,672d013f15c5cf809bb120b5,2024-11-07_13h07.09.866,WTP_SM_Choice,2022.2.1,MacIntel,60.60606061,,,,,,,,,,,,,,,,,,34,,,,,,,,,,0.02,2,1.9768,0,3,3,3,1,Watch football with friends and making some game day snacks with my family friends and partner,Read an engaging book in the park while laying on a blanket on a beautiful spring day,0.04,0.02,3.3,0,,,,
,,610f303cfb519f6dc89edd5f,6685aa9113c938e83b4f1ea0,672d013f15c5cf809bb120b5,2024-11-07_13h07.09.866,WTP_SM_Choice,2022.2.1,MacIntel,60.60606061,,,,,,,,,,,,,,,,,,35,,,,,,,,,,0.02,2,2.8773,0,4,4,4,1,Listen to live music while sipping on a delicious tequila margerita,Wake up and going on a long Saturday bike ride and then going to a bakery for some fresh sweets after with my friends,0.05,0.02,1.1,1,,,,
,,610f303cfb519f6dc89edd5f,6685aa9113c938e83b4f1ea0,672d013f15c5cf809bb120b5,2024-11-07_13h07.09.866,WTP_SM_Choice,2022.2.1,MacIntel,60.60606061,,,,,,,NAN,,NAN,0.83,5.17,,0,34,34,34,1,35,Charlie,Acc,Participant_Images/610f303cfb519f6dc89edd5f/610f303cfb519f6dc89edd5f_Images/610f303cfb519f6dc89edd5f_Image_21.jpeg,liked,2.455989137,,,,,,,,,,,,,,,,,,,,,,
,,610f303cfb519f6dc89edd5f,6685aa9113c938e83b4f1ea0,672d013f15c5cf809bb120b5,2024-11-07_13h07.09.866,WTP_SM_Choice,2022.2.1,MacIntel,60.60606061,,,,,space,0.983,NAN,,NAN,0.83,5.17,,0,35,35,35,1,36,Charlie,Acc,Participant_Images/610f303cfb519f6dc89edd5f/610f303cfb519f6dc89edd5f_Images/610f303cfb519f6dc89edd5f_Image_25.jpeg,liked,3.79605092,,,,,,,,,,,,,,,,,,,,,,
,,610f303cfb519f6dc89edd5f,6685aa9113c938e83b4f1ea0,672d013f15c5cf809bb120b5,2024-11-07_13h07.09.866,WTP_SM_Choice,2022.2.1,MacIntel,60.60606061,,,,,space,0.516,NAN,,NAN,0.83,5.17,,0,36,36,36,1,37,Charlie,Acc,Participant_Images/610f303cfb519f6dc89edd5f/610f303cfb519f6dc89edd5f_Images/610f303cfb519f6dc89edd5f_Image_3.jpeg,did not like,3.562416326,,,,,,,,,,,,,,,,,,,,,,
,,610f303cfb519f6dc89edd5f,6685aa9113c938e83b4f1ea0,672d013f15c5cf809bb120b5,2024-11-07_13h07.09.866,WTP_SM_Choice,2022.2.1,MacIntel,60.60606061,,,,,space,4.237,NAN,,NAN,0.83,5.17,,0,37,37,37,1,38,Charlie,Acc,Participant_Images/610f303cfb519f6dc89edd5f/610f303cfb519f6dc89edd5f_Images/610f303cfb519f6dc89edd5f_Image_6.jpeg,did not like,2.843822497,,,,,,,,,,,,,,,,,,,,,,
,,610f303cfb519f6dc89edd5f,6685aa9113c938e83b4f1ea0,672d013f15c5cf809bb120b5,2024-11-07_13h07.09.866,WTP_SM_Choice,2022.2.1,MacIntel,60.60606061,,,,,space,1.3688,NAN,,NAN,0.83,5.17,,0,38,38,38,1,39,Charlie,Acc,Participant_Images/610f303cfb519f6dc89edd5f/610f303cfb519f6dc89edd5f_Images/610f303cfb519f6dc89edd5f_Image_22.jpeg,did not like,3.546495948,,,,,,,,,,,,,,,,,,,,,,
,,610f303cfb519f6dc89edd5f,6685aa9113c938e83b4f1ea0,672d013f15c5cf809bb120b5,2024-11-07_13h07.09.866,WTP_SM_Choice,2022.2.1,MacIntel,60.60606061,,,,,,,,,,,,,,,,,,36,,,,,,space,0.936,space,0.4866,0.01,1,1.8501,0,0,0,0,1,Wake up feeling like I got a great nights sleep and jumping into a warm shower to start my day,Schedule a day on the golf course with a friend,0.01,0.03,3.3,1,,,,
,,610f303cfb519f6dc89edd5f,6685aa9113c938e83b4f1ea0,672d013f15c5cf809bb120b5,2024-11-07_13h07.09.866,WTP_SM_Choice,2022.2.1,MacIntel,60.60606061,,,,,,,,,,,,,,,,,,37,,,,,,,,,,0.03,2,1.7762,0,1,1,1,1,Go to the gym to get a lift in and feel strong ,Meet up to have a cup of coffee and a chat with a friend,0.02,0.03,1.1,1,,,,
,,610f303cfb519f6dc89edd5f,6685aa9113c938e83b4f1ea0,672d013f15c5cf809bb120b5,2024-11-07_13h07.09.866,WTP_SM_Choice,2022.2.1,MacIntel,60.60606061,,,,,,,,,,,,,,,,,,38,,,,,,,,,,0.03,1,1.5687,0,2,2,2,1,Get outside and going on a long walk to get more connected to nature with my partner,Cook a delicious steak dinner for my significant other and I while having a glass of red wine,0.03,0.03,1.1,0,,,,
,,610f303cfb519f6dc89edd5f,6685aa9113c938e83b4f1ea0,672d013f15c5cf809bb120b5,2024-11-07_13h07.09.866,WTP_SM_Choice,2022.2.1,MacIntel,60.60606061,,,,,,,,,,,,,,,,,,39,,,,,,,,,,0.03,2,1.5547,0,3,3,3,1,Meet at a dog park to let our dogs have fun while we relax and chat with friends,Go on a walk by the beach with the sun shining in my face and a gentle breeze flowing through the air,0.04,0.03,3.3,0,,,,
,,610f303cfb519f6dc89edd5f,6685aa9113c938e83b4f1ea0,672d013f15c5cf809bb120b5,2024-11-07_13h07.09.866,WTP_SM_Choice,2022.2.1,MacIntel,60.60606061,,,,,,,,,,,,,,,,,,40,,,,,,,,,,0.03,2,1.4744,0,4,4,4,1,Listen to live music while sipping on a delicious tequila margerita,Meet up to have a cup of coffee and a chat with a friend,0.05,0.03,4.4,1,,,,
,,610f303cfb519f6dc89edd5f,6685aa9113c938e83b4f1ea0,672d013f15c5cf809bb120b5,2024-11-07_13h07.09.866,WTP_SM_Choice,2022.2.1,MacIntel,60.60606061,,,,,,,NAN,,NAN,0.96,5.04,,0,39,39,39,1,40,Charlie,Acc,Participant_Images/610f303cfb519f6dc89edd5f/610f303cfb519f6dc89edd5f_Images/610f303cfb519f6dc89edd5f_Image_19.jpeg,liked,1.672012706,,,,,,,,,,,,,,,,,,,,,,
,,610f303cfb519f6dc89edd5f,6685aa9113c938e83b4f1ea0,672d013f15c5cf809bb120b5,2024-11-07_13h07.09.866,WTP_SM_Choice,2022.2.1,MacIntel,60.60606061,,,,,space,5.9566,NAN,,NAN,0.96,5.04,,0,40,40,40,1,41,Charlie,Acc,Participant_Images/610f303cfb519f6dc89edd5f/610f303cfb519f6dc89edd5f_Images/610f303cfb519f6dc89edd5f_Image_7.jpeg,did not like,4.942172136,,,,,,,,,,,,,,,,,,,,,,
,,610f303cfb519f6dc89edd5f,6685aa9113c938e83b4f1ea0,672d013f15c5cf809bb120b5,2024-11-07_13h07.09.866,WTP_SM_Choice,2022.2.1,MacIntel,60.60606061,,,,,space,1.7547,NAN,,NAN,0.96,5.04,,0,41,41,41,1,42,Charlie,Acc,Participant_Images/610f303cfb519f6dc89edd5f/610f303cfb519f6dc89edd5f_Images/610f303cfb519f6dc89edd5f_Image_11.jpeg,liked,2.50187214,,,,,,,,,,,,,,,,,,,,,,
,,610f303cfb519f6dc89edd5f,6685aa9113c938e83b4f1ea0,672d013f15c5cf809bb120b5,2024-11-07_13h07.09.866,WTP_SM_Choice,2022.2.1,MacIntel,60.60606061,,,,,space,1.8559,NAN,,NAN,0.96,5.04,,0,42,42,42,1,43,Charlie,Acc,Participant_Images/610f303cfb519f6dc89edd5f/610f303cfb519f6dc89edd5f_Images/610f303cfb519f6dc89edd5f_Image_24.jpeg,liked,2.071164779,,,,,,,,,,,,,,,,,,,,,,
,,610f303cfb519f6dc89edd5f,6685aa9113c938e83b4f1ea0,672d013f15c5cf809bb120b5,2024-11-07_13h07.09.866,WTP_SM_Choice,2022.2.1,MacIntel,60.60606061,,,,,space,3.5342,NAN,,NAN,0.96,5.04,,0,43,43,43,1,44,Charlie,Acc,Participant_Images/610f303cfb519f6dc89edd5f/610f303cfb519f6dc89edd5f_Images/610f303cfb519f6dc89edd5f_Image_8.jpeg,liked,5.336503566,,,,,,,,,,,,,,,,,,,,,,
,,610f303cfb519f6dc89edd5f,6685aa9113c938e83b4f1ea0,672d013f15c5cf809bb120b5,2024-11-07_13h07.09.866,WTP_SM_Choice,2022.2.1,MacIntel,60.60606061,,,,,,,,,,,,,,,,,,41,,,,,,space,0.853,space,0.4025,0.01,1,1.2243,0,0,0,0,1,Cook a delicious steak dinner for my significant other and I while having a glass of red wine,Schedule a day on the golf course with a friend,0.01,0.04,1.1,1,,,,
,,610f303cfb519f6dc89edd5f,6685aa9113c938e83b4f1ea0,672d013f15c5cf809bb120b5,2024-11-07_13h07.09.866,WTP_SM_Choice,2022.2.1,MacIntel,60.60606061,,,,,,,,,,,,,,,,,,42,,,,,,,,,,0.02,1,1.9416,0,1,1,1,1,Wake up feeling like I got a great nights sleep and jumping into a warm shower to start my day,Host a dinner party at my place with my friends family and partner,0.02,0.04,3.3,1,,,,
,,610f303cfb519f6dc89edd5f,6685aa9113c938e83b4f1ea0,672d013f15c5cf809bb120b5,2024-11-07_13h07.09.866,WTP_SM_Choice,2022.2.1,MacIntel,60.60606061,,,,,,,,,,,,,,,,,,43,,,,,,,,,,0.04,2,4.009,0,2,2,2,1,Receive a massage in a low lit room with the smell of a fruity candle burning,Make reservations at a restaurant to have some good food and drinks with friends,0.03,0.04,1.1,1,,,,
,,610f303cfb519f6dc89edd5f,6685aa9113c938e83b4f1ea0,672d013f15c5cf809bb120b5,2024-11-07_13h07.09.866,WTP_SM_Choice,2022.2.1,MacIntel,60.60606061,,,,,,,,,,,,,,,,,,44,,,,,,,,,,0.04,2,2.5253,0,3,3,3,1,Schedule a day on the golf course with a friend,Go on a walk by the beach with the sun shining in my face and a gentle breeze flowing through the air,0.04,0.04,1.1,0,,,,
,,610f303cfb519f6dc89edd5f,6685aa9113c938e83b4f1ea0,672d013f15c5cf809bb120b5,2024-11-07_13h07.09.866,WTP_SM_Choice,2022.2.1,MacIntel,60.60606061,,,,,,,,,,,,,,,,,,45,,,,,,,,,,0.05,1,2.9189,0,4,4,4,1,Scroll on my phone and seeing what my friends are up to on various social media platforms,Get outside and going on a long walk to get more connected to nature with my partner,0.05,0.04,4.4,1,,,,
,,610f303cfb519f6dc89edd5f,6685aa9113c938e83b4f1ea0,672d013f15c5cf809bb120b5,2024-11-07_13h07.09.866,WTP_SM_Choice,2022.2.1,MacIntel,60.60606061,,,,,,,NAN,,NAN,1.12,4.88,,0,44,44,44,1,45,Charlie,Acc,Participant_Images/610f303cfb519f6dc89edd5f/610f303cfb519f6dc89edd5f_Images/610f303cfb519f6dc89edd5f_Image_9.jpeg,liked,2.642157193,,,,,,,,,,,,,,,,,,,,,,
,,610f303cfb519f6dc89edd5f,6685aa9113c938e83b4f1ea0,672d013f15c5cf809bb120b5,2024-11-07_13h07.09.866,WTP_SM_Choice,2022.2.1,MacIntel,60.60606061,,,,,space,0.4545,NAN,,NAN,1.12,4.88,,0,45,45,45,1,46,Charlie,Acc,Participant_Images/610f303cfb519f6dc89edd5f/610f303cfb519f6dc89edd5f_Images/610f303cfb519f6dc89edd5f_Image_12.jpeg,did not like,4.456234322,,,,,,,,,,,,,,,,,,,,,,
,,610f303cfb519f6dc89edd5f,6685aa9113c938e83b4f1ea0,672d013f15c5cf809bb120b5,2024-11-07_13h07.09.866,WTP_SM_Choice,2022.2.1,MacIntel,60.60606061,,,,,space,4.3212,NAN,,NAN,1.12,4.88,,0,46,46,46,1,47,Charlie,Acc,Participant_Images/610f303cfb519f6dc89edd5f/610f303cfb519f6dc89edd5f_Images/610f303cfb519f6dc89edd5f_Image_23.jpeg,did not like,4.438512181,,,,,,,,,,,,,,,,,,,,,,
,,610f303cfb519f6dc89edd5f,6685aa9113c938e83b4f1ea0,672d013f15c5cf809bb120b5,2024-11-07_13h07.09.866,WTP_SM_Choice,2022.2.1,MacIntel,60.60606061,,,,,space,1.3718,NAN,,NAN,1.12,4.88,,0,47,47,47,1,48,Charlie,Acc,Participant_Images/610f303cfb519f6dc89edd5f/610f303cfb519f6dc89edd5f_Images/610f303cfb519f6dc89edd5f_Image_4.jpeg,did not like,2.682944783,,,,,,,,,,,,,,,,,,,,,,
,,610f303cfb519f6dc89edd5f,6685aa9113c938e83b4f1ea0,672d013f15c5cf809bb120b5,2024-11-07_13h07.09.866,WTP_SM_Choice,2022.2.1,MacIntel,60.60606061,,,,,space,0.5673,NAN,,NAN,1.12,4.88,,0,48,48,48,1,49,Charlie,Acc,Participant_Images/610f303cfb519f6dc89edd5f/610f303cfb519f6dc89edd5f_Images/610f303cfb519f6dc89edd5f_Image_15.jpeg,liked,4.51984296,,,,,,,,,,,,,,,,,,,,,,
,,610f303cfb519f6dc89edd5f,6685aa9113c938e83b4f1ea0,672d013f15c5cf809bb120b5,2024-11-07_13h07.09.866,WTP_SM_Choice,2022.2.1,MacIntel,60.60606061,,,,,,,,,,,,,,,,,,46,,,,,,space,1.8328,space,0.619,0.01,1,1.522,0,0,0,0,1,Wake up and going on a long Saturday bike ride and then going to a bakery for some fresh sweets after with my friends,Read an engaging book in the park while laying on a blanket on a beautiful spring day,0.01,0.05,8.8,0,,,,
,,610f303cfb519f6dc89edd5f,6685aa9113c938e83b4f1ea0,672d013f15c5cf809bb120b5,2024-11-07_13h07.09.866,WTP_SM_Choice,2022.2.1,MacIntel,60.60606061,,,,,,,,,,,,,,,,,,47,,,,,,,,,,0.02,1,1.6863,0,1,1,1,1,Wake up feeling like I got a great nights sleep and jumping into a warm shower to start my day,Meet at a dog park to let our dogs have fun while we relax and chat with friends,0.02,0.05,1.1,1,,,,
,,610f303cfb519f6dc89edd5f,6685aa9113c938e83b4f1ea0,672d013f15c5cf809bb120b5,2024-11-07_13h07.09.866,WTP_SM_Choice,2022.2.1,MacIntel,60.60606061,,,,,,,,,,,,,,,,,,48,,,,,,,,,,0.03,1,2.7761,0,2,2,2,1,Meet at a dog park to let our dogs have fun while we relax and chat with friends,Receive a massage in a low lit room with the smell of a fruity candle burning,0.03,0.05,4.4,0,,,,
,,610f303cfb519f6dc89edd5f,6685aa9113c938e83b4f1ea0,672d013f15c5cf809bb120b5,2024-11-07_13h07.09.866,WTP_SM_Choice,2022.2.1,MacIntel,60.60606061,,,,,,,,,,,,,,,,,,49,,,,,,,,,,0.05,2,2.4254,0,3,3,3,1,Wake up and going on a long Saturday bike ride and then going to a bakery for some fresh sweets after with my friends,Scroll on my phone and seeing what my friends are up to on various social media platforms,0.04,0.05,3.3,0,,,,
,,610f303cfb519f6dc89edd5f,6685aa9113c938e83b4f1ea0,672d013f15c5cf809bb120b5,2024-11-07_13h07.09.866,WTP_SM_Choice,2022.2.1,MacIntel,60.60606061,,,,,,,,,,,,,,,,,,50,,,,,,,,,,0.05,1,2.6581,0,4,4,4,1,Receive a massage in a low lit room with the smell of a fruity candle burning,Host a dinner party at my place with my friends family and partner,0.05,0.05,1.1,1,,,,
,,610f303cfb519f6dc89edd5f,6685aa9113c938e83b4f1ea0,672d013f15c5cf809bb120b5,2024-11-07_13h07.09.866,WTP_SM_Choice,2022.2.1,MacIntel,60.60606061,,,,,,,4,,2,1.28,4.72,,0,49,49,49,1,50,Charlie,Acc,Participant_Images/610f303cfb519f6dc89edd5f/610f303cfb519f6dc89edd5f_Images/610f303cfb519f6dc89edd5f_Image_20.jpeg,liked,3.195382774,,,,,,,,,,,,,,,,,,,space,2.8738,,
,,610f303cfb519f6dc89edd5f,6685aa9113c938e83b4f1ea0,672d013f15c5cf809bb120b5,2024-11-07_13h07.09.866,WTP_SM_Choice,2022.2.1,MacIntel,60.60606061,,,space,1.2746,space,3.3034,NAN,,NAN,1.28,4.72,,0,50,50,50,1,51,Alex,Acc,Participant_Images/610f303cfb519f6dc89edd5f/610f303cfb519f6dc89edd5f_Images/610f303cfb519f6dc89edd5f_Image_22.jpeg,did not like,1.779333479,,,,,,,,,,,,,,,,,,,,,,
,,610f303cfb519f6dc89edd5f,6685aa9113c938e83b4f1ea0,672d013f15c5cf809bb120b5,2024-11-07_13h07.09.866,WTP_SM_Choice,2022.2.1,MacIntel,60.60606061,,,,,space,1.0479,NAN,,NAN,1.28,4.72,,0,51,51,51,1,52,Alex,Acc,Participant_Images/610f303cfb519f6dc89edd5f/610f303cfb519f6dc89edd5f_Images/610f303cfb519f6dc89edd5f_Image_1.jpeg,did not like,4.312468682,,,,,,,,,,,,,,,,,,,,,,
,,610f303cfb519f6dc89edd5f,6685aa9113c938e83b4f1ea0,672d013f15c5cf809bb120b5,2024-11-07_13h07.09.866,WTP_SM_Choice,2022.2.1,MacIntel,60.60606061,,,,,space,0.552,NAN,,NAN,1.28,4.72,,0,52,52,52,1,53,Alex,Acc,Participant_Images/610f303cfb519f6dc89edd5f/610f303cfb519f6dc89edd5f_Images/610f303cfb519f6dc89edd5f_Image_21.jpeg,did not like,4.940433059,,,,,,,,,,,,,,,,,,,,,,
,,610f303cfb519f6dc89edd5f,6685aa9113c938e83b4f1ea0,672d013f15c5cf809bb120b5,2024-11-07_13h07.09.866,WTP_SM_Choice,2022.2.1,MacIntel,60.60606061,,,,,space,0.6333,NAN,,NAN,1.28,4.72,,0,53,53,53,1,54,Alex,Acc,Participant_Images/610f303cfb519f6dc89edd5f/610f303cfb519f6dc89edd5f_Images/610f303cfb519f6dc89edd5f_Image_25.jpeg,liked,2.7105123,,,,,,,,,,,,,,,,,,,,,,
,,610f303cfb519f6dc89edd5f,6685aa9113c938e83b4f1ea0,672d013f15c5cf809bb120b5,2024-11-07_13h07.09.866,WTP_SM_Choice,2022.2.1,MacIntel,60.60606061,,,,,,,,,,,,,,,,,,51,,,,,,space,0.4691,space,0.3871,0.01,2,3.3362,0,0,0,0,1,Get outside and going on a long walk to get more connected to nature with my partner,Stretch and doing some yoga after a long day of working and lifting,0.01,0.01,1.1,0,,,,
,,610f303cfb519f6dc89edd5f,6685aa9113c938e83b4f1ea0,672d013f15c5cf809bb120b5,2024-11-07_13h07.09.866,WTP_SM_Choice,2022.2.1,MacIntel,60.60606061,,,,,,,,,,,,,,,,,,52,,,,,,,,,,0.01,2,3.2065,0,1,1,1,1,Make reservations at a restaurant to have some good food and drinks with friends,Wake up feeling like I got a great nights sleep and jumping into a warm shower to start my day,0.02,0.01,3.3,0,,,,
,,610f303cfb519f6dc89edd5f,6685aa9113c938e83b4f1ea0,672d013f15c5cf809bb120b5,2024-11-07_13h07.09.866,WTP_SM_Choice,2022.2.1,MacIntel,60.60606061,,,,,,,,,,,,,,,,,,53,,,,,,,,,,0.03,1,3.6086,0,2,2,2,1,Read an engaging book in the park while laying on a blanket on a beautiful spring day,Host a dinner party at my place with my friends family and partner,0.03,0.01,1.1,1,,,,
,,610f303cfb519f6dc89edd5f,6685aa9113c938e83b4f1ea0,672d013f15c5cf809bb120b5,2024-11-07_13h07.09.866,WTP_SM_Choice,2022.2.1,MacIntel,60.60606061,,,,,,,,,,,,,,,,,,54,,,,,,,,,,0.01,2,1.4921,0,3,3,3,1,Cook a delicious steak dinner for my significant other and I while having a glass of red wine,Watch football with friends and making some game day snacks with my family friends and partner,0.04,0.01,4.4,1,,,,
,,610f303cfb519f6dc89edd5f,6685aa9113c938e83b4f1ea0,672d013f15c5cf809bb120b5,2024-11-07_13h07.09.866,WTP_SM_Choice,2022.2.1,MacIntel,60.60606061,,,,,,,,,,,,,,,,,,55,,,,,,,,,,0.01,2,2.1541,0,4,4,4,1,Cook a delicious steak dinner for my significant other and I while having a glass of red wine,Make reservations at a restaurant to have some good food and drinks with friends,0.05,0.01,1.1,1,,,,
,,610f303cfb519f6dc89edd5f,6685aa9113c938e83b4f1ea0,672d013f15c5cf809bb120b5,2024-11-07_13h07.09.866,WTP_SM_Choice,2022.2.1,MacIntel,60.60606061,,,,,,,NAN,,NAN,1.35,4.65,,0,54,54,54,1,55,Alex,Acc,Participant_Images/610f303cfb519f6dc89edd5f/610f303cfb519f6dc89edd5f_Images/610f303cfb519f6dc89edd5f_Image_14.jpeg,liked,3.602308302,,,,,,,,,,,,,,,,,,,,,,
,,610f303cfb519f6dc89edd5f,6685aa9113c938e83b4f1ea0,672d013f15c5cf809bb120b5,2024-11-07_13h07.09.866,WTP_SM_Choice,2022.2.1,MacIntel,60.60606061,,,,,space,2.7063,NAN,,NAN,1.35,4.65,,0,55,55,55,1,56,Alex,Acc,Participant_Images/610f303cfb519f6dc89edd5f/610f303cfb519f6dc89edd5f_Images/610f303cfb519f6dc89edd5f_Image_7.jpeg,liked,4.106391878,,,,,,,,,,,,,,,,,,,,,,
,,610f303cfb519f6dc89edd5f,6685aa9113c938e83b4f1ea0,672d013f15c5cf809bb120b5,2024-11-07_13h07.09.866,WTP_SM_Choice,2022.2.1,MacIntel,60.60606061,,,,,space,0.4214,NAN,,NAN,1.35,4.65,,0,56,56,56,1,57,Alex,Acc,Participant_Images/610f303cfb519f6dc89edd5f/610f303cfb519f6dc89edd5f_Images/610f303cfb519f6dc89edd5f_Image_13.jpeg,liked,3.799433026,,,,,,,,,,,,,,,,,,,,,,
,,610f303cfb519f6dc89edd5f,6685aa9113c938e83b4f1ea0,672d013f15c5cf809bb120b5,2024-11-07_13h07.09.866,WTP_SM_Choice,2022.2.1,MacIntel,60.60606061,,,,,space,1.0039,NAN,,NAN,1.35,4.65,,0,57,57,57,1,58,Alex,Acc,Participant_Images/610f303cfb519f6dc89edd5f/610f303cfb519f6dc89edd5f_Images/610f303cfb519f6dc89edd5f_Image_2.jpeg,liked,5.246980764,,,,,,,,,,,,,,,,,,,,,,
,,610f303cfb519f6dc89edd5f,6685aa9113c938e83b4f1ea0,672d013f15c5cf809bb120b5,2024-11-07_13h07.09.866,WTP_SM_Choice,2022.2.1,MacIntel,60.60606061,,,,,space,0.4065,NAN,,NAN,1.35,4.65,,0,58,58,58,1,59,Alex,Acc,Participant_Images/610f303cfb519f6dc89edd5f/610f303cfb519f6dc89edd5f_Images/610f303cfb519f6dc89edd5f_Image_15.jpeg,liked,3.30081769,,,,,,,,,,,,,,,,,,,,,,
,,610f303cfb519f6dc89edd5f,6685aa9113c938e83b4f1ea0,672d013f15c5cf809bb120b5,2024-11-07_13h07.09.866,WTP_SM_Choice,2022.2.1,MacIntel,60.60606061,,,,,,,,,,,,,,,,,,56,,,,,,space,0.6264,space,0.3376,0.01,1,1.4377,0,0,0,0,1,Receive a massage in a low lit room with the smell of a fruity candle burning,Plan to go to a yoga class to get the body moving with my friend and partner,0.01,0.02,8.8,1,,,,
,,610f303cfb519f6dc89edd5f,6685aa9113c938e83b4f1ea0,672d013f15c5cf809bb120b5,2024-11-07_13h07.09.866,WTP_SM_Choice,2022.2.1,MacIntel,60.60606061,,,,,,,,,,,,,,,,,,57,,,,,,,,,,0.02,2,2.7779,0,1,1,1,1,Go on a walk by the beach with the sun shining in my face and a gentle breeze flowing through the air,Meet up to have a cup of coffee and a chat with a friend,0.02,0.02,4.4,1,,,,
,,610f303cfb519f6dc89edd5f,6685aa9113c938e83b4f1ea0,672d013f15c5cf809bb120b5,2024-11-07_13h07.09.866,WTP_SM_Choice,2022.2.1,MacIntel,60.60606061,,,,,,,,,,,,,,,,,,58,,,,,,,,,,0.03,1,1.3522,0,2,2,2,1,Go to the gym to get a lift in and feel strong ,Schedule a day on the golf course with a friend,0.03,0.02,4.4,1,,,,
,,610f303cfb519f6dc89edd5f,6685aa9113c938e83b4f1ea0,672d013f15c5cf809bb120b5,2024-11-07_13h07.09.866,WTP_SM_Choice,2022.2.1,MacIntel,60.60606061,,,,,,,,,,,,,,,,,,59,,,,,,,,,,0.02,2,1.6253,0,3,3,3,1,Meet up to have a cup of coffee and a chat with a friend,Receive a massage in a low lit room with the smell of a fruity candle burning,0.04,0.02,4.4,0,,,,
,,610f303cfb519f6dc89edd5f,6685aa9113c938e83b4f1ea0,672d013f15c5cf809bb120b5,2024-11-07_13h07.09.866,WTP_SM_Choice,2022.2.1,MacIntel,60.60606061,,,,,,,,,,,,,,,,,,60,,,,,,,,,,0.02,2,1.6252,0,4,4,4,1,Go to the gym to get a lift in and feel strong ,Meet at a dog park to let our dogs have fun while we relax and chat with friends,0.05,0.02,1.1,1,,,,
,,610f303cfb519f6dc89edd5f,6685aa9113c938e83b4f1ea0,672d013f15c5cf809bb120b5,2024-11-07_13h07.09.866,WTP_SM_Choice,2022.2.1,MacIntel,60.60606061,,,,,,,NAN,,NAN,1.45,4.55,,0,59,59,59,1,60,Alex,Acc,Participant_Images/610f303cfb519f6dc89edd5f/610f303cfb519f6dc89edd5f_Images/610f303cfb519f6dc89edd5f_Image_24.jpeg,liked,1.661473164,,,,,,,,,,,,,,,,,,,,,,
,,610f303cfb519f6dc89edd5f,6685aa9113c938e83b4f1ea0,672d013f15c5cf809bb120b5,2024-11-07_13h07.09.866,WTP_SM_Choice,2022.2.1,MacIntel,60.60606061,,,,,space,1.9046,NAN,,NAN,1.45,4.55,,0,60,60,60,1,61,Alex,Acc,Participant_Images/610f303cfb519f6dc89edd5f/610f303cfb519f6dc89edd5f_Images/610f303cfb519f6dc89edd5f_Image_11.jpeg,liked,3.613205605,,,,,,,,,,,,,,,,,,,,,,
,,610f303cfb519f6dc89edd5f,6685aa9113c938e83b4f1ea0,672d013f15c5cf809bb120b5,2024-11-07_13h07.09.866,WTP_SM_Choice,2022.2.1,MacIntel,60.60606061,,,,,space,0.9195,NAN,,NAN,1.45,4.55,,0,61,61,61,1,62,Alex,Acc,Participant_Images/610f303cfb519f6dc89edd5f/610f303cfb519f6dc89edd5f_Images/610f303cfb519f6dc89edd5f_Image_23.jpeg,liked,4.988446431,,,,,,,,,,,,,,,,,,,,,,
,,610f303cfb519f6dc89edd5f,6685aa9113c938e83b4f1ea0,672d013f15c5cf809bb120b5,2024-11-07_13h07.09.866,WTP_SM_Choice,2022.2.1,MacIntel,60.60606061,,,,,space,0.6884,NAN,,NAN,1.45,4.55,,0,62,62,62,1,63,Alex,Acc,Participant_Images/610f303cfb519f6dc89edd5f/610f303cfb519f6dc89edd5f_Images/610f303cfb519f6dc89edd5f_Image_16.jpeg,liked,3.470791822,,,,,,,,,,,,,,,,,,,,,,
,,610f303cfb519f6dc89edd5f,6685aa9113c938e83b4f1ea0,672d013f15c5cf809bb120b5,2024-11-07_13h07.09.866,WTP_SM_Choice,2022.2.1,MacIntel,60.60606061,,,,,space,1.2188,NAN,,NAN,1.45,4.55,,0,63,63,63,1,64,Alex,Acc,Participant_Images/610f303cfb519f6dc89edd5f/610f303cfb519f6dc89edd5f_Images/610f303cfb519f6dc89edd5f_Image_9.jpeg,liked,3.820572462,,,,,,,,,,,,,,,,,,,,,,
,,610f303cfb519f6dc89edd5f,6685aa9113c938e83b4f1ea0,672d013f15c5cf809bb120b5,2024-11-07_13h07.09.866,WTP_SM_Choice,2022.2.1,MacIntel,60.60606061,,,,,,,,,,,,,,,,,,61,,,,,,space,0.8477,space,0.4191,0.01,1,0.1852,0,0,0,0,1,Wake up feeling like I got a great nights sleep and jumping into a warm shower to start my day,Plan to go to a yoga class to get the body moving with my friend and partner,0.01,0.03,3.3,1,,,,
,,610f303cfb519f6dc89edd5f,6685aa9113c938e83b4f1ea0,672d013f15c5cf809bb120b5,2024-11-07_13h07.09.866,WTP_SM_Choice,2022.2.1,MacIntel,60.60606061,,,,,,,,,,,,,,,,,,62,,,,,,,,,,0.02,1,4.7348,0,1,1,1,1,Meet at a dog park to let our dogs have fun while we relax and chat with friends,Stretch and doing some yoga after a long day of working and lifting,0.02,0.03,3.3,0,,,,
,,610f303cfb519f6dc89edd5f,6685aa9113c938e83b4f1ea0,672d013f15c5cf809bb120b5,2024-11-07_13h07.09.866,WTP_SM_Choice,2022.2.1,MacIntel,60.60606061,,,,,,,,,,,,,,,,,,63,,,,,,,,,,0.03,2,1.2754,0,2,2,2,1,Go to the gym to get a lift in and feel strong ,Plan to go to a yoga class to get the body moving with my friend and partner,0.03,0.03,3.3,1,,,,
,,610f303cfb519f6dc89edd5f,6685aa9113c938e83b4f1ea0,672d013f15c5cf809bb120b5,2024-11-07_13h07.09.866,WTP_SM_Choice,2022.2.1,MacIntel,60.60606061,,,,,,,,,,,,,,,,,,64,,,,,,,,,,0.03,2,1.6762,0,3,3,3,1,Make reservations at a restaurant to have some good food and drinks with friends,Get dressed for a morning bike ride that includes a lot of incline,0.04,0.03,1.1,0,,,,
,,610f303cfb519f6dc89edd5f,6685aa9113c938e83b4f1ea0,672d013f15c5cf809bb120b5,2024-11-07_13h07.09.866,WTP_SM_Choice,2022.2.1,MacIntel,60.60606061,,,,,,,,,,,,,,,,,,65,,,,,,,,,,0.03,2,1.791,0,4,4,4,1,Schedule a day on the golf course with a friend,Receive a massage in a low lit room with the smell of a fruity candle burning,0.05,0.03,1.1,0,,,,
,,610f303cfb519f6dc89edd5f,6685aa9113c938e83b4f1ea0,672d013f15c5cf809bb120b5,2024-11-07_13h07.09.866,WTP_SM_Choice,2022.2.1,MacIntel,60.60606061,,,,,,,NAN,,NAN,1.57,4.43,,0,64,64,64,1,65,Alex,Acc,Participant_Images/610f303cfb519f6dc89edd5f/610f303cfb519f6dc89edd5f_Images/610f303cfb519f6dc89edd5f_Image_4.jpeg,liked,2.455989137,,,,,,,,,,,,,,,,,,,,,,
,,610f303cfb519f6dc89edd5f,6685aa9113c938e83b4f1ea0,672d013f15c5cf809bb120b5,2024-11-07_13h07.09.866,WTP_SM_Choice,2022.2.1,MacIntel,60.60606061,,,,,space,0.3386,NAN,,NAN,1.57,4.43,,0,65,65,65,1,66,Alex,Acc,Participant_Images/610f303cfb519f6dc89edd5f/610f303cfb519f6dc89edd5f_Images/610f303cfb519f6dc89edd5f_Image_18.jpeg,liked,3.79605092,,,,,,,,,,,,,,,,,,,,,,
,,610f303cfb519f6dc89edd5f,6685aa9113c938e83b4f1ea0,672d013f15c5cf809bb120b5,2024-11-07_13h07.09.866,WTP_SM_Choice,2022.2.1,MacIntel,60.60606061,,,,,space,0.8725,NAN,,NAN,1.57,4.43,,0,66,66,66,1,67,Alex,Acc,Participant_Images/610f303cfb519f6dc89edd5f/610f303cfb519f6dc89edd5f_Images/610f303cfb519f6dc89edd5f_Image_3.jpeg,did not like,3.562416326,,,,,,,,,,,,,,,,,,,,,,
,,610f303cfb519f6dc89edd5f,6685aa9113c938e83b4f1ea0,672d013f15c5cf809bb120b5,2024-11-07_13h07.09.866,WTP_SM_Choice,2022.2.1,MacIntel,60.60606061,,,,,space,0.9362,NAN,,NAN,1.57,4.43,,0,67,67,67,1,68,Alex,Acc,Participant_Images/610f303cfb519f6dc89edd5f/610f303cfb519f6dc89edd5f_Images/610f303cfb519f6dc89edd5f_Image_20.jpeg,liked,2.843822497,,,,,,,,,,,,,,,,,,,,,,
,,610f303cfb519f6dc89edd5f,6685aa9113c938e83b4f1ea0,672d013f15c5cf809bb120b5,2024-11-07_13h07.09.866,WTP_SM_Choice,2022.2.1,MacIntel,60.60606061,,,,,space,5.4751,NAN,,NAN,1.57,4.43,,0,68,68,68,1,69,Alex,Acc,Participant_Images/610f303cfb519f6dc89edd5f/610f303cfb519f6dc89edd5f_Images/610f303cfb519f6dc89edd5f_Image_17.jpeg,did not like,3.546495948,,,,,,,,,,,,,,,,,,,,,,
,,610f303cfb519f6dc89edd5f,6685aa9113c938e83b4f1ea0,672d013f15c5cf809bb120b5,2024-11-07_13h07.09.866,WTP_SM_Choice,2022.2.1,MacIntel,60.60606061,,,,,,,,,,,,,,,,,,66,,,,,,space,2.3804,space,0.2373,0.01,1,1.2635,0,0,0,0,1,Read an engaging book in the park while laying on a blanket on a beautiful spring day,Plan to go to a yoga class to get the body moving with my friend and partner,0.01,0.04,1.1,1,,,,
,,610f303cfb519f6dc89edd5f,6685aa9113c938e83b4f1ea0,672d013f15c5cf809bb120b5,2024-11-07_13h07.09.866,WTP_SM_Choice,2022.2.1,MacIntel,60.60606061,,,,,,,,,,,,,,,,,,67,,,,,,,,,,0.02,1,1.2083,0,1,1,1,1,Wake up and going on a long Saturday bike ride and then going to a bakery for some fresh sweets after with my friends,Get dressed for a morning bike ride that includes a lot of incline,0.02,0.04,8.8,0,,,,
,,610f303cfb519f6dc89edd5f,6685aa9113c938e83b4f1ea0,672d013f15c5cf809bb120b5,2024-11-07_13h07.09.866,WTP_SM_Choice,2022.2.1,MacIntel,60.60606061,,,,,,,,,,,,,,,,,,68,,,,,,,,,,0.04,2,2.8704,0,2,2,2,1,Wake up and going on a long Saturday bike ride and then going to a bakery for some fresh sweets after with my friends,Go on a walk by the beach with the sun shining in my face and a gentle breeze flowing through the air,0.03,0.04,4.4,0,,,,
,,610f303cfb519f6dc89edd5f,6685aa9113c938e83b4f1ea0,672d013f15c5cf809bb120b5,2024-11-07_13h07.09.866,WTP_SM_Choice,2022.2.1,MacIntel,60.60606061,,,,,,,,,,,,,,,,,,69,,,,,,,,,,0.04,2,2.607,0,3,3,3,1,Go to the gym to get a lift in and feel strong ,Make reservations at a restaurant to have some good food and drinks with friends,0.04,0.04,1.1,1,,,,
,,610f303cfb519f6dc89edd5f,6685aa9113c938e83b4f1ea0,672d013f15c5cf809bb120b5,2024-11-07_13h07.09.866,WTP_SM_Choice,2022.2.1,MacIntel,60.60606061,,,,,,,,,,,,,,,,,,70,,,,,,,,,,0.04,2,2.5095,0,4,4,4,1,Schedule a day on the golf course with a friend,Read an engaging book in the park while laying on a blanket on a beautiful spring day,0.05,0.04,1.1,0,,,,
,,610f303cfb519f6dc89edd5f,6685aa9113c938e83b4f1ea0,672d013f15c5cf809bb120b5,2024-11-07_13h07.09.866,WTP_SM_Choice,2022.2.1,MacIntel,60.60606061,,,,,,,NAN,,NAN,1.72,4.28,,0,69,69,69,1,70,Alex,Acc,Participant_Images/610f303cfb519f6dc89edd5f/610f303cfb519f6dc89edd5f_Images/610f303cfb519f6dc89edd5f_Image_19.jpeg,liked,1.672012706,,,,,,,,,,,,,,,,,,,,,,
,,610f303cfb519f6dc89edd5f,6685aa9113c938e83b4f1ea0,672d013f15c5cf809bb120b5,2024-11-07_13h07.09.866,WTP_SM_Choice,2022.2.1,MacIntel,60.60606061,,,,,space,0.0737,NAN,,NAN,1.72,4.28,,0,70,70,70,1,71,Alex,Acc,Participant_Images/610f303cfb519f6dc89edd5f/610f303cfb519f6dc89edd5f_Images/610f303cfb519f6dc89edd5f_Image_8.jpeg,liked,4.942172136,,,,,,,,,,,,,,,,,,,,,,
,,610f303cfb519f6dc89edd5f,6685aa9113c938e83b4f1ea0,672d013f15c5cf809bb120b5,2024-11-07_13h07.09.866,WTP_SM_Choice,2022.2.1,MacIntel,60.60606061,,,,,space,3.0515,NAN,,NAN,1.72,4.28,,0,71,71,71,1,72,Alex,Acc,Participant_Images/610f303cfb519f6dc89edd5f/610f303cfb519f6dc89edd5f_Images/610f303cfb519f6dc89edd5f_Image_10.jpeg,liked,2.50187214,,,,,,,,,,,,,,,,,,,,,,
,,610f303cfb519f6dc89edd5f,6685aa9113c938e83b4f1ea0,672d013f15c5cf809bb120b5,2024-11-07_13h07.09.866,WTP_SM_Choice,2022.2.1,MacIntel,60.60606061,,,,,space,1.3067,NAN,,NAN,1.72,4.28,,0,72,72,72,1,73,Alex,Acc,Participant_Images/610f303cfb519f6dc89edd5f/610f303cfb519f6dc89edd5f_Images/610f303cfb519f6dc89edd5f_Image_6.jpeg,liked,2.071164779,,,,,,,,,,,,,,,,,,,,,,
,,610f303cfb519f6dc89edd5f,6685aa9113c938e83b4f1ea0,672d013f15c5cf809bb120b5,2024-11-07_13h07.09.866,WTP_SM_Choice,2022.2.1,MacIntel,60.60606061,,,,,space,0.8736,NAN,,NAN,1.72,4.28,,0,73,73,73,1,74,Alex,Acc,Participant_Images/610f303cfb519f6dc89edd5f/610f303cfb519f6dc89edd5f_Images/610f303cfb519f6dc89edd5f_Image_12.jpeg,did not like,5.336503566,,,,,,,,,,,,,,,,,,,,,,
,,610f303cfb519f6dc89edd5f,6685aa9113c938e83b4f1ea0,672d013f15c5cf809bb120b5,2024-11-07_13h07.09.866,WTP_SM_Choice,2022.2.1,MacIntel,60.60606061,,,,,,,,,,,,,,,,,,71,,,,,,space,0.9919,space,0.1528,0.01,1,1.1506,0,0,0,0,1,Wake up feeling like I got a great nights sleep and jumping into a warm shower to start my day,Wake up and going on a long Saturday bike ride and then going to a bakery for some fresh sweets after with my friends,0.01,0.05,3.3,1,,,,
,,610f303cfb519f6dc89edd5f,6685aa9113c938e83b4f1ea0,672d013f15c5cf809bb120b5,2024-11-07_13h07.09.866,WTP_SM_Choice,2022.2.1,MacIntel,60.60606061,,,,,,,,,,,,,,,,,,72,,,,,,,,,,0.02,1,1.8097,0,1,1,1,1,Plan to go to a yoga class to get the body moving with my friend and partner,Stretch and doing some yoga after a long day of working and lifting,0.02,0.05,8.8,0,,,,
,,610f303cfb519f6dc89edd5f,6685aa9113c938e83b4f1ea0,672d013f15c5cf809bb120b5,2024-11-07_13h07.09.866,WTP_SM_Choice,2022.2.1,MacIntel,60.60606061,,,,,,,,,,,,,,,,,,73,,,,,,,,,,0.03,1,2.1203,0,2,2,2,1,Make time to go a farmers market on Sunday to stock up for the week with my partner,Receive a massage in a low lit room with the smell of a fruity candle burning,0.03,0.05,3.3,0,,,,
,,610f303cfb519f6dc89edd5f,6685aa9113c938e83b4f1ea0,672d013f15c5cf809bb120b5,2024-11-07_13h07.09.866,WTP_SM_Choice,2022.2.1,MacIntel,60.60606061,,,,,,,,,,,,,,,,,,74,,,,,,,,,,0.05,2,2.2019,0,3,3,3,1,Listen to live music while sipping on a delicious tequila margerita,Make time to go a farmers market on Sunday to stock up for the week with my partner,0.04,0.05,4.4,1,,,,
,,610f303cfb519f6dc89edd5f,6685aa9113c938e83b4f1ea0,672d013f15c5cf809bb120b5,2024-11-07_13h07.09.866,WTP_SM_Choice,2022.2.1,MacIntel,60.60606061,,,,,,,,,,,,,,,,,,75,,,,,,,,,,0.05,2,3.4919,0,4,4,4,1,Wake up and going on a long Saturday bike ride and then going to a bakery for some fresh sweets after with my friends,Go to the gym to get a lift in and feel strong ,0.05,0.05,3.3,0,,,,
,,610f303cfb519f6dc89edd5f,6685aa9113c938e83b4f1ea0,672d013f15c5cf809bb120b5,2024-11-07_13h07.09.866,WTP_SM_Choice,2022.2.1,MacIntel,60.60606061,,,,,,,4,,2,1.88,4.12,,0,74,74,74,1,75,Alex,Acc,Participant_Images/610f303cfb519f6dc89edd5f/610f303cfb519f6dc89edd5f_Images/610f303cfb519f6dc89edd5f_Image_5.jpeg,did not like,2.642157193,,,,,,,,,,,,,,,,,,,space,1.9555,,
,,610f303cfb519f6dc89edd5f,6685aa9113c938e83b4f1ea0,672d013f15c5cf809bb120b5,2024-11-07_13h07.09.866,WTP_SM_Choice,2022.2.1,MacIntel,60.60606061,,,space,1.3107,space,1.4033,NAN,,NAN,1.88,4.12,,0,75,75,75,1,76,Sam,Rej,Participant_Images/610f303cfb519f6dc89edd5f/610f303cfb519f6dc89edd5f_Images/610f303cfb519f6dc89edd5f_Image_7.jpeg,did not like,4.456234322,,,,,,,,,,,,,,,,,,,,,,
,,610f303cfb519f6dc89edd5f,6685aa9113c938e83b4f1ea0,672d013f15c5cf809bb120b5,2024-11-07_13h07.09.866,WTP_SM_Choice,2022.2.1,MacIntel,60.60606061,,,,,space,0.3881,NAN,,NAN,1.88,4.12,,0,76,76,76,1,77,Sam,Rej,Participant_Images/610f303cfb519f6dc89edd5f/610f303cfb519f6dc89edd5f_Images/610f303cfb519f6dc89edd5f_Image_19.jpeg,liked,4.438512181,,,,,,,,,,,,,,,,,,,,,,
,,610f303cfb519f6dc89edd5f,6685aa9113c938e83b4f1ea0,672d013f15c5cf809bb120b5,2024-11-07_13h07.09.866,WTP_SM_Choice,2022.2.1,MacIntel,60.60606061,,,,,space,3.4246,NAN,,NAN,1.88,4.12,,0,77,77,77,1,78,Sam,Rej,Participant_Images/610f303cfb519f6dc89edd5f/610f303cfb519f6dc89edd5f_Images/610f303cfb519f6dc89edd5f_Image_5.jpeg,did not like,2.682944783,,,,,,,,,,,,,,,,,,,,,,
,,610f303cfb519f6dc89edd5f,6685aa9113c938e83b4f1ea0,672d013f15c5cf809bb120b5,2024-11-07_13h07.09.866,WTP_SM_Choice,2022.2.1,MacIntel,60.60606061,,,,,space,0.399,NAN,,NAN,1.88,4.12,,0,78,78,78,1,79,Sam,Rej,Participant_Images/610f303cfb519f6dc89edd5f/610f303cfb519f6dc89edd5f_Images/610f303cfb519f6dc89edd5f_Image_24.jpeg,did not like,4.51984296,,,,,,,,,,,,,,,,,,,,,,
,,610f303cfb519f6dc89edd5f,6685aa9113c938e83b4f1ea0,672d013f15c5cf809bb120b5,2024-11-07_13h07.09.866,WTP_SM_Choice,2022.2.1,MacIntel,60.60606061,,,,,,,,,,,,,,,,,,76,,,,,,space,4.4617,space,0.4559,0.01,1,2.9243,0,0,0,0,1,Read an engaging book in the park while laying on a blanket on a beautiful spring day,Meet at a dog park to let our dogs have fun while we relax and chat with friends,0.01,0.01,1.1,1,,,,
,,610f303cfb519f6dc89edd5f,6685aa9113c938e83b4f1ea0,672d013f15c5cf809bb120b5,2024-11-07_13h07.09.866,WTP_SM_Choice,2022.2.1,MacIntel,60.60606061,,,,,,,,,,,,,,,,,,77,,,,,,,,,,0.02,1,2.154,0,1,1,1,1,Scroll on my phone and seeing what my friends are up to on various social media platforms,Host a dinner party at my place with my friends family and partner,0.02,0.01,8.8,1,,,,
,,610f303cfb519f6dc89edd5f,6685aa9113c938e83b4f1ea0,672d013f15c5cf809bb120b5,2024-11-07_13h07.09.866,WTP_SM_Choice,2022.2.1,MacIntel,60.60606061,,,,,,,,,,,,,,,,,,78,,,,,,,,,,0.01,2,1.3437,0,2,2,2,1,Plan to go to a yoga class to get the body moving with my friend and partner,Go on a walk by the beach with the sun shining in my face and a gentle breeze flowing through the air,0.03,0.01,1.1,0,,,,
,,610f303cfb519f6dc89edd5f,6685aa9113c938e83b4f1ea0,672d013f15c5cf809bb120b5,2024-11-07_13h07.09.866,WTP_SM_Choice,2022.2.1,MacIntel,60.60606061,,,,,,,,,,,,,,,,,,79,,,,,,,,,,0.01,2,1.2541,0,3,3,3,1,Host a dinner party at my place with my friends family and partner,Cook a delicious steak dinner for my significant other and I while having a glass of red wine,0.04,0.01,1.1,0,,,,
,,610f303cfb519f6dc89edd5f,6685aa9113c938e83b4f1ea0,672d013f15c5cf809bb120b5,2024-11-07_13h07.09.866,WTP_SM_Choice,2022.2.1,MacIntel,60.60606061,,,,,,,,,,,,,,,,,,80,,,,,,,,,,0.01,2,2.1777,0,4,4,4,1,Get dressed for a morning bike ride that includes a lot of incline,Host a dinner party at my place with my friends family and partner,0.05,0.01,4.4,1,,,,
,,610f303cfb519f6dc89edd5f,6685aa9113c938e83b4f1ea0,672d013f15c5cf809bb120b5,2024-11-07_13h07.09.866,WTP_SM_Choice,2022.2.1,MacIntel,60.60606061,,,,,,,NAN,,NAN,1.94,4.06,,0,79,79,79,1,80,Sam,Rej,Participant_Images/610f303cfb519f6dc89edd5f/610f303cfb519f6dc89edd5f_Images/610f303cfb519f6dc89edd5f_Image_23.jpeg,liked,3.195382774,,,,,,,,,,,,,,,,,,,,,,
,,610f303cfb519f6dc89edd5f,6685aa9113c938e83b4f1ea0,672d013f15c5cf809bb120b5,2024-11-07_13h07.09.866,WTP_SM_Choice,2022.2.1,MacIntel,60.60606061,,,,,space,7.0181,NAN,,NAN,1.94,4.06,,0,80,80,80,1,81,Sam,Rej,Participant_Images/610f303cfb519f6dc89edd5f/610f303cfb519f6dc89edd5f_Images/610f303cfb519f6dc89edd5f_Image_11.jpeg,did not like,1.779333479,,,,,,,,,,,,,,,,,,,,,,
,,610f303cfb519f6dc89edd5f,6685aa9113c938e83b4f1ea0,672d013f15c5cf809bb120b5,2024-11-07_13h07.09.866,WTP_SM_Choice,2022.2.1,MacIntel,60.60606061,,,,,space,6.6025,NAN,,NAN,1.94,4.06,,0,81,81,81,1,82,Sam,Rej,Participant_Images/610f303cfb519f6dc89edd5f/610f303cfb519f6dc89edd5f_Images/610f303cfb519f6dc89edd5f_Image_8.jpeg,liked,4.312468682,,,,,,,,,,,,,,,,,,,,,,
,,610f303cfb519f6dc89edd5f,6685aa9113c938e83b4f1ea0,672d013f15c5cf809bb120b5,2024-11-07_13h07.09.866,WTP_SM_Choice,2022.2.1,MacIntel,60.60606061,,,,,space,0.9829,NAN,,NAN,1.94,4.06,,0,82,82,82,1,83,Sam,Rej,Participant_Images/610f303cfb519f6dc89edd5f/610f303cfb519f6dc89edd5f_Images/610f303cfb519f6dc89edd5f_Image_3.jpeg,did not like,4.940433059,,,,,,,,,,,,,,,,,,,,,,
,,610f303cfb519f6dc89edd5f,6685aa9113c938e83b4f1ea0,672d013f15c5cf809bb120b5,2024-11-07_13h07.09.866,WTP_SM_Choice,2022.2.1,MacIntel,60.60606061,,,,,space,0.6378,NAN,,NAN,1.94,4.06,,0,83,83,83,1,84,Sam,Rej,Participant_Images/610f303cfb519f6dc89edd5f/610f303cfb519f6dc89edd5f_Images/610f303cfb519f6dc89edd5f_Image_9.jpeg,liked,2.7105123,,,,,,,,,,,,,,,,,,,,,,
,,610f303cfb519f6dc89edd5f,6685aa9113c938e83b4f1ea0,672d013f15c5cf809bb120b5,2024-11-07_13h07.09.866,WTP_SM_Choice,2022.2.1,MacIntel,60.60606061,,,,,,,,,,,,,,,,,,81,,,,,,space,0.0143,space,0.9684,0.01,1,2.0768,0,0,0,0,1,Listen to live music while sipping on a delicious tequila margerita,Host a dinner party at my place with my friends family and partner,0.01,0.02,3.3,1,,,,
,,610f303cfb519f6dc89edd5f,6685aa9113c938e83b4f1ea0,672d013f15c5cf809bb120b5,2024-11-07_13h07.09.866,WTP_SM_Choice,2022.2.1,MacIntel,60.60606061,,,,,,,,,,,,,,,,,,82,,,,,,,,,,0.02,2,2.2102,0,1,1,1,1,Host a dinner party at my place with my friends family and partner,Stretch and doing some yoga after a long day of working and lifting,0.02,0.02,4.4,0,,,,
,,610f303cfb519f6dc89edd5f,6685aa9113c938e83b4f1ea0,672d013f15c5cf809bb120b5,2024-11-07_13h07.09.866,WTP_SM_Choice,2022.2.1,MacIntel,60.60606061,,,,,,,,,,,,,,,,,,83,,,,,,,,,,0.02,2,2.3121,0,2,2,2,1,Meet at a dog park to let our dogs have fun while we relax and chat with friends,Listen to live music while sipping on a delicious tequila margerita,0.03,0.02,1.1,0,,,,
,,610f303cfb519f6dc89edd5f,6685aa9113c938e83b4f1ea0,672d013f15c5cf809bb120b5,2024-11-07_13h07.09.866,WTP_SM_Choice,2022.2.1,MacIntel,60.60606061,,,,,,,,,,,,,,,,,,84,,,,,,,,,,0.02,2,5.3751,0,3,3,3,1,Watch football with friends and making some game day snacks with my family friends and partner,Receive a massage in a low lit room with the smell of a fruity candle burning,0.04,0.02,3.3,0,,,,
,,610f303cfb519f6dc89edd5f,6685aa9113c938e83b4f1ea0,672d013f15c5cf809bb120b5,2024-11-07_13h07.09.866,WTP_SM_Choice,2022.2.1,MacIntel,60.60606061,,,,,,,,,,,,,,,,,,85,,,,,,,,,,0.02,2,1.8778,0,4,4,4,1,Go to the gym to get a lift in and feel strong ,Make time to go a farmers market on Sunday to stock up for the week with my partner,0.05,0.02,3.3,1,,,,
,,610f303cfb519f6dc89edd5f,6685aa9113c938e83b4f1ea0,672d013f15c5cf809bb120b5,2024-11-07_13h07.09.866,WTP_SM_Choice,2022.2.1,MacIntel,60.60606061,,,,,,,NAN,,NAN,2.03,3.97,,0,84,84,84,1,85,Sam,Rej,Participant_Images/610f303cfb519f6dc89edd5f/610f303cfb519f6dc89edd5f_Images/610f303cfb519f6dc89edd5f_Image_4.jpeg,did not like,3.602308302,,,,,,,,,,,,,,,,,,,,,,
,,610f303cfb519f6dc89edd5f,6685aa9113c938e83b4f1ea0,672d013f15c5cf809bb120b5,2024-11-07_13h07.09.866,WTP_SM_Choice,2022.2.1,MacIntel,60.60606061,,,,,space,0.6999,NAN,,NAN,2.03,3.97,,0,85,85,85,1,86,Sam,Rej,Participant_Images/610f303cfb519f6dc89edd5f/610f303cfb519f6dc89edd5f_Images/610f303cfb519f6dc89edd5f_Image_14.jpeg,did not like,4.106391878,,,,,,,,,,,,,,,,,,,,,,
,,610f303cfb519f6dc89edd5f,6685aa9113c938e83b4f1ea0,672d013f15c5cf809bb120b5,2024-11-07_13h07.09.866,WTP_SM_Choice,2022.2.1,MacIntel,60.60606061,,,,,space,0.5994,NAN,,NAN,2.03,3.97,,0,86,86,86,1,87,Sam,Rej,Participant_Images/610f303cfb519f6dc89edd5f/610f303cfb519f6dc89edd5f_Images/610f303cfb519f6dc89edd5f_Image_6.jpeg,did not like,3.799433026,,,,,,,,,,,,,,,,,,,,,,
,,610f303cfb519f6dc89edd5f,6685aa9113c938e83b4f1ea0,672d013f15c5cf809bb120b5,2024-11-07_13h07.09.866,WTP_SM_Choice,2022.2.1,MacIntel,60.60606061,,,,,space,0.8082,NAN,,NAN,2.03,3.97,,0,87,87,87,1,88,Sam,Rej,Participant_Images/610f303cfb519f6dc89edd5f/610f303cfb519f6dc89edd5f_Images/610f303cfb519f6dc89edd5f_Image_22.jpeg,did not like,5.246980764,,,,,,,,,,,,,,,,,,,,,,
,,610f303cfb519f6dc89edd5f,6685aa9113c938e83b4f1ea0,672d013f15c5cf809bb120b5,2024-11-07_13h07.09.866,WTP_SM_Choice,2022.2.1,MacIntel,60.60606061,,,,,space,3.7558,NAN,,NAN,2.03,3.97,,0,88,88,88,1,89,Sam,Rej,Participant_Images/610f303cfb519f6dc89edd5f/610f303cfb519f6dc89edd5f_Images/610f303cfb519f6dc89edd5f_Image_10.jpeg,did not like,3.30081769,,,,,,,,,,,,,,,,,,,,,,
,,610f303cfb519f6dc89edd5f,6685aa9113c938e83b4f1ea0,672d013f15c5cf809bb120b5,2024-11-07_13h07.09.866,WTP_SM_Choice,2022.2.1,MacIntel,60.60606061,,,,,,,,,,,,,,,,,,86,,,,,,space,0.3323,space,0.4648,0.01,1,1.5073,0,0,0,0,1,Wake up feeling like I got a great nights sleep and jumping into a warm shower to start my day,Make time to go a farmers market on Sunday to stock up for the week with my partner,0.01,0.03,1.1,1,,,,
,,610f303cfb519f6dc89edd5f,6685aa9113c938e83b4f1ea0,672d013f15c5cf809bb120b5,2024-11-07_13h07.09.866,WTP_SM_Choice,2022.2.1,MacIntel,60.60606061,,,,,,,,,,,,,,,,,,87,,,,,,,,,,0.03,2,2.6508,0,1,1,1,1,Cook a delicious steak dinner for my significant other and I while having a glass of red wine,Wake up and going on a long Saturday bike ride and then going to a bakery for some fresh sweets after with my friends,0.02,0.03,4.4,1,,,,
,,610f303cfb519f6dc89edd5f,6685aa9113c938e83b4f1ea0,672d013f15c5cf809bb120b5,2024-11-07_13h07.09.866,WTP_SM_Choice,2022.2.1,MacIntel,60.60606061,,,,,,,,,,,,,,,,,,88,,,,,,,,,,0.03,1,2.9417,0,2,2,2,1,Scroll on my phone and seeing what my friends are up to on various social media platforms,Make time to go a farmers market on Sunday to stock up for the week with my partner,0.03,0.03,1.1,1,,,,
,,610f303cfb519f6dc89edd5f,6685aa9113c938e83b4f1ea0,672d013f15c5cf809bb120b5,2024-11-07_13h07.09.866,WTP_SM_Choice,2022.2.1,MacIntel,60.60606061,,,,,,,,,,,,,,,,,,89,,,,,,,,,,0.03,2,2.6611,0,3,3,3,1,Meet up to have a cup of coffee and a chat with a friend,Cook a delicious steak dinner for my significant other and I while having a glass of red wine,0.04,0.03,3.3,0,,,,
,,610f303cfb519f6dc89edd5f,6685aa9113c938e83b4f1ea0,672d013f15c5cf809bb120b5,2024-11-07_13h07.09.866,WTP_SM_Choice,2022.2.1,MacIntel,60.60606061,,,,,,,,,,,,,,,,,,90,,,,,,,,,,0.03,2,2.219,0,4,4,4,1,Get outside and going on a long walk to get more connected to nature with my partner,Listen to live music while sipping on a delicious tequila margerita,0.05,0.03,8.8,0,,,,
,,610f303cfb519f6dc89edd5f,6685aa9113c938e83b4f1ea0,672d013f15c5cf809bb120b5,2024-11-07_13h07.09.866,WTP_SM_Choice,2022.2.1,MacIntel,60.60606061,,,,,,,NAN,,NAN,2.16,3.84,,0,89,89,89,1,90,Sam,Rej,Participant_Images/610f303cfb519f6dc89edd5f/610f303cfb519f6dc89edd5f_Images/610f303cfb519f6dc89edd5f_Image_20.jpeg,did not like,1.661473164,,,,,,,,,,,,,,,,,,,,,,
,,610f303cfb519f6dc89edd5f,6685aa9113c938e83b4f1ea0,672d013f15c5cf809bb120b5,2024-11-07_13h07.09.866,WTP_SM_Choice,2022.2.1,MacIntel,60.60606061,,,,,space,3.989,NAN,,NAN,2.16,3.84,,0,90,90,90,1,91,Sam,Rej,Participant_Images/610f303cfb519f6dc89edd5f/610f303cfb519f6dc89edd5f_Images/610f303cfb519f6dc89edd5f_Image_12.jpeg,did not like,3.613205605,,,,,,,,,,,,,,,,,,,,,,
,,610f303cfb519f6dc89edd5f,6685aa9113c938e83b4f1ea0,672d013f15c5cf809bb120b5,2024-11-07_13h07.09.866,WTP_SM_Choice,2022.2.1,MacIntel,60.60606061,,,,,space,6.4728,NAN,,NAN,2.16,3.84,,0,91,91,91,1,92,Sam,Rej,Participant_Images/610f303cfb519f6dc89edd5f/610f303cfb519f6dc89edd5f_Images/610f303cfb519f6dc89edd5f_Image_15.jpeg,did not like,4.988446431,,,,,,,,,,,,,,,,,,,,,,
,,610f303cfb519f6dc89edd5f,6685aa9113c938e83b4f1ea0,672d013f15c5cf809bb120b5,2024-11-07_13h07.09.866,WTP_SM_Choice,2022.2.1,MacIntel,60.60606061,,,,,space,3.7852,NAN,,NAN,2.16,3.84,,0,92,92,92,1,93,Sam,Rej,Participant_Images/610f303cfb519f6dc89edd5f/610f303cfb519f6dc89edd5f_Images/610f303cfb519f6dc89edd5f_Image_16.jpeg,did not like,3.470791822,,,,,,,,,,,,,,,,,,,,,,
,,610f303cfb519f6dc89edd5f,6685aa9113c938e83b4f1ea0,672d013f15c5cf809bb120b5,2024-11-07_13h07.09.866,WTP_SM_Choice,2022.2.1,MacIntel,60.60606061,,,,,space,1.2875,NAN,,NAN,2.16,3.84,,0,93,93,93,1,94,Sam,Rej,Participant_Images/610f303cfb519f6dc89edd5f/610f303cfb519f6dc89edd5f_Images/610f303cfb519f6dc89edd5f_Image_17.jpeg,did not like,3.820572462,,,,,,,,,,,,,,,,,,,,,,
,,610f303cfb519f6dc89edd5f,6685aa9113c938e83b4f1ea0,672d013f15c5cf809bb120b5,2024-11-07_13h07.09.866,WTP_SM_Choice,2022.2.1,MacIntel,60.60606061,,,,,,,,,,,,,,,,,,91,,,,,,space,2.3822,space,0.3663,0.01,1,5.5745,0,0,0,0,1,Make time to go a farmers market on Sunday to stock up for the week with my partner,Read an engaging book in the park while laying on a blanket on a beautiful spring day,0.01,0.04,3.3,0,,,,
,,610f303cfb519f6dc89edd5f,6685aa9113c938e83b4f1ea0,672d013f15c5cf809bb120b5,2024-11-07_13h07.09.866,WTP_SM_Choice,2022.2.1,MacIntel,60.60606061,,,,,,,,,,,,,,,,,,92,,,,,,,,,,0.02,1,3.3397,0,1,1,1,1,Meet up to have a cup of coffee and a chat with a friend,Get dressed for a morning bike ride that includes a lot of incline,0.02,0.04,8.8,0,,,,
,,610f303cfb519f6dc89edd5f,6685aa9113c938e83b4f1ea0,672d013f15c5cf809bb120b5,2024-11-07_13h07.09.866,WTP_SM_Choice,2022.2.1,MacIntel,60.60606061,,,,,,,,,,,,,,,,,,93,,,,,,,,,,0.03,1,2.0991,0,2,2,2,1,Meet at a dog park to let our dogs have fun while we relax and chat with friends,Cook a delicious steak dinner for my significant other and I while having a glass of red wine,0.03,0.04,1.1,0,,,,
,,610f303cfb519f6dc89edd5f,6685aa9113c938e83b4f1ea0,672d013f15c5cf809bb120b5,2024-11-07_13h07.09.866,WTP_SM_Choice,2022.2.1,MacIntel,60.60606061,,,,,,,,,,,,,,,,,,94,,,,,,,,,,0.04,2,2.5203,0,3,3,3,1,Go on a walk by the beach with the sun shining in my face and a gentle breeze flowing through the air,Make time to go a farmers market on Sunday to stock up for the week with my partner,0.04,0.04,4.4,1,,,,
,,610f303cfb519f6dc89edd5f,6685aa9113c938e83b4f1ea0,672d013f15c5cf809bb120b5,2024-11-07_13h07.09.866,WTP_SM_Choice,2022.2.1,MacIntel,60.60606061,,,,,,,,,,,,,,,,,,95,,,,,,,,,,0.04,2,2.1882,0,4,4,4,1,Plan to go to a yoga class to get the body moving with my friend and partner,Listen to live music while sipping on a delicious tequila margerita,0.05,0.04,4.4,0,,,,
,,610f303cfb519f6dc89edd5f,6685aa9113c938e83b4f1ea0,672d013f15c5cf809bb120b5,2024-11-07_13h07.09.866,WTP_SM_Choice,2022.2.1,MacIntel,60.60606061,,,,,,,NAN,,NAN,2.3,3.7,,0,94,94,94,1,95,Sam,Rej,Participant_Images/610f303cfb519f6dc89edd5f/610f303cfb519f6dc89edd5f_Images/610f303cfb519f6dc89edd5f_Image_21.jpeg,liked,2.455989137,,,,,,,,,,,,,,,,,,,,,,
,,610f303cfb519f6dc89edd5f,6685aa9113c938e83b4f1ea0,672d013f15c5cf809bb120b5,2024-11-07_13h07.09.866,WTP_SM_Choice,2022.2.1,MacIntel,60.60606061,,,,,space,4.1046,NAN,,NAN,2.3,3.7,,0,95,95,95,1,96,Sam,Rej,Participant_Images/610f303cfb519f6dc89edd5f/610f303cfb519f6dc89edd5f_Images/610f303cfb519f6dc89edd5f_Image_18.jpeg,liked,3.79605092,,,,,,,,,,,,,,,,,,,,,,
,,610f303cfb519f6dc89edd5f,6685aa9113c938e83b4f1ea0,672d013f15c5cf809bb120b5,2024-11-07_13h07.09.866,WTP_SM_Choice,2022.2.1,MacIntel,60.60606061,,,,,space,0.571,NAN,,NAN,2.3,3.7,,0,96,96,96,1,97,Sam,Rej,Participant_Images/610f303cfb519f6dc89edd5f/610f303cfb519f6dc89edd5f_Images/610f303cfb519f6dc89edd5f_Image_2.jpeg,did not like,3.562416326,,,,,,,,,,,,,,,,,,,,,,
,,610f303cfb519f6dc89edd5f,6685aa9113c938e83b4f1ea0,672d013f15c5cf809bb120b5,2024-11-07_13h07.09.866,WTP_SM_Choice,2022.2.1,MacIntel,60.60606061,,,,,space,2.6881,NAN,,NAN,2.3,3.7,,0,97,97,97,1,98,Sam,Rej,Participant_Images/610f303cfb519f6dc89edd5f/610f303cfb519f6dc89edd5f_Images/610f303cfb519f6dc89edd5f_Image_1.jpeg,did not like,2.843822497,,,,,,,,,,,,,,,,,,,,,,
,,610f303cfb519f6dc89edd5f,6685aa9113c938e83b4f1ea0,672d013f15c5cf809bb120b5,2024-11-07_13h07.09.866,WTP_SM_Choice,2022.2.1,MacIntel,60.60606061,,,,,space,2.4895,NAN,,NAN,2.3,3.7,,0,98,98,98,1,99,Sam,Rej,Participant_Images/610f303cfb519f6dc89edd5f/610f303cfb519f6dc89edd5f_Images/610f303cfb519f6dc89edd5f_Image_13.jpeg,did not like,3.546495948,,,,,,,,,,,,,,,,,,,,,,
,,610f303cfb519f6dc89edd5f,6685aa9113c938e83b4f1ea0,672d013f15c5cf809bb120b5,2024-11-07_13h07.09.866,WTP_SM_Choice,2022.2.1,MacIntel,60.60606061,,,,,,,,,,,,,,,,,,96,,,,,,space,3.8096,space,0.8482,0.01,1,1.5687,0,0,0,0,1,Plan to go to a yoga class to get the body moving with my friend and partner,Cook a delicious steak dinner for my significant other and I while having a glass of red wine,0.01,0.05,3.3,0,,,,
,,610f303cfb519f6dc89edd5f,6685aa9113c938e83b4f1ea0,672d013f15c5cf809bb120b5,2024-11-07_13h07.09.866,WTP_SM_Choice,2022.2.1,MacIntel,60.60606061,,,,,,,,,,,,,,,,,,97,,,,,,,,,,0.02,1,2.7373,0,1,1,1,1,Host a dinner party at my place with my friends family and partner,Go on a walk by the beach with the sun shining in my face and a gentle breeze flowing through the air,0.02,0.05,1.1,0,,,,
,,610f303cfb519f6dc89edd5f,6685aa9113c938e83b4f1ea0,672d013f15c5cf809bb120b5,2024-11-07_13h07.09.866,WTP_SM_Choice,2022.2.1,MacIntel,60.60606061,,,,,,,,,,,,,,,,,,98,,,,,,,,,,0.03,1,2.658,0,2,2,2,1,Meet up to have a cup of coffee and a chat with a friend,Read an engaging book in the park while laying on a blanket on a beautiful spring day,0.03,0.05,1.1,0,,,,
,,610f303cfb519f6dc89edd5f,6685aa9113c938e83b4f1ea0,672d013f15c5cf809bb120b5,2024-11-07_13h07.09.866,WTP_SM_Choice,2022.2.1,MacIntel,60.60606061,,,,,,,,,,,,,,,,,,99,,,,,,,,,,0.05,2,7.3026,0,3,3,3,1,Listen to live music while sipping on a delicious tequila margerita,Watch football with friends and making some game day snacks with my family friends and partner,0.04,0.05,3.3,1,,,,
,,610f303cfb519f6dc89edd5f,6685aa9113c938e83b4f1ea0,672d013f15c5cf809bb120b5,2024-11-07_13h07.09.866,WTP_SM_Choice,2022.2.1,MacIntel,60.60606061,,,,,,,,,,,,,,,,,,100,,,,,,,,,,0.05,1,4.3025,0,4,4,4,1,Scroll on my phone and seeing what my friends are up to on various social media platforms,Watch football with friends and making some game day snacks with my family friends and partner,0.05,0.05,4.4,1,,,,
,,610f303cfb519f6dc89edd5f,6685aa9113c938e83b4f1ea0,672d013f15c5cf809bb120b5,2024-11-07_13h07.09.866,WTP_SM_Choice,2022.2.1,MacIntel,60.60606061,,,,,,,2,,2,2.46,3.54,,0,99,99,99,1,100,Sam,Rej,Participant_Images/610f303cfb519f6dc89edd5f/610f303cfb519f6dc89edd5f_Images/610f303cfb519f6dc89edd5f_Image_25.jpeg,liked,1.672012706,,,,,,,,,,,,,,,,,,,space,5.3198,,
,,610f303cfb519f6dc89edd5f,6685aa9113c938e83b4f1ea0,672d013f15c5cf809bb120b5,2024-11-07_13h07.09.866,WTP_SM_Choice,2022.2.1,MacIntel,60.60606061,,,,,,,,,,,,,,,,,,,,,,,,,,,,,,,,,,,,,,,,,,,,space,3.2317
