endwelcomescreen_keys.keys,endwelcomescreen_keys.rt,participant,STUDY_ID,SESSION_ID,date,expName,psychopyVersion,OS,frameRate,endinstructionscreen_keys.keys,endinstructionscreen_keys.rt,endpartnermatch_keys.keys,endpartnermatch_keys.rt,sharenextphoto_key.keys,sharenextphoto_key.rt,salience_rating,key_resp.keys,stress_level,subtract_bonus,TOTAL_TASK_BONUS,stresslevel_keypress.keys,entiretaskloop.thisRepN,entiretaskloop.thisTrialN,entiretaskloop.thisN,entiretaskloop.thisIndex,entiretaskloop.ran,TrialNumber,Partner,Condition,Photos,Feedback,FeedbackWait,WTP_ins_keys1.keys,WTP_ins_keys1.rt,WTP_ins_keys2.keys,WTP_ins_keys2.rt,decision_price,responses.keys,responses.rt,WTPTaskLoop.thisRepN,WTPTaskLoop.thisTrialN,WTPTaskLoop.thisN,WTPTaskLoop.thisIndex,WTPTaskLoop.ran,right,left,leftmoney,rightmoney,WTP_ITI,social_left,Resume_keys.keys,Resume_keys.rt,end_screen_keys.keys,end_screen_keys.rt
space,4.2126,6111216b74cfd482d05ac02b,6685aa9113c938e83b4f1ea0,66feb53c4d1fc209707b58a4,2024-10-03_11h17.10.016,WTP_SM_Choice,2022.2.1,MacIntel,58.82352941,,,,,,,,,,,,,,,,,,,,,,,,,,,,,,,,,,,,,,,,,,,,,
,,6111216b74cfd482d05ac02b,6685aa9113c938e83b4f1ea0,66feb53c4d1fc209707b58a4,2024-10-03_11h17.10.016,WTP_SM_Choice,2022.2.1,MacIntel,58.82352941,space,14.7832,,,,,,,,,,,,,,,,,,,,,,,,,,,,,,,,,,,,,,,,,,,
,,6111216b74cfd482d05ac02b,6685aa9113c938e83b4f1ea0,66feb53c4d1fc209707b58a4,2024-10-03_11h17.10.016,WTP_SM_Choice,2022.2.1,MacIntel,58.82352941,,,space,1.7931,space,0.8289,NAN,,NAN,0,6,,0,0,0,0,1,1,Charlie,Acc,Participant_Images/6111216b74cfd482d05ac02b/6111216b74cfd482d05ac02b_Images/6111216b74cfd482d05ac02b_Image_19.jpeg,did not like,3.613205605,,,,,,,,,,,,,,,,,,,,,,
,,6111216b74cfd482d05ac02b,6685aa9113c938e83b4f1ea0,66feb53c4d1fc209707b58a4,2024-10-03_11h17.10.016,WTP_SM_Choice,2022.2.1,MacIntel,58.82352941,,,,,space,0.7495,NAN,,NAN,0,6,,0,1,1,1,1,2,Charlie,Acc,Participant_Images/6111216b74cfd482d05ac02b/6111216b74cfd482d05ac02b_Images/6111216b74cfd482d05ac02b_Image_9.jpeg,did not like,4.988446431,,,,,,,,,,,,,,,,,,,,,,
,,6111216b74cfd482d05ac02b,6685aa9113c938e83b4f1ea0,66feb53c4d1fc209707b58a4,2024-10-03_11h17.10.016,WTP_SM_Choice,2022.2.1,MacIntel,58.82352941,,,,,space,1.1157,NAN,,NAN,0,6,,0,2,2,2,1,3,Charlie,Acc,Participant_Images/6111216b74cfd482d05ac02b/6111216b74cfd482d05ac02b_Images/6111216b74cfd482d05ac02b_Image_10.jpeg,liked,3.470791822,,,,,,,,,,,,,,,,,,,,,,
,,6111216b74cfd482d05ac02b,6685aa9113c938e83b4f1ea0,66feb53c4d1fc209707b58a4,2024-10-03_11h17.10.016,WTP_SM_Choice,2022.2.1,MacIntel,58.82352941,,,,,space,1.6488,NAN,,NAN,0,6,,0,3,3,3,1,4,Charlie,Acc,Participant_Images/6111216b74cfd482d05ac02b/6111216b74cfd482d05ac02b_Images/6111216b74cfd482d05ac02b_Image_3.jpeg,did not like,3.820572462,,,,,,,,,,,,,,,,,,,,,,
,,6111216b74cfd482d05ac02b,6685aa9113c938e83b4f1ea0,66feb53c4d1fc209707b58a4,2024-10-03_11h17.10.016,WTP_SM_Choice,2022.2.1,MacIntel,58.82352941,,,,,,,,,,,,,,,,,,1,,,,,,space,9.5234,space,4.9292,0.01,1,3.3234,0,0,0,0,1,Eat candy on a lazy day,Watch a movie with my fiance,0.01,0.01,4.4,1,,,,
,,6111216b74cfd482d05ac02b,6685aa9113c938e83b4f1ea0,66feb53c4d1fc209707b58a4,2024-10-03_11h17.10.016,WTP_SM_Choice,2022.2.1,MacIntel,58.82352941,,,,,,,,,,,,,,,,,,2,,,,,,,,,,0.02,1,3.5425,0,1,1,1,1,make pancakes on tuesday morning,Watch a movie with my fiance,0.02,0.01,8.8,1,,,,
,,6111216b74cfd482d05ac02b,6685aa9113c938e83b4f1ea0,66feb53c4d1fc209707b58a4,2024-10-03_11h17.10.016,WTP_SM_Choice,2022.2.1,MacIntel,58.82352941,,,,,,,,,,,,,,,,,,3,,,,,,,,,,0.03,1,3.6372,0,2,2,2,1,Go for a walk with my fiance,go for a walk on a sunny day,0.03,0.01,3.3,0,,,,
,,6111216b74cfd482d05ac02b,6685aa9113c938e83b4f1ea0,66feb53c4d1fc209707b58a4,2024-10-03_11h17.10.016,WTP_SM_Choice,2022.2.1,MacIntel,58.82352941,,,,,,,,,,,,,,,,,,4,,,,,,,,,,0.01,2,2.4705,0,3,3,3,1,Go to the waterpark with my family,Make popcorn on a friday night,0.04,0.01,1.1,0,,,,
,,6111216b74cfd482d05ac02b,6685aa9113c938e83b4f1ea0,66feb53c4d1fc209707b58a4,2024-10-03_11h17.10.016,WTP_SM_Choice,2022.2.1,MacIntel,58.82352941,,,,,,,,,,,,,,,,,,5,,,,,,,,,,0.01,2,1.8713,0,4,4,4,1,Play board games with my family,Eat candy on a lazy day,0.05,0.01,1.1,0,,,,
,,6111216b74cfd482d05ac02b,6685aa9113c938e83b4f1ea0,66feb53c4d1fc209707b58a4,2024-10-03_11h17.10.016,WTP_SM_Choice,2022.2.1,MacIntel,58.82352941,,,,,,,NAN,,NAN,0.08,5.92,,0,4,4,4,1,5,Charlie,Acc,Participant_Images/6111216b74cfd482d05ac02b/6111216b74cfd482d05ac02b_Images/6111216b74cfd482d05ac02b_Image_4.jpeg,did not like,2.455989137,,,,,,,,,,,,,,,,,,,,,,
,,6111216b74cfd482d05ac02b,6685aa9113c938e83b4f1ea0,66feb53c4d1fc209707b58a4,2024-10-03_11h17.10.016,WTP_SM_Choice,2022.2.1,MacIntel,58.82352941,,,,,space,1.0982,NAN,,NAN,0.08,5.92,,0,5,5,5,1,6,Charlie,Acc,Participant_Images/6111216b74cfd482d05ac02b/6111216b74cfd482d05ac02b_Images/6111216b74cfd482d05ac02b_Image_18.jpeg,liked,3.79605092,,,,,,,,,,,,,,,,,,,,,,
,,6111216b74cfd482d05ac02b,6685aa9113c938e83b4f1ea0,66feb53c4d1fc209707b58a4,2024-10-03_11h17.10.016,WTP_SM_Choice,2022.2.1,MacIntel,58.82352941,,,,,space,1.016,NAN,,NAN,0.08,5.92,,0,6,6,6,1,7,Charlie,Acc,Participant_Images/6111216b74cfd482d05ac02b/6111216b74cfd482d05ac02b_Images/6111216b74cfd482d05ac02b_Image_11.jpeg,liked,3.562416326,,,,,,,,,,,,,,,,,,,,,,
,,6111216b74cfd482d05ac02b,6685aa9113c938e83b4f1ea0,66feb53c4d1fc209707b58a4,2024-10-03_11h17.10.016,WTP_SM_Choice,2022.2.1,MacIntel,58.82352941,,,,,space,6.7341,NAN,,NAN,0.08,5.92,,0,7,7,7,1,8,Charlie,Acc,Participant_Images/6111216b74cfd482d05ac02b/6111216b74cfd482d05ac02b_Images/6111216b74cfd482d05ac02b_Image_2.jpeg,liked,2.843822497,,,,,,,,,,,,,,,,,,,,,,
,,6111216b74cfd482d05ac02b,6685aa9113c938e83b4f1ea0,66feb53c4d1fc209707b58a4,2024-10-03_11h17.10.016,WTP_SM_Choice,2022.2.1,MacIntel,58.82352941,,,,,space,6.5658,NAN,,NAN,0.08,5.92,,0,8,8,8,1,9,Charlie,Acc,Participant_Images/6111216b74cfd482d05ac02b/6111216b74cfd482d05ac02b_Images/6111216b74cfd482d05ac02b_Image_12.jpeg,liked,3.546495948,,,,,,,,,,,,,,,,,,,,,,
,,6111216b74cfd482d05ac02b,6685aa9113c938e83b4f1ea0,66feb53c4d1fc209707b58a4,2024-10-03_11h17.10.016,WTP_SM_Choice,2022.2.1,MacIntel,58.82352941,,,,,,,,,,,,,,,,,,6,,,,,,space,2.177,space,1.1976,0.01,1,1.3354,0,0,0,0,1,Go to target to browse on a lazy day,Go to the waterpark with my family,0.01,0.02,3.3,1,,,,
,,6111216b74cfd482d05ac02b,6685aa9113c938e83b4f1ea0,66feb53c4d1fc209707b58a4,2024-10-03_11h17.10.016,WTP_SM_Choice,2022.2.1,MacIntel,58.82352941,,,,,,,,,,,,,,,,,,7,,,,,,,,,,0.02,2,2.1889,0,1,1,1,1,Go shopping with my mom and sister,Go to target to browse on a lazy day,0.02,0.02,1.1,0,,,,
,,6111216b74cfd482d05ac02b,6685aa9113c938e83b4f1ea0,66feb53c4d1fc209707b58a4,2024-10-03_11h17.10.016,WTP_SM_Choice,2022.2.1,MacIntel,58.82352941,,,,,,,,,,,,,,,,,,8,,,,,,,,,,0.03,1,1.7056,0,2,2,2,1,read a book when it is rainy,Go for a walk with my fiance,0.03,0.02,1.1,1,,,,
,,6111216b74cfd482d05ac02b,6685aa9113c938e83b4f1ea0,66feb53c4d1fc209707b58a4,2024-10-03_11h17.10.016,WTP_SM_Choice,2022.2.1,MacIntel,58.82352941,,,,,,,,,,,,,,,,,,9,,,,,,,,,,0.02,2,1.4554,0,3,3,3,1,Watch a movie with my fiance,listen to music alone in my bedroom ,0.04,0.02,4.4,0,,,,
,,6111216b74cfd482d05ac02b,6685aa9113c938e83b4f1ea0,66feb53c4d1fc209707b58a4,2024-10-03_11h17.10.016,WTP_SM_Choice,2022.2.1,MacIntel,58.82352941,,,,,,,,,,,,,,,,,,10,,,,,,,,,,0.05,1,1.8567,0,4,4,4,1,read a book when it is rainy,Go to the movies with my family,0.05,0.02,1.1,1,,,,
,,6111216b74cfd482d05ac02b,6685aa9113c938e83b4f1ea0,66feb53c4d1fc209707b58a4,2024-10-03_11h17.10.016,WTP_SM_Choice,2022.2.1,MacIntel,58.82352941,,,,,,,NAN,,NAN,0.21,5.79,,0,9,9,9,1,10,Charlie,Acc,Participant_Images/6111216b74cfd482d05ac02b/6111216b74cfd482d05ac02b_Images/6111216b74cfd482d05ac02b_Image_25.jpeg,liked,1.672012706,,,,,,,,,,,,,,,,,,,,,,
,,6111216b74cfd482d05ac02b,6685aa9113c938e83b4f1ea0,66feb53c4d1fc209707b58a4,2024-10-03_11h17.10.016,WTP_SM_Choice,2022.2.1,MacIntel,58.82352941,,,,,space,1.433,NAN,,NAN,0.21,5.79,,0,10,10,10,1,11,Charlie,Acc,Participant_Images/6111216b74cfd482d05ac02b/6111216b74cfd482d05ac02b_Images/6111216b74cfd482d05ac02b_Image_21.jpeg,did not like,4.942172136,,,,,,,,,,,,,,,,,,,,,,
,,6111216b74cfd482d05ac02b,6685aa9113c938e83b4f1ea0,66feb53c4d1fc209707b58a4,2024-10-03_11h17.10.016,WTP_SM_Choice,2022.2.1,MacIntel,58.82352941,,,,,space,0.6001,NAN,,NAN,0.21,5.79,,0,11,11,11,1,12,Charlie,Acc,Participant_Images/6111216b74cfd482d05ac02b/6111216b74cfd482d05ac02b_Images/6111216b74cfd482d05ac02b_Image_20.jpeg,liked,2.50187214,,,,,,,,,,,,,,,,,,,,,,
,,6111216b74cfd482d05ac02b,6685aa9113c938e83b4f1ea0,66feb53c4d1fc209707b58a4,2024-10-03_11h17.10.016,WTP_SM_Choice,2022.2.1,MacIntel,58.82352941,,,,,space,2.1018,NAN,,NAN,0.21,5.79,,0,12,12,12,1,13,Charlie,Acc,Participant_Images/6111216b74cfd482d05ac02b/6111216b74cfd482d05ac02b_Images/6111216b74cfd482d05ac02b_Image_5.jpeg,liked,2.071164779,,,,,,,,,,,,,,,,,,,,,,
,,6111216b74cfd482d05ac02b,6685aa9113c938e83b4f1ea0,66feb53c4d1fc209707b58a4,2024-10-03_11h17.10.016,WTP_SM_Choice,2022.2.1,MacIntel,58.82352941,,,,,space,0.817,NAN,,NAN,0.21,5.79,,0,13,13,13,1,14,Charlie,Acc,Participant_Images/6111216b74cfd482d05ac02b/6111216b74cfd482d05ac02b_Images/6111216b74cfd482d05ac02b_Image_14.jpeg,liked,5.336503566,,,,,,,,,,,,,,,,,,,,,,
,,6111216b74cfd482d05ac02b,6685aa9113c938e83b4f1ea0,66feb53c4d1fc209707b58a4,2024-10-03_11h17.10.016,WTP_SM_Choice,2022.2.1,MacIntel,58.82352941,,,,,,,,,,,,,,,,,,11,,,,,,space,1.5775,space,0.6987,0.01,1,1.1238,0,0,0,0,1,go for a walk on a sunny day,Go shopping with my mom and sister,0.01,0.03,3.3,1,,,,
,,6111216b74cfd482d05ac02b,6685aa9113c938e83b4f1ea0,66feb53c4d1fc209707b58a4,2024-10-03_11h17.10.016,WTP_SM_Choice,2022.2.1,MacIntel,58.82352941,,,,,,,,,,,,,,,,,,12,,,,,,,,,,0.03,2,1.6715,0,1,1,1,1,Play wii sports with my fiance,Make popcorn on a friday night,0.02,0.03,4.4,0,,,,
,,6111216b74cfd482d05ac02b,6685aa9113c938e83b4f1ea0,66feb53c4d1fc209707b58a4,2024-10-03_11h17.10.016,WTP_SM_Choice,2022.2.1,MacIntel,58.82352941,,,,,,,,,,,,,,,,,,13,,,,,,,,,,0.03,1,1.6056,0,2,2,2,1,bake on a sunny day,Go to the movies with my family,0.03,0.03,1.1,1,,,,
,,6111216b74cfd482d05ac02b,6685aa9113c938e83b4f1ea0,66feb53c4d1fc209707b58a4,2024-10-03_11h17.10.016,WTP_SM_Choice,2022.2.1,MacIntel,58.82352941,,,,,,,,,,,,,,,,,,14,,,,,,,,,,0.04,1,1.256,0,3,3,3,1,Eat candy on a lazy day,Go for a walk with my fiance,0.04,0.03,3.3,1,,,,
,,6111216b74cfd482d05ac02b,6685aa9113c938e83b4f1ea0,66feb53c4d1fc209707b58a4,2024-10-03_11h17.10.016,WTP_SM_Choice,2022.2.1,MacIntel,58.82352941,,,,,,,,,,,,,,,,,,15,,,,,,,,,,0.05,1,1.8868,0,4,4,4,1,Watch a youtube video with a good snack,Watch a movie with my fiance,0.05,0.03,4.4,1,,,,
,,6111216b74cfd482d05ac02b,6685aa9113c938e83b4f1ea0,66feb53c4d1fc209707b58a4,2024-10-03_11h17.10.016,WTP_SM_Choice,2022.2.1,MacIntel,58.82352941,,,,,,,NAN,,NAN,0.37,5.63,,0,14,14,14,1,15,Charlie,Acc,Participant_Images/6111216b74cfd482d05ac02b/6111216b74cfd482d05ac02b_Images/6111216b74cfd482d05ac02b_Image_6.jpeg,did not like,2.642157193,,,,,,,,,,,,,,,,,,,,,,
,,6111216b74cfd482d05ac02b,6685aa9113c938e83b4f1ea0,66feb53c4d1fc209707b58a4,2024-10-03_11h17.10.016,WTP_SM_Choice,2022.2.1,MacIntel,58.82352941,,,,,space,0.7008,NAN,,NAN,0.37,5.63,,0,15,15,15,1,16,Charlie,Acc,Participant_Images/6111216b74cfd482d05ac02b/6111216b74cfd482d05ac02b_Images/6111216b74cfd482d05ac02b_Image_13.jpeg,liked,4.456234322,,,,,,,,,,,,,,,,,,,,,,
,,6111216b74cfd482d05ac02b,6685aa9113c938e83b4f1ea0,66feb53c4d1fc209707b58a4,2024-10-03_11h17.10.016,WTP_SM_Choice,2022.2.1,MacIntel,58.82352941,,,,,space,1.0683,NAN,,NAN,0.37,5.63,,0,16,16,16,1,17,Charlie,Acc,Participant_Images/6111216b74cfd482d05ac02b/6111216b74cfd482d05ac02b_Images/6111216b74cfd482d05ac02b_Image_1.jpeg,liked,4.438512181,,,,,,,,,,,,,,,,,,,,,,
,,6111216b74cfd482d05ac02b,6685aa9113c938e83b4f1ea0,66feb53c4d1fc209707b58a4,2024-10-03_11h17.10.016,WTP_SM_Choice,2022.2.1,MacIntel,58.82352941,,,,,space,0.8514,NAN,,NAN,0.37,5.63,,0,17,17,17,1,18,Charlie,Acc,Participant_Images/6111216b74cfd482d05ac02b/6111216b74cfd482d05ac02b_Images/6111216b74cfd482d05ac02b_Image_17.jpeg,liked,2.682944783,,,,,,,,,,,,,,,,,,,,,,
,,6111216b74cfd482d05ac02b,6685aa9113c938e83b4f1ea0,66feb53c4d1fc209707b58a4,2024-10-03_11h17.10.016,WTP_SM_Choice,2022.2.1,MacIntel,58.82352941,,,,,space,1.3001,NAN,,NAN,0.37,5.63,,0,18,18,18,1,19,Charlie,Acc,Participant_Images/6111216b74cfd482d05ac02b/6111216b74cfd482d05ac02b_Images/6111216b74cfd482d05ac02b_Image_23.jpeg,did not like,4.51984296,,,,,,,,,,,,,,,,,,,,,,
,,6111216b74cfd482d05ac02b,6685aa9113c938e83b4f1ea0,66feb53c4d1fc209707b58a4,2024-10-03_11h17.10.016,WTP_SM_Choice,2022.2.1,MacIntel,58.82352941,,,,,,,,,,,,,,,,,,16,,,,,,space,0.9806,space,0.6983,0.01,1,9.9082,0,0,0,0,1,make pancakes on tuesday morning,Bake cookies with my mom ,0.01,0.04,1.1,1,,,,
,,6111216b74cfd482d05ac02b,6685aa9113c938e83b4f1ea0,66feb53c4d1fc209707b58a4,2024-10-03_11h17.10.016,WTP_SM_Choice,2022.2.1,MacIntel,58.82352941,,,,,,,,,,,,,,,,,,17,,,,,,,,,,0.04,2,1.5053,0,1,1,1,1,Go to the waterpark with my family,Watch a youtube video with a good snack,0.02,0.04,8.8,0,,,,
,,6111216b74cfd482d05ac02b,6685aa9113c938e83b4f1ea0,66feb53c4d1fc209707b58a4,2024-10-03_11h17.10.016,WTP_SM_Choice,2022.2.1,MacIntel,58.82352941,,,,,,,,,,,,,,,,,,18,,,,,,,,,,0.04,2,1.0414,0,2,2,2,1,Go to the waterpark with my family,bake on a sunny day,0.03,0.04,3.3,0,,,,
,,6111216b74cfd482d05ac02b,6685aa9113c938e83b4f1ea0,66feb53c4d1fc209707b58a4,2024-10-03_11h17.10.016,WTP_SM_Choice,2022.2.1,MacIntel,58.82352941,,,,,,,,,,,,,,,,,,19,,,,,,,,,,0.04,2,1.4045,0,3,3,3,1,Play video games with my brothers,make pancakes on tuesday morning,0.04,0.04,3.3,0,,,,
,,6111216b74cfd482d05ac02b,6685aa9113c938e83b4f1ea0,66feb53c4d1fc209707b58a4,2024-10-03_11h17.10.016,WTP_SM_Choice,2022.2.1,MacIntel,58.82352941,,,,,,,,,,,,,,,,,,20,,,,,,,,,,0.04,2,1.1092,0,4,4,4,1,Go to the waterpark with my family,Eat candy on a lazy day,0.05,0.04,1.1,0,,,,
,,6111216b74cfd482d05ac02b,6685aa9113c938e83b4f1ea0,66feb53c4d1fc209707b58a4,2024-10-03_11h17.10.016,WTP_SM_Choice,2022.2.1,MacIntel,58.82352941,,,,,,,NAN,,NAN,0.54,5.46,,0,19,19,19,1,20,Charlie,Acc,Participant_Images/6111216b74cfd482d05ac02b/6111216b74cfd482d05ac02b_Images/6111216b74cfd482d05ac02b_Image_24.jpeg,liked,3.195382774,,,,,,,,,,,,,,,,,,,,,,
,,6111216b74cfd482d05ac02b,6685aa9113c938e83b4f1ea0,66feb53c4d1fc209707b58a4,2024-10-03_11h17.10.016,WTP_SM_Choice,2022.2.1,MacIntel,58.82352941,,,,,space,1.3323,NAN,,NAN,0.54,5.46,,0,20,20,20,1,21,Charlie,Acc,Participant_Images/6111216b74cfd482d05ac02b/6111216b74cfd482d05ac02b_Images/6111216b74cfd482d05ac02b_Image_22.jpeg,liked,1.779333479,,,,,,,,,,,,,,,,,,,,,,
,,6111216b74cfd482d05ac02b,6685aa9113c938e83b4f1ea0,66feb53c4d1fc209707b58a4,2024-10-03_11h17.10.016,WTP_SM_Choice,2022.2.1,MacIntel,58.82352941,,,,,space,1.1842,NAN,,NAN,0.54,5.46,,0,21,21,21,1,22,Charlie,Acc,Participant_Images/6111216b74cfd482d05ac02b/6111216b74cfd482d05ac02b_Images/6111216b74cfd482d05ac02b_Image_15.jpeg,liked,4.312468682,,,,,,,,,,,,,,,,,,,,,,
,,6111216b74cfd482d05ac02b,6685aa9113c938e83b4f1ea0,66feb53c4d1fc209707b58a4,2024-10-03_11h17.10.016,WTP_SM_Choice,2022.2.1,MacIntel,58.82352941,,,,,space,0.8845,NAN,,NAN,0.54,5.46,,0,22,22,22,1,23,Charlie,Acc,Participant_Images/6111216b74cfd482d05ac02b/6111216b74cfd482d05ac02b_Images/6111216b74cfd482d05ac02b_Image_7.jpeg,liked,4.940433059,,,,,,,,,,,,,,,,,,,,,,
,,6111216b74cfd482d05ac02b,6685aa9113c938e83b4f1ea0,66feb53c4d1fc209707b58a4,2024-10-03_11h17.10.016,WTP_SM_Choice,2022.2.1,MacIntel,58.82352941,,,,,space,0.8647,NAN,,NAN,0.54,5.46,,0,23,23,23,1,24,Charlie,Acc,Participant_Images/6111216b74cfd482d05ac02b/6111216b74cfd482d05ac02b_Images/6111216b74cfd482d05ac02b_Image_16.jpeg,liked,2.7105123,,,,,,,,,,,,,,,,,,,,,,
,,6111216b74cfd482d05ac02b,6685aa9113c938e83b4f1ea0,66feb53c4d1fc209707b58a4,2024-10-03_11h17.10.016,WTP_SM_Choice,2022.2.1,MacIntel,58.82352941,,,,,,,,,,,,,,,,,,21,,,,,,space,1.0981,space,0.8329,0.05,2,2.205,0,0,0,0,1,Watch a movie with my fiance,Make popcorn on a friday night,0.01,0.05,8.8,0,,,,
,,6111216b74cfd482d05ac02b,6685aa9113c938e83b4f1ea0,66feb53c4d1fc209707b58a4,2024-10-03_11h17.10.016,WTP_SM_Choice,2022.2.1,MacIntel,58.82352941,,,,,,,,,,,,,,,,,,22,,,,,,,,,,0.05,2,1.2699,0,1,1,1,1,Go for a walk with my fiance,Go to target to browse on a lazy day,0.02,0.05,4.4,0,,,,
,,6111216b74cfd482d05ac02b,6685aa9113c938e83b4f1ea0,66feb53c4d1fc209707b58a4,2024-10-03_11h17.10.016,WTP_SM_Choice,2022.2.1,MacIntel,58.82352941,,,,,,,,,,,,,,,,,,23,,,,,,,,,,0.05,2,1.1224,0,2,2,2,1,Go to the waterpark with my family,go to five below in a new city,0.03,0.05,1.1,0,,,,
,,6111216b74cfd482d05ac02b,6685aa9113c938e83b4f1ea0,66feb53c4d1fc209707b58a4,2024-10-03_11h17.10.016,WTP_SM_Choice,2022.2.1,MacIntel,58.82352941,,,,,,,,,,,,,,,,,,24,,,,,,,,,,0.05,2,1.2062,0,3,3,3,1,Play video games with my brothers,listen to music alone in my bedroom ,0.04,0.05,4.4,0,,,,
,,6111216b74cfd482d05ac02b,6685aa9113c938e83b4f1ea0,66feb53c4d1fc209707b58a4,2024-10-03_11h17.10.016,WTP_SM_Choice,2022.2.1,MacIntel,58.82352941,,,,,,,,,,,,,,,,,,25,,,,,,,,,,0.05,2,0.9748,0,4,4,4,1,Bake cookies with my mom ,Go to target to browse on a lazy day,0.05,0.05,3.3,0,,,,
,,6111216b74cfd482d05ac02b,6685aa9113c938e83b4f1ea0,66feb53c4d1fc209707b58a4,2024-10-03_11h17.10.016,WTP_SM_Choice,2022.2.1,MacIntel,58.82352941,,,,,,,2,,4,0.79,5.21,,0,24,24,24,1,25,Charlie,Acc,Participant_Images/6111216b74cfd482d05ac02b/6111216b74cfd482d05ac02b_Images/6111216b74cfd482d05ac02b_Image_8.jpeg,liked,3.602308302,,,,,,,,,,,,,,,,,,,space,0.8612,,
,,6111216b74cfd482d05ac02b,6685aa9113c938e83b4f1ea0,66feb53c4d1fc209707b58a4,2024-10-03_11h17.10.016,WTP_SM_Choice,2022.2.1,MacIntel,58.82352941,,,space,2.7619,space,0.8823,NAN,,NAN,0.79,5.21,,0,25,25,25,1,26,Alex,Rej,Participant_Images/6111216b74cfd482d05ac02b/6111216b74cfd482d05ac02b_Images/6111216b74cfd482d05ac02b_Image_16.jpeg,did not like,4.106391878,,,,,,,,,,,,,,,,,,,,,,
,,6111216b74cfd482d05ac02b,6685aa9113c938e83b4f1ea0,66feb53c4d1fc209707b58a4,2024-10-03_11h17.10.016,WTP_SM_Choice,2022.2.1,MacIntel,58.82352941,,,,,space,0.8673,NAN,,NAN,0.79,5.21,,0,26,26,26,1,27,Alex,Rej,Participant_Images/6111216b74cfd482d05ac02b/6111216b74cfd482d05ac02b_Images/6111216b74cfd482d05ac02b_Image_10.jpeg,did not like,3.799433026,,,,,,,,,,,,,,,,,,,,,,
,,6111216b74cfd482d05ac02b,6685aa9113c938e83b4f1ea0,66feb53c4d1fc209707b58a4,2024-10-03_11h17.10.016,WTP_SM_Choice,2022.2.1,MacIntel,58.82352941,,,,,space,0.8855,NAN,,NAN,0.79,5.21,,0,27,27,27,1,28,Alex,Rej,Participant_Images/6111216b74cfd482d05ac02b/6111216b74cfd482d05ac02b_Images/6111216b74cfd482d05ac02b_Image_4.jpeg,did not like,5.246980764,,,,,,,,,,,,,,,,,,,,,,
,,6111216b74cfd482d05ac02b,6685aa9113c938e83b4f1ea0,66feb53c4d1fc209707b58a4,2024-10-03_11h17.10.016,WTP_SM_Choice,2022.2.1,MacIntel,58.82352941,,,,,space,1.1493,NAN,,NAN,0.79,5.21,,0,28,28,28,1,29,Alex,Rej,Participant_Images/6111216b74cfd482d05ac02b/6111216b74cfd482d05ac02b_Images/6111216b74cfd482d05ac02b_Image_9.jpeg,did not like,3.30081769,,,,,,,,,,,,,,,,,,,,,,
,,6111216b74cfd482d05ac02b,6685aa9113c938e83b4f1ea0,66feb53c4d1fc209707b58a4,2024-10-03_11h17.10.016,WTP_SM_Choice,2022.2.1,MacIntel,58.82352941,,,,,,,,,,,,,,,,,,26,,,,,,space,0.8122,space,0.6479,0.01,1,1.0708,0,0,0,0,1,go to five below in a new city,Play wii sports with my fiance,0.01,0.01,4.4,1,,,,
,,6111216b74cfd482d05ac02b,6685aa9113c938e83b4f1ea0,66feb53c4d1fc209707b58a4,2024-10-03_11h17.10.016,WTP_SM_Choice,2022.2.1,MacIntel,58.82352941,,,,,,,,,,,,,,,,,,27,,,,,,,,,,0.01,2,1.0087,0,1,1,1,1,Go for a walk with my fiance,Watch a youtube video with a good snack,0.02,0.01,3.3,0,,,,
,,6111216b74cfd482d05ac02b,6685aa9113c938e83b4f1ea0,66feb53c4d1fc209707b58a4,2024-10-03_11h17.10.016,WTP_SM_Choice,2022.2.1,MacIntel,58.82352941,,,,,,,,,,,,,,,,,,28,,,,,,,,,,0.03,1,1.1745,0,2,2,2,1,make pancakes on tuesday morning,Go to the movies with my family,0.03,0.01,3.3,1,,,,
,,6111216b74cfd482d05ac02b,6685aa9113c938e83b4f1ea0,66feb53c4d1fc209707b58a4,2024-10-03_11h17.10.016,WTP_SM_Choice,2022.2.1,MacIntel,58.82352941,,,,,,,,,,,,,,,,,,29,,,,,,,,,,0.04,1,0.685,0,3,3,3,1,Go to target to browse on a lazy day,Watch a movie with my fiance,0.04,0.01,4.4,1,,,,
,,6111216b74cfd482d05ac02b,6685aa9113c938e83b4f1ea0,66feb53c4d1fc209707b58a4,2024-10-03_11h17.10.016,WTP_SM_Choice,2022.2.1,MacIntel,58.82352941,,,,,,,,,,,,,,,,,,30,,,,,,,,,,0.01,2,1.4418,0,4,4,4,1,Play wii sports with my fiance,Watch a youtube video with a good snack,0.05,0.01,8.8,0,,,,
,,6111216b74cfd482d05ac02b,6685aa9113c938e83b4f1ea0,66feb53c4d1fc209707b58a4,2024-10-03_11h17.10.016,WTP_SM_Choice,2022.2.1,MacIntel,58.82352941,,,,,,,NAN,,NAN,0.89,5.11,,0,29,29,29,1,30,Alex,Rej,Participant_Images/6111216b74cfd482d05ac02b/6111216b74cfd482d05ac02b_Images/6111216b74cfd482d05ac02b_Image_1.jpeg,did not like,1.661473164,,,,,,,,,,,,,,,,,,,,,,
,,6111216b74cfd482d05ac02b,6685aa9113c938e83b4f1ea0,66feb53c4d1fc209707b58a4,2024-10-03_11h17.10.016,WTP_SM_Choice,2022.2.1,MacIntel,58.82352941,,,,,space,3.8343,NAN,,NAN,0.89,5.11,,0,30,30,30,1,31,Alex,Rej,Participant_Images/6111216b74cfd482d05ac02b/6111216b74cfd482d05ac02b_Images/6111216b74cfd482d05ac02b_Image_12.jpeg,liked,3.613205605,,,,,,,,,,,,,,,,,,,,,,
,,6111216b74cfd482d05ac02b,6685aa9113c938e83b4f1ea0,66feb53c4d1fc209707b58a4,2024-10-03_11h17.10.016,WTP_SM_Choice,2022.2.1,MacIntel,58.82352941,,,,,space,11.8211,NAN,,NAN,0.89,5.11,,0,31,31,31,1,32,Alex,Rej,Participant_Images/6111216b74cfd482d05ac02b/6111216b74cfd482d05ac02b_Images/6111216b74cfd482d05ac02b_Image_7.jpeg,did not like,4.988446431,,,,,,,,,,,,,,,,,,,,,,
,,6111216b74cfd482d05ac02b,6685aa9113c938e83b4f1ea0,66feb53c4d1fc209707b58a4,2024-10-03_11h17.10.016,WTP_SM_Choice,2022.2.1,MacIntel,58.82352941,,,,,space,1.3797,NAN,,NAN,0.89,5.11,,0,32,32,32,1,33,Alex,Rej,Participant_Images/6111216b74cfd482d05ac02b/6111216b74cfd482d05ac02b_Images/6111216b74cfd482d05ac02b_Image_6.jpeg,did not like,3.470791822,,,,,,,,,,,,,,,,,,,,,,
,,6111216b74cfd482d05ac02b,6685aa9113c938e83b4f1ea0,66feb53c4d1fc209707b58a4,2024-10-03_11h17.10.016,WTP_SM_Choice,2022.2.1,MacIntel,58.82352941,,,,,space,6.9671,NAN,,NAN,0.89,5.11,,0,33,33,33,1,34,Alex,Rej,Participant_Images/6111216b74cfd482d05ac02b/6111216b74cfd482d05ac02b_Images/6111216b74cfd482d05ac02b_Image_14.jpeg,did not like,3.820572462,,,,,,,,,,,,,,,,,,,,,,
,,6111216b74cfd482d05ac02b,6685aa9113c938e83b4f1ea0,66feb53c4d1fc209707b58a4,2024-10-03_11h17.10.016,WTP_SM_Choice,2022.2.1,MacIntel,58.82352941,,,,,,,,,,,,,,,,,,31,,,,,,space,0.3959,space,0.7145,0.01,1,1.4195,0,0,0,0,1,listen to music alone in my bedroom ,Play wii sports with my fiance,0.01,0.02,8.8,1,,,,
,,6111216b74cfd482d05ac02b,6685aa9113c938e83b4f1ea0,66feb53c4d1fc209707b58a4,2024-10-03_11h17.10.016,WTP_SM_Choice,2022.2.1,MacIntel,58.82352941,,,,,,,,,,,,,,,,,,32,,,,,,,,,,0.02,1,1.4701,0,1,1,1,1,go to five below in a new city,Play video games with my brothers,0.02,0.02,1.1,1,,,,
,,6111216b74cfd482d05ac02b,6685aa9113c938e83b4f1ea0,66feb53c4d1fc209707b58a4,2024-10-03_11h17.10.016,WTP_SM_Choice,2022.2.1,MacIntel,58.82352941,,,,,,,,,,,,,,,,,,33,,,,,,,,,,0.03,1,2.9405,0,2,2,2,1,Watch a youtube video with a good snack,Play board games with my family,0.03,0.02,4.4,1,,,,
,,6111216b74cfd482d05ac02b,6685aa9113c938e83b4f1ea0,66feb53c4d1fc209707b58a4,2024-10-03_11h17.10.016,WTP_SM_Choice,2022.2.1,MacIntel,58.82352941,,,,,,,,,,,,,,,,,,34,,,,,,,,,,0.02,2,1.7382,0,3,3,3,1,Go shopping with my mom and sister,read a book when it is rainy,0.04,0.02,3.3,0,,,,
,,6111216b74cfd482d05ac02b,6685aa9113c938e83b4f1ea0,66feb53c4d1fc209707b58a4,2024-10-03_11h17.10.016,WTP_SM_Choice,2022.2.1,MacIntel,58.82352941,,,,,,,,,,,,,,,,,,35,,,,,,,,,,0.05,1,1.6242,0,4,4,4,1,Watch a youtube video with a good snack,Go to the store with my fiance ,0.05,0.02,1.1,1,,,,
,,6111216b74cfd482d05ac02b,6685aa9113c938e83b4f1ea0,66feb53c4d1fc209707b58a4,2024-10-03_11h17.10.016,WTP_SM_Choice,2022.2.1,MacIntel,58.82352941,,,,,,,NAN,,NAN,1.02,4.98,,0,34,34,34,1,35,Alex,Rej,Participant_Images/6111216b74cfd482d05ac02b/6111216b74cfd482d05ac02b_Images/6111216b74cfd482d05ac02b_Image_18.jpeg,did not like,2.455989137,,,,,,,,,,,,,,,,,,,,,,
,,6111216b74cfd482d05ac02b,6685aa9113c938e83b4f1ea0,66feb53c4d1fc209707b58a4,2024-10-03_11h17.10.016,WTP_SM_Choice,2022.2.1,MacIntel,58.82352941,,,,,space,2.216,NAN,,NAN,1.02,4.98,,0,35,35,35,1,36,Alex,Rej,Participant_Images/6111216b74cfd482d05ac02b/6111216b74cfd482d05ac02b_Images/6111216b74cfd482d05ac02b_Image_11.jpeg,did not like,3.79605092,,,,,,,,,,,,,,,,,,,,,,
,,6111216b74cfd482d05ac02b,6685aa9113c938e83b4f1ea0,66feb53c4d1fc209707b58a4,2024-10-03_11h17.10.016,WTP_SM_Choice,2022.2.1,MacIntel,58.82352941,,,,,space,0.2665,NAN,,NAN,1.02,4.98,,0,36,36,36,1,37,Alex,Rej,Participant_Images/6111216b74cfd482d05ac02b/6111216b74cfd482d05ac02b_Images/6111216b74cfd482d05ac02b_Image_23.jpeg,did not like,3.562416326,,,,,,,,,,,,,,,,,,,,,,
,,6111216b74cfd482d05ac02b,6685aa9113c938e83b4f1ea0,66feb53c4d1fc209707b58a4,2024-10-03_11h17.10.016,WTP_SM_Choice,2022.2.1,MacIntel,58.82352941,,,,,space,3.5845,NAN,,NAN,1.02,4.98,,0,37,37,37,1,38,Alex,Rej,Participant_Images/6111216b74cfd482d05ac02b/6111216b74cfd482d05ac02b_Images/6111216b74cfd482d05ac02b_Image_25.jpeg,liked,2.843822497,,,,,,,,,,,,,,,,,,,,,,
,,6111216b74cfd482d05ac02b,6685aa9113c938e83b4f1ea0,66feb53c4d1fc209707b58a4,2024-10-03_11h17.10.016,WTP_SM_Choice,2022.2.1,MacIntel,58.82352941,,,,,space,1.0824,NAN,,NAN,1.02,4.98,,0,38,38,38,1,39,Alex,Rej,Participant_Images/6111216b74cfd482d05ac02b/6111216b74cfd482d05ac02b_Images/6111216b74cfd482d05ac02b_Image_24.jpeg,did not like,3.546495948,,,,,,,,,,,,,,,,,,,,,,
,,6111216b74cfd482d05ac02b,6685aa9113c938e83b4f1ea0,66feb53c4d1fc209707b58a4,2024-10-03_11h17.10.016,WTP_SM_Choice,2022.2.1,MacIntel,58.82352941,,,,,,,,,,,,,,,,,,36,,,,,,space,0.8644,space,0.4343,0.03,2,1.0594,0,0,0,0,1,Go to the movies with my family,Make popcorn on a friday night,0.01,0.03,3.3,0,,,,
,,6111216b74cfd482d05ac02b,6685aa9113c938e83b4f1ea0,66feb53c4d1fc209707b58a4,2024-10-03_11h17.10.016,WTP_SM_Choice,2022.2.1,MacIntel,58.82352941,,,,,,,,,,,,,,,,,,37,,,,,,,,,,0.02,1,1.0089,0,1,1,1,1,go for a walk on a sunny day,Go to the waterpark with my family,0.02,0.03,1.1,1,,,,
,,6111216b74cfd482d05ac02b,6685aa9113c938e83b4f1ea0,66feb53c4d1fc209707b58a4,2024-10-03_11h17.10.016,WTP_SM_Choice,2022.2.1,MacIntel,58.82352941,,,,,,,,,,,,,,,,,,38,,,,,,,,,,0.03,2,1.0545,0,2,2,2,1,Go for a walk with my fiance,go to five below in a new city,0.03,0.03,1.1,0,,,,
,,6111216b74cfd482d05ac02b,6685aa9113c938e83b4f1ea0,66feb53c4d1fc209707b58a4,2024-10-03_11h17.10.016,WTP_SM_Choice,2022.2.1,MacIntel,58.82352941,,,,,,,,,,,,,,,,,,39,,,,,,,,,,0.04,1,1.109,0,3,3,3,1,Go to target to browse on a lazy day,Play video games with my brothers,0.04,0.03,3.3,1,,,,
,,6111216b74cfd482d05ac02b,6685aa9113c938e83b4f1ea0,66feb53c4d1fc209707b58a4,2024-10-03_11h17.10.016,WTP_SM_Choice,2022.2.1,MacIntel,58.82352941,,,,,,,,,,,,,,,,,,40,,,,,,,,,,0.03,2,1.1767,0,4,4,4,1,Play board games with my family,bake on a sunny day,0.05,0.03,4.4,0,,,,
,,6111216b74cfd482d05ac02b,6685aa9113c938e83b4f1ea0,66feb53c4d1fc209707b58a4,2024-10-03_11h17.10.016,WTP_SM_Choice,2022.2.1,MacIntel,58.82352941,,,,,,,NAN,,NAN,1.17,4.83,,0,39,39,39,1,40,Alex,Rej,Participant_Images/6111216b74cfd482d05ac02b/6111216b74cfd482d05ac02b_Images/6111216b74cfd482d05ac02b_Image_22.jpeg,liked,1.672012706,,,,,,,,,,,,,,,,,,,,,,
,,6111216b74cfd482d05ac02b,6685aa9113c938e83b4f1ea0,66feb53c4d1fc209707b58a4,2024-10-03_11h17.10.016,WTP_SM_Choice,2022.2.1,MacIntel,58.82352941,,,,,space,0.4947,NAN,,NAN,1.17,4.83,,0,40,40,40,1,41,Alex,Rej,Participant_Images/6111216b74cfd482d05ac02b/6111216b74cfd482d05ac02b_Images/6111216b74cfd482d05ac02b_Image_5.jpeg,did not like,4.942172136,,,,,,,,,,,,,,,,,,,,,,
,,6111216b74cfd482d05ac02b,6685aa9113c938e83b4f1ea0,66feb53c4d1fc209707b58a4,2024-10-03_11h17.10.016,WTP_SM_Choice,2022.2.1,MacIntel,58.82352941,,,,,space,0.9513,NAN,,NAN,1.17,4.83,,0,41,41,41,1,42,Alex,Rej,Participant_Images/6111216b74cfd482d05ac02b/6111216b74cfd482d05ac02b_Images/6111216b74cfd482d05ac02b_Image_8.jpeg,liked,2.50187214,,,,,,,,,,,,,,,,,,,,,,
,,6111216b74cfd482d05ac02b,6685aa9113c938e83b4f1ea0,66feb53c4d1fc209707b58a4,2024-10-03_11h17.10.016,WTP_SM_Choice,2022.2.1,MacIntel,58.82352941,,,,,space,0.7334,NAN,,NAN,1.17,4.83,,0,42,42,42,1,43,Alex,Rej,Participant_Images/6111216b74cfd482d05ac02b/6111216b74cfd482d05ac02b_Images/6111216b74cfd482d05ac02b_Image_13.jpeg,did not like,2.071164779,,,,,,,,,,,,,,,,,,,,,,
,,6111216b74cfd482d05ac02b,6685aa9113c938e83b4f1ea0,66feb53c4d1fc209707b58a4,2024-10-03_11h17.10.016,WTP_SM_Choice,2022.2.1,MacIntel,58.82352941,,,,,space,2.584,NAN,,NAN,1.17,4.83,,0,43,43,43,1,44,Alex,Rej,Participant_Images/6111216b74cfd482d05ac02b/6111216b74cfd482d05ac02b_Images/6111216b74cfd482d05ac02b_Image_15.jpeg,did not like,5.336503566,,,,,,,,,,,,,,,,,,,,,,
,,6111216b74cfd482d05ac02b,6685aa9113c938e83b4f1ea0,66feb53c4d1fc209707b58a4,2024-10-03_11h17.10.016,WTP_SM_Choice,2022.2.1,MacIntel,58.82352941,,,,,,,,,,,,,,,,,,41,,,,,,space,1.2751,space,0.4485,0.04,2,1.3214,0,0,0,0,1,Go to the movies with my family,go to five below in a new city,0.01,0.04,1.1,0,,,,
,,6111216b74cfd482d05ac02b,6685aa9113c938e83b4f1ea0,66feb53c4d1fc209707b58a4,2024-10-03_11h17.10.016,WTP_SM_Choice,2022.2.1,MacIntel,58.82352941,,,,,,,,,,,,,,,,,,42,,,,,,,,,,0.04,2,1.2386,0,1,1,1,1,Go to the store with my fiance ,go for a walk on a sunny day,0.02,0.04,3.3,0,,,,
,,6111216b74cfd482d05ac02b,6685aa9113c938e83b4f1ea0,66feb53c4d1fc209707b58a4,2024-10-03_11h17.10.016,WTP_SM_Choice,2022.2.1,MacIntel,58.82352941,,,,,,,,,,,,,,,,,,43,,,,,,,,,,0.03,1,2.0237,0,2,2,2,1,read a book when it is rainy,Go to the store with my fiance ,0.03,0.04,1.1,1,,,,
,,6111216b74cfd482d05ac02b,6685aa9113c938e83b4f1ea0,66feb53c4d1fc209707b58a4,2024-10-03_11h17.10.016,WTP_SM_Choice,2022.2.1,MacIntel,58.82352941,,,,,,,,,,,,,,,,,,44,,,,,,,,,,0.04,2,1.8552,0,3,3,3,1,Go shopping with my mom and sister,listen to music alone in my bedroom ,0.04,0.04,1.1,0,,,,
,,6111216b74cfd482d05ac02b,6685aa9113c938e83b4f1ea0,66feb53c4d1fc209707b58a4,2024-10-03_11h17.10.016,WTP_SM_Choice,2022.2.1,MacIntel,58.82352941,,,,,,,,,,,,,,,,,,45,,,,,,,,,,0.05,1,4.5724,0,4,4,4,1,read a book when it is rainy,Play board games with my family,0.05,0.04,4.4,1,,,,
,,6111216b74cfd482d05ac02b,6685aa9113c938e83b4f1ea0,66feb53c4d1fc209707b58a4,2024-10-03_11h17.10.016,WTP_SM_Choice,2022.2.1,MacIntel,58.82352941,,,,,,,NAN,,NAN,1.37,4.63,,0,44,44,44,1,45,Alex,Rej,Participant_Images/6111216b74cfd482d05ac02b/6111216b74cfd482d05ac02b_Images/6111216b74cfd482d05ac02b_Image_21.jpeg,liked,2.642157193,,,,,,,,,,,,,,,,,,,,,,
,,6111216b74cfd482d05ac02b,6685aa9113c938e83b4f1ea0,66feb53c4d1fc209707b58a4,2024-10-03_11h17.10.016,WTP_SM_Choice,2022.2.1,MacIntel,58.82352941,,,,,space,1.6001,NAN,,NAN,1.37,4.63,,0,45,45,45,1,46,Alex,Rej,Participant_Images/6111216b74cfd482d05ac02b/6111216b74cfd482d05ac02b_Images/6111216b74cfd482d05ac02b_Image_3.jpeg,did not like,4.456234322,,,,,,,,,,,,,,,,,,,,,,
,,6111216b74cfd482d05ac02b,6685aa9113c938e83b4f1ea0,66feb53c4d1fc209707b58a4,2024-10-03_11h17.10.016,WTP_SM_Choice,2022.2.1,MacIntel,58.82352941,,,,,space,4.6999,NAN,,NAN,1.37,4.63,,0,46,46,46,1,47,Alex,Rej,Participant_Images/6111216b74cfd482d05ac02b/6111216b74cfd482d05ac02b_Images/6111216b74cfd482d05ac02b_Image_19.jpeg,liked,4.438512181,,,,,,,,,,,,,,,,,,,,,,
,,6111216b74cfd482d05ac02b,6685aa9113c938e83b4f1ea0,66feb53c4d1fc209707b58a4,2024-10-03_11h17.10.016,WTP_SM_Choice,2022.2.1,MacIntel,58.82352941,,,,,space,0.886,NAN,,NAN,1.37,4.63,,0,47,47,47,1,48,Alex,Rej,Participant_Images/6111216b74cfd482d05ac02b/6111216b74cfd482d05ac02b_Images/6111216b74cfd482d05ac02b_Image_17.jpeg,did not like,2.682944783,,,,,,,,,,,,,,,,,,,,,,
,,6111216b74cfd482d05ac02b,6685aa9113c938e83b4f1ea0,66feb53c4d1fc209707b58a4,2024-10-03_11h17.10.016,WTP_SM_Choice,2022.2.1,MacIntel,58.82352941,,,,,space,1.5298,NAN,,NAN,1.37,4.63,,0,48,48,48,1,49,Alex,Rej,Participant_Images/6111216b74cfd482d05ac02b/6111216b74cfd482d05ac02b_Images/6111216b74cfd482d05ac02b_Image_2.jpeg,liked,4.51984296,,,,,,,,,,,,,,,,,,,,,,
,,6111216b74cfd482d05ac02b,6685aa9113c938e83b4f1ea0,66feb53c4d1fc209707b58a4,2024-10-03_11h17.10.016,WTP_SM_Choice,2022.2.1,MacIntel,58.82352941,,,,,,,,,,,,,,,,,,46,,,,,,space,1.0136,space,0.4855,0.05,2,0.7908,0,0,0,0,1,Bake cookies with my mom ,Eat candy on a lazy day,0.01,0.05,8.8,0,,,,
,,6111216b74cfd482d05ac02b,6685aa9113c938e83b4f1ea0,66feb53c4d1fc209707b58a4,2024-10-03_11h17.10.016,WTP_SM_Choice,2022.2.1,MacIntel,58.82352941,,,,,,,,,,,,,,,,,,47,,,,,,,,,,0.02,1,0.9957,0,1,1,1,1,bake on a sunny day,Play wii sports with my fiance,0.02,0.05,1.1,1,,,,
,,6111216b74cfd482d05ac02b,6685aa9113c938e83b4f1ea0,66feb53c4d1fc209707b58a4,2024-10-03_11h17.10.016,WTP_SM_Choice,2022.2.1,MacIntel,58.82352941,,,,,,,,,,,,,,,,,,48,,,,,,,,,,0.03,1,1.0889,0,2,2,2,1,Watch a youtube video with a good snack,Play video games with my brothers,0.03,0.05,4.4,1,,,,
,,6111216b74cfd482d05ac02b,6685aa9113c938e83b4f1ea0,66feb53c4d1fc209707b58a4,2024-10-03_11h17.10.016,WTP_SM_Choice,2022.2.1,MacIntel,58.82352941,,,,,,,,,,,,,,,,,,49,,,,,,,,,,0.04,1,1.139,0,3,3,3,1,go to five below in a new city,Watch a movie with my fiance,0.04,0.05,3.3,1,,,,
,,6111216b74cfd482d05ac02b,6685aa9113c938e83b4f1ea0,66feb53c4d1fc209707b58a4,2024-10-03_11h17.10.016,WTP_SM_Choice,2022.2.1,MacIntel,58.82352941,,,,,,,,,,,,,,,,,,50,,,,,,,,,,0.05,1,1.055,0,4,4,4,1,Eat candy on a lazy day,Go to the store with my fiance ,0.05,0.05,1.1,1,,,,
,,6111216b74cfd482d05ac02b,6685aa9113c938e83b4f1ea0,66feb53c4d1fc209707b58a4,2024-10-03_11h17.10.016,WTP_SM_Choice,2022.2.1,MacIntel,58.82352941,,,,,,,1,,4,1.56,4.44,,0,49,49,49,1,50,Alex,Rej,Participant_Images/6111216b74cfd482d05ac02b/6111216b74cfd482d05ac02b_Images/6111216b74cfd482d05ac02b_Image_20.jpeg,did not like,3.195382774,,,,,,,,,,,,,,,,,,,space,1.5343,,
,,6111216b74cfd482d05ac02b,6685aa9113c938e83b4f1ea0,66feb53c4d1fc209707b58a4,2024-10-03_11h17.10.016,WTP_SM_Choice,2022.2.1,MacIntel,58.82352941,,,space,1.2526,space,0.9353,NAN,,NAN,1.56,4.44,,0,50,50,50,1,51,Riley,Rej,Participant_Images/6111216b74cfd482d05ac02b/6111216b74cfd482d05ac02b_Images/6111216b74cfd482d05ac02b_Image_6.jpeg,liked,1.779333479,,,,,,,,,,,,,,,,,,,,,,
,,6111216b74cfd482d05ac02b,6685aa9113c938e83b4f1ea0,66feb53c4d1fc209707b58a4,2024-10-03_11h17.10.016,WTP_SM_Choice,2022.2.1,MacIntel,58.82352941,,,,,space,6.5521,NAN,,NAN,1.56,4.44,,0,51,51,51,1,52,Riley,Rej,Participant_Images/6111216b74cfd482d05ac02b/6111216b74cfd482d05ac02b_Images/6111216b74cfd482d05ac02b_Image_19.jpeg,did not like,4.312468682,,,,,,,,,,,,,,,,,,,,,,
,,6111216b74cfd482d05ac02b,6685aa9113c938e83b4f1ea0,66feb53c4d1fc209707b58a4,2024-10-03_11h17.10.016,WTP_SM_Choice,2022.2.1,MacIntel,58.82352941,,,,,space,0.7845,NAN,,NAN,1.56,4.44,,0,52,52,52,1,53,Riley,Rej,Participant_Images/6111216b74cfd482d05ac02b/6111216b74cfd482d05ac02b_Images/6111216b74cfd482d05ac02b_Image_15.jpeg,did not like,4.940433059,,,,,,,,,,,,,,,,,,,,,,
,,6111216b74cfd482d05ac02b,6685aa9113c938e83b4f1ea0,66feb53c4d1fc209707b58a4,2024-10-03_11h17.10.016,WTP_SM_Choice,2022.2.1,MacIntel,58.82352941,,,,,space,0.9153,NAN,,NAN,1.56,4.44,,0,53,53,53,1,54,Riley,Rej,Participant_Images/6111216b74cfd482d05ac02b/6111216b74cfd482d05ac02b_Images/6111216b74cfd482d05ac02b_Image_10.jpeg,liked,2.7105123,,,,,,,,,,,,,,,,,,,,,,
,,6111216b74cfd482d05ac02b,6685aa9113c938e83b4f1ea0,66feb53c4d1fc209707b58a4,2024-10-03_11h17.10.016,WTP_SM_Choice,2022.2.1,MacIntel,58.82352941,,,,,,,,,,,,,,,,,,51,,,,,,space,2.412,space,2.3854,0.01,1,0.7405,0,0,0,0,1,go for a walk on a sunny day,Play wii sports with my fiance,0.01,0.01,1.1,1,,,,
,,6111216b74cfd482d05ac02b,6685aa9113c938e83b4f1ea0,66feb53c4d1fc209707b58a4,2024-10-03_11h17.10.016,WTP_SM_Choice,2022.2.1,MacIntel,58.82352941,,,,,,,,,,,,,,,,,,52,,,,,,,,,,0.02,1,2.5905,0,1,1,1,1,make pancakes on tuesday morning,Go to the waterpark with my family,0.02,0.01,3.3,1,,,,
,,6111216b74cfd482d05ac02b,6685aa9113c938e83b4f1ea0,66feb53c4d1fc209707b58a4,2024-10-03_11h17.10.016,WTP_SM_Choice,2022.2.1,MacIntel,58.82352941,,,,,,,,,,,,,,,,,,53,,,,,,,,,,0.01,2,0.9544,0,2,2,2,1,Go to the movies with my family,listen to music alone in my bedroom ,0.03,0.01,1.1,0,,,,
,,6111216b74cfd482d05ac02b,6685aa9113c938e83b4f1ea0,66feb53c4d1fc209707b58a4,2024-10-03_11h17.10.016,WTP_SM_Choice,2022.2.1,MacIntel,58.82352941,,,,,,,,,,,,,,,,,,54,,,,,,,,,,0.04,1,0.8901,0,3,3,3,1,read a book when it is rainy,Play video games with my brothers,0.04,0.01,4.4,1,,,,
,,6111216b74cfd482d05ac02b,6685aa9113c938e83b4f1ea0,66feb53c4d1fc209707b58a4,2024-10-03_11h17.10.016,WTP_SM_Choice,2022.2.1,MacIntel,58.82352941,,,,,,,,,,,,,,,,,,55,,,,,,,,,,0.05,1,1.1409,0,4,4,4,1,Make popcorn on a friday night,Play board games with my family,0.05,0.01,1.1,1,,,,
,,6111216b74cfd482d05ac02b,6685aa9113c938e83b4f1ea0,66feb53c4d1fc209707b58a4,2024-10-03_11h17.10.016,WTP_SM_Choice,2022.2.1,MacIntel,58.82352941,,,,,,,NAN,,NAN,1.69,4.31,,0,54,54,54,1,55,Riley,Rej,Participant_Images/6111216b74cfd482d05ac02b/6111216b74cfd482d05ac02b_Images/6111216b74cfd482d05ac02b_Image_16.jpeg,did not like,3.602308302,,,,,,,,,,,,,,,,,,,,,,
,,6111216b74cfd482d05ac02b,6685aa9113c938e83b4f1ea0,66feb53c4d1fc209707b58a4,2024-10-03_11h17.10.016,WTP_SM_Choice,2022.2.1,MacIntel,58.82352941,,,,,space,1.3831,NAN,,NAN,1.69,4.31,,0,55,55,55,1,56,Riley,Rej,Participant_Images/6111216b74cfd482d05ac02b/6111216b74cfd482d05ac02b_Images/6111216b74cfd482d05ac02b_Image_9.jpeg,did not like,4.106391878,,,,,,,,,,,,,,,,,,,,,,
,,6111216b74cfd482d05ac02b,6685aa9113c938e83b4f1ea0,66feb53c4d1fc209707b58a4,2024-10-03_11h17.10.016,WTP_SM_Choice,2022.2.1,MacIntel,58.82352941,,,,,space,0.3335,NAN,,NAN,1.69,4.31,,0,56,56,56,1,57,Riley,Rej,Participant_Images/6111216b74cfd482d05ac02b/6111216b74cfd482d05ac02b_Images/6111216b74cfd482d05ac02b_Image_21.jpeg,did not like,3.799433026,,,,,,,,,,,,,,,,,,,,,,
,,6111216b74cfd482d05ac02b,6685aa9113c938e83b4f1ea0,66feb53c4d1fc209707b58a4,2024-10-03_11h17.10.016,WTP_SM_Choice,2022.2.1,MacIntel,58.82352941,,,,,space,1.0182,NAN,,NAN,1.69,4.31,,0,57,57,57,1,58,Riley,Rej,Participant_Images/6111216b74cfd482d05ac02b/6111216b74cfd482d05ac02b_Images/6111216b74cfd482d05ac02b_Image_12.jpeg,did not like,5.246980764,,,,,,,,,,,,,,,,,,,,,,
,,6111216b74cfd482d05ac02b,6685aa9113c938e83b4f1ea0,66feb53c4d1fc209707b58a4,2024-10-03_11h17.10.016,WTP_SM_Choice,2022.2.1,MacIntel,58.82352941,,,,,space,1.2522,NAN,,NAN,1.69,4.31,,0,58,58,58,1,59,Riley,Rej,Participant_Images/6111216b74cfd482d05ac02b/6111216b74cfd482d05ac02b_Images/6111216b74cfd482d05ac02b_Image_13.jpeg,did not like,3.30081769,,,,,,,,,,,,,,,,,,,,,,
,,6111216b74cfd482d05ac02b,6685aa9113c938e83b4f1ea0,66feb53c4d1fc209707b58a4,2024-10-03_11h17.10.016,WTP_SM_Choice,2022.2.1,MacIntel,58.82352941,,,,,,,,,,,,,,,,,,56,,,,,,space,1.413,space,0.2521,0.02,2,1.624,0,0,0,0,1,Play wii sports with my fiance,read a book when it is rainy,0.01,0.02,8.8,0,,,,
,,6111216b74cfd482d05ac02b,6685aa9113c938e83b4f1ea0,66feb53c4d1fc209707b58a4,2024-10-03_11h17.10.016,WTP_SM_Choice,2022.2.1,MacIntel,58.82352941,,,,,,,,,,,,,,,,,,57,,,,,,,,,,0.02,2,1.5584,0,1,1,1,1,Go to the movies with my family,Go to target to browse on a lazy day,0.02,0.02,4.4,0,,,,
,,6111216b74cfd482d05ac02b,6685aa9113c938e83b4f1ea0,66feb53c4d1fc209707b58a4,2024-10-03_11h17.10.016,WTP_SM_Choice,2022.2.1,MacIntel,58.82352941,,,,,,,,,,,,,,,,,,58,,,,,,,,,,0.02,2,1.9071,0,2,2,2,1,Bake cookies with my mom ,Make popcorn on a friday night,0.03,0.02,4.4,0,,,,
,,6111216b74cfd482d05ac02b,6685aa9113c938e83b4f1ea0,66feb53c4d1fc209707b58a4,2024-10-03_11h17.10.016,WTP_SM_Choice,2022.2.1,MacIntel,58.82352941,,,,,,,,,,,,,,,,,,59,,,,,,,,,,0.02,2,1.4043,0,3,3,3,1,Go shopping with my mom and sister,make pancakes on tuesday morning,0.04,0.02,4.4,0,,,,
,,6111216b74cfd482d05ac02b,6685aa9113c938e83b4f1ea0,66feb53c4d1fc209707b58a4,2024-10-03_11h17.10.016,WTP_SM_Choice,2022.2.1,MacIntel,58.82352941,,,,,,,,,,,,,,,,,,60,,,,,,,,,,0.02,2,1.3552,0,4,4,4,1,Play wii sports with my fiance,Go to target to browse on a lazy day,0.05,0.02,1.1,0,,,,
,,6111216b74cfd482d05ac02b,6685aa9113c938e83b4f1ea0,66feb53c4d1fc209707b58a4,2024-10-03_11h17.10.016,WTP_SM_Choice,2022.2.1,MacIntel,58.82352941,,,,,,,NAN,,NAN,1.79,4.21,,0,59,59,59,1,60,Riley,Rej,Participant_Images/6111216b74cfd482d05ac02b/6111216b74cfd482d05ac02b_Images/6111216b74cfd482d05ac02b_Image_2.jpeg,did not like,1.661473164,,,,,,,,,,,,,,,,,,,,,,
,,6111216b74cfd482d05ac02b,6685aa9113c938e83b4f1ea0,66feb53c4d1fc209707b58a4,2024-10-03_11h17.10.016,WTP_SM_Choice,2022.2.1,MacIntel,58.82352941,,,,,space,2.9501,NAN,,NAN,1.79,4.21,,0,60,60,60,1,61,Riley,Rej,Participant_Images/6111216b74cfd482d05ac02b/6111216b74cfd482d05ac02b_Images/6111216b74cfd482d05ac02b_Image_24.jpeg,liked,3.613205605,,,,,,,,,,,,,,,,,,,,,,
,,6111216b74cfd482d05ac02b,6685aa9113c938e83b4f1ea0,66feb53c4d1fc209707b58a4,2024-10-03_11h17.10.016,WTP_SM_Choice,2022.2.1,MacIntel,58.82352941,,,,,space,5.2818,NAN,,NAN,1.79,4.21,,0,61,61,61,1,62,Riley,Rej,Participant_Images/6111216b74cfd482d05ac02b/6111216b74cfd482d05ac02b_Images/6111216b74cfd482d05ac02b_Image_8.jpeg,liked,4.988446431,,,,,,,,,,,,,,,,,,,,,,
,,6111216b74cfd482d05ac02b,6685aa9113c938e83b4f1ea0,66feb53c4d1fc209707b58a4,2024-10-03_11h17.10.016,WTP_SM_Choice,2022.2.1,MacIntel,58.82352941,,,,,space,1.0836,NAN,,NAN,1.79,4.21,,0,62,62,62,1,63,Riley,Rej,Participant_Images/6111216b74cfd482d05ac02b/6111216b74cfd482d05ac02b_Images/6111216b74cfd482d05ac02b_Image_17.jpeg,did not like,3.470791822,,,,,,,,,,,,,,,,,,,,,,
,,6111216b74cfd482d05ac02b,6685aa9113c938e83b4f1ea0,66feb53c4d1fc209707b58a4,2024-10-03_11h17.10.016,WTP_SM_Choice,2022.2.1,MacIntel,58.82352941,,,,,space,2.9197,NAN,,NAN,1.79,4.21,,0,63,63,63,1,64,Riley,Rej,Participant_Images/6111216b74cfd482d05ac02b/6111216b74cfd482d05ac02b_Images/6111216b74cfd482d05ac02b_Image_5.jpeg,did not like,3.820572462,,,,,,,,,,,,,,,,,,,,,,
,,6111216b74cfd482d05ac02b,6685aa9113c938e83b4f1ea0,66feb53c4d1fc209707b58a4,2024-10-03_11h17.10.016,WTP_SM_Choice,2022.2.1,MacIntel,58.82352941,,,,,,,,,,,,,,,,,,61,,,,,,space,0.8277,space,0.1655,0.01,1,1.1591,0,0,0,0,1,bake on a sunny day,Go shopping with my mom and sister,0.01,0.03,3.3,1,,,,
,,6111216b74cfd482d05ac02b,6685aa9113c938e83b4f1ea0,66feb53c4d1fc209707b58a4,2024-10-03_11h17.10.016,WTP_SM_Choice,2022.2.1,MacIntel,58.82352941,,,,,,,,,,,,,,,,,,62,,,,,,,,,,0.03,2,1.1226,0,1,1,1,1,Bake cookies with my mom ,bake on a sunny day,0.02,0.03,3.3,0,,,,
,,6111216b74cfd482d05ac02b,6685aa9113c938e83b4f1ea0,66feb53c4d1fc209707b58a4,2024-10-03_11h17.10.016,WTP_SM_Choice,2022.2.1,MacIntel,58.82352941,,,,,,,,,,,,,,,,,,63,,,,,,,,,,0.03,2,1.2748,0,2,2,2,1,Play board games with my family,Go to target to browse on a lazy day,0.03,0.03,3.3,0,,,,
,,6111216b74cfd482d05ac02b,6685aa9113c938e83b4f1ea0,66feb53c4d1fc209707b58a4,2024-10-03_11h17.10.016,WTP_SM_Choice,2022.2.1,MacIntel,58.82352941,,,,,,,,,,,,,,,,,,64,,,,,,,,,,0.04,1,0.9394,0,3,3,3,1,Watch a youtube video with a good snack,Bake cookies with my mom ,0.04,0.03,1.1,1,,,,
,,6111216b74cfd482d05ac02b,6685aa9113c938e83b4f1ea0,66feb53c4d1fc209707b58a4,2024-10-03_11h17.10.016,WTP_SM_Choice,2022.2.1,MacIntel,58.82352941,,,,,,,,,,,,,,,,,,65,,,,,,,,,,0.03,2,1.2564,0,4,4,4,1,Go for a walk with my fiance,bake on a sunny day,0.05,0.03,1.1,0,,,,
,,6111216b74cfd482d05ac02b,6685aa9113c938e83b4f1ea0,66feb53c4d1fc209707b58a4,2024-10-03_11h17.10.016,WTP_SM_Choice,2022.2.1,MacIntel,58.82352941,,,,,,,NAN,,NAN,1.93,4.07,,0,64,64,64,1,65,Riley,Rej,Participant_Images/6111216b74cfd482d05ac02b/6111216b74cfd482d05ac02b_Images/6111216b74cfd482d05ac02b_Image_23.jpeg,liked,2.455989137,,,,,,,,,,,,,,,,,,,,,,
,,6111216b74cfd482d05ac02b,6685aa9113c938e83b4f1ea0,66feb53c4d1fc209707b58a4,2024-10-03_11h17.10.016,WTP_SM_Choice,2022.2.1,MacIntel,58.82352941,,,,,space,2.7829,NAN,,NAN,1.93,4.07,,0,65,65,65,1,66,Riley,Rej,Participant_Images/6111216b74cfd482d05ac02b/6111216b74cfd482d05ac02b_Images/6111216b74cfd482d05ac02b_Image_4.jpeg,did not like,3.79605092,,,,,,,,,,,,,,,,,,,,,,
,,6111216b74cfd482d05ac02b,6685aa9113c938e83b4f1ea0,66feb53c4d1fc209707b58a4,2024-10-03_11h17.10.016,WTP_SM_Choice,2022.2.1,MacIntel,58.82352941,,,,,space,0.6502,NAN,,NAN,1.93,4.07,,0,66,66,66,1,67,Riley,Rej,Participant_Images/6111216b74cfd482d05ac02b/6111216b74cfd482d05ac02b_Images/6111216b74cfd482d05ac02b_Image_22.jpeg,did not like,3.562416326,,,,,,,,,,,,,,,,,,,,,,
,,6111216b74cfd482d05ac02b,6685aa9113c938e83b4f1ea0,66feb53c4d1fc209707b58a4,2024-10-03_11h17.10.016,WTP_SM_Choice,2022.2.1,MacIntel,58.82352941,,,,,space,1.4186,NAN,,NAN,1.93,4.07,,0,67,67,67,1,68,Riley,Rej,Participant_Images/6111216b74cfd482d05ac02b/6111216b74cfd482d05ac02b_Images/6111216b74cfd482d05ac02b_Image_1.jpeg,did not like,2.843822497,,,,,,,,,,,,,,,,,,,,,,
,,6111216b74cfd482d05ac02b,6685aa9113c938e83b4f1ea0,66feb53c4d1fc209707b58a4,2024-10-03_11h17.10.016,WTP_SM_Choice,2022.2.1,MacIntel,58.82352941,,,,,space,0.4279,NAN,,NAN,1.93,4.07,,0,68,68,68,1,69,Riley,Rej,Participant_Images/6111216b74cfd482d05ac02b/6111216b74cfd482d05ac02b_Images/6111216b74cfd482d05ac02b_Image_11.jpeg,did not like,3.546495948,,,,,,,,,,,,,,,,,,,,,,
,,6111216b74cfd482d05ac02b,6685aa9113c938e83b4f1ea0,66feb53c4d1fc209707b58a4,2024-10-03_11h17.10.016,WTP_SM_Choice,2022.2.1,MacIntel,58.82352941,,,,,,,,,,,,,,,,,,66,,,,,,space,11.0138,space,0.1011,0.01,1,1.1228,0,0,0,0,1,Make popcorn on a friday night,Play video games with my brothers,0.01,0.04,1.1,1,,,,
,,6111216b74cfd482d05ac02b,6685aa9113c938e83b4f1ea0,66feb53c4d1fc209707b58a4,2024-10-03_11h17.10.016,WTP_SM_Choice,2022.2.1,MacIntel,58.82352941,,,,,,,,,,,,,,,,,,67,,,,,,,,,,0.02,1,1.1579,0,1,1,1,1,go to five below in a new city,Go to the store with my fiance ,0.02,0.04,8.8,1,,,,
,,6111216b74cfd482d05ac02b,6685aa9113c938e83b4f1ea0,66feb53c4d1fc209707b58a4,2024-10-03_11h17.10.016,WTP_SM_Choice,2022.2.1,MacIntel,58.82352941,,,,,,,,,,,,,,,,,,68,,,,,,,,,,0.04,2,1.0523,0,2,2,2,1,Go for a walk with my fiance,listen to music alone in my bedroom ,0.03,0.04,4.4,0,,,,
,,6111216b74cfd482d05ac02b,6685aa9113c938e83b4f1ea0,66feb53c4d1fc209707b58a4,2024-10-03_11h17.10.016,WTP_SM_Choice,2022.2.1,MacIntel,58.82352941,,,,,,,,,,,,,,,,,,69,,,,,,,,,,0.04,2,0.8549,0,3,3,3,1,Play board games with my family,go to five below in a new city,0.04,0.04,1.1,0,,,,
,,6111216b74cfd482d05ac02b,6685aa9113c938e83b4f1ea0,66feb53c4d1fc209707b58a4,2024-10-03_11h17.10.016,WTP_SM_Choice,2022.2.1,MacIntel,58.82352941,,,,,,,,,,,,,,,,,,70,,,,,,,,,,0.04,2,3.8067,0,4,4,4,1,Play wii sports with my fiance,make pancakes on tuesday morning,0.05,0.04,1.1,0,,,,
,,6111216b74cfd482d05ac02b,6685aa9113c938e83b4f1ea0,66feb53c4d1fc209707b58a4,2024-10-03_11h17.10.016,WTP_SM_Choice,2022.2.1,MacIntel,58.82352941,,,,,,,NAN,,NAN,2.08,3.92,,0,69,69,69,1,70,Riley,Rej,Participant_Images/6111216b74cfd482d05ac02b/6111216b74cfd482d05ac02b_Images/6111216b74cfd482d05ac02b_Image_14.jpeg,did not like,1.672012706,,,,,,,,,,,,,,,,,,,,,,
,,6111216b74cfd482d05ac02b,6685aa9113c938e83b4f1ea0,66feb53c4d1fc209707b58a4,2024-10-03_11h17.10.016,WTP_SM_Choice,2022.2.1,MacIntel,58.82352941,,,,,space,1.3005,NAN,,NAN,2.08,3.92,,0,70,70,70,1,71,Riley,Rej,Participant_Images/6111216b74cfd482d05ac02b/6111216b74cfd482d05ac02b_Images/6111216b74cfd482d05ac02b_Image_20.jpeg,did not like,4.942172136,,,,,,,,,,,,,,,,,,,,,,
,,6111216b74cfd482d05ac02b,6685aa9113c938e83b4f1ea0,66feb53c4d1fc209707b58a4,2024-10-03_11h17.10.016,WTP_SM_Choice,2022.2.1,MacIntel,58.82352941,,,,,space,0.9663,NAN,,NAN,2.08,3.92,,0,71,71,71,1,72,Riley,Rej,Participant_Images/6111216b74cfd482d05ac02b/6111216b74cfd482d05ac02b_Images/6111216b74cfd482d05ac02b_Image_25.jpeg,did not like,2.50187214,,,,,,,,,,,,,,,,,,,,,,
,,6111216b74cfd482d05ac02b,6685aa9113c938e83b4f1ea0,66feb53c4d1fc209707b58a4,2024-10-03_11h17.10.016,WTP_SM_Choice,2022.2.1,MacIntel,58.82352941,,,,,space,0.6213,NAN,,NAN,2.08,3.92,,0,72,72,72,1,73,Riley,Rej,Participant_Images/6111216b74cfd482d05ac02b/6111216b74cfd482d05ac02b_Images/6111216b74cfd482d05ac02b_Image_3.jpeg,did not like,2.071164779,,,,,,,,,,,,,,,,,,,,,,
,,6111216b74cfd482d05ac02b,6685aa9113c938e83b4f1ea0,66feb53c4d1fc209707b58a4,2024-10-03_11h17.10.016,WTP_SM_Choice,2022.2.1,MacIntel,58.82352941,,,,,space,0.6625,NAN,,NAN,2.08,3.92,,0,73,73,73,1,74,Riley,Rej,Participant_Images/6111216b74cfd482d05ac02b/6111216b74cfd482d05ac02b_Images/6111216b74cfd482d05ac02b_Image_18.jpeg,liked,5.336503566,,,,,,,,,,,,,,,,,,,,,,
,,6111216b74cfd482d05ac02b,6685aa9113c938e83b4f1ea0,66feb53c4d1fc209707b58a4,2024-10-03_11h17.10.016,WTP_SM_Choice,2022.2.1,MacIntel,58.82352941,,,,,,,,,,,,,,,,,,71,,,,,,space,1.4455,space,0.0836,0.05,2,1.3022,0,0,0,0,1,Go to the waterpark with my family,listen to music alone in my bedroom ,0.01,0.05,3.3,0,,,,
,,6111216b74cfd482d05ac02b,6685aa9113c938e83b4f1ea0,66feb53c4d1fc209707b58a4,2024-10-03_11h17.10.016,WTP_SM_Choice,2022.2.1,MacIntel,58.82352941,,,,,,,,,,,,,,,,,,72,,,,,,,,,,0.02,1,1.5054,0,1,1,1,1,go to five below in a new city,Go shopping with my mom and sister,0.02,0.05,8.8,1,,,,
,,6111216b74cfd482d05ac02b,6685aa9113c938e83b4f1ea0,66feb53c4d1fc209707b58a4,2024-10-03_11h17.10.016,WTP_SM_Choice,2022.2.1,MacIntel,58.82352941,,,,,,,,,,,,,,,,,,73,,,,,,,,,,0.03,1,1.126,0,2,2,2,1,go to five below in a new city,Bake cookies with my mom ,0.03,0.05,3.3,1,,,,
,,6111216b74cfd482d05ac02b,6685aa9113c938e83b4f1ea0,66feb53c4d1fc209707b58a4,2024-10-03_11h17.10.016,WTP_SM_Choice,2022.2.1,MacIntel,58.82352941,,,,,,,,,,,,,,,,,,74,,,,,,,,,,0.04,1,0.7564,0,3,3,3,1,bake on a sunny day,Watch a movie with my fiance,0.04,0.05,4.4,1,,,,
,,6111216b74cfd482d05ac02b,6685aa9113c938e83b4f1ea0,66feb53c4d1fc209707b58a4,2024-10-03_11h17.10.016,WTP_SM_Choice,2022.2.1,MacIntel,58.82352941,,,,,,,,,,,,,,,,,,75,,,,,,,,,,0.05,1,1.7064,0,4,4,4,1,Watch a youtube video with a good snack,Go to the movies with my family,0.05,0.05,3.3,1,,,,
,,6111216b74cfd482d05ac02b,6685aa9113c938e83b4f1ea0,66feb53c4d1fc209707b58a4,2024-10-03_11h17.10.016,WTP_SM_Choice,2022.2.1,MacIntel,58.82352941,,,,,,,1,,3,2.27,3.73,,0,74,74,74,1,75,Riley,Rej,Participant_Images/6111216b74cfd482d05ac02b/6111216b74cfd482d05ac02b_Images/6111216b74cfd482d05ac02b_Image_7.jpeg,liked,2.642157193,,,,,,,,,,,,,,,,,,,space,0.8995,,
,,6111216b74cfd482d05ac02b,6685aa9113c938e83b4f1ea0,66feb53c4d1fc209707b58a4,2024-10-03_11h17.10.016,WTP_SM_Choice,2022.2.1,MacIntel,58.82352941,,,space,1.2606,space,3.1658,NAN,,NAN,2.27,3.73,,0,75,75,75,1,76,Sam,Acc,Participant_Images/6111216b74cfd482d05ac02b/6111216b74cfd482d05ac02b_Images/6111216b74cfd482d05ac02b_Image_1.jpeg,liked,4.456234322,,,,,,,,,,,,,,,,,,,,,,
,,6111216b74cfd482d05ac02b,6685aa9113c938e83b4f1ea0,66feb53c4d1fc209707b58a4,2024-10-03_11h17.10.016,WTP_SM_Choice,2022.2.1,MacIntel,58.82352941,,,,,space,0.3673,NAN,,NAN,2.27,3.73,,0,76,76,76,1,77,Sam,Acc,Participant_Images/6111216b74cfd482d05ac02b/6111216b74cfd482d05ac02b_Images/6111216b74cfd482d05ac02b_Image_24.jpeg,did not like,4.438512181,,,,,,,,,,,,,,,,,,,,,,
,,6111216b74cfd482d05ac02b,6685aa9113c938e83b4f1ea0,66feb53c4d1fc209707b58a4,2024-10-03_11h17.10.016,WTP_SM_Choice,2022.2.1,MacIntel,58.82352941,,,,,space,0.4324,NAN,,NAN,2.27,3.73,,0,77,77,77,1,78,Sam,Acc,Participant_Images/6111216b74cfd482d05ac02b/6111216b74cfd482d05ac02b_Images/6111216b74cfd482d05ac02b_Image_16.jpeg,liked,2.682944783,,,,,,,,,,,,,,,,,,,,,,
,,6111216b74cfd482d05ac02b,6685aa9113c938e83b4f1ea0,66feb53c4d1fc209707b58a4,2024-10-03_11h17.10.016,WTP_SM_Choice,2022.2.1,MacIntel,58.82352941,,,,,space,0.9837,NAN,,NAN,2.27,3.73,,0,78,78,78,1,79,Sam,Acc,Participant_Images/6111216b74cfd482d05ac02b/6111216b74cfd482d05ac02b_Images/6111216b74cfd482d05ac02b_Image_17.jpeg,liked,4.51984296,,,,,,,,,,,,,,,,,,,,,,
,,6111216b74cfd482d05ac02b,6685aa9113c938e83b4f1ea0,66feb53c4d1fc209707b58a4,2024-10-03_11h17.10.016,WTP_SM_Choice,2022.2.1,MacIntel,58.82352941,,,,,,,,,,,,,,,,,,76,,,,,,space,1.1115,space,0.1173,0.01,2,1.9367,0,0,0,0,1,Go to the store with my fiance ,make pancakes on tuesday morning,0.01,0.01,1.1,0,,,,
,,6111216b74cfd482d05ac02b,6685aa9113c938e83b4f1ea0,66feb53c4d1fc209707b58a4,2024-10-03_11h17.10.016,WTP_SM_Choice,2022.2.1,MacIntel,58.82352941,,,,,,,,,,,,,,,,,,77,,,,,,,,,,0.01,2,2.5216,0,1,1,1,1,Play board games with my family,listen to music alone in my bedroom ,0.02,0.01,8.8,0,,,,
,,6111216b74cfd482d05ac02b,6685aa9113c938e83b4f1ea0,66feb53c4d1fc209707b58a4,2024-10-03_11h17.10.016,WTP_SM_Choice,2022.2.1,MacIntel,58.82352941,,,,,,,,,,,,,,,,,,78,,,,,,,,,,0.03,1,1.12,0,2,2,2,1,listen to music alone in my bedroom ,Bake cookies with my mom ,0.03,0.01,1.1,1,,,,
,,6111216b74cfd482d05ac02b,6685aa9113c938e83b4f1ea0,66feb53c4d1fc209707b58a4,2024-10-03_11h17.10.016,WTP_SM_Choice,2022.2.1,MacIntel,58.82352941,,,,,,,,,,,,,,,,,,79,,,,,,,,,,0.04,1,3.1396,0,3,3,3,1,Make popcorn on a friday night,Go shopping with my mom and sister,0.04,0.01,1.1,1,,,,
,,6111216b74cfd482d05ac02b,6685aa9113c938e83b4f1ea0,66feb53c4d1fc209707b58a4,2024-10-03_11h17.10.016,WTP_SM_Choice,2022.2.1,MacIntel,58.82352941,,,,,,,,,,,,,,,,,,80,,,,,,,,,,0.05,1,2.29,0,4,4,4,1,Make popcorn on a friday night,Go to the store with my fiance ,0.05,0.01,4.4,1,,,,
,,6111216b74cfd482d05ac02b,6685aa9113c938e83b4f1ea0,66feb53c4d1fc209707b58a4,2024-10-03_11h17.10.016,WTP_SM_Choice,2022.2.1,MacIntel,58.82352941,,,,,,,NAN,,NAN,2.41,3.59,,0,79,79,79,1,80,Sam,Acc,Participant_Images/6111216b74cfd482d05ac02b/6111216b74cfd482d05ac02b_Images/6111216b74cfd482d05ac02b_Image_22.jpeg,liked,3.195382774,,,,,,,,,,,,,,,,,,,,,,
,,6111216b74cfd482d05ac02b,6685aa9113c938e83b4f1ea0,66feb53c4d1fc209707b58a4,2024-10-03_11h17.10.016,WTP_SM_Choice,2022.2.1,MacIntel,58.82352941,,,,,space,0.4496,NAN,,NAN,2.41,3.59,,0,80,80,80,1,81,Sam,Acc,Participant_Images/6111216b74cfd482d05ac02b/6111216b74cfd482d05ac02b_Images/6111216b74cfd482d05ac02b_Image_13.jpeg,did not like,1.779333479,,,,,,,,,,,,,,,,,,,,,,
,,6111216b74cfd482d05ac02b,6685aa9113c938e83b4f1ea0,66feb53c4d1fc209707b58a4,2024-10-03_11h17.10.016,WTP_SM_Choice,2022.2.1,MacIntel,58.82352941,,,,,space,0.8509,NAN,,NAN,2.41,3.59,,0,81,81,81,1,82,Sam,Acc,Participant_Images/6111216b74cfd482d05ac02b/6111216b74cfd482d05ac02b_Images/6111216b74cfd482d05ac02b_Image_4.jpeg,did not like,4.312468682,,,,,,,,,,,,,,,,,,,,,,
,,6111216b74cfd482d05ac02b,6685aa9113c938e83b4f1ea0,66feb53c4d1fc209707b58a4,2024-10-03_11h17.10.016,WTP_SM_Choice,2022.2.1,MacIntel,58.82352941,,,,,space,1.6824,NAN,,NAN,2.41,3.59,,0,82,82,82,1,83,Sam,Acc,Participant_Images/6111216b74cfd482d05ac02b/6111216b74cfd482d05ac02b_Images/6111216b74cfd482d05ac02b_Image_9.jpeg,liked,4.940433059,,,,,,,,,,,,,,,,,,,,,,
,,6111216b74cfd482d05ac02b,6685aa9113c938e83b4f1ea0,66feb53c4d1fc209707b58a4,2024-10-03_11h17.10.016,WTP_SM_Choice,2022.2.1,MacIntel,58.82352941,,,,,space,2.3178,NAN,,NAN,2.41,3.59,,0,83,83,83,1,84,Sam,Acc,Participant_Images/6111216b74cfd482d05ac02b/6111216b74cfd482d05ac02b_Images/6111216b74cfd482d05ac02b_Image_3.jpeg,liked,2.7105123,,,,,,,,,,,,,,,,,,,,,,
,,6111216b74cfd482d05ac02b,6685aa9113c938e83b4f1ea0,66feb53c4d1fc209707b58a4,2024-10-03_11h17.10.016,WTP_SM_Choice,2022.2.1,MacIntel,58.82352941,,,,,,,,,,,,,,,,,,81,,,,,,space,0.898,space,0.1,0.02,2,1.7733,0,0,0,0,1,Play board games with my family,make pancakes on tuesday morning,0.01,0.02,3.3,0,,,,
,,6111216b74cfd482d05ac02b,6685aa9113c938e83b4f1ea0,66feb53c4d1fc209707b58a4,2024-10-03_11h17.10.016,WTP_SM_Choice,2022.2.1,MacIntel,58.82352941,,,,,,,,,,,,,,,,,,82,,,,,,,,,,0.02,1,0.8232,0,1,1,1,1,go for a walk on a sunny day,Play board games with my family,0.02,0.02,4.4,1,,,,
,,6111216b74cfd482d05ac02b,6685aa9113c938e83b4f1ea0,66feb53c4d1fc209707b58a4,2024-10-03_11h17.10.016,WTP_SM_Choice,2022.2.1,MacIntel,58.82352941,,,,,,,,,,,,,,,,,,83,,,,,,,,,,0.02,2,1.9735,0,2,2,2,1,Watch a movie with my fiance,go for a walk on a sunny day,0.03,0.02,1.1,0,,,,
,,6111216b74cfd482d05ac02b,6685aa9113c938e83b4f1ea0,66feb53c4d1fc209707b58a4,2024-10-03_11h17.10.016,WTP_SM_Choice,2022.2.1,MacIntel,58.82352941,,,,,,,,,,,,,,,,,,84,,,,,,,,,,0.04,1,2.2935,0,3,3,3,1,Eat candy on a lazy day,Play wii sports with my fiance,0.04,0.02,3.3,1,,,,
,,6111216b74cfd482d05ac02b,6685aa9113c938e83b4f1ea0,66feb53c4d1fc209707b58a4,2024-10-03_11h17.10.016,WTP_SM_Choice,2022.2.1,MacIntel,58.82352941,,,,,,,,,,,,,,,,,,85,,,,,,,,,,0.02,2,1.3724,0,4,4,4,1,Bake cookies with my mom ,go for a walk on a sunny day,0.05,0.02,3.3,0,,,,
,,6111216b74cfd482d05ac02b,6685aa9113c938e83b4f1ea0,66feb53c4d1fc209707b58a4,2024-10-03_11h17.10.016,WTP_SM_Choice,2022.2.1,MacIntel,58.82352941,,,,,,,NAN,,NAN,2.53,3.47,,0,84,84,84,1,85,Sam,Acc,Participant_Images/6111216b74cfd482d05ac02b/6111216b74cfd482d05ac02b_Images/6111216b74cfd482d05ac02b_Image_15.jpeg,did not like,3.602308302,,,,,,,,,,,,,,,,,,,,,,
,,6111216b74cfd482d05ac02b,6685aa9113c938e83b4f1ea0,66feb53c4d1fc209707b58a4,2024-10-03_11h17.10.016,WTP_SM_Choice,2022.2.1,MacIntel,58.82352941,,,,,space,0.7835,NAN,,NAN,2.53,3.47,,0,85,85,85,1,86,Sam,Acc,Participant_Images/6111216b74cfd482d05ac02b/6111216b74cfd482d05ac02b_Images/6111216b74cfd482d05ac02b_Image_18.jpeg,liked,4.106391878,,,,,,,,,,,,,,,,,,,,,,
,,6111216b74cfd482d05ac02b,6685aa9113c938e83b4f1ea0,66feb53c4d1fc209707b58a4,2024-10-03_11h17.10.016,WTP_SM_Choice,2022.2.1,MacIntel,58.82352941,,,,,space,0.98,NAN,,NAN,2.53,3.47,,0,86,86,86,1,87,Sam,Acc,Participant_Images/6111216b74cfd482d05ac02b/6111216b74cfd482d05ac02b_Images/6111216b74cfd482d05ac02b_Image_25.jpeg,liked,3.799433026,,,,,,,,,,,,,,,,,,,,,,
,,6111216b74cfd482d05ac02b,6685aa9113c938e83b4f1ea0,66feb53c4d1fc209707b58a4,2024-10-03_11h17.10.016,WTP_SM_Choice,2022.2.1,MacIntel,58.82352941,,,,,space,1.2347,NAN,,NAN,2.53,3.47,,0,87,87,87,1,88,Sam,Acc,Participant_Images/6111216b74cfd482d05ac02b/6111216b74cfd482d05ac02b_Images/6111216b74cfd482d05ac02b_Image_14.jpeg,did not like,5.246980764,,,,,,,,,,,,,,,,,,,,,,
,,6111216b74cfd482d05ac02b,6685aa9113c938e83b4f1ea0,66feb53c4d1fc209707b58a4,2024-10-03_11h17.10.016,WTP_SM_Choice,2022.2.1,MacIntel,58.82352941,,,,,space,0.6002,NAN,,NAN,2.53,3.47,,0,88,88,88,1,89,Sam,Acc,Participant_Images/6111216b74cfd482d05ac02b/6111216b74cfd482d05ac02b_Images/6111216b74cfd482d05ac02b_Image_8.jpeg,liked,3.30081769,,,,,,,,,,,,,,,,,,,,,,
,,6111216b74cfd482d05ac02b,6685aa9113c938e83b4f1ea0,66feb53c4d1fc209707b58a4,2024-10-03_11h17.10.016,WTP_SM_Choice,2022.2.1,MacIntel,58.82352941,,,,,,,,,,,,,,,,,,86,,,,,,space,0.9292,space,0.1976,0.03,2,0.9831,0,0,0,0,1,Watch a movie with my fiance,read a book when it is rainy,0.01,0.03,1.1,0,,,,
,,6111216b74cfd482d05ac02b,6685aa9113c938e83b4f1ea0,66feb53c4d1fc209707b58a4,2024-10-03_11h17.10.016,WTP_SM_Choice,2022.2.1,MacIntel,58.82352941,,,,,,,,,,,,,,,,,,87,,,,,,,,,,0.02,1,2.5753,0,1,1,1,1,go for a walk on a sunny day,Play video games with my brothers,0.02,0.03,4.4,1,,,,
,,6111216b74cfd482d05ac02b,6685aa9113c938e83b4f1ea0,66feb53c4d1fc209707b58a4,2024-10-03_11h17.10.016,WTP_SM_Choice,2022.2.1,MacIntel,58.82352941,,,,,,,,,,,,,,,,,,88,,,,,,,,,,0.03,1,0.8242,0,2,2,2,1,read a book when it is rainy,Bake cookies with my mom ,0.03,0.03,1.1,1,,,,
,,6111216b74cfd482d05ac02b,6685aa9113c938e83b4f1ea0,66feb53c4d1fc209707b58a4,2024-10-03_11h17.10.016,WTP_SM_Choice,2022.2.1,MacIntel,58.82352941,,,,,,,,,,,,,,,,,,89,,,,,,,,,,0.04,1,2.2082,0,3,3,3,1,bake on a sunny day,Go to the store with my fiance ,0.04,0.03,3.3,1,,,,
,,6111216b74cfd482d05ac02b,6685aa9113c938e83b4f1ea0,66feb53c4d1fc209707b58a4,2024-10-03_11h17.10.016,WTP_SM_Choice,2022.2.1,MacIntel,58.82352941,,,,,,,,,,,,,,,,,,90,,,,,,,,,,0.05,1,1.058,0,4,4,4,1,read a book when it is rainy,Go to the waterpark with my family,0.05,0.03,8.8,1,,,,
,,6111216b74cfd482d05ac02b,6685aa9113c938e83b4f1ea0,66feb53c4d1fc209707b58a4,2024-10-03_11h17.10.016,WTP_SM_Choice,2022.2.1,MacIntel,58.82352941,,,,,,,NAN,,NAN,2.7,3.3,,0,89,89,89,1,90,Sam,Acc,Participant_Images/6111216b74cfd482d05ac02b/6111216b74cfd482d05ac02b_Images/6111216b74cfd482d05ac02b_Image_6.jpeg,liked,1.661473164,,,,,,,,,,,,,,,,,,,,,,
,,6111216b74cfd482d05ac02b,6685aa9113c938e83b4f1ea0,66feb53c4d1fc209707b58a4,2024-10-03_11h17.10.016,WTP_SM_Choice,2022.2.1,MacIntel,58.82352941,,,,,space,6.5611,NAN,,NAN,2.7,3.3,,0,90,90,90,1,91,Sam,Acc,Participant_Images/6111216b74cfd482d05ac02b/6111216b74cfd482d05ac02b_Images/6111216b74cfd482d05ac02b_Image_23.jpeg,liked,3.613205605,,,,,,,,,,,,,,,,,,,,,,
,,6111216b74cfd482d05ac02b,6685aa9113c938e83b4f1ea0,66feb53c4d1fc209707b58a4,2024-10-03_11h17.10.016,WTP_SM_Choice,2022.2.1,MacIntel,58.82352941,,,,,space,2.1311,NAN,,NAN,2.7,3.3,,0,91,91,91,1,92,Sam,Acc,Participant_Images/6111216b74cfd482d05ac02b/6111216b74cfd482d05ac02b_Images/6111216b74cfd482d05ac02b_Image_2.jpeg,liked,4.988446431,,,,,,,,,,,,,,,,,,,,,,
,,6111216b74cfd482d05ac02b,6685aa9113c938e83b4f1ea0,66feb53c4d1fc209707b58a4,2024-10-03_11h17.10.016,WTP_SM_Choice,2022.2.1,MacIntel,58.82352941,,,,,space,1.8967,NAN,,NAN,2.7,3.3,,0,92,92,92,1,93,Sam,Acc,Participant_Images/6111216b74cfd482d05ac02b/6111216b74cfd482d05ac02b_Images/6111216b74cfd482d05ac02b_Image_21.jpeg,liked,3.470791822,,,,,,,,,,,,,,,,,,,,,,
,,6111216b74cfd482d05ac02b,6685aa9113c938e83b4f1ea0,66feb53c4d1fc209707b58a4,2024-10-03_11h17.10.016,WTP_SM_Choice,2022.2.1,MacIntel,58.82352941,,,,,space,3.1517,NAN,,NAN,2.7,3.3,,0,93,93,93,1,94,Sam,Acc,Participant_Images/6111216b74cfd482d05ac02b/6111216b74cfd482d05ac02b_Images/6111216b74cfd482d05ac02b_Image_5.jpeg,did not like,3.820572462,,,,,,,,,,,,,,,,,,,,,,
,,6111216b74cfd482d05ac02b,6685aa9113c938e83b4f1ea0,66feb53c4d1fc209707b58a4,2024-10-03_11h17.10.016,WTP_SM_Choice,2022.2.1,MacIntel,58.82352941,,,,,,,,,,,,,,,,,,91,,,,,,space,1.1467,space,0.2001,0.04,2,0.954,0,0,0,0,1,Go to the movies with my family,go for a walk on a sunny day,0.01,0.04,3.3,0,,,,
,,6111216b74cfd482d05ac02b,6685aa9113c938e83b4f1ea0,66feb53c4d1fc209707b58a4,2024-10-03_11h17.10.016,WTP_SM_Choice,2022.2.1,MacIntel,58.82352941,,,,,,,,,,,,,,,,,,92,,,,,,,,,,0.02,1,1.788,0,1,1,1,1,Watch a youtube video with a good snack,Go shopping with my mom and sister,0.02,0.04,8.8,1,,,,
,,6111216b74cfd482d05ac02b,6685aa9113c938e83b4f1ea0,66feb53c4d1fc209707b58a4,2024-10-03_11h17.10.016,WTP_SM_Choice,2022.2.1,MacIntel,58.82352941,,,,,,,,,,,,,,,,,,93,,,,,,,,,,0.04,2,0.9064,0,2,2,2,1,Go for a walk with my fiance,make pancakes on tuesday morning,0.03,0.04,1.1,0,,,,
,,6111216b74cfd482d05ac02b,6685aa9113c938e83b4f1ea0,66feb53c4d1fc209707b58a4,2024-10-03_11h17.10.016,WTP_SM_Choice,2022.2.1,MacIntel,58.82352941,,,,,,,,,,,,,,,,,,94,,,,,,,,,,0.04,1,3.5226,0,3,3,3,1,Eat candy on a lazy day,Play video games with my brothers,0.04,0.04,4.4,1,,,,
,,6111216b74cfd482d05ac02b,6685aa9113c938e83b4f1ea0,66feb53c4d1fc209707b58a4,2024-10-03_11h17.10.016,WTP_SM_Choice,2022.2.1,MacIntel,58.82352941,,,,,,,,,,,,,,,,,,95,,,,,,,,,,0.05,1,0.8594,0,4,4,4,1,bake on a sunny day,Play video games with my brothers,0.05,0.04,4.4,1,,,,
,,6111216b74cfd482d05ac02b,6685aa9113c938e83b4f1ea0,66feb53c4d1fc209707b58a4,2024-10-03_11h17.10.016,WTP_SM_Choice,2022.2.1,MacIntel,58.82352941,,,,,,,NAN,,NAN,2.89,3.11,,0,94,94,94,1,95,Sam,Acc,Participant_Images/6111216b74cfd482d05ac02b/6111216b74cfd482d05ac02b_Images/6111216b74cfd482d05ac02b_Image_10.jpeg,did not like,2.455989137,,,,,,,,,,,,,,,,,,,,,,
,,6111216b74cfd482d05ac02b,6685aa9113c938e83b4f1ea0,66feb53c4d1fc209707b58a4,2024-10-03_11h17.10.016,WTP_SM_Choice,2022.2.1,MacIntel,58.82352941,,,,,space,2.2991,NAN,,NAN,2.89,3.11,,0,95,95,95,1,96,Sam,Acc,Participant_Images/6111216b74cfd482d05ac02b/6111216b74cfd482d05ac02b_Images/6111216b74cfd482d05ac02b_Image_19.jpeg,liked,3.79605092,,,,,,,,,,,,,,,,,,,,,,
,,6111216b74cfd482d05ac02b,6685aa9113c938e83b4f1ea0,66feb53c4d1fc209707b58a4,2024-10-03_11h17.10.016,WTP_SM_Choice,2022.2.1,MacIntel,58.82352941,,,,,space,0.362,NAN,,NAN,2.89,3.11,,0,96,96,96,1,97,Sam,Acc,Participant_Images/6111216b74cfd482d05ac02b/6111216b74cfd482d05ac02b_Images/6111216b74cfd482d05ac02b_Image_11.jpeg,liked,3.562416326,,,,,,,,,,,,,,,,,,,,,,
,,6111216b74cfd482d05ac02b,6685aa9113c938e83b4f1ea0,66feb53c4d1fc209707b58a4,2024-10-03_11h17.10.016,WTP_SM_Choice,2022.2.1,MacIntel,58.82352941,,,,,space,1.5177,NAN,,NAN,2.89,3.11,,0,97,97,97,1,98,Sam,Acc,Participant_Images/6111216b74cfd482d05ac02b/6111216b74cfd482d05ac02b_Images/6111216b74cfd482d05ac02b_Image_7.jpeg,liked,2.843822497,,,,,,,,,,,,,,,,,,,,,,
,,6111216b74cfd482d05ac02b,6685aa9113c938e83b4f1ea0,66feb53c4d1fc209707b58a4,2024-10-03_11h17.10.016,WTP_SM_Choice,2022.2.1,MacIntel,58.82352941,,,,,space,0.7187,NAN,,NAN,2.89,3.11,,0,98,98,98,1,99,Sam,Acc,Participant_Images/6111216b74cfd482d05ac02b/6111216b74cfd482d05ac02b_Images/6111216b74cfd482d05ac02b_Image_20.jpeg,liked,3.546495948,,,,,,,,,,,,,,,,,,,,,,
,,6111216b74cfd482d05ac02b,6685aa9113c938e83b4f1ea0,66feb53c4d1fc209707b58a4,2024-10-03_11h17.10.016,WTP_SM_Choice,2022.2.1,MacIntel,58.82352941,,,,,,,,,,,,,,,,,,96,,,,,,space,0.9149,space,0.134,0.05,2,1.0236,0,0,0,0,1,Go to the store with my fiance ,listen to music alone in my bedroom ,0.01,0.05,3.3,0,,,,
,,6111216b74cfd482d05ac02b,6685aa9113c938e83b4f1ea0,66feb53c4d1fc209707b58a4,2024-10-03_11h17.10.016,WTP_SM_Choice,2022.2.1,MacIntel,58.82352941,,,,,,,,,,,,,,,,,,97,,,,,,,,,,0.05,2,0.8809,0,1,1,1,1,Go for a walk with my fiance,Make popcorn on a friday night,0.02,0.05,1.1,0,,,,
,,6111216b74cfd482d05ac02b,6685aa9113c938e83b4f1ea0,66feb53c4d1fc209707b58a4,2024-10-03_11h17.10.016,WTP_SM_Choice,2022.2.1,MacIntel,58.82352941,,,,,,,,,,,,,,,,,,98,,,,,,,,,,0.03,1,1.5067,0,2,2,2,1,Go to target to browse on a lazy day,Go to the store with my fiance ,0.03,0.05,1.1,1,,,,
,,6111216b74cfd482d05ac02b,6685aa9113c938e83b4f1ea0,66feb53c4d1fc209707b58a4,2024-10-03_11h17.10.016,WTP_SM_Choice,2022.2.1,MacIntel,58.82352941,,,,,,,,,,,,,,,,,,99,,,,,,,,,,0.05,2,1.0728,0,3,3,3,1,Go to the movies with my family,Eat candy on a lazy day,0.04,0.05,3.3,0,,,,
,,6111216b74cfd482d05ac02b,6685aa9113c938e83b4f1ea0,66feb53c4d1fc209707b58a4,2024-10-03_11h17.10.016,WTP_SM_Choice,2022.2.1,MacIntel,58.82352941,,,,,,,,,,,,,,,,,,100,,,,,,,,,,0.05,2,1.575,0,4,4,4,1,Go shopping with my mom and sister,Eat candy on a lazy day,0.05,0.05,4.4,0,,,,
,,6111216b74cfd482d05ac02b,6685aa9113c938e83b4f1ea0,66feb53c4d1fc209707b58a4,2024-10-03_11h17.10.016,WTP_SM_Choice,2022.2.1,MacIntel,58.82352941,,,,,,,3,,3,3.12,2.88,,0,99,99,99,1,100,Sam,Acc,Participant_Images/6111216b74cfd482d05ac02b/6111216b74cfd482d05ac02b_Images/6111216b74cfd482d05ac02b_Image_12.jpeg,liked,1.672012706,,,,,,,,,,,,,,,,,,,space,0.7821,,
,,6111216b74cfd482d05ac02b,6685aa9113c938e83b4f1ea0,66feb53c4d1fc209707b58a4,2024-10-03_11h17.10.016,WTP_SM_Choice,2022.2.1,MacIntel,58.82352941,,,,,,,,,,,,,,,,,,,,,,,,,,,,,,,,,,,,,,,,,,,,space,2.6815
