endwelcomescreen_keys.keys,endwelcomescreen_keys.rt,participant,STUDY_ID,SESSION_ID,date,expName,psychopyVersion,OS,frameRate,endinstructionscreen_keys.keys,endinstructionscreen_keys.rt,endpartnermatch_keys.keys,endpartnermatch_keys.rt,sharenextphoto_key.keys,sharenextphoto_key.rt,salience_rating,key_resp.keys,stress_level,subtract_bonus,TOTAL_TASK_BONUS,stresslevel_keypress.keys,entiretaskloop.thisRepN,entiretaskloop.thisTrialN,entiretaskloop.thisN,entiretaskloop.thisIndex,entiretaskloop.ran,TrialNumber,Partner,Condition,Photos,Feedback,FeedbackWait,WTP_ins_keys1.keys,WTP_ins_keys1.rt,WTP_ins_keys2.keys,WTP_ins_keys2.rt,decision_price,responses.keys,responses.rt,WTPTaskLoop.thisRepN,WTPTaskLoop.thisTrialN,WTPTaskLoop.thisN,WTPTaskLoop.thisIndex,WTPTaskLoop.ran,right,left,leftmoney,rightmoney,WTP_ITI,social_left,Resume_keys.keys,Resume_keys.rt,end_screen_keys.keys,end_screen_keys.rt
space,1.6986,613aad30bcfed65155a026ec,6685aa9113c938e83b4f1ea0,671bdc4e70cafcdad968bf26,2024-10-25_13h03.27.186,WTP_SM_Choice,2022.2.1,MacIntel,60.14675809,,,,,,,,,,,,,,,,,,,,,,,,,,,,,,,,,,,,,,,,,,,,,
,,613aad30bcfed65155a026ec,6685aa9113c938e83b4f1ea0,671bdc4e70cafcdad968bf26,2024-10-25_13h03.27.186,WTP_SM_Choice,2022.2.1,MacIntel,60.14675809,space,17.7184,,,,,,,,,,,,,,,,,,,,,,,,,,,,,,,,,,,,,,,,,,,
,,613aad30bcfed65155a026ec,6685aa9113c938e83b4f1ea0,671bdc4e70cafcdad968bf26,2024-10-25_13h03.27.186,WTP_SM_Choice,2022.2.1,MacIntel,60.14675809,,,space,2.1668,space,1.9956,NAN,,NAN,0,6,,0,0,0,0,1,1,Riley,Acc,Participant_Images/613aad30bcfed65155a026ec/613aad30bcfed65155a026ec_Images/613aad30bcfed65155a026ec_Image_24.jpeg,liked,3.613205605,,,,,,,,,,,,,,,,,,,,,,
,,613aad30bcfed65155a026ec,6685aa9113c938e83b4f1ea0,671bdc4e70cafcdad968bf26,2024-10-25_13h03.27.186,WTP_SM_Choice,2022.2.1,MacIntel,60.14675809,,,,,space,2.2494,NAN,,NAN,0,6,,0,1,1,1,1,2,Riley,Acc,Participant_Images/613aad30bcfed65155a026ec/613aad30bcfed65155a026ec_Images/613aad30bcfed65155a026ec_Image_10.jpeg,liked,4.988446431,,,,,,,,,,,,,,,,,,,,,,
,,613aad30bcfed65155a026ec,6685aa9113c938e83b4f1ea0,671bdc4e70cafcdad968bf26,2024-10-25_13h03.27.186,WTP_SM_Choice,2022.2.1,MacIntel,60.14675809,,,,,space,1.1016,NAN,,NAN,0,6,,0,2,2,2,1,3,Riley,Acc,Participant_Images/613aad30bcfed65155a026ec/613aad30bcfed65155a026ec_Images/613aad30bcfed65155a026ec_Image_7.jpeg,liked,3.470791822,,,,,,,,,,,,,,,,,,,,,,
,,613aad30bcfed65155a026ec,6685aa9113c938e83b4f1ea0,671bdc4e70cafcdad968bf26,2024-10-25_13h03.27.186,WTP_SM_Choice,2022.2.1,MacIntel,60.14675809,,,,,space,1.3186,NAN,,NAN,0,6,,0,3,3,3,1,4,Riley,Acc,Participant_Images/613aad30bcfed65155a026ec/613aad30bcfed65155a026ec_Images/613aad30bcfed65155a026ec_Image_21.jpeg,did not like,3.820572462,,,,,,,,,,,,,,,,,,,,,,
,,613aad30bcfed65155a026ec,6685aa9113c938e83b4f1ea0,671bdc4e70cafcdad968bf26,2024-10-25_13h03.27.186,WTP_SM_Choice,2022.2.1,MacIntel,60.14675809,,,,,,,,,,,,,,,,,,1,,,,,,space,22.5083,space,6.8322,0.01,1,4.0863,0,0,0,0,1,play video games after a hard day,collaborate with other artists on music,0.01,0.01,4.4,1,,,,
,,613aad30bcfed65155a026ec,6685aa9113c938e83b4f1ea0,671bdc4e70cafcdad968bf26,2024-10-25_13h03.27.186,WTP_SM_Choice,2022.2.1,MacIntel,60.14675809,,,,,,,,,,,,,,,,,,2,,,,,,,,,,0.01,2,5.1062,0,1,1,1,1,paint portraits,go to sunday brunch with my entire family,0.02,0.01,8.8,1,,,,
,,613aad30bcfed65155a026ec,6685aa9113c938e83b4f1ea0,671bdc4e70cafcdad968bf26,2024-10-25_13h03.27.186,WTP_SM_Choice,2022.2.1,MacIntel,60.14675809,,,,,,,,,,,,,,,,,,3,,,,,,,,,,0.03,1,4.7068,0,2,2,2,1,go to sunday brunch with my entire family,do tarot readings,0.03,0.01,3.3,0,,,,
,,613aad30bcfed65155a026ec,6685aa9113c938e83b4f1ea0,671bdc4e70cafcdad968bf26,2024-10-25_13h03.27.186,WTP_SM_Choice,2022.2.1,MacIntel,60.14675809,,,,,,,,,,,,,,,,,,4,,,,,,,,,,,,,0,3,3,3,1,go to sunday brunch with my entire family,go for a bike ride when the weather is nice,0.04,0.01,1.1,0,,,,
,,613aad30bcfed65155a026ec,6685aa9113c938e83b4f1ea0,671bdc4e70cafcdad968bf26,2024-10-25_13h03.27.186,WTP_SM_Choice,2022.2.1,MacIntel,60.14675809,,,,,,,,,,,,,,,,,,5,,,,,,,,,,0.01,2,3.3478,0,4,4,4,1,go for a bike ride when the weather is nice,collaborate with other artists on music,0.05,0.01,1.1,1,,,,
,,613aad30bcfed65155a026ec,6685aa9113c938e83b4f1ea0,671bdc4e70cafcdad968bf26,2024-10-25_13h03.27.186,WTP_SM_Choice,2022.2.1,MacIntel,60.14675809,,,,,,,NAN,,NAN,0.06,5.94,,0,4,4,4,1,5,Riley,Acc,Participant_Images/613aad30bcfed65155a026ec/613aad30bcfed65155a026ec_Images/613aad30bcfed65155a026ec_Image_5.jpeg,liked,2.455989137,,,,,,,,,,,,,,,,,,,,,,
,,613aad30bcfed65155a026ec,6685aa9113c938e83b4f1ea0,671bdc4e70cafcdad968bf26,2024-10-25_13h03.27.186,WTP_SM_Choice,2022.2.1,MacIntel,60.14675809,,,,,space,1.3334,NAN,,NAN,0.06,5.94,,0,5,5,5,1,6,Riley,Acc,Participant_Images/613aad30bcfed65155a026ec/613aad30bcfed65155a026ec_Images/613aad30bcfed65155a026ec_Image_17.jpeg,liked,3.79605092,,,,,,,,,,,,,,,,,,,,,,
,,613aad30bcfed65155a026ec,6685aa9113c938e83b4f1ea0,671bdc4e70cafcdad968bf26,2024-10-25_13h03.27.186,WTP_SM_Choice,2022.2.1,MacIntel,60.14675809,,,,,space,0.7174,NAN,,NAN,0.06,5.94,,0,6,6,6,1,7,Riley,Acc,Participant_Images/613aad30bcfed65155a026ec/613aad30bcfed65155a026ec_Images/613aad30bcfed65155a026ec_Image_9.jpeg,liked,3.562416326,,,,,,,,,,,,,,,,,,,,,,
,,613aad30bcfed65155a026ec,6685aa9113c938e83b4f1ea0,671bdc4e70cafcdad968bf26,2024-10-25_13h03.27.186,WTP_SM_Choice,2022.2.1,MacIntel,60.14675809,,,,,space,0.8339,NAN,,NAN,0.06,5.94,,0,7,7,7,1,8,Riley,Acc,Participant_Images/613aad30bcfed65155a026ec/613aad30bcfed65155a026ec_Images/613aad30bcfed65155a026ec_Image_19.jpeg,liked,2.843822497,,,,,,,,,,,,,,,,,,,,,,
,,613aad30bcfed65155a026ec,6685aa9113c938e83b4f1ea0,671bdc4e70cafcdad968bf26,2024-10-25_13h03.27.186,WTP_SM_Choice,2022.2.1,MacIntel,60.14675809,,,,,space,0.6502,NAN,,NAN,0.06,5.94,,0,8,8,8,1,9,Riley,Acc,Participant_Images/613aad30bcfed65155a026ec/613aad30bcfed65155a026ec_Images/613aad30bcfed65155a026ec_Image_18.jpeg,liked,3.546495948,,,,,,,,,,,,,,,,,,,,,,
,,613aad30bcfed65155a026ec,6685aa9113c938e83b4f1ea0,671bdc4e70cafcdad968bf26,2024-10-25_13h03.27.186,WTP_SM_Choice,2022.2.1,MacIntel,60.14675809,,,,,,,,,,,,,,,,,,6,,,,,,space,5.231,space,4.674,0.01,1,3.8352,0,0,0,0,1,buy ice cream from the ice cream man,clean my room to get ahead of the mess,0.01,0.02,3.3,0,,,,
,,613aad30bcfed65155a026ec,6685aa9113c938e83b4f1ea0,671bdc4e70cafcdad968bf26,2024-10-25_13h03.27.186,WTP_SM_Choice,2022.2.1,MacIntel,60.14675809,,,,,,,,,,,,,,,,,,7,,,,,,,,,,0.02,2,3.1593,0,1,1,1,1,go to chilis with my sister,clean my room to get ahead of the mess,0.02,0.02,1.1,0,,,,
,,613aad30bcfed65155a026ec,6685aa9113c938e83b4f1ea0,671bdc4e70cafcdad968bf26,2024-10-25_13h03.27.186,WTP_SM_Choice,2022.2.1,MacIntel,60.14675809,,,,,,,,,,,,,,,,,,8,,,,,,,,,,0.03,1,4.9476,0,2,2,2,1,sing karaoke on smule when i am bored,go to chilis with my sister,0.03,0.02,1.1,1,,,,
,,613aad30bcfed65155a026ec,6685aa9113c938e83b4f1ea0,671bdc4e70cafcdad968bf26,2024-10-25_13h03.27.186,WTP_SM_Choice,2022.2.1,MacIntel,60.14675809,,,,,,,,,,,,,,,,,,9,,,,,,,,,,0.02,2,3.6368,0,3,3,3,1,go to chilis with my sister,paint portraits,0.04,0.02,4.4,0,,,,
,,613aad30bcfed65155a026ec,6685aa9113c938e83b4f1ea0,671bdc4e70cafcdad968bf26,2024-10-25_13h03.27.186,WTP_SM_Choice,2022.2.1,MacIntel,60.14675809,,,,,,,,,,,,,,,,,,10,,,,,,,,,,0.05,1,5.155,0,4,4,4,1,make music as inspiration strikes me,go to sunday brunch with my entire family,0.05,0.02,1.1,1,,,,
,,613aad30bcfed65155a026ec,6685aa9113c938e83b4f1ea0,671bdc4e70cafcdad968bf26,2024-10-25_13h03.27.186,WTP_SM_Choice,2022.2.1,MacIntel,60.14675809,,,,,,,NAN,,NAN,0.19,5.81,,0,9,9,9,1,10,Riley,Acc,Participant_Images/613aad30bcfed65155a026ec/613aad30bcfed65155a026ec_Images/613aad30bcfed65155a026ec_Image_14.jpeg,liked,1.672012706,,,,,,,,,,,,,,,,,,,,,,
,,613aad30bcfed65155a026ec,6685aa9113c938e83b4f1ea0,671bdc4e70cafcdad968bf26,2024-10-25_13h03.27.186,WTP_SM_Choice,2022.2.1,MacIntel,60.14675809,,,,,space,0.7342,NAN,,NAN,0.19,5.81,,0,10,10,10,1,11,Riley,Acc,Participant_Images/613aad30bcfed65155a026ec/613aad30bcfed65155a026ec_Images/613aad30bcfed65155a026ec_Image_16.jpeg,liked,4.942172136,,,,,,,,,,,,,,,,,,,,,,
,,613aad30bcfed65155a026ec,6685aa9113c938e83b4f1ea0,671bdc4e70cafcdad968bf26,2024-10-25_13h03.27.186,WTP_SM_Choice,2022.2.1,MacIntel,60.14675809,,,,,space,0.6841,NAN,,NAN,0.19,5.81,,0,11,11,11,1,12,Riley,Acc,Participant_Images/613aad30bcfed65155a026ec/613aad30bcfed65155a026ec_Images/613aad30bcfed65155a026ec_Image_12.jpeg,did not like,2.50187214,,,,,,,,,,,,,,,,,,,,,,
,,613aad30bcfed65155a026ec,6685aa9113c938e83b4f1ea0,671bdc4e70cafcdad968bf26,2024-10-25_13h03.27.186,WTP_SM_Choice,2022.2.1,MacIntel,60.14675809,,,,,space,0.5844,NAN,,NAN,0.19,5.81,,0,12,12,12,1,13,Riley,Acc,Participant_Images/613aad30bcfed65155a026ec/613aad30bcfed65155a026ec_Images/613aad30bcfed65155a026ec_Image_1.jpeg,did not like,2.071164779,,,,,,,,,,,,,,,,,,,,,,
,,613aad30bcfed65155a026ec,6685aa9113c938e83b4f1ea0,671bdc4e70cafcdad968bf26,2024-10-25_13h03.27.186,WTP_SM_Choice,2022.2.1,MacIntel,60.14675809,,,,,space,0.8993,NAN,,NAN,0.19,5.81,,0,13,13,13,1,14,Riley,Acc,Participant_Images/613aad30bcfed65155a026ec/613aad30bcfed65155a026ec_Images/613aad30bcfed65155a026ec_Image_8.jpeg,did not like,5.336503566,,,,,,,,,,,,,,,,,,,,,,
,,613aad30bcfed65155a026ec,6685aa9113c938e83b4f1ea0,671bdc4e70cafcdad968bf26,2024-10-25_13h03.27.186,WTP_SM_Choice,2022.2.1,MacIntel,60.14675809,,,,,,,,,,,,,,,,,,11,,,,,,space,2.3972,space,1.4677,0.01,1,2.8068,0,0,0,0,1,do tarot readings,collaborate with other artists on music,0.01,0.03,3.3,1,,,,
,,613aad30bcfed65155a026ec,6685aa9113c938e83b4f1ea0,671bdc4e70cafcdad968bf26,2024-10-25_13h03.27.186,WTP_SM_Choice,2022.2.1,MacIntel,60.14675809,,,,,,,,,,,,,,,,,,12,,,,,,,,,,0.03,2,4.9982,0,1,1,1,1,watch a new movie with my family,listen to youtube while going on a walk,0.02,0.03,4.4,0,,,,
,,613aad30bcfed65155a026ec,6685aa9113c938e83b4f1ea0,671bdc4e70cafcdad968bf26,2024-10-25_13h03.27.186,WTP_SM_Choice,2022.2.1,MacIntel,60.14675809,,,,,,,,,,,,,,,,,,13,,,,,,,,,,0.03,2,4.0583,0,2,2,2,1,collaborate with other artists on music,watch twilight when it gets cold and gloomy outside,0.03,0.03,1.1,0,,,,
,,613aad30bcfed65155a026ec,6685aa9113c938e83b4f1ea0,671bdc4e70cafcdad968bf26,2024-10-25_13h03.27.186,WTP_SM_Choice,2022.2.1,MacIntel,60.14675809,,,,,,,,,,,,,,,,,,14,,,,,,,,,,0.03,2,3.4354,0,3,3,3,1,go to emo night with friends,paint portraits,0.04,0.03,3.3,0,,,,
,,613aad30bcfed65155a026ec,6685aa9113c938e83b4f1ea0,671bdc4e70cafcdad968bf26,2024-10-25_13h03.27.186,WTP_SM_Choice,2022.2.1,MacIntel,60.14675809,,,,,,,,,,,,,,,,,,15,,,,,,,,,,0.05,1,5.0728,0,4,4,4,1,chat with my friends on twitter,do tarot readings,0.05,0.03,4.4,0,,,,
,,613aad30bcfed65155a026ec,6685aa9113c938e83b4f1ea0,671bdc4e70cafcdad968bf26,2024-10-25_13h03.27.186,WTP_SM_Choice,2022.2.1,MacIntel,60.14675809,,,,,,,NAN,,NAN,0.34,5.66,,0,14,14,14,1,15,Riley,Acc,Participant_Images/613aad30bcfed65155a026ec/613aad30bcfed65155a026ec_Images/613aad30bcfed65155a026ec_Image_20.jpeg,liked,2.642157193,,,,,,,,,,,,,,,,,,,,,,
,,613aad30bcfed65155a026ec,6685aa9113c938e83b4f1ea0,671bdc4e70cafcdad968bf26,2024-10-25_13h03.27.186,WTP_SM_Choice,2022.2.1,MacIntel,60.14675809,,,,,space,0.6035,NAN,,NAN,0.34,5.66,,0,15,15,15,1,16,Riley,Acc,Participant_Images/613aad30bcfed65155a026ec/613aad30bcfed65155a026ec_Images/613aad30bcfed65155a026ec_Image_3.jpeg,did not like,4.456234322,,,,,,,,,,,,,,,,,,,,,,
,,613aad30bcfed65155a026ec,6685aa9113c938e83b4f1ea0,671bdc4e70cafcdad968bf26,2024-10-25_13h03.27.186,WTP_SM_Choice,2022.2.1,MacIntel,60.14675809,,,,,space,0.6342,NAN,,NAN,0.34,5.66,,0,16,16,16,1,17,Riley,Acc,Participant_Images/613aad30bcfed65155a026ec/613aad30bcfed65155a026ec_Images/613aad30bcfed65155a026ec_Image_6.jpeg,liked,4.438512181,,,,,,,,,,,,,,,,,,,,,,
,,613aad30bcfed65155a026ec,6685aa9113c938e83b4f1ea0,671bdc4e70cafcdad968bf26,2024-10-25_13h03.27.186,WTP_SM_Choice,2022.2.1,MacIntel,60.14675809,,,,,space,0.7829,NAN,,NAN,0.34,5.66,,0,17,17,17,1,18,Riley,Acc,Participant_Images/613aad30bcfed65155a026ec/613aad30bcfed65155a026ec_Images/613aad30bcfed65155a026ec_Image_22.jpeg,liked,2.682944783,,,,,,,,,,,,,,,,,,,,,,
,,613aad30bcfed65155a026ec,6685aa9113c938e83b4f1ea0,671bdc4e70cafcdad968bf26,2024-10-25_13h03.27.186,WTP_SM_Choice,2022.2.1,MacIntel,60.14675809,,,,,space,0.7362,NAN,,NAN,0.34,5.66,,0,18,18,18,1,19,Riley,Acc,Participant_Images/613aad30bcfed65155a026ec/613aad30bcfed65155a026ec_Images/613aad30bcfed65155a026ec_Image_4.jpeg,did not like,4.51984296,,,,,,,,,,,,,,,,,,,,,,
,,613aad30bcfed65155a026ec,6685aa9113c938e83b4f1ea0,671bdc4e70cafcdad968bf26,2024-10-25_13h03.27.186,WTP_SM_Choice,2022.2.1,MacIntel,60.14675809,,,,,,,,,,,,,,,,,,16,,,,,,space,2.7816,space,1.486,0.01,1,2.9877,0,0,0,0,1,play video games after a hard day,buy ice cream from the ice cream man,0.01,0.04,1.1,1,,,,
,,613aad30bcfed65155a026ec,6685aa9113c938e83b4f1ea0,671bdc4e70cafcdad968bf26,2024-10-25_13h03.27.186,WTP_SM_Choice,2022.2.1,MacIntel,60.14675809,,,,,,,,,,,,,,,,,,17,,,,,,,,,,0.04,2,3.3361,0,1,1,1,1,videochat with some of my long distance besties,listen to youtube while going on a walk,0.02,0.04,8.8,0,,,,
,,613aad30bcfed65155a026ec,6685aa9113c938e83b4f1ea0,671bdc4e70cafcdad968bf26,2024-10-25_13h03.27.186,WTP_SM_Choice,2022.2.1,MacIntel,60.14675809,,,,,,,,,,,,,,,,,,18,,,,,,,,,,0.03,1,3.5242,0,2,2,2,1,chat with my friends on twitter,clean my room to get ahead of the mess,0.03,0.04,3.3,0,,,,
,,613aad30bcfed65155a026ec,6685aa9113c938e83b4f1ea0,671bdc4e70cafcdad968bf26,2024-10-25_13h03.27.186,WTP_SM_Choice,2022.2.1,MacIntel,60.14675809,,,,,,,,,,,,,,,,,,19,,,,,,,,,,0.04,2,2.1603,0,3,3,3,1,go to emo night with friends,do tarot readings,0.04,0.04,3.3,0,,,,
,,613aad30bcfed65155a026ec,6685aa9113c938e83b4f1ea0,671bdc4e70cafcdad968bf26,2024-10-25_13h03.27.186,WTP_SM_Choice,2022.2.1,MacIntel,60.14675809,,,,,,,,,,,,,,,,,,20,,,,,,,,,,0.04,2,3.6127,0,4,4,4,1,chat with my friends on twitter,draw in my room ,0.05,0.04,1.1,0,,,,
,,613aad30bcfed65155a026ec,6685aa9113c938e83b4f1ea0,671bdc4e70cafcdad968bf26,2024-10-25_13h03.27.186,WTP_SM_Choice,2022.2.1,MacIntel,60.14675809,,,,,,,NAN,,NAN,0.5,5.5,,0,19,19,19,1,20,Riley,Acc,Participant_Images/613aad30bcfed65155a026ec/613aad30bcfed65155a026ec_Images/613aad30bcfed65155a026ec_Image_15.jpeg,liked,3.195382774,,,,,,,,,,,,,,,,,,,,,,
,,613aad30bcfed65155a026ec,6685aa9113c938e83b4f1ea0,671bdc4e70cafcdad968bf26,2024-10-25_13h03.27.186,WTP_SM_Choice,2022.2.1,MacIntel,60.14675809,,,,,space,0.9165,NAN,,NAN,0.5,5.5,,0,20,20,20,1,21,Riley,Acc,Participant_Images/613aad30bcfed65155a026ec/613aad30bcfed65155a026ec_Images/613aad30bcfed65155a026ec_Image_23.jpeg,did not like,1.779333479,,,,,,,,,,,,,,,,,,,,,,
,,613aad30bcfed65155a026ec,6685aa9113c938e83b4f1ea0,671bdc4e70cafcdad968bf26,2024-10-25_13h03.27.186,WTP_SM_Choice,2022.2.1,MacIntel,60.14675809,,,,,space,0.7152,NAN,,NAN,0.5,5.5,,0,21,21,21,1,22,Riley,Acc,Participant_Images/613aad30bcfed65155a026ec/613aad30bcfed65155a026ec_Images/613aad30bcfed65155a026ec_Image_2.jpeg,liked,4.312468682,,,,,,,,,,,,,,,,,,,,,,
,,613aad30bcfed65155a026ec,6685aa9113c938e83b4f1ea0,671bdc4e70cafcdad968bf26,2024-10-25_13h03.27.186,WTP_SM_Choice,2022.2.1,MacIntel,60.14675809,,,,,space,0.6379,NAN,,NAN,0.5,5.5,,0,22,22,22,1,23,Riley,Acc,Participant_Images/613aad30bcfed65155a026ec/613aad30bcfed65155a026ec_Images/613aad30bcfed65155a026ec_Image_25.jpeg,liked,4.940433059,,,,,,,,,,,,,,,,,,,,,,
,,613aad30bcfed65155a026ec,6685aa9113c938e83b4f1ea0,671bdc4e70cafcdad968bf26,2024-10-25_13h03.27.186,WTP_SM_Choice,2022.2.1,MacIntel,60.14675809,,,,,space,0.9334,NAN,,NAN,0.5,5.5,,0,23,23,23,1,24,Riley,Acc,Participant_Images/613aad30bcfed65155a026ec/613aad30bcfed65155a026ec_Images/613aad30bcfed65155a026ec_Image_13.jpeg,liked,2.7105123,,,,,,,,,,,,,,,,,,,,,,
,,613aad30bcfed65155a026ec,6685aa9113c938e83b4f1ea0,671bdc4e70cafcdad968bf26,2024-10-25_13h03.27.186,WTP_SM_Choice,2022.2.1,MacIntel,60.14675809,,,,,,,,,,,,,,,,,,21,,,,,,space,1.0831,space,1.5328,0.01,1,3.0949,0,0,0,0,1,paint portraits,order food from postmates and make friends with delivery driver,0.01,0.05,8.8,1,,,,
,,613aad30bcfed65155a026ec,6685aa9113c938e83b4f1ea0,671bdc4e70cafcdad968bf26,2024-10-25_13h03.27.186,WTP_SM_Choice,2022.2.1,MacIntel,60.14675809,,,,,,,,,,,,,,,,,,22,,,,,,,,,,0.02,1,5.7063,0,1,1,1,1,clean my room to get ahead of the mess,order food from postmates and make friends with delivery driver,0.02,0.05,4.4,1,,,,
,,613aad30bcfed65155a026ec,6685aa9113c938e83b4f1ea0,671bdc4e70cafcdad968bf26,2024-10-25_13h03.27.186,WTP_SM_Choice,2022.2.1,MacIntel,60.14675809,,,,,,,,,,,,,,,,,,23,,,,,,,,,,0.05,2,5.2544,0,2,2,2,1,watch twilight when it gets cold and gloomy outside,buy ice cream from the ice cream man,0.03,0.05,1.1,1,,,,
,,613aad30bcfed65155a026ec,6685aa9113c938e83b4f1ea0,671bdc4e70cafcdad968bf26,2024-10-25_13h03.27.186,WTP_SM_Choice,2022.2.1,MacIntel,60.14675809,,,,,,,,,,,,,,,,,,24,,,,,,,,,,0.04,1,3.7237,0,3,3,3,1,go to emo night with friends,draw in my room ,0.04,0.05,4.4,0,,,,
,,613aad30bcfed65155a026ec,6685aa9113c938e83b4f1ea0,671bdc4e70cafcdad968bf26,2024-10-25_13h03.27.186,WTP_SM_Choice,2022.2.1,MacIntel,60.14675809,,,,,,,,,,,,,,,,,,25,,,,,,,,,,0.05,1,4.2459,0,4,4,4,1,videochat with some of my long distance besties,draw in my room ,0.05,0.05,3.3,0,,,,
,,613aad30bcfed65155a026ec,6685aa9113c938e83b4f1ea0,671bdc4e70cafcdad968bf26,2024-10-25_13h03.27.186,WTP_SM_Choice,2022.2.1,MacIntel,60.14675809,,,,,,,5,,9,0.67,5.33,,0,24,24,24,1,25,Riley,Acc,Participant_Images/613aad30bcfed65155a026ec/613aad30bcfed65155a026ec_Images/613aad30bcfed65155a026ec_Image_11.jpeg,liked,3.602308302,,,,,,,,,,,,,,,,,,,space,2.1429,,
,,613aad30bcfed65155a026ec,6685aa9113c938e83b4f1ea0,671bdc4e70cafcdad968bf26,2024-10-25_13h03.27.186,WTP_SM_Choice,2022.2.1,MacIntel,60.14675809,,,space,1.9815,space,1.2168,NAN,,NAN,0.67,5.33,,0,25,25,25,1,26,Alex,Rej,Participant_Images/613aad30bcfed65155a026ec/613aad30bcfed65155a026ec_Images/613aad30bcfed65155a026ec_Image_14.jpeg,did not like,4.106391878,,,,,,,,,,,,,,,,,,,,,,
,,613aad30bcfed65155a026ec,6685aa9113c938e83b4f1ea0,671bdc4e70cafcdad968bf26,2024-10-25_13h03.27.186,WTP_SM_Choice,2022.2.1,MacIntel,60.14675809,,,,,space,0.8006,NAN,,NAN,0.67,5.33,,0,26,26,26,1,27,Alex,Rej,Participant_Images/613aad30bcfed65155a026ec/613aad30bcfed65155a026ec_Images/613aad30bcfed65155a026ec_Image_16.jpeg,did not like,3.799433026,,,,,,,,,,,,,,,,,,,,,,
,,613aad30bcfed65155a026ec,6685aa9113c938e83b4f1ea0,671bdc4e70cafcdad968bf26,2024-10-25_13h03.27.186,WTP_SM_Choice,2022.2.1,MacIntel,60.14675809,,,,,space,7.3174,NAN,,NAN,0.67,5.33,,0,27,27,27,1,28,Alex,Rej,Participant_Images/613aad30bcfed65155a026ec/613aad30bcfed65155a026ec_Images/613aad30bcfed65155a026ec_Image_12.jpeg,did not like,5.246980764,,,,,,,,,,,,,,,,,,,,,,
,,613aad30bcfed65155a026ec,6685aa9113c938e83b4f1ea0,671bdc4e70cafcdad968bf26,2024-10-25_13h03.27.186,WTP_SM_Choice,2022.2.1,MacIntel,60.14675809,,,,,space,3.2103,NAN,,NAN,0.67,5.33,,0,28,28,28,1,29,Alex,Rej,Participant_Images/613aad30bcfed65155a026ec/613aad30bcfed65155a026ec_Images/613aad30bcfed65155a026ec_Image_18.jpeg,did not like,3.30081769,,,,,,,,,,,,,,,,,,,,,,
,,613aad30bcfed65155a026ec,6685aa9113c938e83b4f1ea0,671bdc4e70cafcdad968bf26,2024-10-25_13h03.27.186,WTP_SM_Choice,2022.2.1,MacIntel,60.14675809,,,,,,,,,,,,,,,,,,26,,,,,,space,5.2555,space,3.7247,0.01,1,5.4315,0,0,0,0,1,draw in my room ,go to chilis with my sister,0.01,0.01,4.4,1,,,,
,,613aad30bcfed65155a026ec,6685aa9113c938e83b4f1ea0,671bdc4e70cafcdad968bf26,2024-10-25_13h03.27.186,WTP_SM_Choice,2022.2.1,MacIntel,60.14675809,,,,,,,,,,,,,,,,,,27,,,,,,,,,,0.01,2,1.6654,0,1,1,1,1,draw in my room ,go to sunday brunch with my entire family,0.02,0.01,3.3,1,,,,
,,613aad30bcfed65155a026ec,6685aa9113c938e83b4f1ea0,671bdc4e70cafcdad968bf26,2024-10-25_13h03.27.186,WTP_SM_Choice,2022.2.1,MacIntel,60.14675809,,,,,,,,,,,,,,,,,,28,,,,,,,,,,0.01,2,1.2308,0,2,2,2,1,go to the gym with my dad every other day,listen to youtube while going on a walk,0.03,0.01,3.3,0,,,,
,,613aad30bcfed65155a026ec,6685aa9113c938e83b4f1ea0,671bdc4e70cafcdad968bf26,2024-10-25_13h03.27.186,WTP_SM_Choice,2022.2.1,MacIntel,60.14675809,,,,,,,,,,,,,,,,,,29,,,,,,,,,,0.01,2,1.0106,0,3,3,3,1,go to emo night with friends,listen to youtube while going on a walk,0.04,0.01,4.4,0,,,,
,,613aad30bcfed65155a026ec,6685aa9113c938e83b4f1ea0,671bdc4e70cafcdad968bf26,2024-10-25_13h03.27.186,WTP_SM_Choice,2022.2.1,MacIntel,60.14675809,,,,,,,,,,,,,,,,,,30,,,,,,,,,,0.01,2,0.7977,0,4,4,4,1,do tarot readings,go to chilis with my sister,0.05,0.01,8.8,1,,,,
,,613aad30bcfed65155a026ec,6685aa9113c938e83b4f1ea0,671bdc4e70cafcdad968bf26,2024-10-25_13h03.27.186,WTP_SM_Choice,2022.2.1,MacIntel,60.14675809,,,,,,,NAN,,NAN,0.72,5.28,,0,29,29,29,1,30,Alex,Rej,Participant_Images/613aad30bcfed65155a026ec/613aad30bcfed65155a026ec_Images/613aad30bcfed65155a026ec_Image_22.jpeg,did not like,1.661473164,,,,,,,,,,,,,,,,,,,,,,
,,613aad30bcfed65155a026ec,6685aa9113c938e83b4f1ea0,671bdc4e70cafcdad968bf26,2024-10-25_13h03.27.186,WTP_SM_Choice,2022.2.1,MacIntel,60.14675809,,,,,space,2.881,NAN,,NAN,0.72,5.28,,0,30,30,30,1,31,Alex,Rej,Participant_Images/613aad30bcfed65155a026ec/613aad30bcfed65155a026ec_Images/613aad30bcfed65155a026ec_Image_6.jpeg,did not like,3.613205605,,,,,,,,,,,,,,,,,,,,,,
,,613aad30bcfed65155a026ec,6685aa9113c938e83b4f1ea0,671bdc4e70cafcdad968bf26,2024-10-25_13h03.27.186,WTP_SM_Choice,2022.2.1,MacIntel,60.14675809,,,,,space,0.1036,NAN,,NAN,0.72,5.28,,0,31,31,31,1,32,Alex,Rej,Participant_Images/613aad30bcfed65155a026ec/613aad30bcfed65155a026ec_Images/613aad30bcfed65155a026ec_Image_24.jpeg,did not like,4.988446431,,,,,,,,,,,,,,,,,,,,,,
,,613aad30bcfed65155a026ec,6685aa9113c938e83b4f1ea0,671bdc4e70cafcdad968bf26,2024-10-25_13h03.27.186,WTP_SM_Choice,2022.2.1,MacIntel,60.14675809,,,,,space,0.1671,NAN,,NAN,0.72,5.28,,0,32,32,32,1,33,Alex,Rej,Participant_Images/613aad30bcfed65155a026ec/613aad30bcfed65155a026ec_Images/613aad30bcfed65155a026ec_Image_13.jpeg,liked,3.470791822,,,,,,,,,,,,,,,,,,,,,,
,,613aad30bcfed65155a026ec,6685aa9113c938e83b4f1ea0,671bdc4e70cafcdad968bf26,2024-10-25_13h03.27.186,WTP_SM_Choice,2022.2.1,MacIntel,60.14675809,,,,,space,0.8518,NAN,,NAN,0.72,5.28,,0,33,33,33,1,34,Alex,Rej,Participant_Images/613aad30bcfed65155a026ec/613aad30bcfed65155a026ec_Images/613aad30bcfed65155a026ec_Image_8.jpeg,did not like,3.820572462,,,,,,,,,,,,,,,,,,,,,,
,,613aad30bcfed65155a026ec,6685aa9113c938e83b4f1ea0,671bdc4e70cafcdad968bf26,2024-10-25_13h03.27.186,WTP_SM_Choice,2022.2.1,MacIntel,60.14675809,,,,,,,,,,,,,,,,,,31,,,,,,space,0.1057,space,0.2694,0.01,1,3.3504,0,0,0,0,1,go to the gym with my dad every other day,do tarot readings,0.01,0.02,8.8,0,,,,
,,613aad30bcfed65155a026ec,6685aa9113c938e83b4f1ea0,671bdc4e70cafcdad968bf26,2024-10-25_13h03.27.186,WTP_SM_Choice,2022.2.1,MacIntel,60.14675809,,,,,,,,,,,,,,,,,,32,,,,,,,,,,0.02,1,1.3121,0,1,1,1,1,chat with my friends on twitter,paint portraits,0.02,0.02,1.1,0,,,,
,,613aad30bcfed65155a026ec,6685aa9113c938e83b4f1ea0,671bdc4e70cafcdad968bf26,2024-10-25_13h03.27.186,WTP_SM_Choice,2022.2.1,MacIntel,60.14675809,,,,,,,,,,,,,,,,,,33,,,,,,,,,,0.02,2,2.5235,0,2,2,2,1,go to emo night with friends,clean my room to get ahead of the mess,0.03,0.02,4.4,0,,,,
,,613aad30bcfed65155a026ec,6685aa9113c938e83b4f1ea0,671bdc4e70cafcdad968bf26,2024-10-25_13h03.27.186,WTP_SM_Choice,2022.2.1,MacIntel,60.14675809,,,,,,,,,,,,,,,,,,34,,,,,,,,,,0.02,2,1.3634,0,3,3,3,1,play video games after a hard day,go to chilis with my sister,0.04,0.02,3.3,1,,,,
,,613aad30bcfed65155a026ec,6685aa9113c938e83b4f1ea0,671bdc4e70cafcdad968bf26,2024-10-25_13h03.27.186,WTP_SM_Choice,2022.2.1,MacIntel,60.14675809,,,,,,,,,,,,,,,,,,35,,,,,,,,,,0.02,2,1.2103,0,4,4,4,1,videochat with some of my long distance besties,watch twilight when it gets cold and gloomy outside,0.05,0.02,1.1,0,,,,
,,613aad30bcfed65155a026ec,6685aa9113c938e83b4f1ea0,671bdc4e70cafcdad968bf26,2024-10-25_13h03.27.186,WTP_SM_Choice,2022.2.1,MacIntel,60.14675809,,,,,,,NAN,,NAN,0.81,5.19,,0,34,34,34,1,35,Alex,Rej,Participant_Images/613aad30bcfed65155a026ec/613aad30bcfed65155a026ec_Images/613aad30bcfed65155a026ec_Image_9.jpeg,liked,2.455989137,,,,,,,,,,,,,,,,,,,,,,
,,613aad30bcfed65155a026ec,6685aa9113c938e83b4f1ea0,671bdc4e70cafcdad968bf26,2024-10-25_13h03.27.186,WTP_SM_Choice,2022.2.1,MacIntel,60.14675809,,,,,space,1.75,NAN,,NAN,0.81,5.19,,0,35,35,35,1,36,Alex,Rej,Participant_Images/613aad30bcfed65155a026ec/613aad30bcfed65155a026ec_Images/613aad30bcfed65155a026ec_Image_21.jpeg,did not like,3.79605092,,,,,,,,,,,,,,,,,,,,,,
,,613aad30bcfed65155a026ec,6685aa9113c938e83b4f1ea0,671bdc4e70cafcdad968bf26,2024-10-25_13h03.27.186,WTP_SM_Choice,2022.2.1,MacIntel,60.14675809,,,,,space,1.2148,NAN,,NAN,0.81,5.19,,0,36,36,36,1,37,Alex,Rej,Participant_Images/613aad30bcfed65155a026ec/613aad30bcfed65155a026ec_Images/613aad30bcfed65155a026ec_Image_3.jpeg,did not like,3.562416326,,,,,,,,,,,,,,,,,,,,,,
,,613aad30bcfed65155a026ec,6685aa9113c938e83b4f1ea0,671bdc4e70cafcdad968bf26,2024-10-25_13h03.27.186,WTP_SM_Choice,2022.2.1,MacIntel,60.14675809,,,,,space,0.7828,NAN,,NAN,0.81,5.19,,0,37,37,37,1,38,Alex,Rej,Participant_Images/613aad30bcfed65155a026ec/613aad30bcfed65155a026ec_Images/613aad30bcfed65155a026ec_Image_17.jpeg,liked,2.843822497,,,,,,,,,,,,,,,,,,,,,,
,,613aad30bcfed65155a026ec,6685aa9113c938e83b4f1ea0,671bdc4e70cafcdad968bf26,2024-10-25_13h03.27.186,WTP_SM_Choice,2022.2.1,MacIntel,60.14675809,,,,,space,0.3707,NAN,,NAN,0.81,5.19,,0,38,38,38,1,39,Alex,Rej,Participant_Images/613aad30bcfed65155a026ec/613aad30bcfed65155a026ec_Images/613aad30bcfed65155a026ec_Image_4.jpeg,did not like,3.546495948,,,,,,,,,,,,,,,,,,,,,,
,,613aad30bcfed65155a026ec,6685aa9113c938e83b4f1ea0,671bdc4e70cafcdad968bf26,2024-10-25_13h03.27.186,WTP_SM_Choice,2022.2.1,MacIntel,60.14675809,,,,,,,,,,,,,,,,,,36,,,,,,space,2.307,space,1.2471,0.01,1,1.6261,0,0,0,0,1,watch twilight when it gets cold and gloomy outside,go to emo night with friends,0.01,0.03,3.3,1,,,,
,,613aad30bcfed65155a026ec,6685aa9113c938e83b4f1ea0,671bdc4e70cafcdad968bf26,2024-10-25_13h03.27.186,WTP_SM_Choice,2022.2.1,MacIntel,60.14675809,,,,,,,,,,,,,,,,,,37,,,,,,,,,,0.02,1,1.5745,0,1,1,1,1,go to the gym with my dad every other day,go for a bike ride when the weather is nice,0.02,0.03,1.1,0,,,,
,,613aad30bcfed65155a026ec,6685aa9113c938e83b4f1ea0,671bdc4e70cafcdad968bf26,2024-10-25_13h03.27.186,WTP_SM_Choice,2022.2.1,MacIntel,60.14675809,,,,,,,,,,,,,,,,,,38,,,,,,,,,,0.03,2,4.2164,0,2,2,2,1,order food from postmates and make friends with delivery driver,sing karaoke on smule when i am bored,0.03,0.03,1.1,0,,,,
,,613aad30bcfed65155a026ec,6685aa9113c938e83b4f1ea0,671bdc4e70cafcdad968bf26,2024-10-25_13h03.27.186,WTP_SM_Choice,2022.2.1,MacIntel,60.14675809,,,,,,,,,,,,,,,,,,39,,,,,,,,,,0.03,2,1.7582,0,3,3,3,1,collaborate with other artists on music,clean my room to get ahead of the mess,0.04,0.03,3.3,0,,,,
,,613aad30bcfed65155a026ec,6685aa9113c938e83b4f1ea0,671bdc4e70cafcdad968bf26,2024-10-25_13h03.27.186,WTP_SM_Choice,2022.2.1,MacIntel,60.14675809,,,,,,,,,,,,,,,,,,40,,,,,,,,,,0.03,2,1.6119,0,4,4,4,1,go to sunday brunch with my entire family,play video games after a hard day,0.05,0.03,4.4,0,,,,
,,613aad30bcfed65155a026ec,6685aa9113c938e83b4f1ea0,671bdc4e70cafcdad968bf26,2024-10-25_13h03.27.186,WTP_SM_Choice,2022.2.1,MacIntel,60.14675809,,,,,,,NAN,,NAN,0.93,5.07,,0,39,39,39,1,40,Alex,Rej,Participant_Images/613aad30bcfed65155a026ec/613aad30bcfed65155a026ec_Images/613aad30bcfed65155a026ec_Image_25.jpeg,liked,1.672012706,,,,,,,,,,,,,,,,,,,,,,
,,613aad30bcfed65155a026ec,6685aa9113c938e83b4f1ea0,671bdc4e70cafcdad968bf26,2024-10-25_13h03.27.186,WTP_SM_Choice,2022.2.1,MacIntel,60.14675809,,,,,space,0.5016,NAN,,NAN,0.93,5.07,,0,40,40,40,1,41,Alex,Rej,Participant_Images/613aad30bcfed65155a026ec/613aad30bcfed65155a026ec_Images/613aad30bcfed65155a026ec_Image_11.jpeg,liked,4.942172136,,,,,,,,,,,,,,,,,,,,,,
,,613aad30bcfed65155a026ec,6685aa9113c938e83b4f1ea0,671bdc4e70cafcdad968bf26,2024-10-25_13h03.27.186,WTP_SM_Choice,2022.2.1,MacIntel,60.14675809,,,,,space,0.7341,NAN,,NAN,0.93,5.07,,0,41,41,41,1,42,Alex,Rej,Participant_Images/613aad30bcfed65155a026ec/613aad30bcfed65155a026ec_Images/613aad30bcfed65155a026ec_Image_20.jpeg,did not like,2.50187214,,,,,,,,,,,,,,,,,,,,,,
,,613aad30bcfed65155a026ec,6685aa9113c938e83b4f1ea0,671bdc4e70cafcdad968bf26,2024-10-25_13h03.27.186,WTP_SM_Choice,2022.2.1,MacIntel,60.14675809,,,,,space,0.319,NAN,,NAN,0.93,5.07,,0,42,42,42,1,43,Alex,Rej,Participant_Images/613aad30bcfed65155a026ec/613aad30bcfed65155a026ec_Images/613aad30bcfed65155a026ec_Image_23.jpeg,did not like,2.071164779,,,,,,,,,,,,,,,,,,,,,,
,,613aad30bcfed65155a026ec,6685aa9113c938e83b4f1ea0,671bdc4e70cafcdad968bf26,2024-10-25_13h03.27.186,WTP_SM_Choice,2022.2.1,MacIntel,60.14675809,,,,,space,0.1042,NAN,,NAN,0.93,5.07,,0,43,43,43,1,44,Alex,Rej,Participant_Images/613aad30bcfed65155a026ec/613aad30bcfed65155a026ec_Images/613aad30bcfed65155a026ec_Image_15.jpeg,liked,5.336503566,,,,,,,,,,,,,,,,,,,,,,
,,613aad30bcfed65155a026ec,6685aa9113c938e83b4f1ea0,671bdc4e70cafcdad968bf26,2024-10-25_13h03.27.186,WTP_SM_Choice,2022.2.1,MacIntel,60.14675809,,,,,,,,,,,,,,,,,,41,,,,,,space,0.5361,space,0.4496,0.01,1,4.2472,0,0,0,0,1,go to sunday brunch with my entire family,watch twilight when it gets cold and gloomy outside,0.01,0.04,1.1,0,,,,
,,613aad30bcfed65155a026ec,6685aa9113c938e83b4f1ea0,671bdc4e70cafcdad968bf26,2024-10-25_13h03.27.186,WTP_SM_Choice,2022.2.1,MacIntel,60.14675809,,,,,,,,,,,,,,,,,,42,,,,,,,,,,0.02,1,2.1705,0,1,1,1,1,listen to youtube while going on a walk,buy ice cream from the ice cream man,0.02,0.04,3.3,1,,,,
,,613aad30bcfed65155a026ec,6685aa9113c938e83b4f1ea0,671bdc4e70cafcdad968bf26,2024-10-25_13h03.27.186,WTP_SM_Choice,2022.2.1,MacIntel,60.14675809,,,,,,,,,,,,,,,,,,43,,,,,,,,,,0.03,1,4.5059,0,2,2,2,1,go for a bike ride when the weather is nice,chat with my friends on twitter,0.03,0.04,1.1,1,,,,
,,613aad30bcfed65155a026ec,6685aa9113c938e83b4f1ea0,671bdc4e70cafcdad968bf26,2024-10-25_13h03.27.186,WTP_SM_Choice,2022.2.1,MacIntel,60.14675809,,,,,,,,,,,,,,,,,,44,,,,,,,,,,0.04,2,5.2156,0,3,3,3,1,buy ice cream from the ice cream man,make music as inspiration strikes me,0.04,0.04,1.1,0,,,,
,,613aad30bcfed65155a026ec,6685aa9113c938e83b4f1ea0,671bdc4e70cafcdad968bf26,2024-10-25_13h03.27.186,WTP_SM_Choice,2022.2.1,MacIntel,60.14675809,,,,,,,,,,,,,,,,,,45,,,,,,,,,,0.04,2,4.3717,0,4,4,4,1,buy ice cream from the ice cream man,go for a bike ride when the weather is nice,0.05,0.04,4.4,0,,,,
,,613aad30bcfed65155a026ec,6685aa9113c938e83b4f1ea0,671bdc4e70cafcdad968bf26,2024-10-25_13h03.27.186,WTP_SM_Choice,2022.2.1,MacIntel,60.14675809,,,,,,,NAN,,NAN,1.07,4.93,,0,44,44,44,1,45,Alex,Rej,Participant_Images/613aad30bcfed65155a026ec/613aad30bcfed65155a026ec_Images/613aad30bcfed65155a026ec_Image_1.jpeg,did not like,2.642157193,,,,,,,,,,,,,,,,,,,,,,
,,613aad30bcfed65155a026ec,6685aa9113c938e83b4f1ea0,671bdc4e70cafcdad968bf26,2024-10-25_13h03.27.186,WTP_SM_Choice,2022.2.1,MacIntel,60.14675809,,,,,space,0.9014,NAN,,NAN,1.07,4.93,,0,45,45,45,1,46,Alex,Rej,Participant_Images/613aad30bcfed65155a026ec/613aad30bcfed65155a026ec_Images/613aad30bcfed65155a026ec_Image_2.jpeg,did not like,4.456234322,,,,,,,,,,,,,,,,,,,,,,
,,613aad30bcfed65155a026ec,6685aa9113c938e83b4f1ea0,671bdc4e70cafcdad968bf26,2024-10-25_13h03.27.186,WTP_SM_Choice,2022.2.1,MacIntel,60.14675809,,,,,space,0.5528,NAN,,NAN,1.07,4.93,,0,46,46,46,1,47,Alex,Rej,Participant_Images/613aad30bcfed65155a026ec/613aad30bcfed65155a026ec_Images/613aad30bcfed65155a026ec_Image_19.jpeg,did not like,4.438512181,,,,,,,,,,,,,,,,,,,,,,
,,613aad30bcfed65155a026ec,6685aa9113c938e83b4f1ea0,671bdc4e70cafcdad968bf26,2024-10-25_13h03.27.186,WTP_SM_Choice,2022.2.1,MacIntel,60.14675809,,,,,space,0.3342,NAN,,NAN,1.07,4.93,,0,47,47,47,1,48,Alex,Rej,Participant_Images/613aad30bcfed65155a026ec/613aad30bcfed65155a026ec_Images/613aad30bcfed65155a026ec_Image_5.jpeg,did not like,2.682944783,,,,,,,,,,,,,,,,,,,,,,
,,613aad30bcfed65155a026ec,6685aa9113c938e83b4f1ea0,671bdc4e70cafcdad968bf26,2024-10-25_13h03.27.186,WTP_SM_Choice,2022.2.1,MacIntel,60.14675809,,,,,space,0.3361,NAN,,NAN,1.07,4.93,,0,48,48,48,1,49,Alex,Rej,Participant_Images/613aad30bcfed65155a026ec/613aad30bcfed65155a026ec_Images/613aad30bcfed65155a026ec_Image_7.jpeg,liked,4.51984296,,,,,,,,,,,,,,,,,,,,,,
,,613aad30bcfed65155a026ec,6685aa9113c938e83b4f1ea0,671bdc4e70cafcdad968bf26,2024-10-25_13h03.27.186,WTP_SM_Choice,2022.2.1,MacIntel,60.14675809,,,,,,,,,,,,,,,,,,46,,,,,,space,0.4744,space,0.3513,0.01,1,9.7939,0,0,0,0,1,play video games after a hard day,go to the gym with my dad every other day,0.01,0.05,8.8,1,,,,
,,613aad30bcfed65155a026ec,6685aa9113c938e83b4f1ea0,671bdc4e70cafcdad968bf26,2024-10-25_13h03.27.186,WTP_SM_Choice,2022.2.1,MacIntel,60.14675809,,,,,,,,,,,,,,,,,,47,,,,,,,,,,0.02,1,1.3305,0,1,1,1,1,paint portraits,videochat with some of my long distance besties,0.02,0.05,1.1,1,,,,
,,613aad30bcfed65155a026ec,6685aa9113c938e83b4f1ea0,671bdc4e70cafcdad968bf26,2024-10-25_13h03.27.186,WTP_SM_Choice,2022.2.1,MacIntel,60.14675809,,,,,,,,,,,,,,,,,,48,,,,,,,,,,0.03,1,1.4906,0,2,2,2,1,chat with my friends on twitter,play video games after a hard day,0.03,0.05,4.4,0,,,,
,,613aad30bcfed65155a026ec,6685aa9113c938e83b4f1ea0,671bdc4e70cafcdad968bf26,2024-10-25_13h03.27.186,WTP_SM_Choice,2022.2.1,MacIntel,60.14675809,,,,,,,,,,,,,,,,,,49,,,,,,,,,,0.04,1,1.2621,0,3,3,3,1,chat with my friends on twitter,listen to youtube while going on a walk,0.04,0.05,3.3,0,,,,
,,613aad30bcfed65155a026ec,6685aa9113c938e83b4f1ea0,671bdc4e70cafcdad968bf26,2024-10-25_13h03.27.186,WTP_SM_Choice,2022.2.1,MacIntel,60.14675809,,,,,,,,,,,,,,,,,,50,,,,,,,,,,0.05,2,4.5841,0,4,4,4,1,do tarot readings,buy ice cream from the ice cream man,0.05,0.05,1.1,1,,,,
,,613aad30bcfed65155a026ec,6685aa9113c938e83b4f1ea0,671bdc4e70cafcdad968bf26,2024-10-25_13h03.27.186,WTP_SM_Choice,2022.2.1,MacIntel,60.14675809,,,,,,,1,,1,1.22,4.78,,0,49,49,49,1,50,Alex,Rej,Participant_Images/613aad30bcfed65155a026ec/613aad30bcfed65155a026ec_Images/613aad30bcfed65155a026ec_Image_10.jpeg,did not like,3.195382774,,,,,,,,,,,,,,,,,,,space,1.0677,,
,,613aad30bcfed65155a026ec,6685aa9113c938e83b4f1ea0,671bdc4e70cafcdad968bf26,2024-10-25_13h03.27.186,WTP_SM_Choice,2022.2.1,MacIntel,60.14675809,,,space,2.9254,space,2.6467,NAN,,NAN,1.22,4.78,,0,50,50,50,1,51,Sam,Rej,Participant_Images/613aad30bcfed65155a026ec/613aad30bcfed65155a026ec_Images/613aad30bcfed65155a026ec_Image_10.jpeg,did not like,1.779333479,,,,,,,,,,,,,,,,,,,,,,
,,613aad30bcfed65155a026ec,6685aa9113c938e83b4f1ea0,671bdc4e70cafcdad968bf26,2024-10-25_13h03.27.186,WTP_SM_Choice,2022.2.1,MacIntel,60.14675809,,,,,space,3.7935,NAN,,NAN,1.22,4.78,,0,51,51,51,1,52,Sam,Rej,Participant_Images/613aad30bcfed65155a026ec/613aad30bcfed65155a026ec_Images/613aad30bcfed65155a026ec_Image_23.jpeg,liked,4.312468682,,,,,,,,,,,,,,,,,,,,,,
,,613aad30bcfed65155a026ec,6685aa9113c938e83b4f1ea0,671bdc4e70cafcdad968bf26,2024-10-25_13h03.27.186,WTP_SM_Choice,2022.2.1,MacIntel,60.14675809,,,,,space,0.7677,NAN,,NAN,1.22,4.78,,0,52,52,52,1,53,Sam,Rej,Participant_Images/613aad30bcfed65155a026ec/613aad30bcfed65155a026ec_Images/613aad30bcfed65155a026ec_Image_21.jpeg,liked,4.940433059,,,,,,,,,,,,,,,,,,,,,,
,,613aad30bcfed65155a026ec,6685aa9113c938e83b4f1ea0,671bdc4e70cafcdad968bf26,2024-10-25_13h03.27.186,WTP_SM_Choice,2022.2.1,MacIntel,60.14675809,,,,,space,3.3943,NAN,,NAN,1.22,4.78,,0,53,53,53,1,54,Sam,Rej,Participant_Images/613aad30bcfed65155a026ec/613aad30bcfed65155a026ec_Images/613aad30bcfed65155a026ec_Image_6.jpeg,did not like,2.7105123,,,,,,,,,,,,,,,,,,,,,,
,,613aad30bcfed65155a026ec,6685aa9113c938e83b4f1ea0,671bdc4e70cafcdad968bf26,2024-10-25_13h03.27.186,WTP_SM_Choice,2022.2.1,MacIntel,60.14675809,,,,,,,,,,,,,,,,,,51,,,,,,space,1.9372,space,0.7005,0.01,1,2.113,0,0,0,0,1,listen to youtube while going on a walk,order food from postmates and make friends with delivery driver,0.01,0.01,1.1,1,,,,
,,613aad30bcfed65155a026ec,6685aa9113c938e83b4f1ea0,671bdc4e70cafcdad968bf26,2024-10-25_13h03.27.186,WTP_SM_Choice,2022.2.1,MacIntel,60.14675809,,,,,,,,,,,,,,,,,,52,,,,,,,,,,0.01,2,1.8567,0,1,1,1,1,draw in my room ,order food from postmates and make friends with delivery driver,0.02,0.01,3.3,1,,,,
,,613aad30bcfed65155a026ec,6685aa9113c938e83b4f1ea0,671bdc4e70cafcdad968bf26,2024-10-25_13h03.27.186,WTP_SM_Choice,2022.2.1,MacIntel,60.14675809,,,,,,,,,,,,,,,,,,53,,,,,,,,,,0.01,2,1.3048,0,2,2,2,1,videochat with some of my long distance besties,clean my room to get ahead of the mess,0.03,0.01,1.1,0,,,,
,,613aad30bcfed65155a026ec,6685aa9113c938e83b4f1ea0,671bdc4e70cafcdad968bf26,2024-10-25_13h03.27.186,WTP_SM_Choice,2022.2.1,MacIntel,60.14675809,,,,,,,,,,,,,,,,,,54,,,,,,,,,,0.01,2,1.3332,0,3,3,3,1,make music as inspiration strikes me,videochat with some of my long distance besties,0.04,0.01,4.4,1,,,,
,,613aad30bcfed65155a026ec,6685aa9113c938e83b4f1ea0,671bdc4e70cafcdad968bf26,2024-10-25_13h03.27.186,WTP_SM_Choice,2022.2.1,MacIntel,60.14675809,,,,,,,,,,,,,,,,,,55,,,,,,,,,,0.01,2,1.2836,0,4,4,4,1,sing karaoke on smule when i am bored,go to emo night with friends,0.05,0.01,1.1,1,,,,
,,613aad30bcfed65155a026ec,6685aa9113c938e83b4f1ea0,671bdc4e70cafcdad968bf26,2024-10-25_13h03.27.186,WTP_SM_Choice,2022.2.1,MacIntel,60.14675809,,,,,,,NAN,,NAN,1.27,4.73,,0,54,54,54,1,55,Sam,Rej,Participant_Images/613aad30bcfed65155a026ec/613aad30bcfed65155a026ec_Images/613aad30bcfed65155a026ec_Image_1.jpeg,did not like,3.602308302,,,,,,,,,,,,,,,,,,,,,,
,,613aad30bcfed65155a026ec,6685aa9113c938e83b4f1ea0,671bdc4e70cafcdad968bf26,2024-10-25_13h03.27.186,WTP_SM_Choice,2022.2.1,MacIntel,60.14675809,,,,,space,1.1195,NAN,,NAN,1.27,4.73,,0,55,55,55,1,56,Sam,Rej,Participant_Images/613aad30bcfed65155a026ec/613aad30bcfed65155a026ec_Images/613aad30bcfed65155a026ec_Image_15.jpeg,did not like,4.106391878,,,,,,,,,,,,,,,,,,,,,,
,,613aad30bcfed65155a026ec,6685aa9113c938e83b4f1ea0,671bdc4e70cafcdad968bf26,2024-10-25_13h03.27.186,WTP_SM_Choice,2022.2.1,MacIntel,60.14675809,,,,,space,1.7185,NAN,,NAN,1.27,4.73,,0,56,56,56,1,57,Sam,Rej,Participant_Images/613aad30bcfed65155a026ec/613aad30bcfed65155a026ec_Images/613aad30bcfed65155a026ec_Image_2.jpeg,did not like,3.799433026,,,,,,,,,,,,,,,,,,,,,,
,,613aad30bcfed65155a026ec,6685aa9113c938e83b4f1ea0,671bdc4e70cafcdad968bf26,2024-10-25_13h03.27.186,WTP_SM_Choice,2022.2.1,MacIntel,60.14675809,,,,,space,0.0359,NAN,,NAN,1.27,4.73,,0,57,57,57,1,58,Sam,Rej,Participant_Images/613aad30bcfed65155a026ec/613aad30bcfed65155a026ec_Images/613aad30bcfed65155a026ec_Image_18.jpeg,did not like,5.246980764,,,,,,,,,,,,,,,,,,,,,,
,,613aad30bcfed65155a026ec,6685aa9113c938e83b4f1ea0,671bdc4e70cafcdad968bf26,2024-10-25_13h03.27.186,WTP_SM_Choice,2022.2.1,MacIntel,60.14675809,,,,,space,0.9165,NAN,,NAN,1.27,4.73,,0,58,58,58,1,59,Sam,Rej,Participant_Images/613aad30bcfed65155a026ec/613aad30bcfed65155a026ec_Images/613aad30bcfed65155a026ec_Image_17.jpeg,did not like,3.30081769,,,,,,,,,,,,,,,,,,,,,,
,,613aad30bcfed65155a026ec,6685aa9113c938e83b4f1ea0,671bdc4e70cafcdad968bf26,2024-10-25_13h03.27.186,WTP_SM_Choice,2022.2.1,MacIntel,60.14675809,,,,,,,,,,,,,,,,,,56,,,,,,space,0.4026,space,0.3199,,,,0,0,0,0,1,go to the gym with my dad every other day,clean my room to get ahead of the mess,0.01,0.02,8.8,0,,,,
,,613aad30bcfed65155a026ec,6685aa9113c938e83b4f1ea0,671bdc4e70cafcdad968bf26,2024-10-25_13h03.27.186,WTP_SM_Choice,2022.2.1,MacIntel,60.14675809,,,,,,,,,,,,,,,,,,57,,,,,,,,,,0.02,2,1.3956,0,1,1,1,1,collaborate with other artists on music,draw in my room ,0.02,0.02,4.4,0,,,,
,,613aad30bcfed65155a026ec,6685aa9113c938e83b4f1ea0,671bdc4e70cafcdad968bf26,2024-10-25_13h03.27.186,WTP_SM_Choice,2022.2.1,MacIntel,60.14675809,,,,,,,,,,,,,,,,,,58,,,,,,,,,,0.02,2,1.0976,0,2,2,2,1,sing karaoke on smule when i am bored,go to sunday brunch with my entire family,0.03,0.02,4.4,1,,,,
,,613aad30bcfed65155a026ec,6685aa9113c938e83b4f1ea0,671bdc4e70cafcdad968bf26,2024-10-25_13h03.27.186,WTP_SM_Choice,2022.2.1,MacIntel,60.14675809,,,,,,,,,,,,,,,,,,59,,,,,,,,,,0.02,2,1.28,0,3,3,3,1,collaborate with other artists on music,sing karaoke on smule when i am bored,0.04,0.02,4.4,0,,,,
,,613aad30bcfed65155a026ec,6685aa9113c938e83b4f1ea0,671bdc4e70cafcdad968bf26,2024-10-25_13h03.27.186,WTP_SM_Choice,2022.2.1,MacIntel,60.14675809,,,,,,,,,,,,,,,,,,60,,,,,,,,,,0.02,2,1.0767,0,4,4,4,1,paint portraits,go to the gym with my dad every other day,0.05,0.02,1.1,1,,,,
,,613aad30bcfed65155a026ec,6685aa9113c938e83b4f1ea0,671bdc4e70cafcdad968bf26,2024-10-25_13h03.27.186,WTP_SM_Choice,2022.2.1,MacIntel,60.14675809,,,,,,,NAN,,NAN,1.35,4.65,,0,59,59,59,1,60,Sam,Rej,Participant_Images/613aad30bcfed65155a026ec/613aad30bcfed65155a026ec_Images/613aad30bcfed65155a026ec_Image_11.jpeg,did not like,1.661473164,,,,,,,,,,,,,,,,,,,,,,
,,613aad30bcfed65155a026ec,6685aa9113c938e83b4f1ea0,671bdc4e70cafcdad968bf26,2024-10-25_13h03.27.186,WTP_SM_Choice,2022.2.1,MacIntel,60.14675809,,,,,space,1.6813,NAN,,NAN,1.35,4.65,,0,60,60,60,1,61,Sam,Rej,Participant_Images/613aad30bcfed65155a026ec/613aad30bcfed65155a026ec_Images/613aad30bcfed65155a026ec_Image_19.jpeg,did not like,3.613205605,,,,,,,,,,,,,,,,,,,,,,
,,613aad30bcfed65155a026ec,6685aa9113c938e83b4f1ea0,671bdc4e70cafcdad968bf26,2024-10-25_13h03.27.186,WTP_SM_Choice,2022.2.1,MacIntel,60.14675809,,,,,space,0.3845,NAN,,NAN,1.35,4.65,,0,61,61,61,1,62,Sam,Rej,Participant_Images/613aad30bcfed65155a026ec/613aad30bcfed65155a026ec_Images/613aad30bcfed65155a026ec_Image_14.jpeg,liked,4.988446431,,,,,,,,,,,,,,,,,,,,,,
,,613aad30bcfed65155a026ec,6685aa9113c938e83b4f1ea0,671bdc4e70cafcdad968bf26,2024-10-25_13h03.27.186,WTP_SM_Choice,2022.2.1,MacIntel,60.14675809,,,,,space,0.286,NAN,,NAN,1.35,4.65,,0,62,62,62,1,63,Sam,Rej,Participant_Images/613aad30bcfed65155a026ec/613aad30bcfed65155a026ec_Images/613aad30bcfed65155a026ec_Image_25.jpeg,did not like,3.470791822,,,,,,,,,,,,,,,,,,,,,,
,,613aad30bcfed65155a026ec,6685aa9113c938e83b4f1ea0,671bdc4e70cafcdad968bf26,2024-10-25_13h03.27.186,WTP_SM_Choice,2022.2.1,MacIntel,60.14675809,,,,,space,0.5344,NAN,,NAN,1.35,4.65,,0,63,63,63,1,64,Sam,Rej,Participant_Images/613aad30bcfed65155a026ec/613aad30bcfed65155a026ec_Images/613aad30bcfed65155a026ec_Image_9.jpeg,did not like,3.820572462,,,,,,,,,,,,,,,,,,,,,,
,,613aad30bcfed65155a026ec,6685aa9113c938e83b4f1ea0,671bdc4e70cafcdad968bf26,2024-10-25_13h03.27.186,WTP_SM_Choice,2022.2.1,MacIntel,60.14675809,,,,,,,,,,,,,,,,,,61,,,,,,space,0.4167,space,4.5772,0.01,1,3.3044,0,0,0,0,1,go to the gym with my dad every other day,draw in my room ,0.01,0.03,3.3,0,,,,
,,613aad30bcfed65155a026ec,6685aa9113c938e83b4f1ea0,671bdc4e70cafcdad968bf26,2024-10-25_13h03.27.186,WTP_SM_Choice,2022.2.1,MacIntel,60.14675809,,,,,,,,,,,,,,,,,,62,,,,,,,,,,0.02,1,2.4877,0,1,1,1,1,go to emo night with friends,go for a bike ride when the weather is nice,0.02,0.03,3.3,0,,,,
,,613aad30bcfed65155a026ec,6685aa9113c938e83b4f1ea0,671bdc4e70cafcdad968bf26,2024-10-25_13h03.27.186,WTP_SM_Choice,2022.2.1,MacIntel,60.14675809,,,,,,,,,,,,,,,,,,63,,,,,,,,,,0.03,1,4.5878,0,2,2,2,1,watch twilight when it gets cold and gloomy outside,go to chilis with my sister,0.03,0.03,3.3,1,,,,
,,613aad30bcfed65155a026ec,6685aa9113c938e83b4f1ea0,671bdc4e70cafcdad968bf26,2024-10-25_13h03.27.186,WTP_SM_Choice,2022.2.1,MacIntel,60.14675809,,,,,,,,,,,,,,,,,,64,,,,,,,,,,0.03,2,2.241,0,3,3,3,1,paint portraits,collaborate with other artists on music,0.04,0.03,1.1,1,,,,
,,613aad30bcfed65155a026ec,6685aa9113c938e83b4f1ea0,671bdc4e70cafcdad968bf26,2024-10-25_13h03.27.186,WTP_SM_Choice,2022.2.1,MacIntel,60.14675809,,,,,,,,,,,,,,,,,,65,,,,,,,,,,0.03,2,2.5052,0,4,4,4,1,do tarot readings,watch a new movie with my family,0.05,0.03,1.1,1,,,,
,,613aad30bcfed65155a026ec,6685aa9113c938e83b4f1ea0,671bdc4e70cafcdad968bf26,2024-10-25_13h03.27.186,WTP_SM_Choice,2022.2.1,MacIntel,60.14675809,,,,,,,NAN,,NAN,1.47,4.53,,0,64,64,64,1,65,Sam,Rej,Participant_Images/613aad30bcfed65155a026ec/613aad30bcfed65155a026ec_Images/613aad30bcfed65155a026ec_Image_8.jpeg,liked,2.455989137,,,,,,,,,,,,,,,,,,,,,,
,,613aad30bcfed65155a026ec,6685aa9113c938e83b4f1ea0,671bdc4e70cafcdad968bf26,2024-10-25_13h03.27.186,WTP_SM_Choice,2022.2.1,MacIntel,60.14675809,,,,,space,2.8787,NAN,,NAN,1.47,4.53,,0,65,65,65,1,66,Sam,Rej,Participant_Images/613aad30bcfed65155a026ec/613aad30bcfed65155a026ec_Images/613aad30bcfed65155a026ec_Image_24.jpeg,liked,3.79605092,,,,,,,,,,,,,,,,,,,,,,
,,613aad30bcfed65155a026ec,6685aa9113c938e83b4f1ea0,671bdc4e70cafcdad968bf26,2024-10-25_13h03.27.186,WTP_SM_Choice,2022.2.1,MacIntel,60.14675809,,,,,space,0.387,NAN,,NAN,1.47,4.53,,0,66,66,66,1,67,Sam,Rej,Participant_Images/613aad30bcfed65155a026ec/613aad30bcfed65155a026ec_Images/613aad30bcfed65155a026ec_Image_16.jpeg,did not like,3.562416326,,,,,,,,,,,,,,,,,,,,,,
,,613aad30bcfed65155a026ec,6685aa9113c938e83b4f1ea0,671bdc4e70cafcdad968bf26,2024-10-25_13h03.27.186,WTP_SM_Choice,2022.2.1,MacIntel,60.14675809,,,,,space,0.5326,NAN,,NAN,1.47,4.53,,0,67,67,67,1,68,Sam,Rej,Participant_Images/613aad30bcfed65155a026ec/613aad30bcfed65155a026ec_Images/613aad30bcfed65155a026ec_Image_4.jpeg,liked,2.843822497,,,,,,,,,,,,,,,,,,,,,,
,,613aad30bcfed65155a026ec,6685aa9113c938e83b4f1ea0,671bdc4e70cafcdad968bf26,2024-10-25_13h03.27.186,WTP_SM_Choice,2022.2.1,MacIntel,60.14675809,,,,,space,1.1206,NAN,,NAN,1.47,4.53,,0,68,68,68,1,69,Sam,Rej,Participant_Images/613aad30bcfed65155a026ec/613aad30bcfed65155a026ec_Images/613aad30bcfed65155a026ec_Image_3.jpeg,did not like,3.546495948,,,,,,,,,,,,,,,,,,,,,,
,,613aad30bcfed65155a026ec,6685aa9113c938e83b4f1ea0,671bdc4e70cafcdad968bf26,2024-10-25_13h03.27.186,WTP_SM_Choice,2022.2.1,MacIntel,60.14675809,,,,,,,,,,,,,,,,,,66,,,,,,space,0.8162,space,3.0941,0.01,1,1.3819,0,0,0,0,1,make music as inspiration strikes me,go to chilis with my sister,0.01,0.04,1.1,1,,,,
,,613aad30bcfed65155a026ec,6685aa9113c938e83b4f1ea0,671bdc4e70cafcdad968bf26,2024-10-25_13h03.27.186,WTP_SM_Choice,2022.2.1,MacIntel,60.14675809,,,,,,,,,,,,,,,,,,67,,,,,,,,,,0.02,1,2.3048,0,1,1,1,1,make music as inspiration strikes me,collaborate with other artists on music,0.02,0.04,8.8,1,,,,
,,613aad30bcfed65155a026ec,6685aa9113c938e83b4f1ea0,671bdc4e70cafcdad968bf26,2024-10-25_13h03.27.186,WTP_SM_Choice,2022.2.1,MacIntel,60.14675809,,,,,,,,,,,,,,,,,,68,,,,,,,,,,0.03,1,2.0435,0,2,2,2,1,go to chilis with my sister,go for a bike ride when the weather is nice,0.03,0.04,4.4,0,,,,
,,613aad30bcfed65155a026ec,6685aa9113c938e83b4f1ea0,671bdc4e70cafcdad968bf26,2024-10-25_13h03.27.186,WTP_SM_Choice,2022.2.1,MacIntel,60.14675809,,,,,,,,,,,,,,,,,,69,,,,,,,,,,0.04,1,5.4715,0,3,3,3,1,chat with my friends on twitter,sing karaoke on smule when i am bored,0.04,0.04,1.1,0,,,,
,,613aad30bcfed65155a026ec,6685aa9113c938e83b4f1ea0,671bdc4e70cafcdad968bf26,2024-10-25_13h03.27.186,WTP_SM_Choice,2022.2.1,MacIntel,60.14675809,,,,,,,,,,,,,,,,,,70,,,,,,,,,,0.04,2,6.1118,0,4,4,4,1,watch twilight when it gets cold and gloomy outside,watch a new movie with my family,0.05,0.04,1.1,1,,,,
,,613aad30bcfed65155a026ec,6685aa9113c938e83b4f1ea0,671bdc4e70cafcdad968bf26,2024-10-25_13h03.27.186,WTP_SM_Choice,2022.2.1,MacIntel,60.14675809,,,,,,,NAN,,NAN,1.61,4.39,,0,69,69,69,1,70,Sam,Rej,Participant_Images/613aad30bcfed65155a026ec/613aad30bcfed65155a026ec_Images/613aad30bcfed65155a026ec_Image_22.jpeg,did not like,1.672012706,,,,,,,,,,,,,,,,,,,,,,
,,613aad30bcfed65155a026ec,6685aa9113c938e83b4f1ea0,671bdc4e70cafcdad968bf26,2024-10-25_13h03.27.186,WTP_SM_Choice,2022.2.1,MacIntel,60.14675809,,,,,space,2.4471,NAN,,NAN,1.61,4.39,,0,70,70,70,1,71,Sam,Rej,Participant_Images/613aad30bcfed65155a026ec/613aad30bcfed65155a026ec_Images/613aad30bcfed65155a026ec_Image_12.jpeg,did not like,4.942172136,,,,,,,,,,,,,,,,,,,,,,
,,613aad30bcfed65155a026ec,6685aa9113c938e83b4f1ea0,671bdc4e70cafcdad968bf26,2024-10-25_13h03.27.186,WTP_SM_Choice,2022.2.1,MacIntel,60.14675809,,,,,space,1.032,NAN,,NAN,1.61,4.39,,0,71,71,71,1,72,Sam,Rej,Participant_Images/613aad30bcfed65155a026ec/613aad30bcfed65155a026ec_Images/613aad30bcfed65155a026ec_Image_7.jpeg,liked,2.50187214,,,,,,,,,,,,,,,,,,,,,,
,,613aad30bcfed65155a026ec,6685aa9113c938e83b4f1ea0,671bdc4e70cafcdad968bf26,2024-10-25_13h03.27.186,WTP_SM_Choice,2022.2.1,MacIntel,60.14675809,,,,,space,0.3547,NAN,,NAN,1.61,4.39,,0,72,72,72,1,73,Sam,Rej,Participant_Images/613aad30bcfed65155a026ec/613aad30bcfed65155a026ec_Images/613aad30bcfed65155a026ec_Image_13.jpeg,did not like,2.071164779,,,,,,,,,,,,,,,,,,,,,,
,,613aad30bcfed65155a026ec,6685aa9113c938e83b4f1ea0,671bdc4e70cafcdad968bf26,2024-10-25_13h03.27.186,WTP_SM_Choice,2022.2.1,MacIntel,60.14675809,,,,,space,1.8975,NAN,,NAN,1.61,4.39,,0,73,73,73,1,74,Sam,Rej,Participant_Images/613aad30bcfed65155a026ec/613aad30bcfed65155a026ec_Images/613aad30bcfed65155a026ec_Image_20.jpeg,did not like,5.336503566,,,,,,,,,,,,,,,,,,,,,,
,,613aad30bcfed65155a026ec,6685aa9113c938e83b4f1ea0,671bdc4e70cafcdad968bf26,2024-10-25_13h03.27.186,WTP_SM_Choice,2022.2.1,MacIntel,60.14675809,,,,,,,,,,,,,,,,,,71,,,,,,space,1.3214,space,4.2571,0.01,1,2.2242,0,0,0,0,1,go for a bike ride when the weather is nice,order food from postmates and make friends with delivery driver,0.01,0.05,3.3,1,,,,
,,613aad30bcfed65155a026ec,6685aa9113c938e83b4f1ea0,671bdc4e70cafcdad968bf26,2024-10-25_13h03.27.186,WTP_SM_Choice,2022.2.1,MacIntel,60.14675809,,,,,,,,,,,,,,,,,,72,,,,,,,,,,0.02,1,2.7421,0,1,1,1,1,paint portraits,watch a new movie with my family,0.02,0.05,8.8,1,,,,
,,613aad30bcfed65155a026ec,6685aa9113c938e83b4f1ea0,671bdc4e70cafcdad968bf26,2024-10-25_13h03.27.186,WTP_SM_Choice,2022.2.1,MacIntel,60.14675809,,,,,,,,,,,,,,,,,,73,,,,,,,,,,0.03,1,1.313,0,2,2,2,1,watch a new movie with my family,go for a bike ride when the weather is nice,0.03,0.05,3.3,0,,,,
,,613aad30bcfed65155a026ec,6685aa9113c938e83b4f1ea0,671bdc4e70cafcdad968bf26,2024-10-25_13h03.27.186,WTP_SM_Choice,2022.2.1,MacIntel,60.14675809,,,,,,,,,,,,,,,,,,74,,,,,,,,,,0.04,1,1.757,0,3,3,3,1,videochat with some of my long distance besties,do tarot readings,0.04,0.05,4.4,0,,,,
,,613aad30bcfed65155a026ec,6685aa9113c938e83b4f1ea0,671bdc4e70cafcdad968bf26,2024-10-25_13h03.27.186,WTP_SM_Choice,2022.2.1,MacIntel,60.14675809,,,,,,,,,,,,,,,,,,75,,,,,,,,,,0.05,1,6.7605,0,4,4,4,1,listen to youtube while going on a walk,go to sunday brunch with my entire family,0.05,0.05,3.3,1,,,,
,,613aad30bcfed65155a026ec,6685aa9113c938e83b4f1ea0,671bdc4e70cafcdad968bf26,2024-10-25_13h03.27.186,WTP_SM_Choice,2022.2.1,MacIntel,60.14675809,,,,,,,2,,2,1.76,4.24,,0,74,74,74,1,75,Sam,Rej,Participant_Images/613aad30bcfed65155a026ec/613aad30bcfed65155a026ec_Images/613aad30bcfed65155a026ec_Image_5.jpeg,did not like,2.642157193,,,,,,,,,,,,,,,,,,,space,1.5976,,
,,613aad30bcfed65155a026ec,6685aa9113c938e83b4f1ea0,671bdc4e70cafcdad968bf26,2024-10-25_13h03.27.186,WTP_SM_Choice,2022.2.1,MacIntel,60.14675809,,,space,3.4394,space,1.3801,NAN,,NAN,1.76,4.24,,0,75,75,75,1,76,Charlie,Acc,Participant_Images/613aad30bcfed65155a026ec/613aad30bcfed65155a026ec_Images/613aad30bcfed65155a026ec_Image_10.jpeg,liked,4.456234322,,,,,,,,,,,,,,,,,,,,,,
,,613aad30bcfed65155a026ec,6685aa9113c938e83b4f1ea0,671bdc4e70cafcdad968bf26,2024-10-25_13h03.27.186,WTP_SM_Choice,2022.2.1,MacIntel,60.14675809,,,,,space,1.3808,NAN,,NAN,1.76,4.24,,0,76,76,76,1,77,Charlie,Acc,Participant_Images/613aad30bcfed65155a026ec/613aad30bcfed65155a026ec_Images/613aad30bcfed65155a026ec_Image_5.jpeg,liked,4.438512181,,,,,,,,,,,,,,,,,,,,,,
,,613aad30bcfed65155a026ec,6685aa9113c938e83b4f1ea0,671bdc4e70cafcdad968bf26,2024-10-25_13h03.27.186,WTP_SM_Choice,2022.2.1,MacIntel,60.14675809,,,,,space,1.1822,NAN,,NAN,1.76,4.24,,0,77,77,77,1,78,Charlie,Acc,Participant_Images/613aad30bcfed65155a026ec/613aad30bcfed65155a026ec_Images/613aad30bcfed65155a026ec_Image_14.jpeg,did not like,2.682944783,,,,,,,,,,,,,,,,,,,,,,
,,613aad30bcfed65155a026ec,6685aa9113c938e83b4f1ea0,671bdc4e70cafcdad968bf26,2024-10-25_13h03.27.186,WTP_SM_Choice,2022.2.1,MacIntel,60.14675809,,,,,space,1.215,NAN,,NAN,1.76,4.24,,0,78,78,78,1,79,Charlie,Acc,Participant_Images/613aad30bcfed65155a026ec/613aad30bcfed65155a026ec_Images/613aad30bcfed65155a026ec_Image_1.jpeg,liked,4.51984296,,,,,,,,,,,,,,,,,,,,,,
,,613aad30bcfed65155a026ec,6685aa9113c938e83b4f1ea0,671bdc4e70cafcdad968bf26,2024-10-25_13h03.27.186,WTP_SM_Choice,2022.2.1,MacIntel,60.14675809,,,,,,,,,,,,,,,,,,76,,,,,,space,1.1686,space,1.8169,0.01,1,1.7551,0,0,0,0,1,buy ice cream from the ice cream man,sing karaoke on smule when i am bored,0.01,0.01,1.1,0,,,,
,,613aad30bcfed65155a026ec,6685aa9113c938e83b4f1ea0,671bdc4e70cafcdad968bf26,2024-10-25_13h03.27.186,WTP_SM_Choice,2022.2.1,MacIntel,60.14675809,,,,,,,,,,,,,,,,,,77,,,,,,,,,,0.01,2,2.1732,0,1,1,1,1,watch twilight when it gets cold and gloomy outside,go to the gym with my dad every other day,0.02,0.01,8.8,1,,,,
,,613aad30bcfed65155a026ec,6685aa9113c938e83b4f1ea0,671bdc4e70cafcdad968bf26,2024-10-25_13h03.27.186,WTP_SM_Choice,2022.2.1,MacIntel,60.14675809,,,,,,,,,,,,,,,,,,78,,,,,,,,,,0.01,2,1.9955,0,2,2,2,1,go to the gym with my dad every other day,sing karaoke on smule when i am bored,0.03,0.01,1.1,0,,,,
,,613aad30bcfed65155a026ec,6685aa9113c938e83b4f1ea0,671bdc4e70cafcdad968bf26,2024-10-25_13h03.27.186,WTP_SM_Choice,2022.2.1,MacIntel,60.14675809,,,,,,,,,,,,,,,,,,79,,,,,,,,,,0.01,2,2.1688,0,3,3,3,1,make music as inspiration strikes me,order food from postmates and make friends with delivery driver,0.04,0.01,1.1,1,,,,
,,613aad30bcfed65155a026ec,6685aa9113c938e83b4f1ea0,671bdc4e70cafcdad968bf26,2024-10-25_13h03.27.186,WTP_SM_Choice,2022.2.1,MacIntel,60.14675809,,,,,,,,,,,,,,,,,,80,,,,,,,,,,0.01,2,1.8898,0,4,4,4,1,make music as inspiration strikes me,go to emo night with friends,0.05,0.01,4.4,1,,,,
,,613aad30bcfed65155a026ec,6685aa9113c938e83b4f1ea0,671bdc4e70cafcdad968bf26,2024-10-25_13h03.27.186,WTP_SM_Choice,2022.2.1,MacIntel,60.14675809,,,,,,,NAN,,NAN,1.81,4.19,,0,79,79,79,1,80,Charlie,Acc,Participant_Images/613aad30bcfed65155a026ec/613aad30bcfed65155a026ec_Images/613aad30bcfed65155a026ec_Image_13.jpeg,did not like,3.195382774,,,,,,,,,,,,,,,,,,,,,,
,,613aad30bcfed65155a026ec,6685aa9113c938e83b4f1ea0,671bdc4e70cafcdad968bf26,2024-10-25_13h03.27.186,WTP_SM_Choice,2022.2.1,MacIntel,60.14675809,,,,,space,1.4819,NAN,,NAN,1.81,4.19,,0,80,80,80,1,81,Charlie,Acc,Participant_Images/613aad30bcfed65155a026ec/613aad30bcfed65155a026ec_Images/613aad30bcfed65155a026ec_Image_2.jpeg,liked,1.779333479,,,,,,,,,,,,,,,,,,,,,,
,,613aad30bcfed65155a026ec,6685aa9113c938e83b4f1ea0,671bdc4e70cafcdad968bf26,2024-10-25_13h03.27.186,WTP_SM_Choice,2022.2.1,MacIntel,60.14675809,,,,,space,2.0347,NAN,,NAN,1.81,4.19,,0,81,81,81,1,82,Charlie,Acc,Participant_Images/613aad30bcfed65155a026ec/613aad30bcfed65155a026ec_Images/613aad30bcfed65155a026ec_Image_3.jpeg,liked,4.312468682,,,,,,,,,,,,,,,,,,,,,,
,,613aad30bcfed65155a026ec,6685aa9113c938e83b4f1ea0,671bdc4e70cafcdad968bf26,2024-10-25_13h03.27.186,WTP_SM_Choice,2022.2.1,MacIntel,60.14675809,,,,,space,1.518,NAN,,NAN,1.81,4.19,,0,82,82,82,1,83,Charlie,Acc,Participant_Images/613aad30bcfed65155a026ec/613aad30bcfed65155a026ec_Images/613aad30bcfed65155a026ec_Image_23.jpeg,did not like,4.940433059,,,,,,,,,,,,,,,,,,,,,,
,,613aad30bcfed65155a026ec,6685aa9113c938e83b4f1ea0,671bdc4e70cafcdad968bf26,2024-10-25_13h03.27.186,WTP_SM_Choice,2022.2.1,MacIntel,60.14675809,,,,,space,1.1022,NAN,,NAN,1.81,4.19,,0,83,83,83,1,84,Charlie,Acc,Participant_Images/613aad30bcfed65155a026ec/613aad30bcfed65155a026ec_Images/613aad30bcfed65155a026ec_Image_16.jpeg,liked,2.7105123,,,,,,,,,,,,,,,,,,,,,,
,,613aad30bcfed65155a026ec,6685aa9113c938e83b4f1ea0,671bdc4e70cafcdad968bf26,2024-10-25_13h03.27.186,WTP_SM_Choice,2022.2.1,MacIntel,60.14675809,,,,,,,,,,,,,,,,,,81,,,,,,space,2.6623,space,2.6302,0.01,1,1.6899,0,0,0,0,1,go for a bike ride when the weather is nice,videochat with some of my long distance besties,0.01,0.02,3.3,1,,,,
,,613aad30bcfed65155a026ec,6685aa9113c938e83b4f1ea0,671bdc4e70cafcdad968bf26,2024-10-25_13h03.27.186,WTP_SM_Choice,2022.2.1,MacIntel,60.14675809,,,,,,,,,,,,,,,,,,82,,,,,,,,,,0.02,2,1.7643,0,1,1,1,1,sing karaoke on smule when i am bored,videochat with some of my long distance besties,0.02,0.02,4.4,1,,,,
,,613aad30bcfed65155a026ec,6685aa9113c938e83b4f1ea0,671bdc4e70cafcdad968bf26,2024-10-25_13h03.27.186,WTP_SM_Choice,2022.2.1,MacIntel,60.14675809,,,,,,,,,,,,,,,,,,83,,,,,,,,,,0.02,2,1.6458,0,2,2,2,1,go to chilis with my sister,listen to youtube while going on a walk,0.03,0.02,1.1,0,,,,
,,613aad30bcfed65155a026ec,6685aa9113c938e83b4f1ea0,671bdc4e70cafcdad968bf26,2024-10-25_13h03.27.186,WTP_SM_Choice,2022.2.1,MacIntel,60.14675809,,,,,,,,,,,,,,,,,,84,,,,,,,,,,0.02,2,3.853,0,3,3,3,1,draw in my room ,buy ice cream from the ice cream man,0.04,0.02,3.3,1,,,,
,,613aad30bcfed65155a026ec,6685aa9113c938e83b4f1ea0,671bdc4e70cafcdad968bf26,2024-10-25_13h03.27.186,WTP_SM_Choice,2022.2.1,MacIntel,60.14675809,,,,,,,,,,,,,,,,,,85,,,,,,,,,,0.02,2,1.9462,0,4,4,4,1,play video games after a hard day,videochat with some of my long distance besties,0.05,0.02,3.3,1,,,,
,,613aad30bcfed65155a026ec,6685aa9113c938e83b4f1ea0,671bdc4e70cafcdad968bf26,2024-10-25_13h03.27.186,WTP_SM_Choice,2022.2.1,MacIntel,60.14675809,,,,,,,NAN,,NAN,1.9,4.1,,0,84,84,84,1,85,Charlie,Acc,Participant_Images/613aad30bcfed65155a026ec/613aad30bcfed65155a026ec_Images/613aad30bcfed65155a026ec_Image_7.jpeg,liked,3.602308302,,,,,,,,,,,,,,,,,,,,,,
,,613aad30bcfed65155a026ec,6685aa9113c938e83b4f1ea0,671bdc4e70cafcdad968bf26,2024-10-25_13h03.27.186,WTP_SM_Choice,2022.2.1,MacIntel,60.14675809,,,,,space,6.7703,NAN,,NAN,1.9,4.1,,0,85,85,85,1,86,Charlie,Acc,Participant_Images/613aad30bcfed65155a026ec/613aad30bcfed65155a026ec_Images/613aad30bcfed65155a026ec_Image_4.jpeg,liked,4.106391878,,,,,,,,,,,,,,,,,,,,,,
,,613aad30bcfed65155a026ec,6685aa9113c938e83b4f1ea0,671bdc4e70cafcdad968bf26,2024-10-25_13h03.27.186,WTP_SM_Choice,2022.2.1,MacIntel,60.14675809,,,,,space,2.363,NAN,,NAN,1.9,4.1,,0,86,86,86,1,87,Charlie,Acc,Participant_Images/613aad30bcfed65155a026ec/613aad30bcfed65155a026ec_Images/613aad30bcfed65155a026ec_Image_25.jpeg,did not like,3.799433026,,,,,,,,,,,,,,,,,,,,,,
,,613aad30bcfed65155a026ec,6685aa9113c938e83b4f1ea0,671bdc4e70cafcdad968bf26,2024-10-25_13h03.27.186,WTP_SM_Choice,2022.2.1,MacIntel,60.14675809,,,,,space,1.6164,NAN,,NAN,1.9,4.1,,0,87,87,87,1,88,Charlie,Acc,Participant_Images/613aad30bcfed65155a026ec/613aad30bcfed65155a026ec_Images/613aad30bcfed65155a026ec_Image_18.jpeg,liked,5.246980764,,,,,,,,,,,,,,,,,,,,,,
,,613aad30bcfed65155a026ec,6685aa9113c938e83b4f1ea0,671bdc4e70cafcdad968bf26,2024-10-25_13h03.27.186,WTP_SM_Choice,2022.2.1,MacIntel,60.14675809,,,,,space,2.1666,NAN,,NAN,1.9,4.1,,0,88,88,88,1,89,Charlie,Acc,Participant_Images/613aad30bcfed65155a026ec/613aad30bcfed65155a026ec_Images/613aad30bcfed65155a026ec_Image_11.jpeg,liked,3.30081769,,,,,,,,,,,,,,,,,,,,,,
,,613aad30bcfed65155a026ec,6685aa9113c938e83b4f1ea0,671bdc4e70cafcdad968bf26,2024-10-25_13h03.27.186,WTP_SM_Choice,2022.2.1,MacIntel,60.14675809,,,,,,,,,,,,,,,,,,86,,,,,,space,1.0909,space,2.7812,0.01,1,1.9452,0,0,0,0,1,watch a new movie with my family,play video games after a hard day,0.01,0.03,1.1,0,,,,
,,613aad30bcfed65155a026ec,6685aa9113c938e83b4f1ea0,671bdc4e70cafcdad968bf26,2024-10-25_13h03.27.186,WTP_SM_Choice,2022.2.1,MacIntel,60.14675809,,,,,,,,,,,,,,,,,,87,,,,,,,,,,0.02,1,1.722,0,1,1,1,1,watch a new movie with my family,clean my room to get ahead of the mess,0.02,0.03,4.4,0,,,,
,,613aad30bcfed65155a026ec,6685aa9113c938e83b4f1ea0,671bdc4e70cafcdad968bf26,2024-10-25_13h03.27.186,WTP_SM_Choice,2022.2.1,MacIntel,60.14675809,,,,,,,,,,,,,,,,,,88,,,,,,,,,,0.03,2,1.5782,0,2,2,2,1,chat with my friends on twitter,make music as inspiration strikes me,0.03,0.03,1.1,0,,,,
,,613aad30bcfed65155a026ec,6685aa9113c938e83b4f1ea0,671bdc4e70cafcdad968bf26,2024-10-25_13h03.27.186,WTP_SM_Choice,2022.2.1,MacIntel,60.14675809,,,,,,,,,,,,,,,,,,89,,,,,,,,,,0.03,2,1.5042,0,3,3,3,1,make music as inspiration strikes me,go to the gym with my dad every other day,0.04,0.03,3.3,1,,,,
,,613aad30bcfed65155a026ec,6685aa9113c938e83b4f1ea0,671bdc4e70cafcdad968bf26,2024-10-25_13h03.27.186,WTP_SM_Choice,2022.2.1,MacIntel,60.14675809,,,,,,,,,,,,,,,,,,90,,,,,,,,,,0.03,2,3.5899,0,4,4,4,1,clean my room to get ahead of the mess,go to sunday brunch with my entire family,0.05,0.03,8.8,1,,,,
,,613aad30bcfed65155a026ec,6685aa9113c938e83b4f1ea0,671bdc4e70cafcdad968bf26,2024-10-25_13h03.27.186,WTP_SM_Choice,2022.2.1,MacIntel,60.14675809,,,,,,,NAN,,NAN,2.02,3.98,,0,89,89,89,1,90,Charlie,Acc,Participant_Images/613aad30bcfed65155a026ec/613aad30bcfed65155a026ec_Images/613aad30bcfed65155a026ec_Image_17.jpeg,did not like,1.661473164,,,,,,,,,,,,,,,,,,,,,,
,,613aad30bcfed65155a026ec,6685aa9113c938e83b4f1ea0,671bdc4e70cafcdad968bf26,2024-10-25_13h03.27.186,WTP_SM_Choice,2022.2.1,MacIntel,60.14675809,,,,,space,2.1962,NAN,,NAN,2.02,3.98,,0,90,90,90,1,91,Charlie,Acc,Participant_Images/613aad30bcfed65155a026ec/613aad30bcfed65155a026ec_Images/613aad30bcfed65155a026ec_Image_19.jpeg,liked,3.613205605,,,,,,,,,,,,,,,,,,,,,,
,,613aad30bcfed65155a026ec,6685aa9113c938e83b4f1ea0,671bdc4e70cafcdad968bf26,2024-10-25_13h03.27.186,WTP_SM_Choice,2022.2.1,MacIntel,60.14675809,,,,,space,1.7662,NAN,,NAN,2.02,3.98,,0,91,91,91,1,92,Charlie,Acc,Participant_Images/613aad30bcfed65155a026ec/613aad30bcfed65155a026ec_Images/613aad30bcfed65155a026ec_Image_22.jpeg,liked,4.988446431,,,,,,,,,,,,,,,,,,,,,,
,,613aad30bcfed65155a026ec,6685aa9113c938e83b4f1ea0,671bdc4e70cafcdad968bf26,2024-10-25_13h03.27.186,WTP_SM_Choice,2022.2.1,MacIntel,60.14675809,,,,,space,7.6037,NAN,,NAN,2.02,3.98,,0,92,92,92,1,93,Charlie,Acc,Participant_Images/613aad30bcfed65155a026ec/613aad30bcfed65155a026ec_Images/613aad30bcfed65155a026ec_Image_24.jpeg,did not like,3.470791822,,,,,,,,,,,,,,,,,,,,,,
,,613aad30bcfed65155a026ec,6685aa9113c938e83b4f1ea0,671bdc4e70cafcdad968bf26,2024-10-25_13h03.27.186,WTP_SM_Choice,2022.2.1,MacIntel,60.14675809,,,,,space,0.4379,NAN,,NAN,2.02,3.98,,0,93,93,93,1,94,Charlie,Acc,Participant_Images/613aad30bcfed65155a026ec/613aad30bcfed65155a026ec_Images/613aad30bcfed65155a026ec_Image_20.jpeg,liked,3.820572462,,,,,,,,,,,,,,,,,,,,,,
,,613aad30bcfed65155a026ec,6685aa9113c938e83b4f1ea0,671bdc4e70cafcdad968bf26,2024-10-25_13h03.27.186,WTP_SM_Choice,2022.2.1,MacIntel,60.14675809,,,,,,,,,,,,,,,,,,91,,,,,,space,2.071,space,0.6858,0.01,1,1.6281,0,0,0,0,1,chat with my friends on twitter,watch twilight when it gets cold and gloomy outside,0.01,0.04,3.3,0,,,,
,,613aad30bcfed65155a026ec,6685aa9113c938e83b4f1ea0,671bdc4e70cafcdad968bf26,2024-10-25_13h03.27.186,WTP_SM_Choice,2022.2.1,MacIntel,60.14675809,,,,,,,,,,,,,,,,,,92,,,,,,,,,,0.02,1,1.6924,0,1,1,1,1,play video games after a hard day,go to emo night with friends,0.02,0.04,8.8,1,,,,
,,613aad30bcfed65155a026ec,6685aa9113c938e83b4f1ea0,671bdc4e70cafcdad968bf26,2024-10-25_13h03.27.186,WTP_SM_Choice,2022.2.1,MacIntel,60.14675809,,,,,,,,,,,,,,,,,,93,,,,,,,,,,0.04,2,1.3292,0,2,2,2,1,play video games after a hard day,order food from postmates and make friends with delivery driver,0.03,0.04,1.1,1,,,,
,,613aad30bcfed65155a026ec,6685aa9113c938e83b4f1ea0,671bdc4e70cafcdad968bf26,2024-10-25_13h03.27.186,WTP_SM_Choice,2022.2.1,MacIntel,60.14675809,,,,,,,,,,,,,,,,,,94,,,,,,,,,,0.04,1,4.1436,0,3,3,3,1,draw in my room ,watch a new movie with my family,0.04,0.04,4.4,1,,,,
,,613aad30bcfed65155a026ec,6685aa9113c938e83b4f1ea0,671bdc4e70cafcdad968bf26,2024-10-25_13h03.27.186,WTP_SM_Choice,2022.2.1,MacIntel,60.14675809,,,,,,,,,,,,,,,,,,95,,,,,,,,,,0.04,2,2.0254,0,4,4,4,1,watch a new movie with my family,make music as inspiration strikes me,0.05,0.04,4.4,0,,,,
,,613aad30bcfed65155a026ec,6685aa9113c938e83b4f1ea0,671bdc4e70cafcdad968bf26,2024-10-25_13h03.27.186,WTP_SM_Choice,2022.2.1,MacIntel,60.14675809,,,,,,,NAN,,NAN,2.17,3.83,,0,94,94,94,1,95,Charlie,Acc,Participant_Images/613aad30bcfed65155a026ec/613aad30bcfed65155a026ec_Images/613aad30bcfed65155a026ec_Image_8.jpeg,liked,2.455989137,,,,,,,,,,,,,,,,,,,,,,
,,613aad30bcfed65155a026ec,6685aa9113c938e83b4f1ea0,671bdc4e70cafcdad968bf26,2024-10-25_13h03.27.186,WTP_SM_Choice,2022.2.1,MacIntel,60.14675809,,,,,space,1.499,NAN,,NAN,2.17,3.83,,0,95,95,95,1,96,Charlie,Acc,Participant_Images/613aad30bcfed65155a026ec/613aad30bcfed65155a026ec_Images/613aad30bcfed65155a026ec_Image_21.jpeg,liked,3.79605092,,,,,,,,,,,,,,,,,,,,,,
,,613aad30bcfed65155a026ec,6685aa9113c938e83b4f1ea0,671bdc4e70cafcdad968bf26,2024-10-25_13h03.27.186,WTP_SM_Choice,2022.2.1,MacIntel,60.14675809,,,,,space,2.595,NAN,,NAN,2.17,3.83,,0,96,96,96,1,97,Charlie,Acc,Participant_Images/613aad30bcfed65155a026ec/613aad30bcfed65155a026ec_Images/613aad30bcfed65155a026ec_Image_12.jpeg,did not like,3.562416326,,,,,,,,,,,,,,,,,,,,,,
,,613aad30bcfed65155a026ec,6685aa9113c938e83b4f1ea0,671bdc4e70cafcdad968bf26,2024-10-25_13h03.27.186,WTP_SM_Choice,2022.2.1,MacIntel,60.14675809,,,,,space,3.2271,NAN,,NAN,2.17,3.83,,0,97,97,97,1,98,Charlie,Acc,Participant_Images/613aad30bcfed65155a026ec/613aad30bcfed65155a026ec_Images/613aad30bcfed65155a026ec_Image_9.jpeg,liked,2.843822497,,,,,,,,,,,,,,,,,,,,,,
,,613aad30bcfed65155a026ec,6685aa9113c938e83b4f1ea0,671bdc4e70cafcdad968bf26,2024-10-25_13h03.27.186,WTP_SM_Choice,2022.2.1,MacIntel,60.14675809,,,,,space,0.7493,NAN,,NAN,2.17,3.83,,0,98,98,98,1,99,Charlie,Acc,Participant_Images/613aad30bcfed65155a026ec/613aad30bcfed65155a026ec_Images/613aad30bcfed65155a026ec_Image_6.jpeg,liked,3.546495948,,,,,,,,,,,,,,,,,,,,,,
,,613aad30bcfed65155a026ec,6685aa9113c938e83b4f1ea0,671bdc4e70cafcdad968bf26,2024-10-25_13h03.27.186,WTP_SM_Choice,2022.2.1,MacIntel,60.14675809,,,,,,,,,,,,,,,,,,96,,,,,,space,0.6603,space,0.729,0.01,1,1.6462,0,0,0,0,1,buy ice cream from the ice cream man,paint portraits,0.01,0.05,3.3,0,,,,
,,613aad30bcfed65155a026ec,6685aa9113c938e83b4f1ea0,671bdc4e70cafcdad968bf26,2024-10-25_13h03.27.186,WTP_SM_Choice,2022.2.1,MacIntel,60.14675809,,,,,,,,,,,,,,,,,,97,,,,,,,,,,0.02,1,1.8417,0,1,1,1,1,listen to youtube while going on a walk,collaborate with other artists on music,0.02,0.05,1.1,1,,,,
,,613aad30bcfed65155a026ec,6685aa9113c938e83b4f1ea0,671bdc4e70cafcdad968bf26,2024-10-25_13h03.27.186,WTP_SM_Choice,2022.2.1,MacIntel,60.14675809,,,,,,,,,,,,,,,,,,98,,,,,,,,,,0.03,1,2.6307,0,2,2,2,1,sing karaoke on smule when i am bored,watch a new movie with my family,0.03,0.05,1.1,1,,,,
,,613aad30bcfed65155a026ec,6685aa9113c938e83b4f1ea0,671bdc4e70cafcdad968bf26,2024-10-25_13h03.27.186,WTP_SM_Choice,2022.2.1,MacIntel,60.14675809,,,,,,,,,,,,,,,,,,99,,,,,,,,,,0.04,1,0.9586,0,3,3,3,1,order food from postmates and make friends with delivery driver,do tarot readings,0.04,0.05,3.3,0,,,,
,,613aad30bcfed65155a026ec,6685aa9113c938e83b4f1ea0,671bdc4e70cafcdad968bf26,2024-10-25_13h03.27.186,WTP_SM_Choice,2022.2.1,MacIntel,60.14675809,,,,,,,,,,,,,,,,,,100,,,,,,,,,,0.05,1,3.5491,0,4,4,4,1,watch twilight when it gets cold and gloomy outside,order food from postmates and make friends with delivery driver,0.05,0.05,4.4,1,,,,
,,613aad30bcfed65155a026ec,6685aa9113c938e83b4f1ea0,671bdc4e70cafcdad968bf26,2024-10-25_13h03.27.186,WTP_SM_Choice,2022.2.1,MacIntel,60.14675809,,,,,,,5,,9,2.32,3.68,,0,99,99,99,1,100,Charlie,Acc,Participant_Images/613aad30bcfed65155a026ec/613aad30bcfed65155a026ec_Images/613aad30bcfed65155a026ec_Image_15.jpeg,liked,1.672012706,,,,,,,,,,,,,,,,,,,space,1.5316,,
,,613aad30bcfed65155a026ec,6685aa9113c938e83b4f1ea0,671bdc4e70cafcdad968bf26,2024-10-25_13h03.27.186,WTP_SM_Choice,2022.2.1,MacIntel,60.14675809,,,,,,,,,,,,,,,,,,,,,,,,,,,,,,,,,,,,,,,,,,,,space,4.7389
