endwelcomescreen_keys.keys,endwelcomescreen_keys.rt,participant,STUDY_ID,SESSION_ID,date,expName,psychopyVersion,OS,frameRate,endinstructionscreen_keys.keys,endinstructionscreen_keys.rt,endpartnermatch_keys.keys,endpartnermatch_keys.rt,sharenextphoto_key.keys,sharenextphoto_key.rt,salience_rating,key_resp.keys,stress_level,subtract_bonus,TOTAL_TASK_BONUS,stresslevel_keypress.keys,entiretaskloop.thisRepN,entiretaskloop.thisTrialN,entiretaskloop.thisN,entiretaskloop.thisIndex,entiretaskloop.ran,TrialNumber,Partner,Condition,Photos,Feedback,FeedbackWait,WTP_ins_keys1.keys,WTP_ins_keys1.rt,WTP_ins_keys2.keys,WTP_ins_keys2.rt,responses.keys,WTPTaskLoop.thisRepN,WTPTaskLoop.thisTrialN,WTPTaskLoop.thisN,WTPTaskLoop.thisIndex,WTPTaskLoop.ran,right,left,leftmoney,rightmoney,WTP_ITI,social_left,Resume_keys.keys,decision_price,responses.rt,Resume_keys.rt,end_screen_keys.keys,end_screen_keys.rt
space,18.733,61528277afcb4906d01e0442,6685aa9113c938e83b4f1ea0,6723c3d5a657ab9e1b920e9a,2024-10-31_12h55.59.369,WTP_SM_Choice,2022.2.1,Win32,60.16847172,,,,,,,,,,,,,,,,,,,,,,,,,,,,,,,,,,,,,,,,,,,,,
,,61528277afcb4906d01e0442,6685aa9113c938e83b4f1ea0,6723c3d5a657ab9e1b920e9a,2024-10-31_12h55.59.369,WTP_SM_Choice,2022.2.1,Win32,60.16847172,space,15.752,,,,,,,,,,,,,,,,,,,,,,,,,,,,,,,,,,,,,,,,,,,
,,61528277afcb4906d01e0442,6685aa9113c938e83b4f1ea0,6723c3d5a657ab9e1b920e9a,2024-10-31_12h55.59.369,WTP_SM_Choice,2022.2.1,Win32,60.16847172,,,space,10.285,space,2.711,NAN,,NAN,0,6,,0,0,0,0,1,1,Alex,Rej,Participant_Images/61528277afcb4906d01e0442/61528277afcb4906d01e0442_Images/61528277afcb4906d01e0442_Image_9.jpeg,did not like,3.613205605,,,,,,,,,,,,,,,,,,,,,,
,,61528277afcb4906d01e0442,6685aa9113c938e83b4f1ea0,6723c3d5a657ab9e1b920e9a,2024-10-31_12h55.59.369,WTP_SM_Choice,2022.2.1,Win32,60.16847172,,,,,space,0.866,NAN,,NAN,0,6,,0,1,1,1,1,2,Alex,Rej,Participant_Images/61528277afcb4906d01e0442/61528277afcb4906d01e0442_Images/61528277afcb4906d01e0442_Image_19.jpeg,did not like,4.988446431,,,,,,,,,,,,,,,,,,,,,,
,,61528277afcb4906d01e0442,6685aa9113c938e83b4f1ea0,6723c3d5a657ab9e1b920e9a,2024-10-31_12h55.59.369,WTP_SM_Choice,2022.2.1,Win32,60.16847172,,,,,space,1.016,NAN,,NAN,0,6,,0,2,2,2,1,3,Alex,Rej,Participant_Images/61528277afcb4906d01e0442/61528277afcb4906d01e0442_Images/61528277afcb4906d01e0442_Image_20.jpeg,did not like,3.470791822,,,,,,,,,,,,,,,,,,,,,,
,,61528277afcb4906d01e0442,6685aa9113c938e83b4f1ea0,6723c3d5a657ab9e1b920e9a,2024-10-31_12h55.59.369,WTP_SM_Choice,2022.2.1,Win32,60.16847172,,,,,space,0.606,NAN,,NAN,0,6,,0,3,3,3,1,4,Alex,Rej,Participant_Images/61528277afcb4906d01e0442/61528277afcb4906d01e0442_Images/61528277afcb4906d01e0442_Image_12.jpeg,did not like,3.820572462,,,,,,,,,,,,,,,,,,,,,,
,,61528277afcb4906d01e0442,6685aa9113c938e83b4f1ea0,6723c3d5a657ab9e1b920e9a,2024-10-31_12h55.59.369,WTP_SM_Choice,2022.2.1,Win32,60.16847172,,,,,,,,,,,,,,,,,,1,,,,,,space,0.305,space,5.629,,0,0,0,0,1,Nap with my boyfriend,Go to the gym to get fit,0.01,0.01,4.4,0,,,,,,
,,61528277afcb4906d01e0442,6685aa9113c938e83b4f1ea0,6723c3d5a657ab9e1b920e9a,2024-10-31_12h55.59.369,WTP_SM_Choice,2022.2.1,Win32,60.16847172,,,,,,,,,,,,,,,,,,2,,,,,,,,,,,0,1,1,1,1,Game on my computer,Go to the park with my son,0.02,0.01,8.8,1,,,,,,
,,61528277afcb4906d01e0442,6685aa9113c938e83b4f1ea0,6723c3d5a657ab9e1b920e9a,2024-10-31_12h55.59.369,WTP_SM_Choice,2022.2.1,Win32,60.16847172,,,,,,,,,,,,,,,,,,3,,,,,,,,,,,0,2,2,2,1,Play board games with my family,Make agendas and schedules on my computer,0.03,0.01,3.3,0,,,,,,
,,61528277afcb4906d01e0442,6685aa9113c938e83b4f1ea0,6723c3d5a657ab9e1b920e9a,2024-10-31_12h55.59.369,WTP_SM_Choice,2022.2.1,Win32,60.16847172,,,,,,,,,,,,,,,,,,4,,,,,,,,,,,0,3,3,3,1,Go to the park with my son,Bake cakes at home,0.04,0.01,1.1,0,,,,,,
,,61528277afcb4906d01e0442,6685aa9113c938e83b4f1ea0,6723c3d5a657ab9e1b920e9a,2024-10-31_12h55.59.369,WTP_SM_Choice,2022.2.1,Win32,60.16847172,,,,,,,,,,,,,,,,,,5,,,,,,,,,,,0,4,4,4,1,Bake with my mom,Crochet in my bedroom,0.05,0.01,1.1,0,,,,,,
,,61528277afcb4906d01e0442,6685aa9113c938e83b4f1ea0,6723c3d5a657ab9e1b920e9a,2024-10-31_12h55.59.369,WTP_SM_Choice,2022.2.1,Win32,60.16847172,,,,,,,NAN,,NAN,0,6,,0,4,4,4,1,5,Alex,Rej,Participant_Images/61528277afcb4906d01e0442/61528277afcb4906d01e0442_Images/61528277afcb4906d01e0442_Image_4.jpeg,did not like,2.455989137,,,,,,,,,,,,,,,,,,,,,,
,,61528277afcb4906d01e0442,6685aa9113c938e83b4f1ea0,6723c3d5a657ab9e1b920e9a,2024-10-31_12h55.59.369,WTP_SM_Choice,2022.2.1,Win32,60.16847172,,,,,space,3.079,NAN,,NAN,0,6,,0,5,5,5,1,6,Alex,Rej,Participant_Images/61528277afcb4906d01e0442/61528277afcb4906d01e0442_Images/61528277afcb4906d01e0442_Image_23.jpeg,did not like,3.79605092,,,,,,,,,,,,,,,,,,,,,,
,,61528277afcb4906d01e0442,6685aa9113c938e83b4f1ea0,6723c3d5a657ab9e1b920e9a,2024-10-31_12h55.59.369,WTP_SM_Choice,2022.2.1,Win32,60.16847172,,,,,space,1.866,NAN,,NAN,0,6,,0,6,6,6,1,7,Alex,Rej,Participant_Images/61528277afcb4906d01e0442/61528277afcb4906d01e0442_Images/61528277afcb4906d01e0442_Image_2.jpeg,liked,3.562416326,,,,,,,,,,,,,,,,,,,,,,
,,61528277afcb4906d01e0442,6685aa9113c938e83b4f1ea0,6723c3d5a657ab9e1b920e9a,2024-10-31_12h55.59.369,WTP_SM_Choice,2022.2.1,Win32,60.16847172,,,,,space,4.393,NAN,,NAN,0,6,,0,7,7,7,1,8,Alex,Rej,Participant_Images/61528277afcb4906d01e0442/61528277afcb4906d01e0442_Images/61528277afcb4906d01e0442_Image_8.jpeg,liked,2.843822497,,,,,,,,,,,,,,,,,,,,,,
,,61528277afcb4906d01e0442,6685aa9113c938e83b4f1ea0,6723c3d5a657ab9e1b920e9a,2024-10-31_12h55.59.369,WTP_SM_Choice,2022.2.1,Win32,60.16847172,,,,,space,6.735,NAN,,NAN,0,6,,0,8,8,8,1,9,Alex,Rej,Participant_Images/61528277afcb4906d01e0442/61528277afcb4906d01e0442_Images/61528277afcb4906d01e0442_Image_24.jpeg,liked,3.546495948,,,,,,,,,,,,,,,,,,,,,,
,,61528277afcb4906d01e0442,6685aa9113c938e83b4f1ea0,6723c3d5a657ab9e1b920e9a,2024-10-31_12h55.59.369,WTP_SM_Choice,2022.2.1,Win32,60.16847172,,,,,,,,,,,,,,,,,,6,,,,,,space,7.513,space,2.641,2,0,0,0,0,1,Go to the gym to get fit,Bake with my mom,0.01,0.02,3.3,1,,0.02,2.398,,,
,,61528277afcb4906d01e0442,6685aa9113c938e83b4f1ea0,6723c3d5a657ab9e1b920e9a,2024-10-31_12h55.59.369,WTP_SM_Choice,2022.2.1,Win32,60.16847172,,,,,,,,,,,,,,,,,,7,,,,,,,,,,2,0,1,1,1,1,Play video games with my son,Read on a rainy day,0.02,0.02,1.1,0,,0.02,2.023,,,
,,61528277afcb4906d01e0442,6685aa9113c938e83b4f1ea0,6723c3d5a657ab9e1b920e9a,2024-10-31_12h55.59.369,WTP_SM_Choice,2022.2.1,Win32,60.16847172,,,,,,,,,,,,,,,,,,8,,,,,,,,,,1,0,2,2,2,1,Play board games with my family,Game on my computer,0.03,0.02,1.1,0,,0.03,2.139,,,
,,61528277afcb4906d01e0442,6685aa9113c938e83b4f1ea0,6723c3d5a657ab9e1b920e9a,2024-10-31_12h55.59.369,WTP_SM_Choice,2022.2.1,Win32,60.16847172,,,,,,,,,,,,,,,,,,9,,,,,,,,,,1,0,3,3,3,1,Game on my computer,Vacation with my family,0.04,0.02,4.4,1,,0.04,3.569,,,
,,61528277afcb4906d01e0442,6685aa9113c938e83b4f1ea0,6723c3d5a657ab9e1b920e9a,2024-10-31_12h55.59.369,WTP_SM_Choice,2022.2.1,Win32,60.16847172,,,,,,,,,,,,,,,,,,10,,,,,,,,,,1,0,4,4,4,1,Facetime with my best friend,Read on a rainy day,0.05,0.02,1.1,0,,0.05,3.193,,,
,,61528277afcb4906d01e0442,6685aa9113c938e83b4f1ea0,6723c3d5a657ab9e1b920e9a,2024-10-31_12h55.59.369,WTP_SM_Choice,2022.2.1,Win32,60.16847172,,,,,,,NAN,,NAN,0.16,5.84,,0,9,9,9,1,10,Alex,Rej,Participant_Images/61528277afcb4906d01e0442/61528277afcb4906d01e0442_Images/61528277afcb4906d01e0442_Image_3.jpeg,did not like,1.672012706,,,,,,,,,,,,,,,,,,,,,,
,,61528277afcb4906d01e0442,6685aa9113c938e83b4f1ea0,6723c3d5a657ab9e1b920e9a,2024-10-31_12h55.59.369,WTP_SM_Choice,2022.2.1,Win32,60.16847172,,,,,space,4.605,NAN,,NAN,0.16,5.84,,0,10,10,10,1,11,Alex,Rej,Participant_Images/61528277afcb4906d01e0442/61528277afcb4906d01e0442_Images/61528277afcb4906d01e0442_Image_18.jpeg,liked,4.942172136,,,,,,,,,,,,,,,,,,,,,,
,,61528277afcb4906d01e0442,6685aa9113c938e83b4f1ea0,6723c3d5a657ab9e1b920e9a,2024-10-31_12h55.59.369,WTP_SM_Choice,2022.2.1,Win32,60.16847172,,,,,space,4.164,NAN,,NAN,0.16,5.84,,0,11,11,11,1,12,Alex,Rej,Participant_Images/61528277afcb4906d01e0442/61528277afcb4906d01e0442_Images/61528277afcb4906d01e0442_Image_17.jpeg,did not like,2.50187214,,,,,,,,,,,,,,,,,,,,,,
,,61528277afcb4906d01e0442,6685aa9113c938e83b4f1ea0,6723c3d5a657ab9e1b920e9a,2024-10-31_12h55.59.369,WTP_SM_Choice,2022.2.1,Win32,60.16847172,,,,,space,3.792,NAN,,NAN,0.16,5.84,,0,12,12,12,1,13,Alex,Rej,Participant_Images/61528277afcb4906d01e0442/61528277afcb4906d01e0442_Images/61528277afcb4906d01e0442_Image_25.jpeg,did not like,2.071164779,,,,,,,,,,,,,,,,,,,,,,
,,61528277afcb4906d01e0442,6685aa9113c938e83b4f1ea0,6723c3d5a657ab9e1b920e9a,2024-10-31_12h55.59.369,WTP_SM_Choice,2022.2.1,Win32,60.16847172,,,,,space,3.777,NAN,,NAN,0.16,5.84,,0,13,13,13,1,14,Alex,Rej,Participant_Images/61528277afcb4906d01e0442/61528277afcb4906d01e0442_Images/61528277afcb4906d01e0442_Image_11.jpeg,did not like,5.336503566,,,,,,,,,,,,,,,,,,,,,,
,,61528277afcb4906d01e0442,6685aa9113c938e83b4f1ea0,6723c3d5a657ab9e1b920e9a,2024-10-31_12h55.59.369,WTP_SM_Choice,2022.2.1,Win32,60.16847172,,,,,,,,,,,,,,,,,,11,,,,,,space,0.371,space,1.294,2,0,0,0,0,1,Watch movies with my mom,Clean my room while listening to a podcast,0.01,0.03,3.3,0,,0.03,3.108,,,
,,61528277afcb4906d01e0442,6685aa9113c938e83b4f1ea0,6723c3d5a657ab9e1b920e9a,2024-10-31_12h55.59.369,WTP_SM_Choice,2022.2.1,Win32,60.16847172,,,,,,,,,,,,,,,,,,12,,,,,,,,,,1,0,1,1,1,1,Write stories in my notebook,Go to the park with my son,0.02,0.03,4.4,1,,0.02,3.936,,,
,,61528277afcb4906d01e0442,6685aa9113c938e83b4f1ea0,6723c3d5a657ab9e1b920e9a,2024-10-31_12h55.59.369,WTP_SM_Choice,2022.2.1,Win32,60.16847172,,,,,,,,,,,,,,,,,,13,,,,,,,,,,2,0,2,2,2,1,Play video games with my son,Clean my room while listening to a podcast,0.03,0.03,1.1,0,,0.03,4.567,,,
,,61528277afcb4906d01e0442,6685aa9113c938e83b4f1ea0,6723c3d5a657ab9e1b920e9a,2024-10-31_12h55.59.369,WTP_SM_Choice,2022.2.1,Win32,60.16847172,,,,,,,,,,,,,,,,,,14,,,,,,,,,,1,0,3,3,3,1,Make agendas and schedules on my computer,Go to the park with my son,0.04,0.03,3.3,1,,0.04,3.755,,,
,,61528277afcb4906d01e0442,6685aa9113c938e83b4f1ea0,6723c3d5a657ab9e1b920e9a,2024-10-31_12h55.59.369,WTP_SM_Choice,2022.2.1,Win32,60.16847172,,,,,,,,,,,,,,,,,,15,,,,,,,,,,1,0,4,4,4,1,Knit while watching tv,Go to the park with my son,0.05,0.03,4.4,1,,0.05,1.429,,,
,,61528277afcb4906d01e0442,6685aa9113c938e83b4f1ea0,6723c3d5a657ab9e1b920e9a,2024-10-31_12h55.59.369,WTP_SM_Choice,2022.2.1,Win32,60.16847172,,,,,,,NAN,,NAN,0.33,5.67,,0,14,14,14,1,15,Alex,Rej,Participant_Images/61528277afcb4906d01e0442/61528277afcb4906d01e0442_Images/61528277afcb4906d01e0442_Image_13.jpeg,did not like,2.642157193,,,,,,,,,,,,,,,,,,,,,,
,,61528277afcb4906d01e0442,6685aa9113c938e83b4f1ea0,6723c3d5a657ab9e1b920e9a,2024-10-31_12h55.59.369,WTP_SM_Choice,2022.2.1,Win32,60.16847172,,,,,space,1.613,NAN,,NAN,0.33,5.67,,0,15,15,15,1,16,Alex,Rej,Participant_Images/61528277afcb4906d01e0442/61528277afcb4906d01e0442_Images/61528277afcb4906d01e0442_Image_6.jpeg,liked,4.456234322,,,,,,,,,,,,,,,,,,,,,,
,,61528277afcb4906d01e0442,6685aa9113c938e83b4f1ea0,6723c3d5a657ab9e1b920e9a,2024-10-31_12h55.59.369,WTP_SM_Choice,2022.2.1,Win32,60.16847172,,,,,space,0.665,NAN,,NAN,0.33,5.67,,0,16,16,16,1,17,Alex,Rej,Participant_Images/61528277afcb4906d01e0442/61528277afcb4906d01e0442_Images/61528277afcb4906d01e0442_Image_22.jpeg,did not like,4.438512181,,,,,,,,,,,,,,,,,,,,,,
,,61528277afcb4906d01e0442,6685aa9113c938e83b4f1ea0,6723c3d5a657ab9e1b920e9a,2024-10-31_12h55.59.369,WTP_SM_Choice,2022.2.1,Win32,60.16847172,,,,,space,1.03,NAN,,NAN,0.33,5.67,,0,17,17,17,1,18,Alex,Rej,Participant_Images/61528277afcb4906d01e0442/61528277afcb4906d01e0442_Images/61528277afcb4906d01e0442_Image_21.jpeg,did not like,2.682944783,,,,,,,,,,,,,,,,,,,,,,
,,61528277afcb4906d01e0442,6685aa9113c938e83b4f1ea0,6723c3d5a657ab9e1b920e9a,2024-10-31_12h55.59.369,WTP_SM_Choice,2022.2.1,Win32,60.16847172,,,,,space,1.845,NAN,,NAN,0.33,5.67,,0,18,18,18,1,19,Alex,Rej,Participant_Images/61528277afcb4906d01e0442/61528277afcb4906d01e0442_Images/61528277afcb4906d01e0442_Image_10.jpeg,did not like,4.51984296,,,,,,,,,,,,,,,,,,,,,,
,,61528277afcb4906d01e0442,6685aa9113c938e83b4f1ea0,6723c3d5a657ab9e1b920e9a,2024-10-31_12h55.59.369,WTP_SM_Choice,2022.2.1,Win32,60.16847172,,,,,,,,,,,,,,,,,,16,,,,,,space,3.027,space,1.413,2,0,0,0,0,1,Go to the gym to get fit,Vacation with my family,0.01,0.04,1.1,1,,0.04,1.852,,,
,,61528277afcb4906d01e0442,6685aa9113c938e83b4f1ea0,6723c3d5a657ab9e1b920e9a,2024-10-31_12h55.59.369,WTP_SM_Choice,2022.2.1,Win32,60.16847172,,,,,,,,,,,,,,,,,,17,,,,,,,,,,1,0,1,1,1,1,Write stories in my notebook,Facetime with my best friend,0.02,0.04,8.8,1,,0.02,3.193,,,
,,61528277afcb4906d01e0442,6685aa9113c938e83b4f1ea0,6723c3d5a657ab9e1b920e9a,2024-10-31_12h55.59.369,WTP_SM_Choice,2022.2.1,Win32,60.16847172,,,,,,,,,,,,,,,,,,18,,,,,,,,,,2,0,2,2,2,1,Nap with my boyfriend,Make agendas and schedules on my computer,0.03,0.04,3.3,0,,0.04,2.465,,,
,,61528277afcb4906d01e0442,6685aa9113c938e83b4f1ea0,6723c3d5a657ab9e1b920e9a,2024-10-31_12h55.59.369,WTP_SM_Choice,2022.2.1,Win32,60.16847172,,,,,,,,,,,,,,,,,,19,,,,,,,,,,1,0,3,3,3,1,Make agendas and schedules on my computer,Watch movies with my mom,0.04,0.04,3.3,1,,0.04,2.253,,,
,,61528277afcb4906d01e0442,6685aa9113c938e83b4f1ea0,6723c3d5a657ab9e1b920e9a,2024-10-31_12h55.59.369,WTP_SM_Choice,2022.2.1,Win32,60.16847172,,,,,,,,,,,,,,,,,,20,,,,,,,,,,2,0,4,4,4,1,Play video games with my son,Play video games while lying in bed,0.05,0.04,1.1,0,,0.04,2.935,,,
,,61528277afcb4906d01e0442,6685aa9113c938e83b4f1ea0,6723c3d5a657ab9e1b920e9a,2024-10-31_12h55.59.369,WTP_SM_Choice,2022.2.1,Win32,60.16847172,,,,,,,NAN,,NAN,0.51,5.49,,0,19,19,19,1,20,Alex,Rej,Participant_Images/61528277afcb4906d01e0442/61528277afcb4906d01e0442_Images/61528277afcb4906d01e0442_Image_7.jpeg,liked,3.195382774,,,,,,,,,,,,,,,,,,,,,,
,,61528277afcb4906d01e0442,6685aa9113c938e83b4f1ea0,6723c3d5a657ab9e1b920e9a,2024-10-31_12h55.59.369,WTP_SM_Choice,2022.2.1,Win32,60.16847172,,,,,space,1.315,NAN,,NAN,0.51,5.49,,0,20,20,20,1,21,Alex,Rej,Participant_Images/61528277afcb4906d01e0442/61528277afcb4906d01e0442_Images/61528277afcb4906d01e0442_Image_15.jpeg,did not like,1.779333479,,,,,,,,,,,,,,,,,,,,,,
,,61528277afcb4906d01e0442,6685aa9113c938e83b4f1ea0,6723c3d5a657ab9e1b920e9a,2024-10-31_12h55.59.369,WTP_SM_Choice,2022.2.1,Win32,60.16847172,,,,,space,1.505,NAN,,NAN,0.51,5.49,,0,21,21,21,1,22,Alex,Rej,Participant_Images/61528277afcb4906d01e0442/61528277afcb4906d01e0442_Images/61528277afcb4906d01e0442_Image_5.jpeg,did not like,4.312468682,,,,,,,,,,,,,,,,,,,,,,
,,61528277afcb4906d01e0442,6685aa9113c938e83b4f1ea0,6723c3d5a657ab9e1b920e9a,2024-10-31_12h55.59.369,WTP_SM_Choice,2022.2.1,Win32,60.16847172,,,,,space,1.215,NAN,,NAN,0.51,5.49,,0,22,22,22,1,23,Alex,Rej,Participant_Images/61528277afcb4906d01e0442/61528277afcb4906d01e0442_Images/61528277afcb4906d01e0442_Image_14.jpeg,liked,4.940433059,,,,,,,,,,,,,,,,,,,,,,
,,61528277afcb4906d01e0442,6685aa9113c938e83b4f1ea0,6723c3d5a657ab9e1b920e9a,2024-10-31_12h55.59.369,WTP_SM_Choice,2022.2.1,Win32,60.16847172,,,,,space,1.253,NAN,,NAN,0.51,5.49,,0,23,23,23,1,24,Alex,Rej,Participant_Images/61528277afcb4906d01e0442/61528277afcb4906d01e0442_Images/61528277afcb4906d01e0442_Image_1.jpeg,did not like,2.7105123,,,,,,,,,,,,,,,,,,,,,,
,,61528277afcb4906d01e0442,6685aa9113c938e83b4f1ea0,6723c3d5a657ab9e1b920e9a,2024-10-31_12h55.59.369,WTP_SM_Choice,2022.2.1,Win32,60.16847172,,,,,,,,,,,,,,,,,,21,,,,,,space,1.102,space,1.164,2,0,0,0,0,1,Go to the park with my son,Crochet in my bedroom,0.01,0.05,8.8,0,,0.05,1.756,,,
,,61528277afcb4906d01e0442,6685aa9113c938e83b4f1ea0,6723c3d5a657ab9e1b920e9a,2024-10-31_12h55.59.369,WTP_SM_Choice,2022.2.1,Win32,60.16847172,,,,,,,,,,,,,,,,,,22,,,,,,,,,,2,0,1,1,1,1,Game on my computer,Watch movies with my mom,0.02,0.05,4.4,1,,0.05,2.281,,,
,,61528277afcb4906d01e0442,6685aa9113c938e83b4f1ea0,6723c3d5a657ab9e1b920e9a,2024-10-31_12h55.59.369,WTP_SM_Choice,2022.2.1,Win32,60.16847172,,,,,,,,,,,,,,,,,,23,,,,,,,,,,2,0,2,2,2,1,Bake with my mom,Bake cakes at home,0.03,0.05,1.1,0,,0.05,2.366,,,
,,61528277afcb4906d01e0442,6685aa9113c938e83b4f1ea0,6723c3d5a657ab9e1b920e9a,2024-10-31_12h55.59.369,WTP_SM_Choice,2022.2.1,Win32,60.16847172,,,,,,,,,,,,,,,,,,24,,,,,,,,,,1,0,3,3,3,1,Game on my computer,Make pizza with my son,0.04,0.05,4.4,1,,0.04,1.92,,,
,,61528277afcb4906d01e0442,6685aa9113c938e83b4f1ea0,6723c3d5a657ab9e1b920e9a,2024-10-31_12h55.59.369,WTP_SM_Choice,2022.2.1,Win32,60.16847172,,,,,,,,,,,,,,,,,,25,,,,,,,,,,2,0,4,4,4,1,Vacation with my family,Crochet in my bedroom,0.05,0.05,3.3,0,,0.05,3.026,,,
,,61528277afcb4906d01e0442,6685aa9113c938e83b4f1ea0,6723c3d5a657ab9e1b920e9a,2024-10-31_12h55.59.369,WTP_SM_Choice,2022.2.1,Win32,60.16847172,,,,,,,3,,3,0.75,5.25,,0,24,24,24,1,25,Alex,Rej,Participant_Images/61528277afcb4906d01e0442/61528277afcb4906d01e0442_Images/61528277afcb4906d01e0442_Image_16.jpeg,did not like,3.602308302,,,,,,,,,,,,,,,,,space,,,0.865,,
,,61528277afcb4906d01e0442,6685aa9113c938e83b4f1ea0,6723c3d5a657ab9e1b920e9a,2024-10-31_12h55.59.369,WTP_SM_Choice,2022.2.1,Win32,60.16847172,,,space,1.876,space,1.082,NAN,,NAN,0.75,5.25,,0,25,25,25,1,26,Riley,Rej,Participant_Images/61528277afcb4906d01e0442/61528277afcb4906d01e0442_Images/61528277afcb4906d01e0442_Image_17.jpeg,did not like,4.106391878,,,,,,,,,,,,,,,,,,,,,,
,,61528277afcb4906d01e0442,6685aa9113c938e83b4f1ea0,6723c3d5a657ab9e1b920e9a,2024-10-31_12h55.59.369,WTP_SM_Choice,2022.2.1,Win32,60.16847172,,,,,space,0.983,NAN,,NAN,0.75,5.25,,0,26,26,26,1,27,Riley,Rej,Participant_Images/61528277afcb4906d01e0442/61528277afcb4906d01e0442_Images/61528277afcb4906d01e0442_Image_10.jpeg,did not like,3.799433026,,,,,,,,,,,,,,,,,,,,,,
,,61528277afcb4906d01e0442,6685aa9113c938e83b4f1ea0,6723c3d5a657ab9e1b920e9a,2024-10-31_12h55.59.369,WTP_SM_Choice,2022.2.1,Win32,60.16847172,,,,,space,2.531,NAN,,NAN,0.75,5.25,,0,27,27,27,1,28,Riley,Rej,Participant_Images/61528277afcb4906d01e0442/61528277afcb4906d01e0442_Images/61528277afcb4906d01e0442_Image_3.jpeg,did not like,5.246980764,,,,,,,,,,,,,,,,,,,,,,
,,61528277afcb4906d01e0442,6685aa9113c938e83b4f1ea0,6723c3d5a657ab9e1b920e9a,2024-10-31_12h55.59.369,WTP_SM_Choice,2022.2.1,Win32,60.16847172,,,,,space,1.3,NAN,,NAN,0.75,5.25,,0,28,28,28,1,29,Riley,Rej,Participant_Images/61528277afcb4906d01e0442/61528277afcb4906d01e0442_Images/61528277afcb4906d01e0442_Image_7.jpeg,liked,3.30081769,,,,,,,,,,,,,,,,,,,,,,
,,61528277afcb4906d01e0442,6685aa9113c938e83b4f1ea0,6723c3d5a657ab9e1b920e9a,2024-10-31_12h55.59.369,WTP_SM_Choice,2022.2.1,Win32,60.16847172,,,,,,,,,,,,,,,,,,26,,,,,,space,1.25,space,1.043,2,0,0,0,0,1,Go to the park with my son,Play video games while lying in bed,0.01,0.01,4.4,0,,0.01,2.519,,,
,,61528277afcb4906d01e0442,6685aa9113c938e83b4f1ea0,6723c3d5a657ab9e1b920e9a,2024-10-31_12h55.59.369,WTP_SM_Choice,2022.2.1,Win32,60.16847172,,,,,,,,,,,,,,,,,,27,,,,,,,,,,1,0,1,1,1,1,Nap with my boyfriend,Crochet in my bedroom,0.02,0.01,3.3,0,,0.02,2.707,,,
,,61528277afcb4906d01e0442,6685aa9113c938e83b4f1ea0,6723c3d5a657ab9e1b920e9a,2024-10-31_12h55.59.369,WTP_SM_Choice,2022.2.1,Win32,60.16847172,,,,,,,,,,,,,,,,,,28,,,,,,,,,,1,0,2,2,2,1,Do makeup challenges with my friends,Knit while watching tv,0.03,0.01,3.3,0,,0.03,4.034,,,
,,61528277afcb4906d01e0442,6685aa9113c938e83b4f1ea0,6723c3d5a657ab9e1b920e9a,2024-10-31_12h55.59.369,WTP_SM_Choice,2022.2.1,Win32,60.16847172,,,,,,,,,,,,,,,,,,29,,,,,,,,,,1,0,3,3,3,1,Knit while watching tv,Vacation with my family,0.04,0.01,4.4,1,,0.04,3.029,,,
,,61528277afcb4906d01e0442,6685aa9113c938e83b4f1ea0,6723c3d5a657ab9e1b920e9a,2024-10-31_12h55.59.369,WTP_SM_Choice,2022.2.1,Win32,60.16847172,,,,,,,,,,,,,,,,,,30,,,,,,,,,,1,0,4,4,4,1,Read on a rainy day,Make pizza with my son,0.05,0.01,8.8,1,,0.05,4.877,,,
,,61528277afcb4906d01e0442,6685aa9113c938e83b4f1ea0,6723c3d5a657ab9e1b920e9a,2024-10-31_12h55.59.369,WTP_SM_Choice,2022.2.1,Win32,60.16847172,,,,,,,NAN,,NAN,0.9,5.1,,0,29,29,29,1,30,Riley,Rej,Participant_Images/61528277afcb4906d01e0442/61528277afcb4906d01e0442_Images/61528277afcb4906d01e0442_Image_25.jpeg,did not like,1.661473164,,,,,,,,,,,,,,,,,,,,,,
,,61528277afcb4906d01e0442,6685aa9113c938e83b4f1ea0,6723c3d5a657ab9e1b920e9a,2024-10-31_12h55.59.369,WTP_SM_Choice,2022.2.1,Win32,60.16847172,,,,,space,0.817,NAN,,NAN,0.9,5.1,,0,30,30,30,1,31,Riley,Rej,Participant_Images/61528277afcb4906d01e0442/61528277afcb4906d01e0442_Images/61528277afcb4906d01e0442_Image_19.jpeg,did not like,3.613205605,,,,,,,,,,,,,,,,,,,,,,
,,61528277afcb4906d01e0442,6685aa9113c938e83b4f1ea0,6723c3d5a657ab9e1b920e9a,2024-10-31_12h55.59.369,WTP_SM_Choice,2022.2.1,Win32,60.16847172,,,,,space,2.446,NAN,,NAN,0.9,5.1,,0,31,31,31,1,32,Riley,Rej,Participant_Images/61528277afcb4906d01e0442/61528277afcb4906d01e0442_Images/61528277afcb4906d01e0442_Image_13.jpeg,did not like,4.988446431,,,,,,,,,,,,,,,,,,,,,,
,,61528277afcb4906d01e0442,6685aa9113c938e83b4f1ea0,6723c3d5a657ab9e1b920e9a,2024-10-31_12h55.59.369,WTP_SM_Choice,2022.2.1,Win32,60.16847172,,,,,space,3.613,NAN,,NAN,0.9,5.1,,0,32,32,32,1,33,Riley,Rej,Participant_Images/61528277afcb4906d01e0442/61528277afcb4906d01e0442_Images/61528277afcb4906d01e0442_Image_11.jpeg,liked,3.470791822,,,,,,,,,,,,,,,,,,,,,,
,,61528277afcb4906d01e0442,6685aa9113c938e83b4f1ea0,6723c3d5a657ab9e1b920e9a,2024-10-31_12h55.59.369,WTP_SM_Choice,2022.2.1,Win32,60.16847172,,,,,space,2.131,NAN,,NAN,0.9,5.1,,0,33,33,33,1,34,Riley,Rej,Participant_Images/61528277afcb4906d01e0442/61528277afcb4906d01e0442_Images/61528277afcb4906d01e0442_Image_4.jpeg,did not like,3.820572462,,,,,,,,,,,,,,,,,,,,,,
,,61528277afcb4906d01e0442,6685aa9113c938e83b4f1ea0,6723c3d5a657ab9e1b920e9a,2024-10-31_12h55.59.369,WTP_SM_Choice,2022.2.1,Win32,60.16847172,,,,,,,,,,,,,,,,,,31,,,,,,space,2.098,space,1.677,2,0,0,0,0,1,Make pizza with my son,Make agendas and schedules on my computer,0.01,0.02,8.8,0,,0.02,2.272,,,
,,61528277afcb4906d01e0442,6685aa9113c938e83b4f1ea0,6723c3d5a657ab9e1b920e9a,2024-10-31_12h55.59.369,WTP_SM_Choice,2022.2.1,Win32,60.16847172,,,,,,,,,,,,,,,,,,32,,,,,,,,,,1,0,1,1,1,1,Go to the gym to get fit,Do makeup challenges with my friends,0.02,0.02,1.1,1,,0.02,3.055,,,
,,61528277afcb4906d01e0442,6685aa9113c938e83b4f1ea0,6723c3d5a657ab9e1b920e9a,2024-10-31_12h55.59.369,WTP_SM_Choice,2022.2.1,Win32,60.16847172,,,,,,,,,,,,,,,,,,33,,,,,,,,,,2,0,2,2,2,1,Play video games with my son,Make agendas and schedules on my computer,0.03,0.02,4.4,0,,0.02,2.341,,,
,,61528277afcb4906d01e0442,6685aa9113c938e83b4f1ea0,6723c3d5a657ab9e1b920e9a,2024-10-31_12h55.59.369,WTP_SM_Choice,2022.2.1,Win32,60.16847172,,,,,,,,,,,,,,,,,,34,,,,,,,,,,1,0,3,3,3,1,Play video games while lying in bed,Nap with my boyfriend,0.04,0.02,3.3,1,,0.04,2.653,,,
,,61528277afcb4906d01e0442,6685aa9113c938e83b4f1ea0,6723c3d5a657ab9e1b920e9a,2024-10-31_12h55.59.369,WTP_SM_Choice,2022.2.1,Win32,60.16847172,,,,,,,,,,,,,,,,,,35,,,,,,,,,,1,0,4,4,4,1,Crochet in my bedroom,Make pizza with my son,0.05,0.02,1.1,1,,0.05,2.719,,,
,,61528277afcb4906d01e0442,6685aa9113c938e83b4f1ea0,6723c3d5a657ab9e1b920e9a,2024-10-31_12h55.59.369,WTP_SM_Choice,2022.2.1,Win32,60.16847172,,,,,,,NAN,,NAN,1.05,4.95,,0,34,34,34,1,35,Riley,Rej,Participant_Images/61528277afcb4906d01e0442/61528277afcb4906d01e0442_Images/61528277afcb4906d01e0442_Image_22.jpeg,liked,2.455989137,,,,,,,,,,,,,,,,,,,,,,
,,61528277afcb4906d01e0442,6685aa9113c938e83b4f1ea0,6723c3d5a657ab9e1b920e9a,2024-10-31_12h55.59.369,WTP_SM_Choice,2022.2.1,Win32,60.16847172,,,,,space,2.029,NAN,,NAN,1.05,4.95,,0,35,35,35,1,36,Riley,Rej,Participant_Images/61528277afcb4906d01e0442/61528277afcb4906d01e0442_Images/61528277afcb4906d01e0442_Image_15.jpeg,did not like,3.79605092,,,,,,,,,,,,,,,,,,,,,,
,,61528277afcb4906d01e0442,6685aa9113c938e83b4f1ea0,6723c3d5a657ab9e1b920e9a,2024-10-31_12h55.59.369,WTP_SM_Choice,2022.2.1,Win32,60.16847172,,,,,space,1.513,NAN,,NAN,1.05,4.95,,0,36,36,36,1,37,Riley,Rej,Participant_Images/61528277afcb4906d01e0442/61528277afcb4906d01e0442_Images/61528277afcb4906d01e0442_Image_16.jpeg,did not like,3.562416326,,,,,,,,,,,,,,,,,,,,,,
,,61528277afcb4906d01e0442,6685aa9113c938e83b4f1ea0,6723c3d5a657ab9e1b920e9a,2024-10-31_12h55.59.369,WTP_SM_Choice,2022.2.1,Win32,60.16847172,,,,,space,2.599,NAN,,NAN,1.05,4.95,,0,37,37,37,1,38,Riley,Rej,Participant_Images/61528277afcb4906d01e0442/61528277afcb4906d01e0442_Images/61528277afcb4906d01e0442_Image_18.jpeg,did not like,2.843822497,,,,,,,,,,,,,,,,,,,,,,
,,61528277afcb4906d01e0442,6685aa9113c938e83b4f1ea0,6723c3d5a657ab9e1b920e9a,2024-10-31_12h55.59.369,WTP_SM_Choice,2022.2.1,Win32,60.16847172,,,,,space,2.084,NAN,,NAN,1.05,4.95,,0,38,38,38,1,39,Riley,Rej,Participant_Images/61528277afcb4906d01e0442/61528277afcb4906d01e0442_Images/61528277afcb4906d01e0442_Image_21.jpeg,did not like,3.546495948,,,,,,,,,,,,,,,,,,,,,,
,,61528277afcb4906d01e0442,6685aa9113c938e83b4f1ea0,6723c3d5a657ab9e1b920e9a,2024-10-31_12h55.59.369,WTP_SM_Choice,2022.2.1,Win32,60.16847172,,,,,,,,,,,,,,,,,,36,,,,,,space,1.091,space,0.651,2,0,0,0,0,1,Do makeup challenges with my friends,Crochet in my bedroom,0.01,0.03,3.3,0,,0.03,2.334,,,
,,61528277afcb4906d01e0442,6685aa9113c938e83b4f1ea0,6723c3d5a657ab9e1b920e9a,2024-10-31_12h55.59.369,WTP_SM_Choice,2022.2.1,Win32,60.16847172,,,,,,,,,,,,,,,,,,37,,,,,,,,,,2,0,1,1,1,1,Game on my computer,Do makeup challenges with my friends,0.02,0.03,1.1,1,,0.03,2.447,,,
,,61528277afcb4906d01e0442,6685aa9113c938e83b4f1ea0,6723c3d5a657ab9e1b920e9a,2024-10-31_12h55.59.369,WTP_SM_Choice,2022.2.1,Win32,60.16847172,,,,,,,,,,,,,,,,,,38,,,,,,,,,,2,0,2,2,2,1,Facetime with my best friend,Crochet in my bedroom,0.03,0.03,1.1,0,,0.03,1.96,,,
,,61528277afcb4906d01e0442,6685aa9113c938e83b4f1ea0,6723c3d5a657ab9e1b920e9a,2024-10-31_12h55.59.369,WTP_SM_Choice,2022.2.1,Win32,60.16847172,,,,,,,,,,,,,,,,,,39,,,,,,,,,,1,0,3,3,3,1,Game on my computer,Play video games with my son,0.04,0.03,3.3,1,,0.04,1.408,,,
,,61528277afcb4906d01e0442,6685aa9113c938e83b4f1ea0,6723c3d5a657ab9e1b920e9a,2024-10-31_12h55.59.369,WTP_SM_Choice,2022.2.1,Win32,60.16847172,,,,,,,,,,,,,,,,,,40,,,,,,,,,,1,0,4,4,4,1,Play board games with my family,Clean my room while listening to a podcast,0.05,0.03,4.4,0,,0.05,1.539,,,
,,61528277afcb4906d01e0442,6685aa9113c938e83b4f1ea0,6723c3d5a657ab9e1b920e9a,2024-10-31_12h55.59.369,WTP_SM_Choice,2022.2.1,Win32,60.16847172,,,,,,,NAN,,NAN,1.23,4.77,,0,39,39,39,1,40,Riley,Rej,Participant_Images/61528277afcb4906d01e0442/61528277afcb4906d01e0442_Images/61528277afcb4906d01e0442_Image_6.jpeg,did not like,1.672012706,,,,,,,,,,,,,,,,,,,,,,
,,61528277afcb4906d01e0442,6685aa9113c938e83b4f1ea0,6723c3d5a657ab9e1b920e9a,2024-10-31_12h55.59.369,WTP_SM_Choice,2022.2.1,Win32,60.16847172,,,,,space,1.035,NAN,,NAN,1.23,4.77,,0,40,40,40,1,41,Riley,Rej,Participant_Images/61528277afcb4906d01e0442/61528277afcb4906d01e0442_Images/61528277afcb4906d01e0442_Image_24.jpeg,liked,4.942172136,,,,,,,,,,,,,,,,,,,,,,
,,61528277afcb4906d01e0442,6685aa9113c938e83b4f1ea0,6723c3d5a657ab9e1b920e9a,2024-10-31_12h55.59.369,WTP_SM_Choice,2022.2.1,Win32,60.16847172,,,,,space,2.314,NAN,,NAN,1.23,4.77,,0,41,41,41,1,42,Riley,Rej,Participant_Images/61528277afcb4906d01e0442/61528277afcb4906d01e0442_Images/61528277afcb4906d01e0442_Image_12.jpeg,did not like,2.50187214,,,,,,,,,,,,,,,,,,,,,,
,,61528277afcb4906d01e0442,6685aa9113c938e83b4f1ea0,6723c3d5a657ab9e1b920e9a,2024-10-31_12h55.59.369,WTP_SM_Choice,2022.2.1,Win32,60.16847172,,,,,space,2.779,NAN,,NAN,1.23,4.77,,0,42,42,42,1,43,Riley,Rej,Participant_Images/61528277afcb4906d01e0442/61528277afcb4906d01e0442_Images/61528277afcb4906d01e0442_Image_20.jpeg,liked,2.071164779,,,,,,,,,,,,,,,,,,,,,,
,,61528277afcb4906d01e0442,6685aa9113c938e83b4f1ea0,6723c3d5a657ab9e1b920e9a,2024-10-31_12h55.59.369,WTP_SM_Choice,2022.2.1,Win32,60.16847172,,,,,space,2.23,NAN,,NAN,1.23,4.77,,0,43,43,43,1,44,Riley,Rej,Participant_Images/61528277afcb4906d01e0442/61528277afcb4906d01e0442_Images/61528277afcb4906d01e0442_Image_8.jpeg,did not like,5.336503566,,,,,,,,,,,,,,,,,,,,,,
,,61528277afcb4906d01e0442,6685aa9113c938e83b4f1ea0,6723c3d5a657ab9e1b920e9a,2024-10-31_12h55.59.369,WTP_SM_Choice,2022.2.1,Win32,60.16847172,,,,,,,,,,,,,,,,,,41,,,,,,space,2.877,space,1.933,1,0,0,0,0,1,Go to the gym to get fit,Make pizza with my son,0.01,0.04,1.1,1,,0.01,1.87,,,
,,61528277afcb4906d01e0442,6685aa9113c938e83b4f1ea0,6723c3d5a657ab9e1b920e9a,2024-10-31_12h55.59.369,WTP_SM_Choice,2022.2.1,Win32,60.16847172,,,,,,,,,,,,,,,,,,42,,,,,,,,,,2,0,1,1,1,1,Nap with my boyfriend,Clean my room while listening to a podcast,0.02,0.04,3.3,0,,0.04,3.146,,,
,,61528277afcb4906d01e0442,6685aa9113c938e83b4f1ea0,6723c3d5a657ab9e1b920e9a,2024-10-31_12h55.59.369,WTP_SM_Choice,2022.2.1,Win32,60.16847172,,,,,,,,,,,,,,,,,,43,,,,,,,,,,2,0,2,2,2,1,Make pizza with my son,Clean my room while listening to a podcast,0.03,0.04,1.1,0,,0.04,2.27,,,
,,61528277afcb4906d01e0442,6685aa9113c938e83b4f1ea0,6723c3d5a657ab9e1b920e9a,2024-10-31_12h55.59.369,WTP_SM_Choice,2022.2.1,Win32,60.16847172,,,,,,,,,,,,,,,,,,44,,,,,,,,,,2,0,3,3,3,1,Do makeup challenges with my friends,Write stories in my notebook,0.04,0.04,1.1,0,,0.04,3.285,,,
,,61528277afcb4906d01e0442,6685aa9113c938e83b4f1ea0,6723c3d5a657ab9e1b920e9a,2024-10-31_12h55.59.369,WTP_SM_Choice,2022.2.1,Win32,60.16847172,,,,,,,,,,,,,,,,,,45,,,,,,,,,,1,0,4,4,4,1,Game on my computer,Bake with my mom,0.05,0.04,4.4,1,,0.05,1.657,,,
,,61528277afcb4906d01e0442,6685aa9113c938e83b4f1ea0,6723c3d5a657ab9e1b920e9a,2024-10-31_12h55.59.369,WTP_SM_Choice,2022.2.1,Win32,60.16847172,,,,,,,NAN,,NAN,1.41,4.59,,0,44,44,44,1,45,Riley,Rej,Participant_Images/61528277afcb4906d01e0442/61528277afcb4906d01e0442_Images/61528277afcb4906d01e0442_Image_23.jpeg,did not like,2.642157193,,,,,,,,,,,,,,,,,,,,,,
,,61528277afcb4906d01e0442,6685aa9113c938e83b4f1ea0,6723c3d5a657ab9e1b920e9a,2024-10-31_12h55.59.369,WTP_SM_Choice,2022.2.1,Win32,60.16847172,,,,,space,2.278,NAN,,NAN,1.41,4.59,,0,45,45,45,1,46,Riley,Rej,Participant_Images/61528277afcb4906d01e0442/61528277afcb4906d01e0442_Images/61528277afcb4906d01e0442_Image_2.jpeg,did not like,4.456234322,,,,,,,,,,,,,,,,,,,,,,
,,61528277afcb4906d01e0442,6685aa9113c938e83b4f1ea0,6723c3d5a657ab9e1b920e9a,2024-10-31_12h55.59.369,WTP_SM_Choice,2022.2.1,Win32,60.16847172,,,,,space,0.718,NAN,,NAN,1.41,4.59,,0,46,46,46,1,47,Riley,Rej,Participant_Images/61528277afcb4906d01e0442/61528277afcb4906d01e0442_Images/61528277afcb4906d01e0442_Image_9.jpeg,liked,4.438512181,,,,,,,,,,,,,,,,,,,,,,
,,61528277afcb4906d01e0442,6685aa9113c938e83b4f1ea0,6723c3d5a657ab9e1b920e9a,2024-10-31_12h55.59.369,WTP_SM_Choice,2022.2.1,Win32,60.16847172,,,,,space,1.165,NAN,,NAN,1.41,4.59,,0,47,47,47,1,48,Riley,Rej,Participant_Images/61528277afcb4906d01e0442/61528277afcb4906d01e0442_Images/61528277afcb4906d01e0442_Image_5.jpeg,did not like,2.682944783,,,,,,,,,,,,,,,,,,,,,,
,,61528277afcb4906d01e0442,6685aa9113c938e83b4f1ea0,6723c3d5a657ab9e1b920e9a,2024-10-31_12h55.59.369,WTP_SM_Choice,2022.2.1,Win32,60.16847172,,,,,space,0.532,NAN,,NAN,1.41,4.59,,0,48,48,48,1,49,Riley,Rej,Participant_Images/61528277afcb4906d01e0442/61528277afcb4906d01e0442_Images/61528277afcb4906d01e0442_Image_14.jpeg,did not like,4.51984296,,,,,,,,,,,,,,,,,,,,,,
,,61528277afcb4906d01e0442,6685aa9113c938e83b4f1ea0,6723c3d5a657ab9e1b920e9a,2024-10-31_12h55.59.369,WTP_SM_Choice,2022.2.1,Win32,60.16847172,,,,,,,,,,,,,,,,,,46,,,,,,space,1.864,space,0.564,2,0,0,0,0,1,Watch movies with my mom,Crochet in my bedroom,0.01,0.05,8.8,0,,0.05,2.978,,,
,,61528277afcb4906d01e0442,6685aa9113c938e83b4f1ea0,6723c3d5a657ab9e1b920e9a,2024-10-31_12h55.59.369,WTP_SM_Choice,2022.2.1,Win32,60.16847172,,,,,,,,,,,,,,,,,,47,,,,,,,,,,2,0,1,1,1,1,Go to the park with my son,Go to the gym to get fit,0.02,0.05,1.1,0,,0.05,2.25,,,
,,61528277afcb4906d01e0442,6685aa9113c938e83b4f1ea0,6723c3d5a657ab9e1b920e9a,2024-10-31_12h55.59.369,WTP_SM_Choice,2022.2.1,Win32,60.16847172,,,,,,,,,,,,,,,,,,48,,,,,,,,,,2,0,2,2,2,1,Nap with my boyfriend,Write stories in my notebook,0.03,0.05,4.4,0,,0.05,2.792,,,
,,61528277afcb4906d01e0442,6685aa9113c938e83b4f1ea0,6723c3d5a657ab9e1b920e9a,2024-10-31_12h55.59.369,WTP_SM_Choice,2022.2.1,Win32,60.16847172,,,,,,,,,,,,,,,,,,49,,,,,,,,,,2,0,3,3,3,1,Read on a rainy day,Go to the park with my son,0.04,0.05,3.3,1,,0.05,4.415,,,
,,61528277afcb4906d01e0442,6685aa9113c938e83b4f1ea0,6723c3d5a657ab9e1b920e9a,2024-10-31_12h55.59.369,WTP_SM_Choice,2022.2.1,Win32,60.16847172,,,,,,,,,,,,,,,,,,50,,,,,,,,,,2,0,4,4,4,1,Bake with my mom,Make agendas and schedules on my computer,0.05,0.05,1.1,0,,0.05,5.273,,,
,,61528277afcb4906d01e0442,6685aa9113c938e83b4f1ea0,6723c3d5a657ab9e1b920e9a,2024-10-31_12h55.59.369,WTP_SM_Choice,2022.2.1,Win32,60.16847172,,,,,,,3,,2,1.66,4.34,,0,49,49,49,1,50,Riley,Rej,Participant_Images/61528277afcb4906d01e0442/61528277afcb4906d01e0442_Images/61528277afcb4906d01e0442_Image_1.jpeg,liked,3.195382774,,,,,,,,,,,,,,,,,space,,,2.51,,
,,61528277afcb4906d01e0442,6685aa9113c938e83b4f1ea0,6723c3d5a657ab9e1b920e9a,2024-10-31_12h55.59.369,WTP_SM_Choice,2022.2.1,Win32,60.16847172,,,space,8.372,space,9.415,NAN,,NAN,1.66,4.34,,0,50,50,50,1,51,Charlie,Acc,Participant_Images/61528277afcb4906d01e0442/61528277afcb4906d01e0442_Images/61528277afcb4906d01e0442_Image_20.jpeg,liked,1.779333479,,,,,,,,,,,,,,,,,,,,,,
,,61528277afcb4906d01e0442,6685aa9113c938e83b4f1ea0,6723c3d5a657ab9e1b920e9a,2024-10-31_12h55.59.369,WTP_SM_Choice,2022.2.1,Win32,60.16847172,,,,,space,1.531,NAN,,NAN,1.66,4.34,,0,51,51,51,1,52,Charlie,Acc,Participant_Images/61528277afcb4906d01e0442/61528277afcb4906d01e0442_Images/61528277afcb4906d01e0442_Image_6.jpeg,liked,4.312468682,,,,,,,,,,,,,,,,,,,,,,
,,61528277afcb4906d01e0442,6685aa9113c938e83b4f1ea0,6723c3d5a657ab9e1b920e9a,2024-10-31_12h55.59.369,WTP_SM_Choice,2022.2.1,Win32,60.16847172,,,,,space,2.793,NAN,,NAN,1.66,4.34,,0,52,52,52,1,53,Charlie,Acc,Participant_Images/61528277afcb4906d01e0442/61528277afcb4906d01e0442_Images/61528277afcb4906d01e0442_Image_9.jpeg,liked,4.940433059,,,,,,,,,,,,,,,,,,,,,,
,,61528277afcb4906d01e0442,6685aa9113c938e83b4f1ea0,6723c3d5a657ab9e1b920e9a,2024-10-31_12h55.59.369,WTP_SM_Choice,2022.2.1,Win32,60.16847172,,,,,space,0.781,NAN,,NAN,1.66,4.34,,0,53,53,53,1,54,Charlie,Acc,Participant_Images/61528277afcb4906d01e0442/61528277afcb4906d01e0442_Images/61528277afcb4906d01e0442_Image_24.jpeg,liked,2.7105123,,,,,,,,,,,,,,,,,,,,,,
,,61528277afcb4906d01e0442,6685aa9113c938e83b4f1ea0,6723c3d5a657ab9e1b920e9a,2024-10-31_12h55.59.369,WTP_SM_Choice,2022.2.1,Win32,60.16847172,,,,,,,,,,,,,,,,,,51,,,,,,space,1.236,space,1.064,2,0,0,0,0,1,Facetime with my best friend,Bake cakes at home,0.01,0.01,1.1,0,,0.01,2.257,,,
,,61528277afcb4906d01e0442,6685aa9113c938e83b4f1ea0,6723c3d5a657ab9e1b920e9a,2024-10-31_12h55.59.369,WTP_SM_Choice,2022.2.1,Win32,60.16847172,,,,,,,,,,,,,,,,,,52,,,,,,,,,,1,0,1,1,1,1,Bake cakes at home,Play video games with my son,0.02,0.01,3.3,1,,0.02,1.875,,,
,,61528277afcb4906d01e0442,6685aa9113c938e83b4f1ea0,6723c3d5a657ab9e1b920e9a,2024-10-31_12h55.59.369,WTP_SM_Choice,2022.2.1,Win32,60.16847172,,,,,,,,,,,,,,,,,,53,,,,,,,,,,1,0,2,2,2,1,Play video games while lying in bed,Facetime with my best friend,0.03,0.01,1.1,1,,0.03,3.263,,,
,,61528277afcb4906d01e0442,6685aa9113c938e83b4f1ea0,6723c3d5a657ab9e1b920e9a,2024-10-31_12h55.59.369,WTP_SM_Choice,2022.2.1,Win32,60.16847172,,,,,,,,,,,,,,,,,,54,,,,,,,,,,2,0,3,3,3,1,Watch movies with my mom,Knit while watching tv,0.04,0.01,4.4,0,,0.01,3.424,,,
,,61528277afcb4906d01e0442,6685aa9113c938e83b4f1ea0,6723c3d5a657ab9e1b920e9a,2024-10-31_12h55.59.369,WTP_SM_Choice,2022.2.1,Win32,60.16847172,,,,,,,,,,,,,,,,,,55,,,,,,,,,,1,0,4,4,4,1,Play video games while lying in bed,Vacation with my family,0.05,0.01,1.1,1,,0.05,2.353,,,
,,61528277afcb4906d01e0442,6685aa9113c938e83b4f1ea0,6723c3d5a657ab9e1b920e9a,2024-10-31_12h55.59.369,WTP_SM_Choice,2022.2.1,Win32,60.16847172,,,,,,,NAN,,NAN,1.78,4.22,,0,54,54,54,1,55,Charlie,Acc,Participant_Images/61528277afcb4906d01e0442/61528277afcb4906d01e0442_Images/61528277afcb4906d01e0442_Image_25.jpeg,liked,3.602308302,,,,,,,,,,,,,,,,,,,,,,
,,61528277afcb4906d01e0442,6685aa9113c938e83b4f1ea0,6723c3d5a657ab9e1b920e9a,2024-10-31_12h55.59.369,WTP_SM_Choice,2022.2.1,Win32,60.16847172,,,,,space,2.334,NAN,,NAN,1.78,4.22,,0,55,55,55,1,56,Charlie,Acc,Participant_Images/61528277afcb4906d01e0442/61528277afcb4906d01e0442_Images/61528277afcb4906d01e0442_Image_22.jpeg,liked,4.106391878,,,,,,,,,,,,,,,,,,,,,,
,,61528277afcb4906d01e0442,6685aa9113c938e83b4f1ea0,6723c3d5a657ab9e1b920e9a,2024-10-31_12h55.59.369,WTP_SM_Choice,2022.2.1,Win32,60.16847172,,,,,space,2.033,NAN,,NAN,1.78,4.22,,0,56,56,56,1,57,Charlie,Acc,Participant_Images/61528277afcb4906d01e0442/61528277afcb4906d01e0442_Images/61528277afcb4906d01e0442_Image_13.jpeg,did not like,3.799433026,,,,,,,,,,,,,,,,,,,,,,
,,61528277afcb4906d01e0442,6685aa9113c938e83b4f1ea0,6723c3d5a657ab9e1b920e9a,2024-10-31_12h55.59.369,WTP_SM_Choice,2022.2.1,Win32,60.16847172,,,,,space,0.868,NAN,,NAN,1.78,4.22,,0,57,57,57,1,58,Charlie,Acc,Participant_Images/61528277afcb4906d01e0442/61528277afcb4906d01e0442_Images/61528277afcb4906d01e0442_Image_4.jpeg,liked,5.246980764,,,,,,,,,,,,,,,,,,,,,,
,,61528277afcb4906d01e0442,6685aa9113c938e83b4f1ea0,6723c3d5a657ab9e1b920e9a,2024-10-31_12h55.59.369,WTP_SM_Choice,2022.2.1,Win32,60.16847172,,,,,space,0.884,NAN,,NAN,1.78,4.22,,0,58,58,58,1,59,Charlie,Acc,Participant_Images/61528277afcb4906d01e0442/61528277afcb4906d01e0442_Images/61528277afcb4906d01e0442_Image_10.jpeg,did not like,3.30081769,,,,,,,,,,,,,,,,,,,,,,
,,61528277afcb4906d01e0442,6685aa9113c938e83b4f1ea0,6723c3d5a657ab9e1b920e9a,2024-10-31_12h55.59.369,WTP_SM_Choice,2022.2.1,Win32,60.16847172,,,,,,,,,,,,,,,,,,56,,,,,,space,0.923,space,0.712,2,0,0,0,0,1,Bake with my mom,Knit while watching tv,0.01,0.02,8.8,0,,0.02,2.305,,,
,,61528277afcb4906d01e0442,6685aa9113c938e83b4f1ea0,6723c3d5a657ab9e1b920e9a,2024-10-31_12h55.59.369,WTP_SM_Choice,2022.2.1,Win32,60.16847172,,,,,,,,,,,,,,,,,,57,,,,,,,,,,2,0,1,1,1,1,Play board games with my family,Read on a rainy day,0.02,0.02,4.4,0,,0.02,2.223,,,
,,61528277afcb4906d01e0442,6685aa9113c938e83b4f1ea0,6723c3d5a657ab9e1b920e9a,2024-10-31_12h55.59.369,WTP_SM_Choice,2022.2.1,Win32,60.16847172,,,,,,,,,,,,,,,,,,58,,,,,,,,,,1,0,2,2,2,1,Play video games while lying in bed,Play board games with my family,0.03,0.02,4.4,1,,0.03,2.272,,,
,,61528277afcb4906d01e0442,6685aa9113c938e83b4f1ea0,6723c3d5a657ab9e1b920e9a,2024-10-31_12h55.59.369,WTP_SM_Choice,2022.2.1,Win32,60.16847172,,,,,,,,,,,,,,,,,,59,,,,,,,,,,1,0,3,3,3,1,Go to the gym to get fit,Watch movies with my mom,0.04,0.02,4.4,1,,0.04,2.225,,,
,,61528277afcb4906d01e0442,6685aa9113c938e83b4f1ea0,6723c3d5a657ab9e1b920e9a,2024-10-31_12h55.59.369,WTP_SM_Choice,2022.2.1,Win32,60.16847172,,,,,,,,,,,,,,,,,,60,,,,,,,,,,1,0,4,4,4,1,Crochet in my bedroom,Play video games with my son,0.05,0.02,1.1,1,,0.05,1.53,,,
,,61528277afcb4906d01e0442,6685aa9113c938e83b4f1ea0,6723c3d5a657ab9e1b920e9a,2024-10-31_12h55.59.369,WTP_SM_Choice,2022.2.1,Win32,60.16847172,,,,,,,NAN,,NAN,1.94,4.06,,0,59,59,59,1,60,Charlie,Acc,Participant_Images/61528277afcb4906d01e0442/61528277afcb4906d01e0442_Images/61528277afcb4906d01e0442_Image_3.jpeg,did not like,1.661473164,,,,,,,,,,,,,,,,,,,,,,
,,61528277afcb4906d01e0442,6685aa9113c938e83b4f1ea0,6723c3d5a657ab9e1b920e9a,2024-10-31_12h55.59.369,WTP_SM_Choice,2022.2.1,Win32,60.16847172,,,,,space,0.833,NAN,,NAN,1.94,4.06,,0,60,60,60,1,61,Charlie,Acc,Participant_Images/61528277afcb4906d01e0442/61528277afcb4906d01e0442_Images/61528277afcb4906d01e0442_Image_17.jpeg,liked,3.613205605,,,,,,,,,,,,,,,,,,,,,,
,,61528277afcb4906d01e0442,6685aa9113c938e83b4f1ea0,6723c3d5a657ab9e1b920e9a,2024-10-31_12h55.59.369,WTP_SM_Choice,2022.2.1,Win32,60.16847172,,,,,space,1.346,NAN,,NAN,1.94,4.06,,0,61,61,61,1,62,Charlie,Acc,Participant_Images/61528277afcb4906d01e0442/61528277afcb4906d01e0442_Images/61528277afcb4906d01e0442_Image_7.jpeg,did not like,4.988446431,,,,,,,,,,,,,,,,,,,,,,
,,61528277afcb4906d01e0442,6685aa9113c938e83b4f1ea0,6723c3d5a657ab9e1b920e9a,2024-10-31_12h55.59.369,WTP_SM_Choice,2022.2.1,Win32,60.16847172,,,,,space,0.899,NAN,,NAN,1.94,4.06,,0,62,62,62,1,63,Charlie,Acc,Participant_Images/61528277afcb4906d01e0442/61528277afcb4906d01e0442_Images/61528277afcb4906d01e0442_Image_5.jpeg,liked,3.470791822,,,,,,,,,,,,,,,,,,,,,,
,,61528277afcb4906d01e0442,6685aa9113c938e83b4f1ea0,6723c3d5a657ab9e1b920e9a,2024-10-31_12h55.59.369,WTP_SM_Choice,2022.2.1,Win32,60.16847172,,,,,space,1.183,NAN,,NAN,1.94,4.06,,0,63,63,63,1,64,Charlie,Acc,Participant_Images/61528277afcb4906d01e0442/61528277afcb4906d01e0442_Images/61528277afcb4906d01e0442_Image_23.jpeg,did not like,3.820572462,,,,,,,,,,,,,,,,,,,,,,
,,61528277afcb4906d01e0442,6685aa9113c938e83b4f1ea0,6723c3d5a657ab9e1b920e9a,2024-10-31_12h55.59.369,WTP_SM_Choice,2022.2.1,Win32,60.16847172,,,,,,,,,,,,,,,,,,61,,,,,,space,0.892,space,0.647,1,0,0,0,0,1,Read on a rainy day,Nap with my boyfriend,0.01,0.03,3.3,1,,0.01,2.596,,,
,,61528277afcb4906d01e0442,6685aa9113c938e83b4f1ea0,6723c3d5a657ab9e1b920e9a,2024-10-31_12h55.59.369,WTP_SM_Choice,2022.2.1,Win32,60.16847172,,,,,,,,,,,,,,,,,,62,,,,,,,,,,1,0,1,1,1,1,Knit while watching tv,Nap with my boyfriend,0.02,0.03,3.3,1,,0.02,3.064,,,
,,61528277afcb4906d01e0442,6685aa9113c938e83b4f1ea0,6723c3d5a657ab9e1b920e9a,2024-10-31_12h55.59.369,WTP_SM_Choice,2022.2.1,Win32,60.16847172,,,,,,,,,,,,,,,,,,63,,,,,,,,,,1,0,2,2,2,1,Read on a rainy day,Watch movies with my mom,0.03,0.03,3.3,1,,0.03,2.232,,,
,,61528277afcb4906d01e0442,6685aa9113c938e83b4f1ea0,6723c3d5a657ab9e1b920e9a,2024-10-31_12h55.59.369,WTP_SM_Choice,2022.2.1,Win32,60.16847172,,,,,,,,,,,,,,,,,,64,,,,,,,,,,1,0,3,3,3,1,Do makeup challenges with my friends,Clean my room while listening to a podcast,0.04,0.03,1.1,0,,0.04,2.108,,,
,,61528277afcb4906d01e0442,6685aa9113c938e83b4f1ea0,6723c3d5a657ab9e1b920e9a,2024-10-31_12h55.59.369,WTP_SM_Choice,2022.2.1,Win32,60.16847172,,,,,,,,,,,,,,,,,,65,,,,,,,,,,2,0,4,4,4,1,Play board games with my family,Write stories in my notebook,0.05,0.03,1.1,0,,0.03,3.716,,,
,,61528277afcb4906d01e0442,6685aa9113c938e83b4f1ea0,6723c3d5a657ab9e1b920e9a,2024-10-31_12h55.59.369,WTP_SM_Choice,2022.2.1,Win32,60.16847172,,,,,,,NAN,,NAN,2.07,3.93,,0,64,64,64,1,65,Charlie,Acc,Participant_Images/61528277afcb4906d01e0442/61528277afcb4906d01e0442_Images/61528277afcb4906d01e0442_Image_12.jpeg,did not like,2.455989137,,,,,,,,,,,,,,,,,,,,,,
,,61528277afcb4906d01e0442,6685aa9113c938e83b4f1ea0,6723c3d5a657ab9e1b920e9a,2024-10-31_12h55.59.369,WTP_SM_Choice,2022.2.1,Win32,60.16847172,,,,,space,1.097,NAN,,NAN,2.07,3.93,,0,65,65,65,1,66,Charlie,Acc,Participant_Images/61528277afcb4906d01e0442/61528277afcb4906d01e0442_Images/61528277afcb4906d01e0442_Image_14.jpeg,liked,3.79605092,,,,,,,,,,,,,,,,,,,,,,
,,61528277afcb4906d01e0442,6685aa9113c938e83b4f1ea0,6723c3d5a657ab9e1b920e9a,2024-10-31_12h55.59.369,WTP_SM_Choice,2022.2.1,Win32,60.16847172,,,,,space,1.951,NAN,,NAN,2.07,3.93,,0,66,66,66,1,67,Charlie,Acc,Participant_Images/61528277afcb4906d01e0442/61528277afcb4906d01e0442_Images/61528277afcb4906d01e0442_Image_1.jpeg,liked,3.562416326,,,,,,,,,,,,,,,,,,,,,,
,,61528277afcb4906d01e0442,6685aa9113c938e83b4f1ea0,6723c3d5a657ab9e1b920e9a,2024-10-31_12h55.59.369,WTP_SM_Choice,2022.2.1,Win32,60.16847172,,,,,space,0.716,NAN,,NAN,2.07,3.93,,0,67,67,67,1,68,Charlie,Acc,Participant_Images/61528277afcb4906d01e0442/61528277afcb4906d01e0442_Images/61528277afcb4906d01e0442_Image_15.jpeg,liked,2.843822497,,,,,,,,,,,,,,,,,,,,,,
,,61528277afcb4906d01e0442,6685aa9113c938e83b4f1ea0,6723c3d5a657ab9e1b920e9a,2024-10-31_12h55.59.369,WTP_SM_Choice,2022.2.1,Win32,60.16847172,,,,,space,0.816,NAN,,NAN,2.07,3.93,,0,68,68,68,1,69,Charlie,Acc,Participant_Images/61528277afcb4906d01e0442/61528277afcb4906d01e0442_Images/61528277afcb4906d01e0442_Image_11.jpeg,liked,3.546495948,,,,,,,,,,,,,,,,,,,,,,
,,61528277afcb4906d01e0442,6685aa9113c938e83b4f1ea0,6723c3d5a657ab9e1b920e9a,2024-10-31_12h55.59.369,WTP_SM_Choice,2022.2.1,Win32,60.16847172,,,,,,,,,,,,,,,,,,66,,,,,,space,1.266,space,0.811,2,0,0,0,0,1,Watch movies with my mom,Play video games while lying in bed,0.01,0.04,1.1,0,,0.04,2.885,,,
,,61528277afcb4906d01e0442,6685aa9113c938e83b4f1ea0,6723c3d5a657ab9e1b920e9a,2024-10-31_12h55.59.369,WTP_SM_Choice,2022.2.1,Win32,60.16847172,,,,,,,,,,,,,,,,,,67,,,,,,,,,,2,0,1,1,1,1,Go to the gym to get fit,Play board games with my family,0.02,0.04,8.8,1,,0.04,3.576,,,
,,61528277afcb4906d01e0442,6685aa9113c938e83b4f1ea0,6723c3d5a657ab9e1b920e9a,2024-10-31_12h55.59.369,WTP_SM_Choice,2022.2.1,Win32,60.16847172,,,,,,,,,,,,,,,,,,68,,,,,,,,,,2,0,2,2,2,1,Do makeup challenges with my friends,Read on a rainy day,0.03,0.04,4.4,0,,0.04,1.933,,,
,,61528277afcb4906d01e0442,6685aa9113c938e83b4f1ea0,6723c3d5a657ab9e1b920e9a,2024-10-31_12h55.59.369,WTP_SM_Choice,2022.2.1,Win32,60.16847172,,,,,,,,,,,,,,,,,,69,,,,,,,,,,2,0,3,3,3,1,Clean my room while listening to a podcast,Bake with my mom,0.04,0.04,1.1,1,,0.04,1.853,,,
,,61528277afcb4906d01e0442,6685aa9113c938e83b4f1ea0,6723c3d5a657ab9e1b920e9a,2024-10-31_12h55.59.369,WTP_SM_Choice,2022.2.1,Win32,60.16847172,,,,,,,,,,,,,,,,,,70,,,,,,,,,,1,0,4,4,4,1,Go to the gym to get fit,Play video games with my son,0.05,0.04,1.1,1,,0.05,2.114,,,
,,61528277afcb4906d01e0442,6685aa9113c938e83b4f1ea0,6723c3d5a657ab9e1b920e9a,2024-10-31_12h55.59.369,WTP_SM_Choice,2022.2.1,Win32,60.16847172,,,,,,,NAN,,NAN,2.28,3.72,,0,69,69,69,1,70,Charlie,Acc,Participant_Images/61528277afcb4906d01e0442/61528277afcb4906d01e0442_Images/61528277afcb4906d01e0442_Image_19.jpeg,did not like,1.672012706,,,,,,,,,,,,,,,,,,,,,,
,,61528277afcb4906d01e0442,6685aa9113c938e83b4f1ea0,6723c3d5a657ab9e1b920e9a,2024-10-31_12h55.59.369,WTP_SM_Choice,2022.2.1,Win32,60.16847172,,,,,space,0.967,NAN,,NAN,2.28,3.72,,0,70,70,70,1,71,Charlie,Acc,Participant_Images/61528277afcb4906d01e0442/61528277afcb4906d01e0442_Images/61528277afcb4906d01e0442_Image_2.jpeg,liked,4.942172136,,,,,,,,,,,,,,,,,,,,,,
,,61528277afcb4906d01e0442,6685aa9113c938e83b4f1ea0,6723c3d5a657ab9e1b920e9a,2024-10-31_12h55.59.369,WTP_SM_Choice,2022.2.1,Win32,60.16847172,,,,,space,1.365,NAN,,NAN,2.28,3.72,,0,71,71,71,1,72,Charlie,Acc,Participant_Images/61528277afcb4906d01e0442/61528277afcb4906d01e0442_Images/61528277afcb4906d01e0442_Image_21.jpeg,liked,2.50187214,,,,,,,,,,,,,,,,,,,,,,
,,61528277afcb4906d01e0442,6685aa9113c938e83b4f1ea0,6723c3d5a657ab9e1b920e9a,2024-10-31_12h55.59.369,WTP_SM_Choice,2022.2.1,Win32,60.16847172,,,,,space,1.219,NAN,,NAN,2.28,3.72,,0,72,72,72,1,73,Charlie,Acc,Participant_Images/61528277afcb4906d01e0442/61528277afcb4906d01e0442_Images/61528277afcb4906d01e0442_Image_18.jpeg,liked,2.071164779,,,,,,,,,,,,,,,,,,,,,,
,,61528277afcb4906d01e0442,6685aa9113c938e83b4f1ea0,6723c3d5a657ab9e1b920e9a,2024-10-31_12h55.59.369,WTP_SM_Choice,2022.2.1,Win32,60.16847172,,,,,space,1.03,NAN,,NAN,2.28,3.72,,0,73,73,73,1,74,Charlie,Acc,Participant_Images/61528277afcb4906d01e0442/61528277afcb4906d01e0442_Images/61528277afcb4906d01e0442_Image_8.jpeg,liked,5.336503566,,,,,,,,,,,,,,,,,,,,,,
,,61528277afcb4906d01e0442,6685aa9113c938e83b4f1ea0,6723c3d5a657ab9e1b920e9a,2024-10-31_12h55.59.369,WTP_SM_Choice,2022.2.1,Win32,60.16847172,,,,,,,,,,,,,,,,,,71,,,,,,space,18.864,space,1.812,1,0,0,0,0,1,Play board games with my family,Crochet in my bedroom,0.01,0.05,3.3,0,,0.01,2.93,,,
,,61528277afcb4906d01e0442,6685aa9113c938e83b4f1ea0,6723c3d5a657ab9e1b920e9a,2024-10-31_12h55.59.369,WTP_SM_Choice,2022.2.1,Win32,60.16847172,,,,,,,,,,,,,,,,,,72,,,,,,,,,,1,0,1,1,1,1,Go to the gym to get fit,Facetime with my best friend,0.02,0.05,8.8,1,,0.02,3.051,,,
,,61528277afcb4906d01e0442,6685aa9113c938e83b4f1ea0,6723c3d5a657ab9e1b920e9a,2024-10-31_12h55.59.369,WTP_SM_Choice,2022.2.1,Win32,60.16847172,,,,,,,,,,,,,,,,,,73,,,,,,,,,,1,0,2,2,2,1,Make agendas and schedules on my computer,Facetime with my best friend,0.03,0.05,3.3,1,,0.03,3.032,,,
,,61528277afcb4906d01e0442,6685aa9113c938e83b4f1ea0,6723c3d5a657ab9e1b920e9a,2024-10-31_12h55.59.369,WTP_SM_Choice,2022.2.1,Win32,60.16847172,,,,,,,,,,,,,,,,,,74,,,,,,,,,,1,0,3,3,3,1,Clean my room while listening to a podcast,Vacation with my family,0.04,0.05,4.4,1,,0.04,2.573,,,
,,61528277afcb4906d01e0442,6685aa9113c938e83b4f1ea0,6723c3d5a657ab9e1b920e9a,2024-10-31_12h55.59.369,WTP_SM_Choice,2022.2.1,Win32,60.16847172,,,,,,,,,,,,,,,,,,75,,,,,,,,,,1,0,4,4,4,1,Knit while watching tv,Facetime with my best friend,0.05,0.05,3.3,1,,0.05,3.173,,,
,,61528277afcb4906d01e0442,6685aa9113c938e83b4f1ea0,6723c3d5a657ab9e1b920e9a,2024-10-31_12h55.59.369,WTP_SM_Choice,2022.2.1,Win32,60.16847172,,,,,,,4,,8,2.43,3.57,,0,74,74,74,1,75,Charlie,Acc,Participant_Images/61528277afcb4906d01e0442/61528277afcb4906d01e0442_Images/61528277afcb4906d01e0442_Image_16.jpeg,liked,2.642157193,,,,,,,,,,,,,,,,,space,,,1.365,,
,,61528277afcb4906d01e0442,6685aa9113c938e83b4f1ea0,6723c3d5a657ab9e1b920e9a,2024-10-31_12h55.59.369,WTP_SM_Choice,2022.2.1,Win32,60.16847172,,,space,7.488,space,8.527,NAN,,NAN,2.43,3.57,,0,75,75,75,1,76,Sam,Acc,Participant_Images/61528277afcb4906d01e0442/61528277afcb4906d01e0442_Images/61528277afcb4906d01e0442_Image_9.jpeg,liked,4.456234322,,,,,,,,,,,,,,,,,,,,,,
,,61528277afcb4906d01e0442,6685aa9113c938e83b4f1ea0,6723c3d5a657ab9e1b920e9a,2024-10-31_12h55.59.369,WTP_SM_Choice,2022.2.1,Win32,60.16847172,,,,,space,1.015,NAN,,NAN,2.43,3.57,,0,76,76,76,1,77,Sam,Acc,Participant_Images/61528277afcb4906d01e0442/61528277afcb4906d01e0442_Images/61528277afcb4906d01e0442_Image_20.jpeg,liked,4.438512181,,,,,,,,,,,,,,,,,,,,,,
,,61528277afcb4906d01e0442,6685aa9113c938e83b4f1ea0,6723c3d5a657ab9e1b920e9a,2024-10-31_12h55.59.369,WTP_SM_Choice,2022.2.1,Win32,60.16847172,,,,,space,4.875,NAN,,NAN,2.43,3.57,,0,77,77,77,1,78,Sam,Acc,Participant_Images/61528277afcb4906d01e0442/61528277afcb4906d01e0442_Images/61528277afcb4906d01e0442_Image_12.jpeg,did not like,2.682944783,,,,,,,,,,,,,,,,,,,,,,
,,61528277afcb4906d01e0442,6685aa9113c938e83b4f1ea0,6723c3d5a657ab9e1b920e9a,2024-10-31_12h55.59.369,WTP_SM_Choice,2022.2.1,Win32,60.16847172,,,,,space,1.099,NAN,,NAN,2.43,3.57,,0,78,78,78,1,79,Sam,Acc,Participant_Images/61528277afcb4906d01e0442/61528277afcb4906d01e0442_Images/61528277afcb4906d01e0442_Image_7.jpeg,did not like,4.51984296,,,,,,,,,,,,,,,,,,,,,,
,,61528277afcb4906d01e0442,6685aa9113c938e83b4f1ea0,6723c3d5a657ab9e1b920e9a,2024-10-31_12h55.59.369,WTP_SM_Choice,2022.2.1,Win32,60.16847172,,,,,,,,,,,,,,,,,,76,,,,,,space,1.094,space,2.778,1,0,0,0,0,1,Write stories in my notebook,Play video games with my son,0.01,0.01,1.1,1,,0.01,2.243,,,
,,61528277afcb4906d01e0442,6685aa9113c938e83b4f1ea0,6723c3d5a657ab9e1b920e9a,2024-10-31_12h55.59.369,WTP_SM_Choice,2022.2.1,Win32,60.16847172,,,,,,,,,,,,,,,,,,77,,,,,,,,,,2,0,1,1,1,1,Facetime with my best friend,Clean my room while listening to a podcast,0.02,0.01,8.8,0,,0.01,1.891,,,
,,61528277afcb4906d01e0442,6685aa9113c938e83b4f1ea0,6723c3d5a657ab9e1b920e9a,2024-10-31_12h55.59.369,WTP_SM_Choice,2022.2.1,Win32,60.16847172,,,,,,,,,,,,,,,,,,78,,,,,,,,,,2,0,2,2,2,1,Read on a rainy day,Bake with my mom,0.03,0.01,1.1,1,,0.01,5.314,,,
,,61528277afcb4906d01e0442,6685aa9113c938e83b4f1ea0,6723c3d5a657ab9e1b920e9a,2024-10-31_12h55.59.369,WTP_SM_Choice,2022.2.1,Win32,60.16847172,,,,,,,,,,,,,,,,,,79,,,,,,,,,,2,0,3,3,3,1,Game on my computer,Nap with my boyfriend,0.04,0.01,1.1,1,,0.01,3.689,,,
,,61528277afcb4906d01e0442,6685aa9113c938e83b4f1ea0,6723c3d5a657ab9e1b920e9a,2024-10-31_12h55.59.369,WTP_SM_Choice,2022.2.1,Win32,60.16847172,,,,,,,,,,,,,,,,,,80,,,,,,,,,,1,0,4,4,4,1,Make agendas and schedules on my computer,Do makeup challenges with my friends,0.05,0.01,4.4,1,,0.05,3.393,,,
,,61528277afcb4906d01e0442,6685aa9113c938e83b4f1ea0,6723c3d5a657ab9e1b920e9a,2024-10-31_12h55.59.369,WTP_SM_Choice,2022.2.1,Win32,60.16847172,,,,,,,NAN,,NAN,2.52,3.48,,0,79,79,79,1,80,Sam,Acc,Participant_Images/61528277afcb4906d01e0442/61528277afcb4906d01e0442_Images/61528277afcb4906d01e0442_Image_6.jpeg,liked,3.195382774,,,,,,,,,,,,,,,,,,,,,,
,,61528277afcb4906d01e0442,6685aa9113c938e83b4f1ea0,6723c3d5a657ab9e1b920e9a,2024-10-31_12h55.59.369,WTP_SM_Choice,2022.2.1,Win32,60.16847172,,,,,space,2.565,NAN,,NAN,2.52,3.48,,0,80,80,80,1,81,Sam,Acc,Participant_Images/61528277afcb4906d01e0442/61528277afcb4906d01e0442_Images/61528277afcb4906d01e0442_Image_24.jpeg,liked,1.779333479,,,,,,,,,,,,,,,,,,,,,,
,,61528277afcb4906d01e0442,6685aa9113c938e83b4f1ea0,6723c3d5a657ab9e1b920e9a,2024-10-31_12h55.59.369,WTP_SM_Choice,2022.2.1,Win32,60.16847172,,,,,space,1.56,NAN,,NAN,2.52,3.48,,0,81,81,81,1,82,Sam,Acc,Participant_Images/61528277afcb4906d01e0442/61528277afcb4906d01e0442_Images/61528277afcb4906d01e0442_Image_10.jpeg,liked,4.312468682,,,,,,,,,,,,,,,,,,,,,,
,,61528277afcb4906d01e0442,6685aa9113c938e83b4f1ea0,6723c3d5a657ab9e1b920e9a,2024-10-31_12h55.59.369,WTP_SM_Choice,2022.2.1,Win32,60.16847172,,,,,space,3.996,NAN,,NAN,2.52,3.48,,0,82,82,82,1,83,Sam,Acc,Participant_Images/61528277afcb4906d01e0442/61528277afcb4906d01e0442_Images/61528277afcb4906d01e0442_Image_2.jpeg,liked,4.940433059,,,,,,,,,,,,,,,,,,,,,,
,,61528277afcb4906d01e0442,6685aa9113c938e83b4f1ea0,6723c3d5a657ab9e1b920e9a,2024-10-31_12h55.59.369,WTP_SM_Choice,2022.2.1,Win32,60.16847172,,,,,space,2.73,NAN,,NAN,2.52,3.48,,0,83,83,83,1,84,Sam,Acc,Participant_Images/61528277afcb4906d01e0442/61528277afcb4906d01e0442_Images/61528277afcb4906d01e0442_Image_22.jpeg,liked,2.7105123,,,,,,,,,,,,,,,,,,,,,,
,,61528277afcb4906d01e0442,6685aa9113c938e83b4f1ea0,6723c3d5a657ab9e1b920e9a,2024-10-31_12h55.59.369,WTP_SM_Choice,2022.2.1,Win32,60.16847172,,,,,,,,,,,,,,,,,,81,,,,,,space,3.437,space,0.457,1,0,0,0,0,1,Make agendas and schedules on my computer,Vacation with my family,0.01,0.02,3.3,1,,0.01,2.723,,,
,,61528277afcb4906d01e0442,6685aa9113c938e83b4f1ea0,6723c3d5a657ab9e1b920e9a,2024-10-31_12h55.59.369,WTP_SM_Choice,2022.2.1,Win32,60.16847172,,,,,,,,,,,,,,,,,,82,,,,,,,,,,2,0,1,1,1,1,Bake cakes at home,Do makeup challenges with my friends,0.02,0.02,4.4,1,,0.02,3.308,,,
,,61528277afcb4906d01e0442,6685aa9113c938e83b4f1ea0,6723c3d5a657ab9e1b920e9a,2024-10-31_12h55.59.369,WTP_SM_Choice,2022.2.1,Win32,60.16847172,,,,,,,,,,,,,,,,,,83,,,,,,,,,,1,0,2,2,2,1,Write stories in my notebook,Bake with my mom,0.03,0.02,1.1,1,,0.03,2.442,,,
,,61528277afcb4906d01e0442,6685aa9113c938e83b4f1ea0,6723c3d5a657ab9e1b920e9a,2024-10-31_12h55.59.369,WTP_SM_Choice,2022.2.1,Win32,60.16847172,,,,,,,,,,,,,,,,,,84,,,,,,,,,,2,0,3,3,3,1,Play board games with my family,Bake cakes at home,0.04,0.02,3.3,0,,0.02,2.492,,,
,,61528277afcb4906d01e0442,6685aa9113c938e83b4f1ea0,6723c3d5a657ab9e1b920e9a,2024-10-31_12h55.59.369,WTP_SM_Choice,2022.2.1,Win32,60.16847172,,,,,,,,,,,,,,,,,,85,,,,,,,,,,1,0,4,4,4,1,Clean my room while listening to a podcast,Go to the park with my son,0.05,0.02,3.3,1,,0.05,1.819,,,
,,61528277afcb4906d01e0442,6685aa9113c938e83b4f1ea0,6723c3d5a657ab9e1b920e9a,2024-10-31_12h55.59.369,WTP_SM_Choice,2022.2.1,Win32,60.16847172,,,,,,,NAN,,NAN,2.65,3.35,,0,84,84,84,1,85,Sam,Acc,Participant_Images/61528277afcb4906d01e0442/61528277afcb4906d01e0442_Images/61528277afcb4906d01e0442_Image_3.jpeg,liked,3.602308302,,,,,,,,,,,,,,,,,,,,,,
,,61528277afcb4906d01e0442,6685aa9113c938e83b4f1ea0,6723c3d5a657ab9e1b920e9a,2024-10-31_12h55.59.369,WTP_SM_Choice,2022.2.1,Win32,60.16847172,,,,,space,7.522,NAN,,NAN,2.65,3.35,,0,85,85,85,1,86,Sam,Acc,Participant_Images/61528277afcb4906d01e0442/61528277afcb4906d01e0442_Images/61528277afcb4906d01e0442_Image_4.jpeg,did not like,4.106391878,,,,,,,,,,,,,,,,,,,,,,
,,61528277afcb4906d01e0442,6685aa9113c938e83b4f1ea0,6723c3d5a657ab9e1b920e9a,2024-10-31_12h55.59.369,WTP_SM_Choice,2022.2.1,Win32,60.16847172,,,,,space,8.353,NAN,,NAN,2.65,3.35,,0,86,86,86,1,87,Sam,Acc,Participant_Images/61528277afcb4906d01e0442/61528277afcb4906d01e0442_Images/61528277afcb4906d01e0442_Image_5.jpeg,did not like,3.799433026,,,,,,,,,,,,,,,,,,,,,,
,,61528277afcb4906d01e0442,6685aa9113c938e83b4f1ea0,6723c3d5a657ab9e1b920e9a,2024-10-31_12h55.59.369,WTP_SM_Choice,2022.2.1,Win32,60.16847172,,,,,space,2.646,NAN,,NAN,2.65,3.35,,0,87,87,87,1,88,Sam,Acc,Participant_Images/61528277afcb4906d01e0442/61528277afcb4906d01e0442_Images/61528277afcb4906d01e0442_Image_18.jpeg,liked,5.246980764,,,,,,,,,,,,,,,,,,,,,,
,,61528277afcb4906d01e0442,6685aa9113c938e83b4f1ea0,6723c3d5a657ab9e1b920e9a,2024-10-31_12h55.59.369,WTP_SM_Choice,2022.2.1,Win32,60.16847172,,,,,space,3.508,NAN,,NAN,2.65,3.35,,0,88,88,88,1,89,Sam,Acc,Participant_Images/61528277afcb4906d01e0442/61528277afcb4906d01e0442_Images/61528277afcb4906d01e0442_Image_16.jpeg,liked,3.30081769,,,,,,,,,,,,,,,,,,,,,,
,,61528277afcb4906d01e0442,6685aa9113c938e83b4f1ea0,6723c3d5a657ab9e1b920e9a,2024-10-31_12h55.59.369,WTP_SM_Choice,2022.2.1,Win32,60.16847172,,,,,,,,,,,,,,,,,,86,,,,,,space,1.093,space,0.395,1,0,0,0,0,1,Nap with my boyfriend,Bake cakes at home,0.01,0.03,1.1,0,,0.01,2.765,,,
,,61528277afcb4906d01e0442,6685aa9113c938e83b4f1ea0,6723c3d5a657ab9e1b920e9a,2024-10-31_12h55.59.369,WTP_SM_Choice,2022.2.1,Win32,60.16847172,,,,,,,,,,,,,,,,,,87,,,,,,,,,,2,0,1,1,1,1,Make pizza with my son,Play video games while lying in bed,0.02,0.03,4.4,0,,0.03,1.247,,,
,,61528277afcb4906d01e0442,6685aa9113c938e83b4f1ea0,6723c3d5a657ab9e1b920e9a,2024-10-31_12h55.59.369,WTP_SM_Choice,2022.2.1,Win32,60.16847172,,,,,,,,,,,,,,,,,,88,,,,,,,,,,2,0,2,2,2,1,Watch movies with my mom,Write stories in my notebook,0.03,0.03,1.1,0,,0.03,2.468,,,
,,61528277afcb4906d01e0442,6685aa9113c938e83b4f1ea0,6723c3d5a657ab9e1b920e9a,2024-10-31_12h55.59.369,WTP_SM_Choice,2022.2.1,Win32,60.16847172,,,,,,,,,,,,,,,,,,89,,,,,,,,,,2,0,3,3,3,1,Play video games while lying in bed,Do makeup challenges with my friends,0.04,0.03,3.3,1,,0.03,3.134,,,
,,61528277afcb4906d01e0442,6685aa9113c938e83b4f1ea0,6723c3d5a657ab9e1b920e9a,2024-10-31_12h55.59.369,WTP_SM_Choice,2022.2.1,Win32,60.16847172,,,,,,,,,,,,,,,,,,90,,,,,,,,,,2,0,4,4,4,1,Play video games with my son,Knit while watching tv,0.05,0.03,8.8,0,,0.03,1.355,,,
,,61528277afcb4906d01e0442,6685aa9113c938e83b4f1ea0,6723c3d5a657ab9e1b920e9a,2024-10-31_12h55.59.369,WTP_SM_Choice,2022.2.1,Win32,60.16847172,,,,,,,NAN,,NAN,2.78,3.22,,0,89,89,89,1,90,Sam,Acc,Participant_Images/61528277afcb4906d01e0442/61528277afcb4906d01e0442_Images/61528277afcb4906d01e0442_Image_1.jpeg,liked,1.661473164,,,,,,,,,,,,,,,,,,,,,,
,,61528277afcb4906d01e0442,6685aa9113c938e83b4f1ea0,6723c3d5a657ab9e1b920e9a,2024-10-31_12h55.59.369,WTP_SM_Choice,2022.2.1,Win32,60.16847172,,,,,space,1.871,NAN,,NAN,2.78,3.22,,0,90,90,90,1,91,Sam,Acc,Participant_Images/61528277afcb4906d01e0442/61528277afcb4906d01e0442_Images/61528277afcb4906d01e0442_Image_15.jpeg,liked,3.613205605,,,,,,,,,,,,,,,,,,,,,,
,,61528277afcb4906d01e0442,6685aa9113c938e83b4f1ea0,6723c3d5a657ab9e1b920e9a,2024-10-31_12h55.59.369,WTP_SM_Choice,2022.2.1,Win32,60.16847172,,,,,space,0.755,NAN,,NAN,2.78,3.22,,0,91,91,91,1,92,Sam,Acc,Participant_Images/61528277afcb4906d01e0442/61528277afcb4906d01e0442_Images/61528277afcb4906d01e0442_Image_25.jpeg,liked,4.988446431,,,,,,,,,,,,,,,,,,,,,,
,,61528277afcb4906d01e0442,6685aa9113c938e83b4f1ea0,6723c3d5a657ab9e1b920e9a,2024-10-31_12h55.59.369,WTP_SM_Choice,2022.2.1,Win32,60.16847172,,,,,space,1.617,NAN,,NAN,2.78,3.22,,0,92,92,92,1,93,Sam,Acc,Participant_Images/61528277afcb4906d01e0442/61528277afcb4906d01e0442_Images/61528277afcb4906d01e0442_Image_23.jpeg,liked,3.470791822,,,,,,,,,,,,,,,,,,,,,,
,,61528277afcb4906d01e0442,6685aa9113c938e83b4f1ea0,6723c3d5a657ab9e1b920e9a,2024-10-31_12h55.59.369,WTP_SM_Choice,2022.2.1,Win32,60.16847172,,,,,space,0.451,NAN,,NAN,2.78,3.22,,0,93,93,93,1,94,Sam,Acc,Participant_Images/61528277afcb4906d01e0442/61528277afcb4906d01e0442_Images/61528277afcb4906d01e0442_Image_14.jpeg,liked,3.820572462,,,,,,,,,,,,,,,,,,,,,,
,,61528277afcb4906d01e0442,6685aa9113c938e83b4f1ea0,6723c3d5a657ab9e1b920e9a,2024-10-31_12h55.59.369,WTP_SM_Choice,2022.2.1,Win32,60.16847172,,,,,,,,,,,,,,,,,,91,,,,,,space,0.927,space,0.403,2,0,0,0,0,1,Watch movies with my mom,Bake cakes at home,0.01,0.04,3.3,0,,0.04,2.664,,,
,,61528277afcb4906d01e0442,6685aa9113c938e83b4f1ea0,6723c3d5a657ab9e1b920e9a,2024-10-31_12h55.59.369,WTP_SM_Choice,2022.2.1,Win32,60.16847172,,,,,,,,,,,,,,,,,,92,,,,,,,,,,2,0,1,1,1,1,Make pizza with my son,Knit while watching tv,0.02,0.04,8.8,0,,0.04,1.195,,,
,,61528277afcb4906d01e0442,6685aa9113c938e83b4f1ea0,6723c3d5a657ab9e1b920e9a,2024-10-31_12h55.59.369,WTP_SM_Choice,2022.2.1,Win32,60.16847172,,,,,,,,,,,,,,,,,,93,,,,,,,,,,1,0,2,2,2,1,Play video games while lying in bed,Bake with my mom,0.03,0.04,1.1,1,,0.03,2.458,,,
,,61528277afcb4906d01e0442,6685aa9113c938e83b4f1ea0,6723c3d5a657ab9e1b920e9a,2024-10-31_12h55.59.369,WTP_SM_Choice,2022.2.1,Win32,60.16847172,,,,,,,,,,,,,,,,,,94,,,,,,,,,,2,0,3,3,3,1,Play board games with my family,Knit while watching tv,0.04,0.04,4.4,0,,0.04,3.37,,,
,,61528277afcb4906d01e0442,6685aa9113c938e83b4f1ea0,6723c3d5a657ab9e1b920e9a,2024-10-31_12h55.59.369,WTP_SM_Choice,2022.2.1,Win32,60.16847172,,,,,,,,,,,,,,,,,,95,,,,,,,,,,2,0,4,4,4,1,Vacation with my family,Read on a rainy day,0.05,0.04,4.4,0,,0.04,2.481,,,
,,61528277afcb4906d01e0442,6685aa9113c938e83b4f1ea0,6723c3d5a657ab9e1b920e9a,2024-10-31_12h55.59.369,WTP_SM_Choice,2022.2.1,Win32,60.16847172,,,,,,,NAN,,NAN,2.97,3.03,,0,94,94,94,1,95,Sam,Acc,Participant_Images/61528277afcb4906d01e0442/61528277afcb4906d01e0442_Images/61528277afcb4906d01e0442_Image_17.jpeg,liked,2.455989137,,,,,,,,,,,,,,,,,,,,,,
,,61528277afcb4906d01e0442,6685aa9113c938e83b4f1ea0,6723c3d5a657ab9e1b920e9a,2024-10-31_12h55.59.369,WTP_SM_Choice,2022.2.1,Win32,60.16847172,,,,,space,2.361,NAN,,NAN,2.97,3.03,,0,95,95,95,1,96,Sam,Acc,Participant_Images/61528277afcb4906d01e0442/61528277afcb4906d01e0442_Images/61528277afcb4906d01e0442_Image_11.jpeg,liked,3.79605092,,,,,,,,,,,,,,,,,,,,,,
,,61528277afcb4906d01e0442,6685aa9113c938e83b4f1ea0,6723c3d5a657ab9e1b920e9a,2024-10-31_12h55.59.369,WTP_SM_Choice,2022.2.1,Win32,60.16847172,,,,,space,3.311,NAN,,NAN,2.97,3.03,,0,96,96,96,1,97,Sam,Acc,Participant_Images/61528277afcb4906d01e0442/61528277afcb4906d01e0442_Images/61528277afcb4906d01e0442_Image_8.jpeg,liked,3.562416326,,,,,,,,,,,,,,,,,,,,,,
,,61528277afcb4906d01e0442,6685aa9113c938e83b4f1ea0,6723c3d5a657ab9e1b920e9a,2024-10-31_12h55.59.369,WTP_SM_Choice,2022.2.1,Win32,60.16847172,,,,,space,2.083,NAN,,NAN,2.97,3.03,,0,97,97,97,1,98,Sam,Acc,Participant_Images/61528277afcb4906d01e0442/61528277afcb4906d01e0442_Images/61528277afcb4906d01e0442_Image_21.jpeg,did not like,2.843822497,,,,,,,,,,,,,,,,,,,,,,
,,61528277afcb4906d01e0442,6685aa9113c938e83b4f1ea0,6723c3d5a657ab9e1b920e9a,2024-10-31_12h55.59.369,WTP_SM_Choice,2022.2.1,Win32,60.16847172,,,,,space,0.336,NAN,,NAN,2.97,3.03,,0,98,98,98,1,99,Sam,Acc,Participant_Images/61528277afcb4906d01e0442/61528277afcb4906d01e0442_Images/61528277afcb4906d01e0442_Image_13.jpeg,did not like,3.546495948,,,,,,,,,,,,,,,,,,,,,,
,,61528277afcb4906d01e0442,6685aa9113c938e83b4f1ea0,6723c3d5a657ab9e1b920e9a,2024-10-31_12h55.59.369,WTP_SM_Choice,2022.2.1,Win32,60.16847172,,,,,,,,,,,,,,,,,,96,,,,,,space,2.084,space,0.366,1,0,0,0,0,1,Write stories in my notebook,Make pizza with my son,0.01,0.05,3.3,1,,0.01,1.03,,,
,,61528277afcb4906d01e0442,6685aa9113c938e83b4f1ea0,6723c3d5a657ab9e1b920e9a,2024-10-31_12h55.59.369,WTP_SM_Choice,2022.2.1,Win32,60.16847172,,,,,,,,,,,,,,,,,,97,,,,,,,,,,1,0,1,1,1,1,Bake cakes at home,Vacation with my family,0.02,0.05,1.1,1,,0.02,2.299,,,
,,61528277afcb4906d01e0442,6685aa9113c938e83b4f1ea0,6723c3d5a657ab9e1b920e9a,2024-10-31_12h55.59.369,WTP_SM_Choice,2022.2.1,Win32,60.16847172,,,,,,,,,,,,,,,,,,98,,,,,,,,,,2,0,2,2,2,1,Make pizza with my son,Bake cakes at home,0.03,0.05,1.1,0,,0.05,1.605,,,
,,61528277afcb4906d01e0442,6685aa9113c938e83b4f1ea0,6723c3d5a657ab9e1b920e9a,2024-10-31_12h55.59.369,WTP_SM_Choice,2022.2.1,Win32,60.16847172,,,,,,,,,,,,,,,,,,99,,,,,,,,,,1,0,3,3,3,1,Write stories in my notebook,Vacation with my family,0.04,0.05,3.3,1,,0.04,1.646,,,
,,61528277afcb4906d01e0442,6685aa9113c938e83b4f1ea0,6723c3d5a657ab9e1b920e9a,2024-10-31_12h55.59.369,WTP_SM_Choice,2022.2.1,Win32,60.16847172,,,,,,,,,,,,,,,,,,100,,,,,,,,,,2,0,4,4,4,1,Facetime with my best friend,Game on my computer,0.05,0.05,4.4,0,,0.05,1.766,,,
,,61528277afcb4906d01e0442,6685aa9113c938e83b4f1ea0,6723c3d5a657ab9e1b920e9a,2024-10-31_12h55.59.369,WTP_SM_Choice,2022.2.1,Win32,60.16847172,,,,,,,4,,8,3.14,2.86,,0,99,99,99,1,100,Sam,Acc,Participant_Images/61528277afcb4906d01e0442/61528277afcb4906d01e0442_Images/61528277afcb4906d01e0442_Image_19.jpeg,did not like,1.672012706,,,,,,,,,,,,,,,,,space,,,1.262,,
,,61528277afcb4906d01e0442,6685aa9113c938e83b4f1ea0,6723c3d5a657ab9e1b920e9a,2024-10-31_12h55.59.369,WTP_SM_Choice,2022.2.1,Win32,60.16847172,,,,,,,,,,,,,,,,,,,,,,,,,,,,,,,,,,,,,,,,,,,,space,2.876
