endwelcomescreen_keys.keys,endwelcomescreen_keys.rt,participant,STUDY_ID,SESSION_ID,date,expName,psychopyVersion,OS,frameRate,endinstructionscreen_keys.keys,endinstructionscreen_keys.rt,endpartnermatch_keys.keys,endpartnermatch_keys.rt,sharenextphoto_key.keys,sharenextphoto_key.rt,salience_rating,key_resp.keys,stress_level,subtract_bonus,TOTAL_TASK_BONUS,stresslevel_keypress.keys,entiretaskloop.thisRepN,entiretaskloop.thisTrialN,entiretaskloop.thisN,entiretaskloop.thisIndex,entiretaskloop.ran,TrialNumber,Partner,Condition,Photos,Feedback,FeedbackWait,WTP_ins_keys1.keys,WTP_ins_keys1.rt,WTP_ins_keys2.keys,WTP_ins_keys2.rt,decision_price,responses.keys,responses.rt,WTPTaskLoop.thisRepN,WTPTaskLoop.thisTrialN,WTPTaskLoop.thisN,WTPTaskLoop.thisIndex,WTPTaskLoop.ran,right,left,leftmoney,rightmoney,WTP_ITI,social_left,Resume_keys.keys,Resume_keys.rt,end_screen_keys.keys,end_screen_keys.rt
space,10.8027,61741ba984f258d5c6a1303c,6685aa9113c938e83b4f1ea0,67267dfd85c77d871ecfe348,2024-11-02_15h32.53.289,WTP_SM_Choice,2022.2.1,Win32,60.24096386,,,,,,,,,,,,,,,,,,,,,,,,,,,,,,,,,,,,,,,,,,,,,
,,61741ba984f258d5c6a1303c,6685aa9113c938e83b4f1ea0,67267dfd85c77d871ecfe348,2024-11-02_15h32.53.289,WTP_SM_Choice,2022.2.1,Win32,60.24096386,space,21.1974,,,,,,,,,,,,,,,,,,,,,,,,,,,,,,,,,,,,,,,,,,,
,,61741ba984f258d5c6a1303c,6685aa9113c938e83b4f1ea0,67267dfd85c77d871ecfe348,2024-11-02_15h32.53.289,WTP_SM_Choice,2022.2.1,Win32,60.24096386,,,space,1.3698,space,1.2694,NAN,,NAN,0,6,,0,0,0,0,1,1,Riley,Rej,Participant_Images/61741ba984f258d5c6a1303c/61741ba984f258d5c6a1303c_Images/61741ba984f258d5c6a1303c_Image_5.jpeg,liked,3.613205605,,,,,,,,,,,,,,,,,,,,,,
,,61741ba984f258d5c6a1303c,6685aa9113c938e83b4f1ea0,67267dfd85c77d871ecfe348,2024-11-02_15h32.53.289,WTP_SM_Choice,2022.2.1,Win32,60.24096386,,,,,space,0.4003,NAN,,NAN,0,6,,0,1,1,1,1,2,Riley,Rej,Participant_Images/61741ba984f258d5c6a1303c/61741ba984f258d5c6a1303c_Images/61741ba984f258d5c6a1303c_Image_23.jpeg,did not like,4.988446431,,,,,,,,,,,,,,,,,,,,,,
,,61741ba984f258d5c6a1303c,6685aa9113c938e83b4f1ea0,67267dfd85c77d871ecfe348,2024-11-02_15h32.53.289,WTP_SM_Choice,2022.2.1,Win32,60.24096386,,,,,space,0.4356,NAN,,NAN,0,6,,0,2,2,2,1,3,Riley,Rej,Participant_Images/61741ba984f258d5c6a1303c/61741ba984f258d5c6a1303c_Images/61741ba984f258d5c6a1303c_Image_16.jpeg,did not like,3.470791822,,,,,,,,,,,,,,,,,,,,,,
,,61741ba984f258d5c6a1303c,6685aa9113c938e83b4f1ea0,67267dfd85c77d871ecfe348,2024-11-02_15h32.53.289,WTP_SM_Choice,2022.2.1,Win32,60.24096386,,,,,space,0.8022,NAN,,NAN,0,6,,0,3,3,3,1,4,Riley,Rej,Participant_Images/61741ba984f258d5c6a1303c/61741ba984f258d5c6a1303c_Images/61741ba984f258d5c6a1303c_Image_12.jpeg,liked,3.820572462,,,,,,,,,,,,,,,,,,,,,,
,,61741ba984f258d5c6a1303c,6685aa9113c938e83b4f1ea0,67267dfd85c77d871ecfe348,2024-11-02_15h32.53.289,WTP_SM_Choice,2022.2.1,Win32,60.24096386,,,,,,,,,,,,,,,,,,1,,,,,,space,10.3125,space,9.2369,0.01,1,3.752,0,0,0,0,1,complete yardwork with family members,practice tap dance,0.01,0.01,4.4,0,,,,
,,61741ba984f258d5c6a1303c,6685aa9113c938e83b4f1ea0,67267dfd85c77d871ecfe348,2024-11-02_15h32.53.289,WTP_SM_Choice,2022.2.1,Win32,60.24096386,,,,,,,,,,,,,,,,,,2,,,,,,,,,,0.02,1,3.534,0,1,1,1,1,walk around a body of water,play board games with friends,0.02,0.01,8.8,1,,,,
,,61741ba984f258d5c6a1303c,6685aa9113c938e83b4f1ea0,67267dfd85c77d871ecfe348,2024-11-02_15h32.53.289,WTP_SM_Choice,2022.2.1,Win32,60.24096386,,,,,,,,,,,,,,,,,,3,,,,,,,,,,0.01,2,3.0446,0,2,2,2,1,go out for dinner with coworkers,practice tap dance,0.03,0.01,3.3,0,,,,
,,61741ba984f258d5c6a1303c,6685aa9113c938e83b4f1ea0,67267dfd85c77d871ecfe348,2024-11-02_15h32.53.289,WTP_SM_Choice,2022.2.1,Win32,60.24096386,,,,,,,,,,,,,,,,,,4,,,,,,,,,,0.01,2,3.3535,0,3,3,3,1,learn languages on duolingo,play board games with friends,0.04,0.01,1.1,1,,,,
,,61741ba984f258d5c6a1303c,6685aa9113c938e83b4f1ea0,67267dfd85c77d871ecfe348,2024-11-02_15h32.53.289,WTP_SM_Choice,2022.2.1,Win32,60.24096386,,,,,,,,,,,,,,,,,,5,,,,,,,,,,0.01,2,3.0411,0,4,4,4,1,go out for dinner with coworkers,chop up vegetables,0.05,0.01,1.1,0,,,,
,,61741ba984f258d5c6a1303c,6685aa9113c938e83b4f1ea0,67267dfd85c77d871ecfe348,2024-11-02_15h32.53.289,WTP_SM_Choice,2022.2.1,Win32,60.24096386,,,,,,,NAN,,NAN,0.06,5.94,,0,4,4,4,1,5,Riley,Rej,Participant_Images/61741ba984f258d5c6a1303c/61741ba984f258d5c6a1303c_Images/61741ba984f258d5c6a1303c_Image_22.jpeg,liked,2.455989137,,,,,,,,,,,,,,,,,,,,,,
,,61741ba984f258d5c6a1303c,6685aa9113c938e83b4f1ea0,67267dfd85c77d871ecfe348,2024-11-02_15h32.53.289,WTP_SM_Choice,2022.2.1,Win32,60.24096386,,,,,space,1.2517,NAN,,NAN,0.06,5.94,,0,5,5,5,1,6,Riley,Rej,Participant_Images/61741ba984f258d5c6a1303c/61741ba984f258d5c6a1303c_Images/61741ba984f258d5c6a1303c_Image_6.jpeg,did not like,3.79605092,,,,,,,,,,,,,,,,,,,,,,
,,61741ba984f258d5c6a1303c,6685aa9113c938e83b4f1ea0,67267dfd85c77d871ecfe348,2024-11-02_15h32.53.289,WTP_SM_Choice,2022.2.1,Win32,60.24096386,,,,,space,2.1185,NAN,,NAN,0.06,5.94,,0,6,6,6,1,7,Riley,Rej,Participant_Images/61741ba984f258d5c6a1303c/61741ba984f258d5c6a1303c_Images/61741ba984f258d5c6a1303c_Image_9.jpeg,did not like,3.562416326,,,,,,,,,,,,,,,,,,,,,,
,,61741ba984f258d5c6a1303c,6685aa9113c938e83b4f1ea0,67267dfd85c77d871ecfe348,2024-11-02_15h32.53.289,WTP_SM_Choice,2022.2.1,Win32,60.24096386,,,,,space,1.1522,NAN,,NAN,0.06,5.94,,0,7,7,7,1,8,Riley,Rej,Participant_Images/61741ba984f258d5c6a1303c/61741ba984f258d5c6a1303c_Images/61741ba984f258d5c6a1303c_Image_11.jpeg,liked,2.843822497,,,,,,,,,,,,,,,,,,,,,,
,,61741ba984f258d5c6a1303c,6685aa9113c938e83b4f1ea0,67267dfd85c77d871ecfe348,2024-11-02_15h32.53.289,WTP_SM_Choice,2022.2.1,Win32,60.24096386,,,,,space,1.092,NAN,,NAN,0.06,5.94,,0,8,8,8,1,9,Riley,Rej,Participant_Images/61741ba984f258d5c6a1303c/61741ba984f258d5c6a1303c_Images/61741ba984f258d5c6a1303c_Image_15.jpeg,did not like,3.546495948,,,,,,,,,,,,,,,,,,,,,,
,,61741ba984f258d5c6a1303c,6685aa9113c938e83b4f1ea0,67267dfd85c77d871ecfe348,2024-11-02_15h32.53.289,WTP_SM_Choice,2022.2.1,Win32,60.24096386,,,,,,,,,,,,,,,,,,6,,,,,,space,2.0035,space,0.855,0.02,2,3.6118,0,0,0,0,1,learn languages on duolingo,complete yardwork with family members,0.01,0.02,3.3,1,,,,
,,61741ba984f258d5c6a1303c,6685aa9113c938e83b4f1ea0,67267dfd85c77d871ecfe348,2024-11-02_15h32.53.289,WTP_SM_Choice,2022.2.1,Win32,60.24096386,,,,,,,,,,,,,,,,,,7,,,,,,,,,,0.02,2,1.9188,0,1,1,1,1,bake bread with friends,cook eggs,0.02,0.02,1.1,0,,,,
,,61741ba984f258d5c6a1303c,6685aa9113c938e83b4f1ea0,67267dfd85c77d871ecfe348,2024-11-02_15h32.53.289,WTP_SM_Choice,2022.2.1,Win32,60.24096386,,,,,,,,,,,,,,,,,,8,,,,,,,,,,0.02,2,2.5409,0,2,2,2,1,walk around a body of water,go out dancing with my significant other,0.03,0.02,1.1,1,,,,
,,61741ba984f258d5c6a1303c,6685aa9113c938e83b4f1ea0,67267dfd85c77d871ecfe348,2024-11-02_15h32.53.289,WTP_SM_Choice,2022.2.1,Win32,60.24096386,,,,,,,,,,,,,,,,,,9,,,,,,,,,,,,,0,3,3,3,1,walk around downtown with my significant other,juggle with my hands,0.04,0.02,4.4,0,,,,
,,61741ba984f258d5c6a1303c,6685aa9113c938e83b4f1ea0,67267dfd85c77d871ecfe348,2024-11-02_15h32.53.289,WTP_SM_Choice,2022.2.1,Win32,60.24096386,,,,,,,,,,,,,,,,,,10,,,,,,,,,,0.05,1,2.3267,0,4,4,4,1,walk around downtown with my significant other,play the drums,0.05,0.02,1.1,0,,,,
,,61741ba984f258d5c6a1303c,6685aa9113c938e83b4f1ea0,67267dfd85c77d871ecfe348,2024-11-02_15h32.53.289,WTP_SM_Choice,2022.2.1,Win32,60.24096386,,,,,,,NAN,,NAN,0.17,5.83,,0,9,9,9,1,10,Riley,Rej,Participant_Images/61741ba984f258d5c6a1303c/61741ba984f258d5c6a1303c_Images/61741ba984f258d5c6a1303c_Image_21.jpeg,did not like,1.672012706,,,,,,,,,,,,,,,,,,,,,,
,,61741ba984f258d5c6a1303c,6685aa9113c938e83b4f1ea0,67267dfd85c77d871ecfe348,2024-11-02_15h32.53.289,WTP_SM_Choice,2022.2.1,Win32,60.24096386,,,,,space,1.7519,NAN,,NAN,0.17,5.83,,0,10,10,10,1,11,Riley,Rej,Participant_Images/61741ba984f258d5c6a1303c/61741ba984f258d5c6a1303c_Images/61741ba984f258d5c6a1303c_Image_14.jpeg,did not like,4.942172136,,,,,,,,,,,,,,,,,,,,,,
,,61741ba984f258d5c6a1303c,6685aa9113c938e83b4f1ea0,67267dfd85c77d871ecfe348,2024-11-02_15h32.53.289,WTP_SM_Choice,2022.2.1,Win32,60.24096386,,,,,space,0.7176,NAN,,NAN,0.17,5.83,,0,11,11,11,1,12,Riley,Rej,Participant_Images/61741ba984f258d5c6a1303c/61741ba984f258d5c6a1303c_Images/61741ba984f258d5c6a1303c_Image_24.jpeg,did not like,2.50187214,,,,,,,,,,,,,,,,,,,,,,
,,61741ba984f258d5c6a1303c,6685aa9113c938e83b4f1ea0,67267dfd85c77d871ecfe348,2024-11-02_15h32.53.289,WTP_SM_Choice,2022.2.1,Win32,60.24096386,,,,,space,1.2193,NAN,,NAN,0.17,5.83,,0,12,12,12,1,13,Riley,Rej,Participant_Images/61741ba984f258d5c6a1303c/61741ba984f258d5c6a1303c_Images/61741ba984f258d5c6a1303c_Image_10.jpeg,did not like,2.071164779,,,,,,,,,,,,,,,,,,,,,,
,,61741ba984f258d5c6a1303c,6685aa9113c938e83b4f1ea0,67267dfd85c77d871ecfe348,2024-11-02_15h32.53.289,WTP_SM_Choice,2022.2.1,Win32,60.24096386,,,,,space,0.9425,NAN,,NAN,0.17,5.83,,0,13,13,13,1,14,Riley,Rej,Participant_Images/61741ba984f258d5c6a1303c/61741ba984f258d5c6a1303c_Images/61741ba984f258d5c6a1303c_Image_13.jpeg,did not like,5.336503566,,,,,,,,,,,,,,,,,,,,,,
,,61741ba984f258d5c6a1303c,6685aa9113c938e83b4f1ea0,67267dfd85c77d871ecfe348,2024-11-02_15h32.53.289,WTP_SM_Choice,2022.2.1,Win32,60.24096386,,,,,,,,,,,,,,,,,,11,,,,,,space,1.1165,space,1.2567,0.01,1,3.0653,0,0,0,0,1,juggle with my hands,complete yardwork with family members,0.01,0.03,3.3,1,,,,
,,61741ba984f258d5c6a1303c,6685aa9113c938e83b4f1ea0,67267dfd85c77d871ecfe348,2024-11-02_15h32.53.289,WTP_SM_Choice,2022.2.1,Win32,60.24096386,,,,,,,,,,,,,,,,,,12,,,,,,,,,,0.02,1,2.6815,0,1,1,1,1,learn languages on duolingo,ice skate with friends,0.02,0.03,4.4,1,,,,
,,61741ba984f258d5c6a1303c,6685aa9113c938e83b4f1ea0,67267dfd85c77d871ecfe348,2024-11-02_15h32.53.289,WTP_SM_Choice,2022.2.1,Win32,60.24096386,,,,,,,,,,,,,,,,,,13,,,,,,,,,,0.03,2,3.5204,0,2,2,2,1,play board games with friends,play the drums,0.03,0.03,1.1,0,,,,
,,61741ba984f258d5c6a1303c,6685aa9113c938e83b4f1ea0,67267dfd85c77d871ecfe348,2024-11-02_15h32.53.289,WTP_SM_Choice,2022.2.1,Win32,60.24096386,,,,,,,,,,,,,,,,,,14,,,,,,,,,,0.03,2,3.4893,0,3,3,3,1,watch shows on Netflix with my significant other,practice tap dance,0.04,0.03,3.3,0,,,,
,,61741ba984f258d5c6a1303c,6685aa9113c938e83b4f1ea0,67267dfd85c77d871ecfe348,2024-11-02_15h32.53.289,WTP_SM_Choice,2022.2.1,Win32,60.24096386,,,,,,,,,,,,,,,,,,15,,,,,,,,,,0.03,2,2.9271,0,4,4,4,1,forage for fruits vegetables and mushrooms,bake bread with friends,0.05,0.03,4.4,1,,,,
,,61741ba984f258d5c6a1303c,6685aa9113c938e83b4f1ea0,67267dfd85c77d871ecfe348,2024-11-02_15h32.53.289,WTP_SM_Choice,2022.2.1,Win32,60.24096386,,,,,,,NAN,,NAN,0.29,5.71,,0,14,14,14,1,15,Riley,Rej,Participant_Images/61741ba984f258d5c6a1303c/61741ba984f258d5c6a1303c_Images/61741ba984f258d5c6a1303c_Image_4.jpeg,liked,2.642157193,,,,,,,,,,,,,,,,,,,,,,
,,61741ba984f258d5c6a1303c,6685aa9113c938e83b4f1ea0,67267dfd85c77d871ecfe348,2024-11-02_15h32.53.289,WTP_SM_Choice,2022.2.1,Win32,60.24096386,,,,,space,1.1712,NAN,,NAN,0.29,5.71,,0,15,15,15,1,16,Riley,Rej,Participant_Images/61741ba984f258d5c6a1303c/61741ba984f258d5c6a1303c_Images/61741ba984f258d5c6a1303c_Image_8.jpeg,did not like,4.456234322,,,,,,,,,,,,,,,,,,,,,,
,,61741ba984f258d5c6a1303c,6685aa9113c938e83b4f1ea0,67267dfd85c77d871ecfe348,2024-11-02_15h32.53.289,WTP_SM_Choice,2022.2.1,Win32,60.24096386,,,,,space,1.0166,NAN,,NAN,0.29,5.71,,0,16,16,16,1,17,Riley,Rej,Participant_Images/61741ba984f258d5c6a1303c/61741ba984f258d5c6a1303c_Images/61741ba984f258d5c6a1303c_Image_17.jpeg,did not like,4.438512181,,,,,,,,,,,,,,,,,,,,,,
,,61741ba984f258d5c6a1303c,6685aa9113c938e83b4f1ea0,67267dfd85c77d871ecfe348,2024-11-02_15h32.53.289,WTP_SM_Choice,2022.2.1,Win32,60.24096386,,,,,space,1.1508,NAN,,NAN,0.29,5.71,,0,17,17,17,1,18,Riley,Rej,Participant_Images/61741ba984f258d5c6a1303c/61741ba984f258d5c6a1303c_Images/61741ba984f258d5c6a1303c_Image_25.jpeg,liked,2.682944783,,,,,,,,,,,,,,,,,,,,,,
,,61741ba984f258d5c6a1303c,6685aa9113c938e83b4f1ea0,67267dfd85c77d871ecfe348,2024-11-02_15h32.53.289,WTP_SM_Choice,2022.2.1,Win32,60.24096386,,,,,space,0.7477,NAN,,NAN,0.29,5.71,,0,18,18,18,1,19,Riley,Rej,Participant_Images/61741ba984f258d5c6a1303c/61741ba984f258d5c6a1303c_Images/61741ba984f258d5c6a1303c_Image_7.jpeg,did not like,4.51984296,,,,,,,,,,,,,,,,,,,,,,
,,61741ba984f258d5c6a1303c,6685aa9113c938e83b4f1ea0,67267dfd85c77d871ecfe348,2024-11-02_15h32.53.289,WTP_SM_Choice,2022.2.1,Win32,60.24096386,,,,,,,,,,,,,,,,,,16,,,,,,space,1.2403,space,0.9199,0.01,1,2.4552,0,0,0,0,1,practice other languages with friends,learn languages on duolingo,0.01,0.04,1.1,0,,,,
,,61741ba984f258d5c6a1303c,6685aa9113c938e83b4f1ea0,67267dfd85c77d871ecfe348,2024-11-02_15h32.53.289,WTP_SM_Choice,2022.2.1,Win32,60.24096386,,,,,,,,,,,,,,,,,,17,,,,,,,,,,0.04,2,2.9077,0,1,1,1,1,go out for dinner with coworkers,journal about the day,0.02,0.04,8.8,0,,,,
,,61741ba984f258d5c6a1303c,6685aa9113c938e83b4f1ea0,67267dfd85c77d871ecfe348,2024-11-02_15h32.53.289,WTP_SM_Choice,2022.2.1,Win32,60.24096386,,,,,,,,,,,,,,,,,,18,,,,,,,,,,0.04,2,3.1236,0,2,2,2,1,watch shows on Netflix with my significant other,sit on a hammock outside,0.03,0.04,3.3,0,,,,
,,61741ba984f258d5c6a1303c,6685aa9113c938e83b4f1ea0,67267dfd85c77d871ecfe348,2024-11-02_15h32.53.289,WTP_SM_Choice,2022.2.1,Win32,60.24096386,,,,,,,,,,,,,,,,,,19,,,,,,,,,,0.04,1,1.651,0,3,3,3,1,sit on a hammock outside,complete yardwork with family members,0.04,0.04,3.3,1,,,,
,,61741ba984f258d5c6a1303c,6685aa9113c938e83b4f1ea0,67267dfd85c77d871ecfe348,2024-11-02_15h32.53.289,WTP_SM_Choice,2022.2.1,Win32,60.24096386,,,,,,,,,,,,,,,,,,20,,,,,,,,,,0.04,2,1.7235,0,4,4,4,1,play the drums,watch shows on Netflix with my significant other,0.05,0.04,1.1,1,,,,
,,61741ba984f258d5c6a1303c,6685aa9113c938e83b4f1ea0,67267dfd85c77d871ecfe348,2024-11-02_15h32.53.289,WTP_SM_Choice,2022.2.1,Win32,60.24096386,,,,,,,NAN,,NAN,0.46,5.54,,0,19,19,19,1,20,Riley,Rej,Participant_Images/61741ba984f258d5c6a1303c/61741ba984f258d5c6a1303c_Images/61741ba984f258d5c6a1303c_Image_19.jpeg,did not like,3.195382774,,,,,,,,,,,,,,,,,,,,,,
,,61741ba984f258d5c6a1303c,6685aa9113c938e83b4f1ea0,67267dfd85c77d871ecfe348,2024-11-02_15h32.53.289,WTP_SM_Choice,2022.2.1,Win32,60.24096386,,,,,space,0.906,NAN,,NAN,0.46,5.54,,0,20,20,20,1,21,Riley,Rej,Participant_Images/61741ba984f258d5c6a1303c/61741ba984f258d5c6a1303c_Images/61741ba984f258d5c6a1303c_Image_18.jpeg,liked,1.779333479,,,,,,,,,,,,,,,,,,,,,,
,,61741ba984f258d5c6a1303c,6685aa9113c938e83b4f1ea0,67267dfd85c77d871ecfe348,2024-11-02_15h32.53.289,WTP_SM_Choice,2022.2.1,Win32,60.24096386,,,,,space,0.9946,NAN,,NAN,0.46,5.54,,0,21,21,21,1,22,Riley,Rej,Participant_Images/61741ba984f258d5c6a1303c/61741ba984f258d5c6a1303c_Images/61741ba984f258d5c6a1303c_Image_3.jpeg,did not like,4.312468682,,,,,,,,,,,,,,,,,,,,,,
,,61741ba984f258d5c6a1303c,6685aa9113c938e83b4f1ea0,67267dfd85c77d871ecfe348,2024-11-02_15h32.53.289,WTP_SM_Choice,2022.2.1,Win32,60.24096386,,,,,space,0.8579,NAN,,NAN,0.46,5.54,,0,22,22,22,1,23,Riley,Rej,Participant_Images/61741ba984f258d5c6a1303c/61741ba984f258d5c6a1303c_Images/61741ba984f258d5c6a1303c_Image_1.jpeg,did not like,4.940433059,,,,,,,,,,,,,,,,,,,,,,
,,61741ba984f258d5c6a1303c,6685aa9113c938e83b4f1ea0,67267dfd85c77d871ecfe348,2024-11-02_15h32.53.289,WTP_SM_Choice,2022.2.1,Win32,60.24096386,,,,,space,0.6334,NAN,,NAN,0.46,5.54,,0,23,23,23,1,24,Riley,Rej,Participant_Images/61741ba984f258d5c6a1303c/61741ba984f258d5c6a1303c_Images/61741ba984f258d5c6a1303c_Image_2.jpeg,did not like,2.7105123,,,,,,,,,,,,,,,,,,,,,,
,,61741ba984f258d5c6a1303c,6685aa9113c938e83b4f1ea0,67267dfd85c77d871ecfe348,2024-11-02_15h32.53.289,WTP_SM_Choice,2022.2.1,Win32,60.24096386,,,,,,,,,,,,,,,,,,21,,,,,,space,3.0783,space,0.5835,0.01,1,2.0565,0,0,0,0,1,journal about the day,play board games with friends,0.01,0.05,8.8,1,,,,
,,61741ba984f258d5c6a1303c,6685aa9113c938e83b4f1ea0,67267dfd85c77d871ecfe348,2024-11-02_15h32.53.289,WTP_SM_Choice,2022.2.1,Win32,60.24096386,,,,,,,,,,,,,,,,,,22,,,,,,,,,,0.05,2,3.5904,0,1,1,1,1,forage for fruits vegetables and mushrooms,practice other languages with friends,0.02,0.05,4.4,1,,,,
,,61741ba984f258d5c6a1303c,6685aa9113c938e83b4f1ea0,67267dfd85c77d871ecfe348,2024-11-02_15h32.53.289,WTP_SM_Choice,2022.2.1,Win32,60.24096386,,,,,,,,,,,,,,,,,,23,,,,,,,,,,0.03,1,3.6392,0,2,2,2,1,walk around downtown with my significant other,journal about the day,0.03,0.05,1.1,0,,,,
,,61741ba984f258d5c6a1303c,6685aa9113c938e83b4f1ea0,67267dfd85c77d871ecfe348,2024-11-02_15h32.53.289,WTP_SM_Choice,2022.2.1,Win32,60.24096386,,,,,,,,,,,,,,,,,,24,,,,,,,,,,0.04,1,1.7894,0,3,3,3,1,forage for fruits vegetables and mushrooms,ice skate with friends,0.04,0.05,4.4,1,,,,
,,61741ba984f258d5c6a1303c,6685aa9113c938e83b4f1ea0,67267dfd85c77d871ecfe348,2024-11-02_15h32.53.289,WTP_SM_Choice,2022.2.1,Win32,60.24096386,,,,,,,,,,,,,,,,,,25,,,,,,,,,,0.05,1,1.9497,0,4,4,4,1,juggle with my hands,watch shows on Netflix with my significant other,0.05,0.05,3.3,1,,,,
,,61741ba984f258d5c6a1303c,6685aa9113c938e83b4f1ea0,67267dfd85c77d871ecfe348,2024-11-02_15h32.53.289,WTP_SM_Choice,2022.2.1,Win32,60.24096386,,,,,,,3,,3,0.64,5.36,,0,24,24,24,1,25,Riley,Rej,Participant_Images/61741ba984f258d5c6a1303c/61741ba984f258d5c6a1303c_Images/61741ba984f258d5c6a1303c_Image_20.jpeg,did not like,3.602308302,,,,,,,,,,,,,,,,,,,space,0.6539,,
,,61741ba984f258d5c6a1303c,6685aa9113c938e83b4f1ea0,67267dfd85c77d871ecfe348,2024-11-02_15h32.53.289,WTP_SM_Choice,2022.2.1,Win32,60.24096386,,,space,1.8573,space,3.1741,NAN,,NAN,0.64,5.36,,0,25,25,25,1,26,Alex,Acc,Participant_Images/61741ba984f258d5c6a1303c/61741ba984f258d5c6a1303c_Images/61741ba984f258d5c6a1303c_Image_1.jpeg,liked,4.106391878,,,,,,,,,,,,,,,,,,,,,,
,,61741ba984f258d5c6a1303c,6685aa9113c938e83b4f1ea0,67267dfd85c77d871ecfe348,2024-11-02_15h32.53.289,WTP_SM_Choice,2022.2.1,Win32,60.24096386,,,,,space,0.5514,NAN,,NAN,0.64,5.36,,0,26,26,26,1,27,Alex,Acc,Participant_Images/61741ba984f258d5c6a1303c/61741ba984f258d5c6a1303c_Images/61741ba984f258d5c6a1303c_Image_16.jpeg,liked,3.799433026,,,,,,,,,,,,,,,,,,,,,,
,,61741ba984f258d5c6a1303c,6685aa9113c938e83b4f1ea0,67267dfd85c77d871ecfe348,2024-11-02_15h32.53.289,WTP_SM_Choice,2022.2.1,Win32,60.24096386,,,,,space,0.4482,NAN,,NAN,0.64,5.36,,0,27,27,27,1,28,Alex,Acc,Participant_Images/61741ba984f258d5c6a1303c/61741ba984f258d5c6a1303c_Images/61741ba984f258d5c6a1303c_Image_9.jpeg,liked,5.246980764,,,,,,,,,,,,,,,,,,,,,,
,,61741ba984f258d5c6a1303c,6685aa9113c938e83b4f1ea0,67267dfd85c77d871ecfe348,2024-11-02_15h32.53.289,WTP_SM_Choice,2022.2.1,Win32,60.24096386,,,,,space,0.5669,NAN,,NAN,0.64,5.36,,0,28,28,28,1,29,Alex,Acc,Participant_Images/61741ba984f258d5c6a1303c/61741ba984f258d5c6a1303c_Images/61741ba984f258d5c6a1303c_Image_11.jpeg,liked,3.30081769,,,,,,,,,,,,,,,,,,,,,,
,,61741ba984f258d5c6a1303c,6685aa9113c938e83b4f1ea0,67267dfd85c77d871ecfe348,2024-11-02_15h32.53.289,WTP_SM_Choice,2022.2.1,Win32,60.24096386,,,,,,,,,,,,,,,,,,26,,,,,,space,6.5619,space,0.6079,0.01,1,2.4181,0,0,0,0,1,chop up vegetables,walk around downtown with my significant other,0.01,0.01,4.4,1,,,,
,,61741ba984f258d5c6a1303c,6685aa9113c938e83b4f1ea0,67267dfd85c77d871ecfe348,2024-11-02_15h32.53.289,WTP_SM_Choice,2022.2.1,Win32,60.24096386,,,,,,,,,,,,,,,,,,27,,,,,,,,,,0.01,2,2.3559,0,1,1,1,1,go out dancing with my significant other,practice tap dance,0.02,0.01,3.3,0,,,,
,,61741ba984f258d5c6a1303c,6685aa9113c938e83b4f1ea0,67267dfd85c77d871ecfe348,2024-11-02_15h32.53.289,WTP_SM_Choice,2022.2.1,Win32,60.24096386,,,,,,,,,,,,,,,,,,28,,,,,,,,,,0.01,2,1.6788,0,2,2,2,1,go out dancing with my significant other,play the drums,0.03,0.01,3.3,0,,,,
,,61741ba984f258d5c6a1303c,6685aa9113c938e83b4f1ea0,67267dfd85c77d871ecfe348,2024-11-02_15h32.53.289,WTP_SM_Choice,2022.2.1,Win32,60.24096386,,,,,,,,,,,,,,,,,,29,,,,,,,,,,0.01,2,4.3287,0,3,3,3,1,learn languages on duolingo,go out dancing with my significant other,0.04,0.01,4.4,1,,,,
,,61741ba984f258d5c6a1303c,6685aa9113c938e83b4f1ea0,67267dfd85c77d871ecfe348,2024-11-02_15h32.53.289,WTP_SM_Choice,2022.2.1,Win32,60.24096386,,,,,,,,,,,,,,,,,,30,,,,,,,,,,0.01,2,1.918,0,4,4,4,1,watch shows on Netflix with my significant other,walk around a body of water,0.05,0.01,8.8,0,,,,
,,61741ba984f258d5c6a1303c,6685aa9113c938e83b4f1ea0,67267dfd85c77d871ecfe348,2024-11-02_15h32.53.289,WTP_SM_Choice,2022.2.1,Win32,60.24096386,,,,,,,NAN,,NAN,0.69,5.31,,0,29,29,29,1,30,Alex,Acc,Participant_Images/61741ba984f258d5c6a1303c/61741ba984f258d5c6a1303c_Images/61741ba984f258d5c6a1303c_Image_19.jpeg,did not like,1.661473164,,,,,,,,,,,,,,,,,,,,,,
,,61741ba984f258d5c6a1303c,6685aa9113c938e83b4f1ea0,67267dfd85c77d871ecfe348,2024-11-02_15h32.53.289,WTP_SM_Choice,2022.2.1,Win32,60.24096386,,,,,space,1.4097,NAN,,NAN,0.69,5.31,,0,30,30,30,1,31,Alex,Acc,Participant_Images/61741ba984f258d5c6a1303c/61741ba984f258d5c6a1303c_Images/61741ba984f258d5c6a1303c_Image_22.jpeg,did not like,3.613205605,,,,,,,,,,,,,,,,,,,,,,
,,61741ba984f258d5c6a1303c,6685aa9113c938e83b4f1ea0,67267dfd85c77d871ecfe348,2024-11-02_15h32.53.289,WTP_SM_Choice,2022.2.1,Win32,60.24096386,,,,,space,2.5345,NAN,,NAN,0.69,5.31,,0,31,31,31,1,32,Alex,Acc,Participant_Images/61741ba984f258d5c6a1303c/61741ba984f258d5c6a1303c_Images/61741ba984f258d5c6a1303c_Image_17.jpeg,liked,4.988446431,,,,,,,,,,,,,,,,,,,,,,
,,61741ba984f258d5c6a1303c,6685aa9113c938e83b4f1ea0,67267dfd85c77d871ecfe348,2024-11-02_15h32.53.289,WTP_SM_Choice,2022.2.1,Win32,60.24096386,,,,,space,4.8121,NAN,,NAN,0.69,5.31,,0,32,32,32,1,33,Alex,Acc,Participant_Images/61741ba984f258d5c6a1303c/61741ba984f258d5c6a1303c_Images/61741ba984f258d5c6a1303c_Image_2.jpeg,did not like,3.470791822,,,,,,,,,,,,,,,,,,,,,,
,,61741ba984f258d5c6a1303c,6685aa9113c938e83b4f1ea0,67267dfd85c77d871ecfe348,2024-11-02_15h32.53.289,WTP_SM_Choice,2022.2.1,Win32,60.24096386,,,,,space,4.3165,NAN,,NAN,0.69,5.31,,0,33,33,33,1,34,Alex,Acc,Participant_Images/61741ba984f258d5c6a1303c/61741ba984f258d5c6a1303c_Images/61741ba984f258d5c6a1303c_Image_18.jpeg,did not like,3.820572462,,,,,,,,,,,,,,,,,,,,,,
,,61741ba984f258d5c6a1303c,6685aa9113c938e83b4f1ea0,67267dfd85c77d871ecfe348,2024-11-02_15h32.53.289,WTP_SM_Choice,2022.2.1,Win32,60.24096386,,,,,,,,,,,,,,,,,,31,,,,,,space,1.5091,space,0.7716,0.01,1,9.6296,0,0,0,0,1,ice skate with friends,cook eggs,0.01,0.02,8.8,0,,,,
,,61741ba984f258d5c6a1303c,6685aa9113c938e83b4f1ea0,67267dfd85c77d871ecfe348,2024-11-02_15h32.53.289,WTP_SM_Choice,2022.2.1,Win32,60.24096386,,,,,,,,,,,,,,,,,,32,,,,,,,,,,0.02,1,2.7318,0,1,1,1,1,practice tap dance,practice other languages with friends,0.02,0.02,1.1,1,,,,
,,61741ba984f258d5c6a1303c,6685aa9113c938e83b4f1ea0,67267dfd85c77d871ecfe348,2024-11-02_15h32.53.289,WTP_SM_Choice,2022.2.1,Win32,60.24096386,,,,,,,,,,,,,,,,,,33,,,,,,,,,,0.02,2,2.5631,0,2,2,2,1,watch shows on Netflix with my significant other,forage for fruits vegetables and mushrooms,0.03,0.02,4.4,0,,,,
,,61741ba984f258d5c6a1303c,6685aa9113c938e83b4f1ea0,67267dfd85c77d871ecfe348,2024-11-02_15h32.53.289,WTP_SM_Choice,2022.2.1,Win32,60.24096386,,,,,,,,,,,,,,,,,,34,,,,,,,,,,0.02,2,2.6471,0,3,3,3,1,bake bread with friends,sit on a hammock outside,0.04,0.02,3.3,0,,,,
,,61741ba984f258d5c6a1303c,6685aa9113c938e83b4f1ea0,67267dfd85c77d871ecfe348,2024-11-02_15h32.53.289,WTP_SM_Choice,2022.2.1,Win32,60.24096386,,,,,,,,,,,,,,,,,,35,,,,,,,,,,0.02,2,2.7139,0,4,4,4,1,walk around downtown with my significant other,cook eggs,0.05,0.02,1.1,0,,,,
,,61741ba984f258d5c6a1303c,6685aa9113c938e83b4f1ea0,67267dfd85c77d871ecfe348,2024-11-02_15h32.53.289,WTP_SM_Choice,2022.2.1,Win32,60.24096386,,,,,,,NAN,,NAN,0.78,5.22,,0,34,34,34,1,35,Alex,Acc,Participant_Images/61741ba984f258d5c6a1303c/61741ba984f258d5c6a1303c_Images/61741ba984f258d5c6a1303c_Image_25.jpeg,liked,2.455989137,,,,,,,,,,,,,,,,,,,,,,
,,61741ba984f258d5c6a1303c,6685aa9113c938e83b4f1ea0,67267dfd85c77d871ecfe348,2024-11-02_15h32.53.289,WTP_SM_Choice,2022.2.1,Win32,60.24096386,,,,,space,7.222,NAN,,NAN,0.78,5.22,,0,35,35,35,1,36,Alex,Acc,Participant_Images/61741ba984f258d5c6a1303c/61741ba984f258d5c6a1303c_Images/61741ba984f258d5c6a1303c_Image_21.jpeg,liked,3.79605092,,,,,,,,,,,,,,,,,,,,,,
,,61741ba984f258d5c6a1303c,6685aa9113c938e83b4f1ea0,67267dfd85c77d871ecfe348,2024-11-02_15h32.53.289,WTP_SM_Choice,2022.2.1,Win32,60.24096386,,,,,space,3.3818,NAN,,NAN,0.78,5.22,,0,36,36,36,1,37,Alex,Acc,Participant_Images/61741ba984f258d5c6a1303c/61741ba984f258d5c6a1303c_Images/61741ba984f258d5c6a1303c_Image_8.jpeg,liked,3.562416326,,,,,,,,,,,,,,,,,,,,,,
,,61741ba984f258d5c6a1303c,6685aa9113c938e83b4f1ea0,67267dfd85c77d871ecfe348,2024-11-02_15h32.53.289,WTP_SM_Choice,2022.2.1,Win32,60.24096386,,,,,space,1.6973,NAN,,NAN,0.78,5.22,,0,37,37,37,1,38,Alex,Acc,Participant_Images/61741ba984f258d5c6a1303c/61741ba984f258d5c6a1303c_Images/61741ba984f258d5c6a1303c_Image_24.jpeg,liked,2.843822497,,,,,,,,,,,,,,,,,,,,,,
,,61741ba984f258d5c6a1303c,6685aa9113c938e83b4f1ea0,67267dfd85c77d871ecfe348,2024-11-02_15h32.53.289,WTP_SM_Choice,2022.2.1,Win32,60.24096386,,,,,space,5.1506,NAN,,NAN,0.78,5.22,,0,38,38,38,1,39,Alex,Acc,Participant_Images/61741ba984f258d5c6a1303c/61741ba984f258d5c6a1303c_Images/61741ba984f258d5c6a1303c_Image_14.jpeg,liked,3.546495948,,,,,,,,,,,,,,,,,,,,,,
,,61741ba984f258d5c6a1303c,6685aa9113c938e83b4f1ea0,67267dfd85c77d871ecfe348,2024-11-02_15h32.53.289,WTP_SM_Choice,2022.2.1,Win32,60.24096386,,,,,,,,,,,,,,,,,,36,,,,,,space,0.8293,space,0.5576,0.01,1,1.0832,0,0,0,0,1,bake bread with friends,play the drums,0.01,0.03,3.3,0,,,,
,,61741ba984f258d5c6a1303c,6685aa9113c938e83b4f1ea0,67267dfd85c77d871ecfe348,2024-11-02_15h32.53.289,WTP_SM_Choice,2022.2.1,Win32,60.24096386,,,,,,,,,,,,,,,,,,37,,,,,,,,,,0.02,1,1.7259,0,1,1,1,1,practice other languages with friends,sit on a hammock outside,0.02,0.03,1.1,0,,,,
,,61741ba984f258d5c6a1303c,6685aa9113c938e83b4f1ea0,67267dfd85c77d871ecfe348,2024-11-02_15h32.53.289,WTP_SM_Choice,2022.2.1,Win32,60.24096386,,,,,,,,,,,,,,,,,,38,,,,,,,,,,0.03,2,7.4937,0,2,2,2,1,go out dancing with my significant other,journal about the day,0.03,0.03,1.1,0,,,,
,,61741ba984f258d5c6a1303c,6685aa9113c938e83b4f1ea0,67267dfd85c77d871ecfe348,2024-11-02_15h32.53.289,WTP_SM_Choice,2022.2.1,Win32,60.24096386,,,,,,,,,,,,,,,,,,39,,,,,,,,,,0.03,2,5.1233,0,3,3,3,1,sit on a hammock outside,walk around downtown with my significant other,0.04,0.03,3.3,1,,,,
,,61741ba984f258d5c6a1303c,6685aa9113c938e83b4f1ea0,67267dfd85c77d871ecfe348,2024-11-02_15h32.53.289,WTP_SM_Choice,2022.2.1,Win32,60.24096386,,,,,,,,,,,,,,,,,,40,,,,,,,,,,0.03,2,1.5947,0,4,4,4,1,walk around downtown with my significant other,forage for fruits vegetables and mushrooms,0.05,0.03,4.4,0,,,,
,,61741ba984f258d5c6a1303c,6685aa9113c938e83b4f1ea0,67267dfd85c77d871ecfe348,2024-11-02_15h32.53.289,WTP_SM_Choice,2022.2.1,Win32,60.24096386,,,,,,,NAN,,NAN,0.9,5.1,,0,39,39,39,1,40,Alex,Acc,Participant_Images/61741ba984f258d5c6a1303c/61741ba984f258d5c6a1303c_Images/61741ba984f258d5c6a1303c_Image_3.jpeg,liked,1.672012706,,,,,,,,,,,,,,,,,,,,,,
,,61741ba984f258d5c6a1303c,6685aa9113c938e83b4f1ea0,67267dfd85c77d871ecfe348,2024-11-02_15h32.53.289,WTP_SM_Choice,2022.2.1,Win32,60.24096386,,,,,space,1.0309,NAN,,NAN,0.9,5.1,,0,40,40,40,1,41,Alex,Acc,Participant_Images/61741ba984f258d5c6a1303c/61741ba984f258d5c6a1303c_Images/61741ba984f258d5c6a1303c_Image_13.jpeg,liked,4.942172136,,,,,,,,,,,,,,,,,,,,,,
,,61741ba984f258d5c6a1303c,6685aa9113c938e83b4f1ea0,67267dfd85c77d871ecfe348,2024-11-02_15h32.53.289,WTP_SM_Choice,2022.2.1,Win32,60.24096386,,,,,space,0.6264,NAN,,NAN,0.9,5.1,,0,41,41,41,1,42,Alex,Acc,Participant_Images/61741ba984f258d5c6a1303c/61741ba984f258d5c6a1303c_Images/61741ba984f258d5c6a1303c_Image_6.jpeg,did not like,2.50187214,,,,,,,,,,,,,,,,,,,,,,
,,61741ba984f258d5c6a1303c,6685aa9113c938e83b4f1ea0,67267dfd85c77d871ecfe348,2024-11-02_15h32.53.289,WTP_SM_Choice,2022.2.1,Win32,60.24096386,,,,,space,0.4705,NAN,,NAN,0.9,5.1,,0,42,42,42,1,43,Alex,Acc,Participant_Images/61741ba984f258d5c6a1303c/61741ba984f258d5c6a1303c_Images/61741ba984f258d5c6a1303c_Image_23.jpeg,liked,2.071164779,,,,,,,,,,,,,,,,,,,,,,
,,61741ba984f258d5c6a1303c,6685aa9113c938e83b4f1ea0,67267dfd85c77d871ecfe348,2024-11-02_15h32.53.289,WTP_SM_Choice,2022.2.1,Win32,60.24096386,,,,,space,0.8518,NAN,,NAN,0.9,5.1,,0,43,43,43,1,44,Alex,Acc,Participant_Images/61741ba984f258d5c6a1303c/61741ba984f258d5c6a1303c_Images/61741ba984f258d5c6a1303c_Image_20.jpeg,did not like,5.336503566,,,,,,,,,,,,,,,,,,,,,,
,,61741ba984f258d5c6a1303c,6685aa9113c938e83b4f1ea0,67267dfd85c77d871ecfe348,2024-11-02_15h32.53.289,WTP_SM_Choice,2022.2.1,Win32,60.24096386,,,,,,,,,,,,,,,,,,41,,,,,,space,0.8138,space,0.6492,0.01,1,1.012,0,0,0,0,1,complete yardwork with family members,journal about the day,0.01,0.04,1.1,0,,,,
,,61741ba984f258d5c6a1303c,6685aa9113c938e83b4f1ea0,67267dfd85c77d871ecfe348,2024-11-02_15h32.53.289,WTP_SM_Choice,2022.2.1,Win32,60.24096386,,,,,,,,,,,,,,,,,,42,,,,,,,,,,0.02,1,1.6323,0,1,1,1,1,practice tap dance,bake bread with friends,0.02,0.04,3.3,1,,,,
,,61741ba984f258d5c6a1303c,6685aa9113c938e83b4f1ea0,67267dfd85c77d871ecfe348,2024-11-02_15h32.53.289,WTP_SM_Choice,2022.2.1,Win32,60.24096386,,,,,,,,,,,,,,,,,,43,,,,,,,,,,0.03,1,1.0404,0,2,2,2,1,bake bread with friends,learn languages on duolingo,0.03,0.04,1.1,0,,,,
,,61741ba984f258d5c6a1303c,6685aa9113c938e83b4f1ea0,67267dfd85c77d871ecfe348,2024-11-02_15h32.53.289,WTP_SM_Choice,2022.2.1,Win32,60.24096386,,,,,,,,,,,,,,,,,,44,,,,,,,,,,0.04,2,2.7111,0,3,3,3,1,walk around downtown with my significant other,learn languages on duolingo,0.04,0.04,1.1,0,,,,
,,61741ba984f258d5c6a1303c,6685aa9113c938e83b4f1ea0,67267dfd85c77d871ecfe348,2024-11-02_15h32.53.289,WTP_SM_Choice,2022.2.1,Win32,60.24096386,,,,,,,,,,,,,,,,,,45,,,,,,,,,,0.04,2,2.2395,0,4,4,4,1,journal about the day,ice skate with friends,0.05,0.04,4.4,1,,,,
,,61741ba984f258d5c6a1303c,6685aa9113c938e83b4f1ea0,67267dfd85c77d871ecfe348,2024-11-02_15h32.53.289,WTP_SM_Choice,2022.2.1,Win32,60.24096386,,,,,,,NAN,,NAN,1.04,4.96,,0,44,44,44,1,45,Alex,Acc,Participant_Images/61741ba984f258d5c6a1303c/61741ba984f258d5c6a1303c_Images/61741ba984f258d5c6a1303c_Image_4.jpeg,liked,2.642157193,,,,,,,,,,,,,,,,,,,,,,
,,61741ba984f258d5c6a1303c,6685aa9113c938e83b4f1ea0,67267dfd85c77d871ecfe348,2024-11-02_15h32.53.289,WTP_SM_Choice,2022.2.1,Win32,60.24096386,,,,,space,0.6498,NAN,,NAN,1.04,4.96,,0,45,45,45,1,46,Alex,Acc,Participant_Images/61741ba984f258d5c6a1303c/61741ba984f258d5c6a1303c_Images/61741ba984f258d5c6a1303c_Image_7.jpeg,liked,4.456234322,,,,,,,,,,,,,,,,,,,,,,
,,61741ba984f258d5c6a1303c,6685aa9113c938e83b4f1ea0,67267dfd85c77d871ecfe348,2024-11-02_15h32.53.289,WTP_SM_Choice,2022.2.1,Win32,60.24096386,,,,,space,0.9511,NAN,,NAN,1.04,4.96,,0,46,46,46,1,47,Alex,Acc,Participant_Images/61741ba984f258d5c6a1303c/61741ba984f258d5c6a1303c_Images/61741ba984f258d5c6a1303c_Image_5.jpeg,liked,4.438512181,,,,,,,,,,,,,,,,,,,,,,
,,61741ba984f258d5c6a1303c,6685aa9113c938e83b4f1ea0,67267dfd85c77d871ecfe348,2024-11-02_15h32.53.289,WTP_SM_Choice,2022.2.1,Win32,60.24096386,,,,,space,1.8844,NAN,,NAN,1.04,4.96,,0,47,47,47,1,48,Alex,Acc,Participant_Images/61741ba984f258d5c6a1303c/61741ba984f258d5c6a1303c_Images/61741ba984f258d5c6a1303c_Image_10.jpeg,liked,2.682944783,,,,,,,,,,,,,,,,,,,,,,
,,61741ba984f258d5c6a1303c,6685aa9113c938e83b4f1ea0,67267dfd85c77d871ecfe348,2024-11-02_15h32.53.289,WTP_SM_Choice,2022.2.1,Win32,60.24096386,,,,,space,1.7668,NAN,,NAN,1.04,4.96,,0,48,48,48,1,49,Alex,Acc,Participant_Images/61741ba984f258d5c6a1303c/61741ba984f258d5c6a1303c_Images/61741ba984f258d5c6a1303c_Image_12.jpeg,did not like,4.51984296,,,,,,,,,,,,,,,,,,,,,,
,,61741ba984f258d5c6a1303c,6685aa9113c938e83b4f1ea0,67267dfd85c77d871ecfe348,2024-11-02_15h32.53.289,WTP_SM_Choice,2022.2.1,Win32,60.24096386,,,,,,,,,,,,,,,,,,46,,,,,,space,2.2132,space,3.3444,0.01,1,1.4271,0,0,0,0,1,walk around a body of water,walk around downtown with my significant other,0.01,0.05,8.8,1,,,,
,,61741ba984f258d5c6a1303c,6685aa9113c938e83b4f1ea0,67267dfd85c77d871ecfe348,2024-11-02_15h32.53.289,WTP_SM_Choice,2022.2.1,Win32,60.24096386,,,,,,,,,,,,,,,,,,47,,,,,,,,,,0.02,1,2.0929,0,1,1,1,1,forage for fruits vegetables and mushrooms,complete yardwork with family members,0.02,0.05,1.1,1,,,,
,,61741ba984f258d5c6a1303c,6685aa9113c938e83b4f1ea0,67267dfd85c77d871ecfe348,2024-11-02_15h32.53.289,WTP_SM_Choice,2022.2.1,Win32,60.24096386,,,,,,,,,,,,,,,,,,48,,,,,,,,,,0.03,1,1.6795,0,2,2,2,1,rock climb with friends,walk around a body of water,0.03,0.05,4.4,0,,,,
,,61741ba984f258d5c6a1303c,6685aa9113c938e83b4f1ea0,67267dfd85c77d871ecfe348,2024-11-02_15h32.53.289,WTP_SM_Choice,2022.2.1,Win32,60.24096386,,,,,,,,,,,,,,,,,,49,,,,,,,,,,0.04,1,1.7757,0,3,3,3,1,cook eggs,complete yardwork with family members,0.04,0.05,3.3,1,,,,
,,61741ba984f258d5c6a1303c,6685aa9113c938e83b4f1ea0,67267dfd85c77d871ecfe348,2024-11-02_15h32.53.289,WTP_SM_Choice,2022.2.1,Win32,60.24096386,,,,,,,,,,,,,,,,,,50,,,,,,,,,,0.05,1,4.9373,0,4,4,4,1,ice skate with friends,play the drums,0.05,0.05,1.1,0,,,,
,,61741ba984f258d5c6a1303c,6685aa9113c938e83b4f1ea0,67267dfd85c77d871ecfe348,2024-11-02_15h32.53.289,WTP_SM_Choice,2022.2.1,Win32,60.24096386,,,,,,,4,,6,1.19,4.81,,0,49,49,49,1,50,Alex,Acc,Participant_Images/61741ba984f258d5c6a1303c/61741ba984f258d5c6a1303c_Images/61741ba984f258d5c6a1303c_Image_15.jpeg,liked,3.195382774,,,,,,,,,,,,,,,,,,,space,1.1709,,
,,61741ba984f258d5c6a1303c,6685aa9113c938e83b4f1ea0,67267dfd85c77d871ecfe348,2024-11-02_15h32.53.289,WTP_SM_Choice,2022.2.1,Win32,60.24096386,,,space,1.6662,space,4.9552,NAN,,NAN,1.19,4.81,,0,50,50,50,1,51,Charlie,Acc,Participant_Images/61741ba984f258d5c6a1303c/61741ba984f258d5c6a1303c_Images/61741ba984f258d5c6a1303c_Image_12.jpeg,liked,1.779333479,,,,,,,,,,,,,,,,,,,,,,
,,61741ba984f258d5c6a1303c,6685aa9113c938e83b4f1ea0,67267dfd85c77d871ecfe348,2024-11-02_15h32.53.289,WTP_SM_Choice,2022.2.1,Win32,60.24096386,,,,,space,2.6627,NAN,,NAN,1.19,4.81,,0,51,51,51,1,52,Charlie,Acc,Participant_Images/61741ba984f258d5c6a1303c/61741ba984f258d5c6a1303c_Images/61741ba984f258d5c6a1303c_Image_23.jpeg,liked,4.312468682,,,,,,,,,,,,,,,,,,,,,,
,,61741ba984f258d5c6a1303c,6685aa9113c938e83b4f1ea0,67267dfd85c77d871ecfe348,2024-11-02_15h32.53.289,WTP_SM_Choice,2022.2.1,Win32,60.24096386,,,,,space,1.3494,NAN,,NAN,1.19,4.81,,0,52,52,52,1,53,Charlie,Acc,Participant_Images/61741ba984f258d5c6a1303c/61741ba984f258d5c6a1303c_Images/61741ba984f258d5c6a1303c_Image_15.jpeg,liked,4.940433059,,,,,,,,,,,,,,,,,,,,,,
,,61741ba984f258d5c6a1303c,6685aa9113c938e83b4f1ea0,67267dfd85c77d871ecfe348,2024-11-02_15h32.53.289,WTP_SM_Choice,2022.2.1,Win32,60.24096386,,,,,space,0.6549,NAN,,NAN,1.19,4.81,,0,53,53,53,1,54,Charlie,Acc,Participant_Images/61741ba984f258d5c6a1303c/61741ba984f258d5c6a1303c_Images/61741ba984f258d5c6a1303c_Image_11.jpeg,liked,2.7105123,,,,,,,,,,,,,,,,,,,,,,
,,61741ba984f258d5c6a1303c,6685aa9113c938e83b4f1ea0,67267dfd85c77d871ecfe348,2024-11-02_15h32.53.289,WTP_SM_Choice,2022.2.1,Win32,60.24096386,,,,,,,,,,,,,,,,,,51,,,,,,space,1.7657,space,0.7975,0.01,1,2.2616,0,0,0,0,1,cook eggs,play board games with friends,0.01,0.01,1.1,1,,,,
,,61741ba984f258d5c6a1303c,6685aa9113c938e83b4f1ea0,67267dfd85c77d871ecfe348,2024-11-02_15h32.53.289,WTP_SM_Choice,2022.2.1,Win32,60.24096386,,,,,,,,,,,,,,,,,,52,,,,,,,,,,0.01,2,1.3738,0,1,1,1,1,rock climb with friends,cook eggs,0.02,0.01,3.3,0,,,,
,,61741ba984f258d5c6a1303c,6685aa9113c938e83b4f1ea0,67267dfd85c77d871ecfe348,2024-11-02_15h32.53.289,WTP_SM_Choice,2022.2.1,Win32,60.24096386,,,,,,,,,,,,,,,,,,53,,,,,,,,,,0.01,2,1.7154,0,2,2,2,1,chop up vegetables,bake bread with friends,0.03,0.01,1.1,1,,,,
,,61741ba984f258d5c6a1303c,6685aa9113c938e83b4f1ea0,67267dfd85c77d871ecfe348,2024-11-02_15h32.53.289,WTP_SM_Choice,2022.2.1,Win32,60.24096386,,,,,,,,,,,,,,,,,,54,,,,,,,,,,0.01,2,2.257,0,3,3,3,1,journal about the day,watch shows on Netflix with my significant other,0.04,0.01,4.4,1,,,,
,,61741ba984f258d5c6a1303c,6685aa9113c938e83b4f1ea0,67267dfd85c77d871ecfe348,2024-11-02_15h32.53.289,WTP_SM_Choice,2022.2.1,Win32,60.24096386,,,,,,,,,,,,,,,,,,55,,,,,,,,,,0.01,2,1.9393,0,4,4,4,1,play board games with friends,sit on a hammock outside,0.05,0.01,1.1,0,,,,
,,61741ba984f258d5c6a1303c,6685aa9113c938e83b4f1ea0,67267dfd85c77d871ecfe348,2024-11-02_15h32.53.289,WTP_SM_Choice,2022.2.1,Win32,60.24096386,,,,,,,NAN,,NAN,1.24,4.76,,0,54,54,54,1,55,Charlie,Acc,Participant_Images/61741ba984f258d5c6a1303c/61741ba984f258d5c6a1303c_Images/61741ba984f258d5c6a1303c_Image_8.jpeg,did not like,3.602308302,,,,,,,,,,,,,,,,,,,,,,
,,61741ba984f258d5c6a1303c,6685aa9113c938e83b4f1ea0,67267dfd85c77d871ecfe348,2024-11-02_15h32.53.289,WTP_SM_Choice,2022.2.1,Win32,60.24096386,,,,,space,0.9835,NAN,,NAN,1.24,4.76,,0,55,55,55,1,56,Charlie,Acc,Participant_Images/61741ba984f258d5c6a1303c/61741ba984f258d5c6a1303c_Images/61741ba984f258d5c6a1303c_Image_22.jpeg,did not like,4.106391878,,,,,,,,,,,,,,,,,,,,,,
,,61741ba984f258d5c6a1303c,6685aa9113c938e83b4f1ea0,67267dfd85c77d871ecfe348,2024-11-02_15h32.53.289,WTP_SM_Choice,2022.2.1,Win32,60.24096386,,,,,space,1.2603,NAN,,NAN,1.24,4.76,,0,56,56,56,1,57,Charlie,Acc,Participant_Images/61741ba984f258d5c6a1303c/61741ba984f258d5c6a1303c_Images/61741ba984f258d5c6a1303c_Image_3.jpeg,liked,3.799433026,,,,,,,,,,,,,,,,,,,,,,
,,61741ba984f258d5c6a1303c,6685aa9113c938e83b4f1ea0,67267dfd85c77d871ecfe348,2024-11-02_15h32.53.289,WTP_SM_Choice,2022.2.1,Win32,60.24096386,,,,,space,0.756,NAN,,NAN,1.24,4.76,,0,57,57,57,1,58,Charlie,Acc,Participant_Images/61741ba984f258d5c6a1303c/61741ba984f258d5c6a1303c_Images/61741ba984f258d5c6a1303c_Image_19.jpeg,liked,5.246980764,,,,,,,,,,,,,,,,,,,,,,
,,61741ba984f258d5c6a1303c,6685aa9113c938e83b4f1ea0,67267dfd85c77d871ecfe348,2024-11-02_15h32.53.289,WTP_SM_Choice,2022.2.1,Win32,60.24096386,,,,,space,0.9047,NAN,,NAN,1.24,4.76,,0,58,58,58,1,59,Charlie,Acc,Participant_Images/61741ba984f258d5c6a1303c/61741ba984f258d5c6a1303c_Images/61741ba984f258d5c6a1303c_Image_4.jpeg,liked,3.30081769,,,,,,,,,,,,,,,,,,,,,,
,,61741ba984f258d5c6a1303c,6685aa9113c938e83b4f1ea0,67267dfd85c77d871ecfe348,2024-11-02_15h32.53.289,WTP_SM_Choice,2022.2.1,Win32,60.24096386,,,,,,,,,,,,,,,,,,56,,,,,,space,0.7224,space,0.447,0.01,1,0.9208,0,0,0,0,1,chop up vegetables,ice skate with friends,0.01,0.02,8.8,1,,,,
,,61741ba984f258d5c6a1303c,6685aa9113c938e83b4f1ea0,67267dfd85c77d871ecfe348,2024-11-02_15h32.53.289,WTP_SM_Choice,2022.2.1,Win32,60.24096386,,,,,,,,,,,,,,,,,,57,,,,,,,,,,0.02,1,2.6814,0,1,1,1,1,practice tap dance,ice skate with friends,0.02,0.02,4.4,1,,,,
,,61741ba984f258d5c6a1303c,6685aa9113c938e83b4f1ea0,67267dfd85c77d871ecfe348,2024-11-02_15h32.53.289,WTP_SM_Choice,2022.2.1,Win32,60.24096386,,,,,,,,,,,,,,,,,,58,,,,,,,,,,0.02,2,1.2733,0,2,2,2,1,rock climb with friends,practice tap dance,0.03,0.02,4.4,0,,,,
,,61741ba984f258d5c6a1303c,6685aa9113c938e83b4f1ea0,67267dfd85c77d871ecfe348,2024-11-02_15h32.53.289,WTP_SM_Choice,2022.2.1,Win32,60.24096386,,,,,,,,,,,,,,,,,,59,,,,,,,,,,0.02,2,1.5449,0,3,3,3,1,practice other languages with friends,juggle with my hands,0.04,0.02,4.4,0,,,,
,,61741ba984f258d5c6a1303c,6685aa9113c938e83b4f1ea0,67267dfd85c77d871ecfe348,2024-11-02_15h32.53.289,WTP_SM_Choice,2022.2.1,Win32,60.24096386,,,,,,,,,,,,,,,,,,60,,,,,,,,,,0.02,2,1.176,0,4,4,4,1,walk around a body of water,practice other languages with friends,0.05,0.02,1.1,1,,,,
,,61741ba984f258d5c6a1303c,6685aa9113c938e83b4f1ea0,67267dfd85c77d871ecfe348,2024-11-02_15h32.53.289,WTP_SM_Choice,2022.2.1,Win32,60.24096386,,,,,,,NAN,,NAN,1.33,4.67,,0,59,59,59,1,60,Charlie,Acc,Participant_Images/61741ba984f258d5c6a1303c/61741ba984f258d5c6a1303c_Images/61741ba984f258d5c6a1303c_Image_1.jpeg,did not like,1.661473164,,,,,,,,,,,,,,,,,,,,,,
,,61741ba984f258d5c6a1303c,6685aa9113c938e83b4f1ea0,67267dfd85c77d871ecfe348,2024-11-02_15h32.53.289,WTP_SM_Choice,2022.2.1,Win32,60.24096386,,,,,space,6.5644,NAN,,NAN,1.33,4.67,,0,60,60,60,1,61,Charlie,Acc,Participant_Images/61741ba984f258d5c6a1303c/61741ba984f258d5c6a1303c_Images/61741ba984f258d5c6a1303c_Image_10.jpeg,liked,3.613205605,,,,,,,,,,,,,,,,,,,,,,
,,61741ba984f258d5c6a1303c,6685aa9113c938e83b4f1ea0,67267dfd85c77d871ecfe348,2024-11-02_15h32.53.289,WTP_SM_Choice,2022.2.1,Win32,60.24096386,,,,,space,2.3239,NAN,,NAN,1.33,4.67,,0,61,61,61,1,62,Charlie,Acc,Participant_Images/61741ba984f258d5c6a1303c/61741ba984f258d5c6a1303c_Images/61741ba984f258d5c6a1303c_Image_18.jpeg,liked,4.988446431,,,,,,,,,,,,,,,,,,,,,,
,,61741ba984f258d5c6a1303c,6685aa9113c938e83b4f1ea0,67267dfd85c77d871ecfe348,2024-11-02_15h32.53.289,WTP_SM_Choice,2022.2.1,Win32,60.24096386,,,,,space,0.5606,NAN,,NAN,1.33,4.67,,0,62,62,62,1,63,Charlie,Acc,Participant_Images/61741ba984f258d5c6a1303c/61741ba984f258d5c6a1303c_Images/61741ba984f258d5c6a1303c_Image_14.jpeg,liked,3.470791822,,,,,,,,,,,,,,,,,,,,,,
,,61741ba984f258d5c6a1303c,6685aa9113c938e83b4f1ea0,67267dfd85c77d871ecfe348,2024-11-02_15h32.53.289,WTP_SM_Choice,2022.2.1,Win32,60.24096386,,,,,space,0.6488,NAN,,NAN,1.33,4.67,,0,63,63,63,1,64,Charlie,Acc,Participant_Images/61741ba984f258d5c6a1303c/61741ba984f258d5c6a1303c_Images/61741ba984f258d5c6a1303c_Image_25.jpeg,did not like,3.820572462,,,,,,,,,,,,,,,,,,,,,,
,,61741ba984f258d5c6a1303c,6685aa9113c938e83b4f1ea0,67267dfd85c77d871ecfe348,2024-11-02_15h32.53.289,WTP_SM_Choice,2022.2.1,Win32,60.24096386,,,,,,,,,,,,,,,,,,61,,,,,,space,0.9172,space,0.746,0.01,1,3.42,0,0,0,0,1,play board games with friends,forage for fruits vegetables and mushrooms,0.01,0.03,3.3,0,,,,
,,61741ba984f258d5c6a1303c,6685aa9113c938e83b4f1ea0,67267dfd85c77d871ecfe348,2024-11-02_15h32.53.289,WTP_SM_Choice,2022.2.1,Win32,60.24096386,,,,,,,,,,,,,,,,,,62,,,,,,,,,,0.02,1,1.757,0,1,1,1,1,chop up vegetables,watch shows on Netflix with my significant other,0.02,0.03,3.3,1,,,,
,,61741ba984f258d5c6a1303c,6685aa9113c938e83b4f1ea0,67267dfd85c77d871ecfe348,2024-11-02_15h32.53.289,WTP_SM_Choice,2022.2.1,Win32,60.24096386,,,,,,,,,,,,,,,,,,63,,,,,,,,,,0.03,1,4.5151,0,2,2,2,1,practice other languages with friends,chop up vegetables,0.03,0.03,3.3,0,,,,
,,61741ba984f258d5c6a1303c,6685aa9113c938e83b4f1ea0,67267dfd85c77d871ecfe348,2024-11-02_15h32.53.289,WTP_SM_Choice,2022.2.1,Win32,60.24096386,,,,,,,,,,,,,,,,,,64,,,,,,,,,,0.03,2,2.0591,0,3,3,3,1,go out for dinner with coworkers,cook eggs,0.04,0.03,1.1,0,,,,
,,61741ba984f258d5c6a1303c,6685aa9113c938e83b4f1ea0,67267dfd85c77d871ecfe348,2024-11-02_15h32.53.289,WTP_SM_Choice,2022.2.1,Win32,60.24096386,,,,,,,,,,,,,,,,,,65,,,,,,,,,,0.03,2,1.9132,0,4,4,4,1,sit on a hammock outside,go out for dinner with coworkers,0.05,0.03,1.1,1,,,,
,,61741ba984f258d5c6a1303c,6685aa9113c938e83b4f1ea0,67267dfd85c77d871ecfe348,2024-11-02_15h32.53.289,WTP_SM_Choice,2022.2.1,Win32,60.24096386,,,,,,,NAN,,NAN,1.45,4.55,,0,64,64,64,1,65,Charlie,Acc,Participant_Images/61741ba984f258d5c6a1303c/61741ba984f258d5c6a1303c_Images/61741ba984f258d5c6a1303c_Image_17.jpeg,liked,2.455989137,,,,,,,,,,,,,,,,,,,,,,
,,61741ba984f258d5c6a1303c,6685aa9113c938e83b4f1ea0,67267dfd85c77d871ecfe348,2024-11-02_15h32.53.289,WTP_SM_Choice,2022.2.1,Win32,60.24096386,,,,,space,1.0091,NAN,,NAN,1.45,4.55,,0,65,65,65,1,66,Charlie,Acc,Participant_Images/61741ba984f258d5c6a1303c/61741ba984f258d5c6a1303c_Images/61741ba984f258d5c6a1303c_Image_7.jpeg,liked,3.79605092,,,,,,,,,,,,,,,,,,,,,,
,,61741ba984f258d5c6a1303c,6685aa9113c938e83b4f1ea0,67267dfd85c77d871ecfe348,2024-11-02_15h32.53.289,WTP_SM_Choice,2022.2.1,Win32,60.24096386,,,,,space,0.7951,NAN,,NAN,1.45,4.55,,0,66,66,66,1,67,Charlie,Acc,Participant_Images/61741ba984f258d5c6a1303c/61741ba984f258d5c6a1303c_Images/61741ba984f258d5c6a1303c_Image_6.jpeg,liked,3.562416326,,,,,,,,,,,,,,,,,,,,,,
,,61741ba984f258d5c6a1303c,6685aa9113c938e83b4f1ea0,67267dfd85c77d871ecfe348,2024-11-02_15h32.53.289,WTP_SM_Choice,2022.2.1,Win32,60.24096386,,,,,space,0.8499,NAN,,NAN,1.45,4.55,,0,67,67,67,1,68,Charlie,Acc,Participant_Images/61741ba984f258d5c6a1303c/61741ba984f258d5c6a1303c_Images/61741ba984f258d5c6a1303c_Image_5.jpeg,liked,2.843822497,,,,,,,,,,,,,,,,,,,,,,
,,61741ba984f258d5c6a1303c,6685aa9113c938e83b4f1ea0,67267dfd85c77d871ecfe348,2024-11-02_15h32.53.289,WTP_SM_Choice,2022.2.1,Win32,60.24096386,,,,,space,0.5686,NAN,,NAN,1.45,4.55,,0,68,68,68,1,69,Charlie,Acc,Participant_Images/61741ba984f258d5c6a1303c/61741ba984f258d5c6a1303c_Images/61741ba984f258d5c6a1303c_Image_2.jpeg,did not like,3.546495948,,,,,,,,,,,,,,,,,,,,,,
,,61741ba984f258d5c6a1303c,6685aa9113c938e83b4f1ea0,67267dfd85c77d871ecfe348,2024-11-02_15h32.53.289,WTP_SM_Choice,2022.2.1,Win32,60.24096386,,,,,,,,,,,,,,,,,,66,,,,,,space,0.5653,space,0.5292,0.01,1,1.8317,0,0,0,0,1,chop up vegetables,complete yardwork with family members,0.01,0.04,1.1,1,,,,
,,61741ba984f258d5c6a1303c,6685aa9113c938e83b4f1ea0,67267dfd85c77d871ecfe348,2024-11-02_15h32.53.289,WTP_SM_Choice,2022.2.1,Win32,60.24096386,,,,,,,,,,,,,,,,,,67,,,,,,,,,,0.02,1,1.8718,0,1,1,1,1,play board games with friends,chop up vegetables,0.02,0.04,8.8,0,,,,
,,61741ba984f258d5c6a1303c,6685aa9113c938e83b4f1ea0,67267dfd85c77d871ecfe348,2024-11-02_15h32.53.289,WTP_SM_Choice,2022.2.1,Win32,60.24096386,,,,,,,,,,,,,,,,,,68,,,,,,,,,,0.03,1,2.1865,0,2,2,2,1,play the drums,practice other languages with friends,0.03,0.04,4.4,1,,,,
,,61741ba984f258d5c6a1303c,6685aa9113c938e83b4f1ea0,67267dfd85c77d871ecfe348,2024-11-02_15h32.53.289,WTP_SM_Choice,2022.2.1,Win32,60.24096386,,,,,,,,,,,,,,,,,,69,,,,,,,,,,0.04,2,2.9767,0,3,3,3,1,juggle with my hands,rock climb with friends,0.04,0.04,1.1,1,,,,
,,61741ba984f258d5c6a1303c,6685aa9113c938e83b4f1ea0,67267dfd85c77d871ecfe348,2024-11-02_15h32.53.289,WTP_SM_Choice,2022.2.1,Win32,60.24096386,,,,,,,,,,,,,,,,,,70,,,,,,,,,,0.04,2,2.3064,0,4,4,4,1,play board games with friends,practice tap dance,0.05,0.04,1.1,0,,,,
,,61741ba984f258d5c6a1303c,6685aa9113c938e83b4f1ea0,67267dfd85c77d871ecfe348,2024-11-02_15h32.53.289,WTP_SM_Choice,2022.2.1,Win32,60.24096386,,,,,,,NAN,,NAN,1.59,4.41,,0,69,69,69,1,70,Charlie,Acc,Participant_Images/61741ba984f258d5c6a1303c/61741ba984f258d5c6a1303c_Images/61741ba984f258d5c6a1303c_Image_16.jpeg,liked,1.672012706,,,,,,,,,,,,,,,,,,,,,,
,,61741ba984f258d5c6a1303c,6685aa9113c938e83b4f1ea0,67267dfd85c77d871ecfe348,2024-11-02_15h32.53.289,WTP_SM_Choice,2022.2.1,Win32,60.24096386,,,,,space,1.3254,NAN,,NAN,1.59,4.41,,0,70,70,70,1,71,Charlie,Acc,Participant_Images/61741ba984f258d5c6a1303c/61741ba984f258d5c6a1303c_Images/61741ba984f258d5c6a1303c_Image_21.jpeg,liked,4.942172136,,,,,,,,,,,,,,,,,,,,,,
,,61741ba984f258d5c6a1303c,6685aa9113c938e83b4f1ea0,67267dfd85c77d871ecfe348,2024-11-02_15h32.53.289,WTP_SM_Choice,2022.2.1,Win32,60.24096386,,,,,space,1.1544,NAN,,NAN,1.59,4.41,,0,71,71,71,1,72,Charlie,Acc,Participant_Images/61741ba984f258d5c6a1303c/61741ba984f258d5c6a1303c_Images/61741ba984f258d5c6a1303c_Image_20.jpeg,did not like,2.50187214,,,,,,,,,,,,,,,,,,,,,,
,,61741ba984f258d5c6a1303c,6685aa9113c938e83b4f1ea0,67267dfd85c77d871ecfe348,2024-11-02_15h32.53.289,WTP_SM_Choice,2022.2.1,Win32,60.24096386,,,,,space,0.6839,NAN,,NAN,1.59,4.41,,0,72,72,72,1,73,Charlie,Acc,Participant_Images/61741ba984f258d5c6a1303c/61741ba984f258d5c6a1303c_Images/61741ba984f258d5c6a1303c_Image_24.jpeg,did not like,2.071164779,,,,,,,,,,,,,,,,,,,,,,
,,61741ba984f258d5c6a1303c,6685aa9113c938e83b4f1ea0,67267dfd85c77d871ecfe348,2024-11-02_15h32.53.289,WTP_SM_Choice,2022.2.1,Win32,60.24096386,,,,,space,0.9424,NAN,,NAN,1.59,4.41,,0,73,73,73,1,74,Charlie,Acc,Participant_Images/61741ba984f258d5c6a1303c/61741ba984f258d5c6a1303c_Images/61741ba984f258d5c6a1303c_Image_13.jpeg,liked,5.336503566,,,,,,,,,,,,,,,,,,,,,,
,,61741ba984f258d5c6a1303c,6685aa9113c938e83b4f1ea0,67267dfd85c77d871ecfe348,2024-11-02_15h32.53.289,WTP_SM_Choice,2022.2.1,Win32,60.24096386,,,,,,,,,,,,,,,,,,71,,,,,,space,0.7968,space,0.6983,0.01,1,3.4848,0,0,0,0,1,learn languages on duolingo,watch shows on Netflix with my significant other,0.01,0.05,3.3,1,,,,
,,61741ba984f258d5c6a1303c,6685aa9113c938e83b4f1ea0,67267dfd85c77d871ecfe348,2024-11-02_15h32.53.289,WTP_SM_Choice,2022.2.1,Win32,60.24096386,,,,,,,,,,,,,,,,,,72,,,,,,,,,,0.02,1,5.2164,0,1,1,1,1,bake bread with friends,juggle with my hands,0.02,0.05,8.8,0,,,,
,,61741ba984f258d5c6a1303c,6685aa9113c938e83b4f1ea0,67267dfd85c77d871ecfe348,2024-11-02_15h32.53.289,WTP_SM_Choice,2022.2.1,Win32,60.24096386,,,,,,,,,,,,,,,,,,73,,,,,,,,,,0.03,1,2.4792,0,2,2,2,1,forage for fruits vegetables and mushrooms,go out for dinner with coworkers,0.03,0.05,3.3,1,,,,
,,61741ba984f258d5c6a1303c,6685aa9113c938e83b4f1ea0,67267dfd85c77d871ecfe348,2024-11-02_15h32.53.289,WTP_SM_Choice,2022.2.1,Win32,60.24096386,,,,,,,,,,,,,,,,,,74,,,,,,,,,,0.04,1,3.7153,0,3,3,3,1,juggle with my hands,go out for dinner with coworkers,0.04,0.05,4.4,1,,,,
,,61741ba984f258d5c6a1303c,6685aa9113c938e83b4f1ea0,67267dfd85c77d871ecfe348,2024-11-02_15h32.53.289,WTP_SM_Choice,2022.2.1,Win32,60.24096386,,,,,,,,,,,,,,,,,,75,,,,,,,,,,0.05,2,4.5008,0,4,4,4,1,bake bread with friends,walk around a body of water,0.05,0.05,3.3,0,,,,
,,61741ba984f258d5c6a1303c,6685aa9113c938e83b4f1ea0,67267dfd85c77d871ecfe348,2024-11-02_15h32.53.289,WTP_SM_Choice,2022.2.1,Win32,60.24096386,,,,,,,4,,7,1.74,4.26,,0,74,74,74,1,75,Charlie,Acc,Participant_Images/61741ba984f258d5c6a1303c/61741ba984f258d5c6a1303c_Images/61741ba984f258d5c6a1303c_Image_9.jpeg,liked,2.642157193,,,,,,,,,,,,,,,,,,,space,1.9951,,
,,61741ba984f258d5c6a1303c,6685aa9113c938e83b4f1ea0,67267dfd85c77d871ecfe348,2024-11-02_15h32.53.289,WTP_SM_Choice,2022.2.1,Win32,60.24096386,,,space,3.7076,space,2.9466,NAN,,NAN,1.74,4.26,,0,75,75,75,1,76,Sam,Rej,Participant_Images/61741ba984f258d5c6a1303c/61741ba984f258d5c6a1303c_Images/61741ba984f258d5c6a1303c_Image_3.jpeg,did not like,4.456234322,,,,,,,,,,,,,,,,,,,,,,
,,61741ba984f258d5c6a1303c,6685aa9113c938e83b4f1ea0,67267dfd85c77d871ecfe348,2024-11-02_15h32.53.289,WTP_SM_Choice,2022.2.1,Win32,60.24096386,,,,,space,2.2987,NAN,,NAN,1.74,4.26,,0,76,76,76,1,77,Sam,Rej,Participant_Images/61741ba984f258d5c6a1303c/61741ba984f258d5c6a1303c_Images/61741ba984f258d5c6a1303c_Image_2.jpeg,liked,4.438512181,,,,,,,,,,,,,,,,,,,,,,
,,61741ba984f258d5c6a1303c,6685aa9113c938e83b4f1ea0,67267dfd85c77d871ecfe348,2024-11-02_15h32.53.289,WTP_SM_Choice,2022.2.1,Win32,60.24096386,,,,,space,2.0668,NAN,,NAN,1.74,4.26,,0,77,77,77,1,78,Sam,Rej,Participant_Images/61741ba984f258d5c6a1303c/61741ba984f258d5c6a1303c_Images/61741ba984f258d5c6a1303c_Image_20.jpeg,did not like,2.682944783,,,,,,,,,,,,,,,,,,,,,,
,,61741ba984f258d5c6a1303c,6685aa9113c938e83b4f1ea0,67267dfd85c77d871ecfe348,2024-11-02_15h32.53.289,WTP_SM_Choice,2022.2.1,Win32,60.24096386,,,,,space,2.8146,NAN,,NAN,1.74,4.26,,0,78,78,78,1,79,Sam,Rej,Participant_Images/61741ba984f258d5c6a1303c/61741ba984f258d5c6a1303c_Images/61741ba984f258d5c6a1303c_Image_21.jpeg,did not like,4.51984296,,,,,,,,,,,,,,,,,,,,,,
,,61741ba984f258d5c6a1303c,6685aa9113c938e83b4f1ea0,67267dfd85c77d871ecfe348,2024-11-02_15h32.53.289,WTP_SM_Choice,2022.2.1,Win32,60.24096386,,,,,,,,,,,,,,,,,,76,,,,,,space,5.408,space,1.8375,0.01,2,2.2657,0,0,0,0,1,play board games with friends,juggle with my hands,0.01,0.01,1.1,0,,,,
,,61741ba984f258d5c6a1303c,6685aa9113c938e83b4f1ea0,67267dfd85c77d871ecfe348,2024-11-02_15h32.53.289,WTP_SM_Choice,2022.2.1,Win32,60.24096386,,,,,,,,,,,,,,,,,,77,,,,,,,,,,0.01,2,1.4214,0,1,1,1,1,go out for dinner with coworkers,play the drums,0.02,0.01,8.8,0,,,,
,,61741ba984f258d5c6a1303c,6685aa9113c938e83b4f1ea0,67267dfd85c77d871ecfe348,2024-11-02_15h32.53.289,WTP_SM_Choice,2022.2.1,Win32,60.24096386,,,,,,,,,,,,,,,,,,78,,,,,,,,,,0.01,2,2.8258,0,2,2,2,1,journal about the day,rock climb with friends,0.03,0.01,1.1,1,,,,
,,61741ba984f258d5c6a1303c,6685aa9113c938e83b4f1ea0,67267dfd85c77d871ecfe348,2024-11-02_15h32.53.289,WTP_SM_Choice,2022.2.1,Win32,60.24096386,,,,,,,,,,,,,,,,,,79,,,,,,,,,,0.01,2,1.6896,0,3,3,3,1,go out for dinner with coworkers,learn languages on duolingo,0.04,0.01,1.1,0,,,,
,,61741ba984f258d5c6a1303c,6685aa9113c938e83b4f1ea0,67267dfd85c77d871ecfe348,2024-11-02_15h32.53.289,WTP_SM_Choice,2022.2.1,Win32,60.24096386,,,,,,,,,,,,,,,,,,80,,,,,,,,,,0.01,2,1.79,0,4,4,4,1,complete yardwork with family members,walk around a body of water,0.05,0.01,4.4,0,,,,
,,61741ba984f258d5c6a1303c,6685aa9113c938e83b4f1ea0,67267dfd85c77d871ecfe348,2024-11-02_15h32.53.289,WTP_SM_Choice,2022.2.1,Win32,60.24096386,,,,,,,NAN,,NAN,1.79,4.21,,0,79,79,79,1,80,Sam,Rej,Participant_Images/61741ba984f258d5c6a1303c/61741ba984f258d5c6a1303c_Images/61741ba984f258d5c6a1303c_Image_19.jpeg,liked,3.195382774,,,,,,,,,,,,,,,,,,,,,,
,,61741ba984f258d5c6a1303c,6685aa9113c938e83b4f1ea0,67267dfd85c77d871ecfe348,2024-11-02_15h32.53.289,WTP_SM_Choice,2022.2.1,Win32,60.24096386,,,,,space,1.9844,NAN,,NAN,1.79,4.21,,0,80,80,80,1,81,Sam,Rej,Participant_Images/61741ba984f258d5c6a1303c/61741ba984f258d5c6a1303c_Images/61741ba984f258d5c6a1303c_Image_7.jpeg,did not like,1.779333479,,,,,,,,,,,,,,,,,,,,,,
,,61741ba984f258d5c6a1303c,6685aa9113c938e83b4f1ea0,67267dfd85c77d871ecfe348,2024-11-02_15h32.53.289,WTP_SM_Choice,2022.2.1,Win32,60.24096386,,,,,space,1.433,NAN,,NAN,1.79,4.21,,0,81,81,81,1,82,Sam,Rej,Participant_Images/61741ba984f258d5c6a1303c/61741ba984f258d5c6a1303c_Images/61741ba984f258d5c6a1303c_Image_9.jpeg,did not like,4.312468682,,,,,,,,,,,,,,,,,,,,,,
,,61741ba984f258d5c6a1303c,6685aa9113c938e83b4f1ea0,67267dfd85c77d871ecfe348,2024-11-02_15h32.53.289,WTP_SM_Choice,2022.2.1,Win32,60.24096386,,,,,space,2.6653,NAN,,NAN,1.79,4.21,,0,82,82,82,1,83,Sam,Rej,Participant_Images/61741ba984f258d5c6a1303c/61741ba984f258d5c6a1303c_Images/61741ba984f258d5c6a1303c_Image_10.jpeg,did not like,4.940433059,,,,,,,,,,,,,,,,,,,,,,
,,61741ba984f258d5c6a1303c,6685aa9113c938e83b4f1ea0,67267dfd85c77d871ecfe348,2024-11-02_15h32.53.289,WTP_SM_Choice,2022.2.1,Win32,60.24096386,,,,,space,1.6773,NAN,,NAN,1.79,4.21,,0,83,83,83,1,84,Sam,Rej,Participant_Images/61741ba984f258d5c6a1303c/61741ba984f258d5c6a1303c_Images/61741ba984f258d5c6a1303c_Image_6.jpeg,did not like,2.7105123,,,,,,,,,,,,,,,,,,,,,,
,,61741ba984f258d5c6a1303c,6685aa9113c938e83b4f1ea0,67267dfd85c77d871ecfe348,2024-11-02_15h32.53.289,WTP_SM_Choice,2022.2.1,Win32,60.24096386,,,,,,,,,,,,,,,,,,81,,,,,,space,3.1687,space,1.2755,0.01,1,2.2273,0,0,0,0,1,juggle with my hands,ice skate with friends,0.01,0.02,3.3,1,,,,
,,61741ba984f258d5c6a1303c,6685aa9113c938e83b4f1ea0,67267dfd85c77d871ecfe348,2024-11-02_15h32.53.289,WTP_SM_Choice,2022.2.1,Win32,60.24096386,,,,,,,,,,,,,,,,,,82,,,,,,,,,,0.02,1,7.4985,0,1,1,1,1,cook eggs,practice other languages with friends,0.02,0.02,4.4,1,,,,
,,61741ba984f258d5c6a1303c,6685aa9113c938e83b4f1ea0,67267dfd85c77d871ecfe348,2024-11-02_15h32.53.289,WTP_SM_Choice,2022.2.1,Win32,60.24096386,,,,,,,,,,,,,,,,,,83,,,,,,,,,,0.02,2,3.8545,0,2,2,2,1,rock climb with friends,play the drums,0.03,0.02,1.1,0,,,,
,,61741ba984f258d5c6a1303c,6685aa9113c938e83b4f1ea0,67267dfd85c77d871ecfe348,2024-11-02_15h32.53.289,WTP_SM_Choice,2022.2.1,Win32,60.24096386,,,,,,,,,,,,,,,,,,84,,,,,,,,,,0.02,2,2.5941,0,3,3,3,1,journal about the day,bake bread with friends,0.04,0.02,3.3,1,,,,
,,61741ba984f258d5c6a1303c,6685aa9113c938e83b4f1ea0,67267dfd85c77d871ecfe348,2024-11-02_15h32.53.289,WTP_SM_Choice,2022.2.1,Win32,60.24096386,,,,,,,,,,,,,,,,,,85,,,,,,,,,,0.02,2,2.0815,0,4,4,4,1,chop up vegetables,rock climb with friends,0.05,0.02,3.3,1,,,,
,,61741ba984f258d5c6a1303c,6685aa9113c938e83b4f1ea0,67267dfd85c77d871ecfe348,2024-11-02_15h32.53.289,WTP_SM_Choice,2022.2.1,Win32,60.24096386,,,,,,,NAN,,NAN,1.88,4.12,,0,84,84,84,1,85,Sam,Rej,Participant_Images/61741ba984f258d5c6a1303c/61741ba984f258d5c6a1303c_Images/61741ba984f258d5c6a1303c_Image_23.jpeg,liked,3.602308302,,,,,,,,,,,,,,,,,,,,,,
,,61741ba984f258d5c6a1303c,6685aa9113c938e83b4f1ea0,67267dfd85c77d871ecfe348,2024-11-02_15h32.53.289,WTP_SM_Choice,2022.2.1,Win32,60.24096386,,,,,space,1.7454,NAN,,NAN,1.88,4.12,,0,85,85,85,1,86,Sam,Rej,Participant_Images/61741ba984f258d5c6a1303c/61741ba984f258d5c6a1303c_Images/61741ba984f258d5c6a1303c_Image_18.jpeg,did not like,4.106391878,,,,,,,,,,,,,,,,,,,,,,
,,61741ba984f258d5c6a1303c,6685aa9113c938e83b4f1ea0,67267dfd85c77d871ecfe348,2024-11-02_15h32.53.289,WTP_SM_Choice,2022.2.1,Win32,60.24096386,,,,,space,1.1166,NAN,,NAN,1.88,4.12,,0,86,86,86,1,87,Sam,Rej,Participant_Images/61741ba984f258d5c6a1303c/61741ba984f258d5c6a1303c_Images/61741ba984f258d5c6a1303c_Image_16.jpeg,liked,3.799433026,,,,,,,,,,,,,,,,,,,,,,
,,61741ba984f258d5c6a1303c,6685aa9113c938e83b4f1ea0,67267dfd85c77d871ecfe348,2024-11-02_15h32.53.289,WTP_SM_Choice,2022.2.1,Win32,60.24096386,,,,,space,1.2563,NAN,,NAN,1.88,4.12,,0,87,87,87,1,88,Sam,Rej,Participant_Images/61741ba984f258d5c6a1303c/61741ba984f258d5c6a1303c_Images/61741ba984f258d5c6a1303c_Image_8.jpeg,liked,5.246980764,,,,,,,,,,,,,,,,,,,,,,
,,61741ba984f258d5c6a1303c,6685aa9113c938e83b4f1ea0,67267dfd85c77d871ecfe348,2024-11-02_15h32.53.289,WTP_SM_Choice,2022.2.1,Win32,60.24096386,,,,,space,1.0506,NAN,,NAN,1.88,4.12,,0,88,88,88,1,89,Sam,Rej,Participant_Images/61741ba984f258d5c6a1303c/61741ba984f258d5c6a1303c_Images/61741ba984f258d5c6a1303c_Image_5.jpeg,did not like,3.30081769,,,,,,,,,,,,,,,,,,,,,,
,,61741ba984f258d5c6a1303c,6685aa9113c938e83b4f1ea0,67267dfd85c77d871ecfe348,2024-11-02_15h32.53.289,WTP_SM_Choice,2022.2.1,Win32,60.24096386,,,,,,,,,,,,,,,,,,86,,,,,,space,2.2864,space,0.9204,0.01,1,2.3823,0,0,0,0,1,cook eggs,go out dancing with my significant other,0.01,0.03,1.1,1,,,,
,,61741ba984f258d5c6a1303c,6685aa9113c938e83b4f1ea0,67267dfd85c77d871ecfe348,2024-11-02_15h32.53.289,WTP_SM_Choice,2022.2.1,Win32,60.24096386,,,,,,,,,,,,,,,,,,87,,,,,,,,,,0.02,1,2.5473,0,1,1,1,1,walk around a body of water,go out for dinner with coworkers,0.02,0.03,4.4,1,,,,
,,61741ba984f258d5c6a1303c,6685aa9113c938e83b4f1ea0,67267dfd85c77d871ecfe348,2024-11-02_15h32.53.289,WTP_SM_Choice,2022.2.1,Win32,60.24096386,,,,,,,,,,,,,,,,,,88,,,,,,,,,,0.03,1,2.5724,0,2,2,2,1,cook eggs,watch shows on Netflix with my significant other,0.03,0.03,1.1,1,,,,
,,61741ba984f258d5c6a1303c,6685aa9113c938e83b4f1ea0,67267dfd85c77d871ecfe348,2024-11-02_15h32.53.289,WTP_SM_Choice,2022.2.1,Win32,60.24096386,,,,,,,,,,,,,,,,,,89,,,,,,,,,,0.03,2,2.2651,0,3,3,3,1,walk around downtown with my significant other,practice tap dance,0.04,0.03,3.3,0,,,,
,,61741ba984f258d5c6a1303c,6685aa9113c938e83b4f1ea0,67267dfd85c77d871ecfe348,2024-11-02_15h32.53.289,WTP_SM_Choice,2022.2.1,Win32,60.24096386,,,,,,,,,,,,,,,,,,90,,,,,,,,,,0.05,1,2.7635,0,4,4,4,1,rock climb with friends,learn languages on duolingo,0.05,0.03,8.8,0,,,,
,,61741ba984f258d5c6a1303c,6685aa9113c938e83b4f1ea0,67267dfd85c77d871ecfe348,2024-11-02_15h32.53.289,WTP_SM_Choice,2022.2.1,Win32,60.24096386,,,,,,,NAN,,NAN,2.02,3.98,,0,89,89,89,1,90,Sam,Rej,Participant_Images/61741ba984f258d5c6a1303c/61741ba984f258d5c6a1303c_Images/61741ba984f258d5c6a1303c_Image_24.jpeg,did not like,1.661473164,,,,,,,,,,,,,,,,,,,,,,
,,61741ba984f258d5c6a1303c,6685aa9113c938e83b4f1ea0,67267dfd85c77d871ecfe348,2024-11-02_15h32.53.289,WTP_SM_Choice,2022.2.1,Win32,60.24096386,,,,,space,1.8971,NAN,,NAN,2.02,3.98,,0,90,90,90,1,91,Sam,Rej,Participant_Images/61741ba984f258d5c6a1303c/61741ba984f258d5c6a1303c_Images/61741ba984f258d5c6a1303c_Image_4.jpeg,did not like,3.613205605,,,,,,,,,,,,,,,,,,,,,,
,,61741ba984f258d5c6a1303c,6685aa9113c938e83b4f1ea0,67267dfd85c77d871ecfe348,2024-11-02_15h32.53.289,WTP_SM_Choice,2022.2.1,Win32,60.24096386,,,,,space,1.6188,NAN,,NAN,2.02,3.98,,0,91,91,91,1,92,Sam,Rej,Participant_Images/61741ba984f258d5c6a1303c/61741ba984f258d5c6a1303c_Images/61741ba984f258d5c6a1303c_Image_13.jpeg,did not like,4.988446431,,,,,,,,,,,,,,,,,,,,,,
,,61741ba984f258d5c6a1303c,6685aa9113c938e83b4f1ea0,67267dfd85c77d871ecfe348,2024-11-02_15h32.53.289,WTP_SM_Choice,2022.2.1,Win32,60.24096386,,,,,space,1.6999,NAN,,NAN,2.02,3.98,,0,92,92,92,1,93,Sam,Rej,Participant_Images/61741ba984f258d5c6a1303c/61741ba984f258d5c6a1303c_Images/61741ba984f258d5c6a1303c_Image_12.jpeg,did not like,3.470791822,,,,,,,,,,,,,,,,,,,,,,
,,61741ba984f258d5c6a1303c,6685aa9113c938e83b4f1ea0,67267dfd85c77d871ecfe348,2024-11-02_15h32.53.289,WTP_SM_Choice,2022.2.1,Win32,60.24096386,,,,,space,2.0383,NAN,,NAN,2.02,3.98,,0,93,93,93,1,94,Sam,Rej,Participant_Images/61741ba984f258d5c6a1303c/61741ba984f258d5c6a1303c_Images/61741ba984f258d5c6a1303c_Image_1.jpeg,liked,3.820572462,,,,,,,,,,,,,,,,,,,,,,
,,61741ba984f258d5c6a1303c,6685aa9113c938e83b4f1ea0,67267dfd85c77d871ecfe348,2024-11-02_15h32.53.289,WTP_SM_Choice,2022.2.1,Win32,60.24096386,,,,,,,,,,,,,,,,,,91,,,,,,space,1.7758,space,1.3987,0.01,1,2.0463,0,0,0,0,1,chop up vegetables,go out dancing with my significant other,0.01,0.04,3.3,1,,,,
,,61741ba984f258d5c6a1303c,6685aa9113c938e83b4f1ea0,67267dfd85c77d871ecfe348,2024-11-02_15h32.53.289,WTP_SM_Choice,2022.2.1,Win32,60.24096386,,,,,,,,,,,,,,,,,,92,,,,,,,,,,0.02,1,2.1016,0,1,1,1,1,go out dancing with my significant other,juggle with my hands,0.02,0.04,8.8,0,,,,
,,61741ba984f258d5c6a1303c,6685aa9113c938e83b4f1ea0,67267dfd85c77d871ecfe348,2024-11-02_15h32.53.289,WTP_SM_Choice,2022.2.1,Win32,60.24096386,,,,,,,,,,,,,,,,,,93,,,,,,,,,,0.03,1,2.3101,0,2,2,2,1,rock climb with friends,sit on a hammock outside,0.03,0.04,1.1,0,,,,
,,61741ba984f258d5c6a1303c,6685aa9113c938e83b4f1ea0,67267dfd85c77d871ecfe348,2024-11-02_15h32.53.289,WTP_SM_Choice,2022.2.1,Win32,60.24096386,,,,,,,,,,,,,,,,,,94,,,,,,,,,,0.04,1,2.781,0,3,3,3,1,journal about the day,practice other languages with friends,0.04,0.04,4.4,1,,,,
,,61741ba984f258d5c6a1303c,6685aa9113c938e83b4f1ea0,67267dfd85c77d871ecfe348,2024-11-02_15h32.53.289,WTP_SM_Choice,2022.2.1,Win32,60.24096386,,,,,,,,,,,,,,,,,,95,,,,,,,,,,,,,0,4,4,4,1,ice skate with friends,walk around a body of water,0.05,0.04,4.4,0,,,,
,,61741ba984f258d5c6a1303c,6685aa9113c938e83b4f1ea0,67267dfd85c77d871ecfe348,2024-11-02_15h32.53.289,WTP_SM_Choice,2022.2.1,Win32,60.24096386,,,,,,,NAN,,NAN,2.12,3.88,,0,94,94,94,1,95,Sam,Rej,Participant_Images/61741ba984f258d5c6a1303c/61741ba984f258d5c6a1303c_Images/61741ba984f258d5c6a1303c_Image_14.jpeg,did not like,2.455989137,,,,,,,,,,,,,,,,,,,,,,
,,61741ba984f258d5c6a1303c,6685aa9113c938e83b4f1ea0,67267dfd85c77d871ecfe348,2024-11-02_15h32.53.289,WTP_SM_Choice,2022.2.1,Win32,60.24096386,,,,,space,5.8665,NAN,,NAN,2.12,3.88,,0,95,95,95,1,96,Sam,Rej,Participant_Images/61741ba984f258d5c6a1303c/61741ba984f258d5c6a1303c_Images/61741ba984f258d5c6a1303c_Image_17.jpeg,did not like,3.79605092,,,,,,,,,,,,,,,,,,,,,,
,,61741ba984f258d5c6a1303c,6685aa9113c938e83b4f1ea0,67267dfd85c77d871ecfe348,2024-11-02_15h32.53.289,WTP_SM_Choice,2022.2.1,Win32,60.24096386,,,,,space,2.9137,NAN,,NAN,2.12,3.88,,0,96,96,96,1,97,Sam,Rej,Participant_Images/61741ba984f258d5c6a1303c/61741ba984f258d5c6a1303c_Images/61741ba984f258d5c6a1303c_Image_11.jpeg,did not like,3.562416326,,,,,,,,,,,,,,,,,,,,,,
,,61741ba984f258d5c6a1303c,6685aa9113c938e83b4f1ea0,67267dfd85c77d871ecfe348,2024-11-02_15h32.53.289,WTP_SM_Choice,2022.2.1,Win32,60.24096386,,,,,space,5.885,NAN,,NAN,2.12,3.88,,0,97,97,97,1,98,Sam,Rej,Participant_Images/61741ba984f258d5c6a1303c/61741ba984f258d5c6a1303c_Images/61741ba984f258d5c6a1303c_Image_15.jpeg,did not like,2.843822497,,,,,,,,,,,,,,,,,,,,,,
,,61741ba984f258d5c6a1303c,6685aa9113c938e83b4f1ea0,67267dfd85c77d871ecfe348,2024-11-02_15h32.53.289,WTP_SM_Choice,2022.2.1,Win32,60.24096386,,,,,space,4.5635,NAN,,NAN,2.12,3.88,,0,98,98,98,1,99,Sam,Rej,Participant_Images/61741ba984f258d5c6a1303c/61741ba984f258d5c6a1303c_Images/61741ba984f258d5c6a1303c_Image_25.jpeg,did not like,3.546495948,,,,,,,,,,,,,,,,,,,,,,
,,61741ba984f258d5c6a1303c,6685aa9113c938e83b4f1ea0,67267dfd85c77d871ecfe348,2024-11-02_15h32.53.289,WTP_SM_Choice,2022.2.1,Win32,60.24096386,,,,,,,,,,,,,,,,,,96,,,,,,space,4.73,space,0.7352,0.01,1,2.1537,0,0,0,0,1,forage for fruits vegetables and mushrooms,rock climb with friends,0.01,0.05,3.3,1,,,,
,,61741ba984f258d5c6a1303c,6685aa9113c938e83b4f1ea0,67267dfd85c77d871ecfe348,2024-11-02_15h32.53.289,WTP_SM_Choice,2022.2.1,Win32,60.24096386,,,,,,,,,,,,,,,,,,97,,,,,,,,,,0.02,1,4.2828,0,1,1,1,1,go out dancing with my significant other,sit on a hammock outside,0.02,0.05,1.1,0,,,,
,,61741ba984f258d5c6a1303c,6685aa9113c938e83b4f1ea0,67267dfd85c77d871ecfe348,2024-11-02_15h32.53.289,WTP_SM_Choice,2022.2.1,Win32,60.24096386,,,,,,,,,,,,,,,,,,98,,,,,,,,,,0.03,1,2.639,0,2,2,2,1,sit on a hammock outside,ice skate with friends,0.03,0.05,1.1,1,,,,
,,61741ba984f258d5c6a1303c,6685aa9113c938e83b4f1ea0,67267dfd85c77d871ecfe348,2024-11-02_15h32.53.289,WTP_SM_Choice,2022.2.1,Win32,60.24096386,,,,,,,,,,,,,,,,,,99,,,,,,,,,,0.04,1,3.1094,0,3,3,3,1,forage for fruits vegetables and mushrooms,go out dancing with my significant other,0.04,0.05,3.3,1,,,,
,,61741ba984f258d5c6a1303c,6685aa9113c938e83b4f1ea0,67267dfd85c77d871ecfe348,2024-11-02_15h32.53.289,WTP_SM_Choice,2022.2.1,Win32,60.24096386,,,,,,,,,,,,,,,,,,100,,,,,,,,,,0.05,1,3.4315,0,4,4,4,1,play the drums,complete yardwork with family members,0.05,0.05,4.4,1,,,,
,,61741ba984f258d5c6a1303c,6685aa9113c938e83b4f1ea0,67267dfd85c77d871ecfe348,2024-11-02_15h32.53.289,WTP_SM_Choice,2022.2.1,Win32,60.24096386,,,,,,,4,,7,2.27,3.73,,0,99,99,99,1,100,Sam,Rej,Participant_Images/61741ba984f258d5c6a1303c/61741ba984f258d5c6a1303c_Images/61741ba984f258d5c6a1303c_Image_22.jpeg,liked,1.672012706,,,,,,,,,,,,,,,,,,,space,1.4091,,
,,61741ba984f258d5c6a1303c,6685aa9113c938e83b4f1ea0,67267dfd85c77d871ecfe348,2024-11-02_15h32.53.289,WTP_SM_Choice,2022.2.1,Win32,60.24096386,,,,,,,,,,,,,,,,,,,,,,,,,,,,,,,,,,,,,,,,,,,,space,2.32
