endwelcomescreen_keys.keys,endwelcomescreen_keys.rt,participant,STUDY_ID,SESSION_ID,date,expName,psychopyVersion,OS,frameRate,endinstructionscreen_keys.keys,endinstructionscreen_keys.rt,endpartnermatch_keys.keys,endpartnermatch_keys.rt,sharenextphoto_key.keys,sharenextphoto_key.rt,salience_rating,key_resp.keys,stress_level,subtract_bonus,TOTAL_TASK_BONUS,stresslevel_keypress.keys,entiretaskloop.thisRepN,entiretaskloop.thisTrialN,entiretaskloop.thisN,entiretaskloop.thisIndex,entiretaskloop.ran,TrialNumber,Partner,Condition,Photos,Feedback,FeedbackWait,WTP_ins_keys1.keys,WTP_ins_keys1.rt,WTP_ins_keys2.keys,WTP_ins_keys2.rt,decision_price,responses.keys,responses.rt,WTPTaskLoop.thisRepN,WTPTaskLoop.thisTrialN,WTPTaskLoop.thisN,WTPTaskLoop.thisIndex,WTPTaskLoop.ran,right,left,leftmoney,rightmoney,WTP_ITI,social_left,Resume_keys.keys,Resume_keys.rt,end_screen_keys.keys,end_screen_keys.rt
space,3.3708,62865af5a1e349260f58cdf7,6685aa9113c938e83b4f1ea0,6700427b9ba5a0f5593693c1,2024-10-04_14h32.05.270,WTP_SM_Choice,2022.2.1,MacIntel,58.82352941,,,,,,,,,,,,,,,,,,,,,,,,,,,,,,,,,,,,,,,,,,,,,
,,62865af5a1e349260f58cdf7,6685aa9113c938e83b4f1ea0,6700427b9ba5a0f5593693c1,2024-10-04_14h32.05.270,WTP_SM_Choice,2022.2.1,MacIntel,58.82352941,space,13.2924,,,,,,,,,,,,,,,,,,,,,,,,,,,,,,,,,,,,,,,,,,,
,,62865af5a1e349260f58cdf7,6685aa9113c938e83b4f1ea0,6700427b9ba5a0f5593693c1,2024-10-04_14h32.05.270,WTP_SM_Choice,2022.2.1,MacIntel,58.82352941,,,space,3.4372,space,3.0248,NAN,,NAN,0,6,,0,0,0,0,1,1,Riley,Acc,Participant_Images/62865af5a1e349260f58cdf7/62865af5a1e349260f58cdf7_Images/62865af5a1e349260f58cdf7_Image_20.jpeg,liked,3.613205605,,,,,,,,,,,,,,,,,,,,,,
,,62865af5a1e349260f58cdf7,6685aa9113c938e83b4f1ea0,6700427b9ba5a0f5593693c1,2024-10-04_14h32.05.270,WTP_SM_Choice,2022.2.1,MacIntel,58.82352941,,,,,space,0.6589,NAN,,NAN,0,6,,0,1,1,1,1,2,Riley,Acc,Participant_Images/62865af5a1e349260f58cdf7/62865af5a1e349260f58cdf7_Images/62865af5a1e349260f58cdf7_Image_21.jpeg,liked,4.988446431,,,,,,,,,,,,,,,,,,,,,,
,,62865af5a1e349260f58cdf7,6685aa9113c938e83b4f1ea0,6700427b9ba5a0f5593693c1,2024-10-04_14h32.05.270,WTP_SM_Choice,2022.2.1,MacIntel,58.82352941,,,,,space,3.9089,NAN,,NAN,0,6,,0,2,2,2,1,3,Riley,Acc,Participant_Images/62865af5a1e349260f58cdf7/62865af5a1e349260f58cdf7_Images/62865af5a1e349260f58cdf7_Image_13.jpeg,liked,3.470791822,,,,,,,,,,,,,,,,,,,,,,
,,62865af5a1e349260f58cdf7,6685aa9113c938e83b4f1ea0,6700427b9ba5a0f5593693c1,2024-10-04_14h32.05.270,WTP_SM_Choice,2022.2.1,MacIntel,58.82352941,,,,,space,2.3635,NAN,,NAN,0,6,,0,3,3,3,1,4,Riley,Acc,Participant_Images/62865af5a1e349260f58cdf7/62865af5a1e349260f58cdf7_Images/62865af5a1e349260f58cdf7_Image_11.jpeg,liked,3.820572462,,,,,,,,,,,,,,,,,,,,,,
,,62865af5a1e349260f58cdf7,6685aa9113c938e83b4f1ea0,6700427b9ba5a0f5593693c1,2024-10-04_14h32.05.270,WTP_SM_Choice,2022.2.1,MacIntel,58.82352941,,,,,,,,,,,,,,,,,,1,,,,,,space,15.3599,space,5.7713,0.01,2,9.746,0,0,0,0,1,Go to a new coffee shop and chitchatting about everything,Peruse google maps and exploring random places via street view,0.01,0.01,4.4,0,,,,
,,62865af5a1e349260f58cdf7,6685aa9113c938e83b4f1ea0,6700427b9ba5a0f5593693c1,2024-10-04_14h32.05.270,WTP_SM_Choice,2022.2.1,MacIntel,58.82352941,,,,,,,,,,,,,,,,,,2,,,,,,,,,,0.01,2,2.3698,0,1,1,1,1,Take spontaneous trips with my brother,Read a book on my couch on a rainy day,0.02,0.01,8.8,0,,,,
,,62865af5a1e349260f58cdf7,6685aa9113c938e83b4f1ea0,6700427b9ba5a0f5593693c1,2024-10-04_14h32.05.270,WTP_SM_Choice,2022.2.1,MacIntel,58.82352941,,,,,,,,,,,,,,,,,,3,,,,,,,,,,0.03,1,3.1901,0,2,2,2,1,Go to a new coffee shop and chitchatting about everything,Go to a new coffee shop and reading a book,0.03,0.01,3.3,0,,,,
,,62865af5a1e349260f58cdf7,6685aa9113c938e83b4f1ea0,6700427b9ba5a0f5593693c1,2024-10-04_14h32.05.270,WTP_SM_Choice,2022.2.1,MacIntel,58.82352941,,,,,,,,,,,,,,,,,,4,,,,,,,,,,0.01,2,2.8016,0,3,3,3,1,Go out and trying a new vegetarian restaurant with friends,Teach myself graphic design and learning new techniques in my free time,0.04,0.01,1.1,0,,,,
,,62865af5a1e349260f58cdf7,6685aa9113c938e83b4f1ea0,6700427b9ba5a0f5593693c1,2024-10-04_14h32.05.270,WTP_SM_Choice,2022.2.1,MacIntel,58.82352941,,,,,,,,,,,,,,,,,,5,,,,,,,,,,0.01,2,2.8687,0,4,4,4,1,Study at the library,Go to the gym and exercising for a bit,0.05,0.01,1.1,0,,,,
,,62865af5a1e349260f58cdf7,6685aa9113c938e83b4f1ea0,6700427b9ba5a0f5593693c1,2024-10-04_14h32.05.270,WTP_SM_Choice,2022.2.1,MacIntel,58.82352941,,,,,,,NAN,,NAN,0.07,5.93,,0,4,4,4,1,5,Riley,Acc,Participant_Images/62865af5a1e349260f58cdf7/62865af5a1e349260f58cdf7_Images/62865af5a1e349260f58cdf7_Image_18.jpeg,did not like,2.455989137,,,,,,,,,,,,,,,,,,,,,,
,,62865af5a1e349260f58cdf7,6685aa9113c938e83b4f1ea0,6700427b9ba5a0f5593693c1,2024-10-04_14h32.05.270,WTP_SM_Choice,2022.2.1,MacIntel,58.82352941,,,,,space,0.89,NAN,,NAN,0.07,5.93,,0,5,5,5,1,6,Riley,Acc,Participant_Images/62865af5a1e349260f58cdf7/62865af5a1e349260f58cdf7_Images/62865af5a1e349260f58cdf7_Image_6.jpeg,liked,3.79605092,,,,,,,,,,,,,,,,,,,,,,
,,62865af5a1e349260f58cdf7,6685aa9113c938e83b4f1ea0,6700427b9ba5a0f5593693c1,2024-10-04_14h32.05.270,WTP_SM_Choice,2022.2.1,MacIntel,58.82352941,,,,,space,0.8765,NAN,,NAN,0.07,5.93,,0,6,6,6,1,7,Riley,Acc,Participant_Images/62865af5a1e349260f58cdf7/62865af5a1e349260f58cdf7_Images/62865af5a1e349260f58cdf7_Image_14.jpeg,liked,3.562416326,,,,,,,,,,,,,,,,,,,,,,
,,62865af5a1e349260f58cdf7,6685aa9113c938e83b4f1ea0,6700427b9ba5a0f5593693c1,2024-10-04_14h32.05.270,WTP_SM_Choice,2022.2.1,MacIntel,58.82352941,,,,,space,1.1414,NAN,,NAN,0.07,5.93,,0,7,7,7,1,8,Riley,Acc,Participant_Images/62865af5a1e349260f58cdf7/62865af5a1e349260f58cdf7_Images/62865af5a1e349260f58cdf7_Image_10.jpeg,liked,2.843822497,,,,,,,,,,,,,,,,,,,,,,
,,62865af5a1e349260f58cdf7,6685aa9113c938e83b4f1ea0,6700427b9ba5a0f5593693c1,2024-10-04_14h32.05.270,WTP_SM_Choice,2022.2.1,MacIntel,58.82352941,,,,,space,0.904,NAN,,NAN,0.07,5.93,,0,8,8,8,1,9,Riley,Acc,Participant_Images/62865af5a1e349260f58cdf7/62865af5a1e349260f58cdf7_Images/62865af5a1e349260f58cdf7_Image_1.jpeg,did not like,3.546495948,,,,,,,,,,,,,,,,,,,,,,
,,62865af5a1e349260f58cdf7,6685aa9113c938e83b4f1ea0,6700427b9ba5a0f5593693c1,2024-10-04_14h32.05.270,WTP_SM_Choice,2022.2.1,MacIntel,58.82352941,,,,,,,,,,,,,,,,,,6,,,,,,space,2.12,space,1.8026,0.01,1,3.4361,0,0,0,0,1,Scroll through tik tok when I'm supposed to be asleep,Go on road trips with friends,0.01,0.02,3.3,1,,,,
,,62865af5a1e349260f58cdf7,6685aa9113c938e83b4f1ea0,6700427b9ba5a0f5593693c1,2024-10-04_14h32.05.270,WTP_SM_Choice,2022.2.1,MacIntel,58.82352941,,,,,,,,,,,,,,,,,,7,,,,,,,,,,0.02,1,2.9946,0,1,1,1,1,Watch sports with my family,Take long showers when I need a mental pick me up,0.02,0.02,1.1,0,,,,
,,62865af5a1e349260f58cdf7,6685aa9113c938e83b4f1ea0,6700427b9ba5a0f5593693c1,2024-10-04_14h32.05.270,WTP_SM_Choice,2022.2.1,MacIntel,58.82352941,,,,,,,,,,,,,,,,,,8,,,,,,,,,,0.02,2,3.4698,0,2,2,2,1,Go out and trying a new vegetarian restaurant with friends,Watch sports and learning old sports lore,0.03,0.02,1.1,0,,,,
,,62865af5a1e349260f58cdf7,6685aa9113c938e83b4f1ea0,6700427b9ba5a0f5593693c1,2024-10-04_14h32.05.270,WTP_SM_Choice,2022.2.1,MacIntel,58.82352941,,,,,,,,,,,,,,,,,,9,,,,,,,,,,0.02,2,1.9018,0,3,3,3,1,Peruse google maps and exploring random places via street view,Take spontaneous trips with my brother,0.04,0.02,4.4,1,,,,
,,62865af5a1e349260f58cdf7,6685aa9113c938e83b4f1ea0,6700427b9ba5a0f5593693c1,2024-10-04_14h32.05.270,WTP_SM_Choice,2022.2.1,MacIntel,58.82352941,,,,,,,,,,,,,,,,,,10,,,,,,,,,,0.02,2,2.04,0,4,4,4,1,Read a book on my couch on a rainy day,Go on road trips with friends,0.05,0.02,1.1,1,,,,
,,62865af5a1e349260f58cdf7,6685aa9113c938e83b4f1ea0,6700427b9ba5a0f5593693c1,2024-10-04_14h32.05.270,WTP_SM_Choice,2022.2.1,MacIntel,58.82352941,,,,,,,NAN,,NAN,0.16,5.84,,0,9,9,9,1,10,Riley,Acc,Participant_Images/62865af5a1e349260f58cdf7/62865af5a1e349260f58cdf7_Images/62865af5a1e349260f58cdf7_Image_2.jpeg,did not like,1.672012706,,,,,,,,,,,,,,,,,,,,,,
,,62865af5a1e349260f58cdf7,6685aa9113c938e83b4f1ea0,6700427b9ba5a0f5593693c1,2024-10-04_14h32.05.270,WTP_SM_Choice,2022.2.1,MacIntel,58.82352941,,,,,space,1.2584,NAN,,NAN,0.16,5.84,,0,10,10,10,1,11,Riley,Acc,Participant_Images/62865af5a1e349260f58cdf7/62865af5a1e349260f58cdf7_Images/62865af5a1e349260f58cdf7_Image_8.jpeg,liked,4.942172136,,,,,,,,,,,,,,,,,,,,,,
,,62865af5a1e349260f58cdf7,6685aa9113c938e83b4f1ea0,6700427b9ba5a0f5593693c1,2024-10-04_14h32.05.270,WTP_SM_Choice,2022.2.1,MacIntel,58.82352941,,,,,space,0.8367,NAN,,NAN,0.16,5.84,,0,11,11,11,1,12,Riley,Acc,Participant_Images/62865af5a1e349260f58cdf7/62865af5a1e349260f58cdf7_Images/62865af5a1e349260f58cdf7_Image_16.jpeg,did not like,2.50187214,,,,,,,,,,,,,,,,,,,,,,
,,62865af5a1e349260f58cdf7,6685aa9113c938e83b4f1ea0,6700427b9ba5a0f5593693c1,2024-10-04_14h32.05.270,WTP_SM_Choice,2022.2.1,MacIntel,58.82352941,,,,,space,0.9096,NAN,,NAN,0.16,5.84,,0,12,12,12,1,13,Riley,Acc,Participant_Images/62865af5a1e349260f58cdf7/62865af5a1e349260f58cdf7_Images/62865af5a1e349260f58cdf7_Image_22.jpeg,liked,2.071164779,,,,,,,,,,,,,,,,,,,,,,
,,62865af5a1e349260f58cdf7,6685aa9113c938e83b4f1ea0,6700427b9ba5a0f5593693c1,2024-10-04_14h32.05.270,WTP_SM_Choice,2022.2.1,MacIntel,58.82352941,,,,,space,0.757,NAN,,NAN,0.16,5.84,,0,13,13,13,1,14,Riley,Acc,Participant_Images/62865af5a1e349260f58cdf7/62865af5a1e349260f58cdf7_Images/62865af5a1e349260f58cdf7_Image_4.jpeg,liked,5.336503566,,,,,,,,,,,,,,,,,,,,,,
,,62865af5a1e349260f58cdf7,6685aa9113c938e83b4f1ea0,6700427b9ba5a0f5593693c1,2024-10-04_14h32.05.270,WTP_SM_Choice,2022.2.1,MacIntel,58.82352941,,,,,,,,,,,,,,,,,,11,,,,,,space,1.0013,space,3.2414,0.01,1,2.541,0,0,0,0,1,Read a book on my couch on a rainy day,Talk to my grandmother,0.01,0.03,3.3,1,,,,
,,62865af5a1e349260f58cdf7,6685aa9113c938e83b4f1ea0,6700427b9ba5a0f5593693c1,2024-10-04_14h32.05.270,WTP_SM_Choice,2022.2.1,MacIntel,58.82352941,,,,,,,,,,,,,,,,,,12,,,,,,,,,,0.03,2,1.9032,0,1,1,1,1,Talk to my grandmother,Teach myself graphic design and learning new techniques in my free time,0.02,0.03,4.4,0,,,,
,,62865af5a1e349260f58cdf7,6685aa9113c938e83b4f1ea0,6700427b9ba5a0f5593693c1,2024-10-04_14h32.05.270,WTP_SM_Choice,2022.2.1,MacIntel,58.82352941,,,,,,,,,,,,,,,,,,13,,,,,,,,,,0.03,1,1.6205,0,2,2,2,1,Go to the gym and exercising for a bit,Go to my temple every week,0.03,0.03,1.1,1,,,,
,,62865af5a1e349260f58cdf7,6685aa9113c938e83b4f1ea0,6700427b9ba5a0f5593693c1,2024-10-04_14h32.05.270,WTP_SM_Choice,2022.2.1,MacIntel,58.82352941,,,,,,,,,,,,,,,,,,14,,,,,,,,,,0.03,2,1.9393,0,3,3,3,1,Go to the gym and exercising for a bit,Talk to my grandmother,0.04,0.03,3.3,1,,,,
,,62865af5a1e349260f58cdf7,6685aa9113c938e83b4f1ea0,6700427b9ba5a0f5593693c1,2024-10-04_14h32.05.270,WTP_SM_Choice,2022.2.1,MacIntel,58.82352941,,,,,,,,,,,,,,,,,,15,,,,,,,,,,0.03,2,1.6234,0,4,4,4,1,Read a book on my couch on a rainy day,Go out and trying a new vegetarian restaurant with friends,0.05,0.03,4.4,1,,,,
,,62865af5a1e349260f58cdf7,6685aa9113c938e83b4f1ea0,6700427b9ba5a0f5593693c1,2024-10-04_14h32.05.270,WTP_SM_Choice,2022.2.1,MacIntel,58.82352941,,,,,,,NAN,,NAN,0.29,5.71,,0,14,14,14,1,15,Riley,Acc,Participant_Images/62865af5a1e349260f58cdf7/62865af5a1e349260f58cdf7_Images/62865af5a1e349260f58cdf7_Image_3.jpeg,liked,2.642157193,,,,,,,,,,,,,,,,,,,,,,
,,62865af5a1e349260f58cdf7,6685aa9113c938e83b4f1ea0,6700427b9ba5a0f5593693c1,2024-10-04_14h32.05.270,WTP_SM_Choice,2022.2.1,MacIntel,58.82352941,,,,,space,1.0196,NAN,,NAN,0.29,5.71,,0,15,15,15,1,16,Riley,Acc,Participant_Images/62865af5a1e349260f58cdf7/62865af5a1e349260f58cdf7_Images/62865af5a1e349260f58cdf7_Image_5.jpeg,did not like,4.456234322,,,,,,,,,,,,,,,,,,,,,,
,,62865af5a1e349260f58cdf7,6685aa9113c938e83b4f1ea0,6700427b9ba5a0f5593693c1,2024-10-04_14h32.05.270,WTP_SM_Choice,2022.2.1,MacIntel,58.82352941,,,,,space,3.3062,NAN,,NAN,0.29,5.71,,0,16,16,16,1,17,Riley,Acc,Participant_Images/62865af5a1e349260f58cdf7/62865af5a1e349260f58cdf7_Images/62865af5a1e349260f58cdf7_Image_23.jpeg,liked,4.438512181,,,,,,,,,,,,,,,,,,,,,,
,,62865af5a1e349260f58cdf7,6685aa9113c938e83b4f1ea0,6700427b9ba5a0f5593693c1,2024-10-04_14h32.05.270,WTP_SM_Choice,2022.2.1,MacIntel,58.82352941,,,,,space,1.0933,NAN,,NAN,0.29,5.71,,0,17,17,17,1,18,Riley,Acc,Participant_Images/62865af5a1e349260f58cdf7/62865af5a1e349260f58cdf7_Images/62865af5a1e349260f58cdf7_Image_24.jpeg,liked,2.682944783,,,,,,,,,,,,,,,,,,,,,,
,,62865af5a1e349260f58cdf7,6685aa9113c938e83b4f1ea0,6700427b9ba5a0f5593693c1,2024-10-04_14h32.05.270,WTP_SM_Choice,2022.2.1,MacIntel,58.82352941,,,,,space,1.0861,NAN,,NAN,0.29,5.71,,0,18,18,18,1,19,Riley,Acc,Participant_Images/62865af5a1e349260f58cdf7/62865af5a1e349260f58cdf7_Images/62865af5a1e349260f58cdf7_Image_12.jpeg,did not like,4.51984296,,,,,,,,,,,,,,,,,,,,,,
,,62865af5a1e349260f58cdf7,6685aa9113c938e83b4f1ea0,6700427b9ba5a0f5593693c1,2024-10-04_14h32.05.270,WTP_SM_Choice,2022.2.1,MacIntel,58.82352941,,,,,,,,,,,,,,,,,,16,,,,,,space,1.2716,space,1.3746,0.01,1,1.6869,0,0,0,0,1,Watch sports with my family,Go to a new coffee shop and reading a book,0.01,0.04,1.1,0,,,,
,,62865af5a1e349260f58cdf7,6685aa9113c938e83b4f1ea0,6700427b9ba5a0f5593693c1,2024-10-04_14h32.05.270,WTP_SM_Choice,2022.2.1,MacIntel,58.82352941,,,,,,,,,,,,,,,,,,17,,,,,,,,,,0.02,1,2.755,0,1,1,1,1,Watch old episodes of law and order at night,Go to a new coffee shop and chitchatting about everything,0.02,0.04,8.8,1,,,,
,,62865af5a1e349260f58cdf7,6685aa9113c938e83b4f1ea0,6700427b9ba5a0f5593693c1,2024-10-04_14h32.05.270,WTP_SM_Choice,2022.2.1,MacIntel,58.82352941,,,,,,,,,,,,,,,,,,18,,,,,,,,,,0.04,2,2.8294,0,2,2,2,1,Go to my temple every week,Read a book on my couch on a rainy day,0.03,0.04,3.3,0,,,,
,,62865af5a1e349260f58cdf7,6685aa9113c938e83b4f1ea0,6700427b9ba5a0f5593693c1,2024-10-04_14h32.05.270,WTP_SM_Choice,2022.2.1,MacIntel,58.82352941,,,,,,,,,,,,,,,,,,19,,,,,,,,,,0.04,2,1.9434,0,3,3,3,1,Go out and trying a new vegetarian restaurant with friends,Watch old episodes of law and order at night,0.04,0.04,3.3,0,,,,
,,62865af5a1e349260f58cdf7,6685aa9113c938e83b4f1ea0,6700427b9ba5a0f5593693c1,2024-10-04_14h32.05.270,WTP_SM_Choice,2022.2.1,MacIntel,58.82352941,,,,,,,,,,,,,,,,,,20,,,,,,,,,,0.04,2,2.2272,0,4,4,4,1,Talk to my grandmother,Peruse google maps and exploring random places via street view,0.05,0.04,1.1,0,,,,
,,62865af5a1e349260f58cdf7,6685aa9113c938e83b4f1ea0,6700427b9ba5a0f5593693c1,2024-10-04_14h32.05.270,WTP_SM_Choice,2022.2.1,MacIntel,58.82352941,,,,,,,NAN,,NAN,0.44,5.56,,0,19,19,19,1,20,Riley,Acc,Participant_Images/62865af5a1e349260f58cdf7/62865af5a1e349260f58cdf7_Images/62865af5a1e349260f58cdf7_Image_7.jpeg,liked,3.195382774,,,,,,,,,,,,,,,,,,,,,,
,,62865af5a1e349260f58cdf7,6685aa9113c938e83b4f1ea0,6700427b9ba5a0f5593693c1,2024-10-04_14h32.05.270,WTP_SM_Choice,2022.2.1,MacIntel,58.82352941,,,,,space,1.6911,NAN,,NAN,0.44,5.56,,0,20,20,20,1,21,Riley,Acc,Participant_Images/62865af5a1e349260f58cdf7/62865af5a1e349260f58cdf7_Images/62865af5a1e349260f58cdf7_Image_9.jpeg,liked,1.779333479,,,,,,,,,,,,,,,,,,,,,,
,,62865af5a1e349260f58cdf7,6685aa9113c938e83b4f1ea0,6700427b9ba5a0f5593693c1,2024-10-04_14h32.05.270,WTP_SM_Choice,2022.2.1,MacIntel,58.82352941,,,,,space,0.9874,NAN,,NAN,0.44,5.56,,0,21,21,21,1,22,Riley,Acc,Participant_Images/62865af5a1e349260f58cdf7/62865af5a1e349260f58cdf7_Images/62865af5a1e349260f58cdf7_Image_15.jpeg,liked,4.312468682,,,,,,,,,,,,,,,,,,,,,,
,,62865af5a1e349260f58cdf7,6685aa9113c938e83b4f1ea0,6700427b9ba5a0f5593693c1,2024-10-04_14h32.05.270,WTP_SM_Choice,2022.2.1,MacIntel,58.82352941,,,,,space,0.6193,NAN,,NAN,0.44,5.56,,0,22,22,22,1,23,Riley,Acc,Participant_Images/62865af5a1e349260f58cdf7/62865af5a1e349260f58cdf7_Images/62865af5a1e349260f58cdf7_Image_25.jpeg,liked,4.940433059,,,,,,,,,,,,,,,,,,,,,,
,,62865af5a1e349260f58cdf7,6685aa9113c938e83b4f1ea0,6700427b9ba5a0f5593693c1,2024-10-04_14h32.05.270,WTP_SM_Choice,2022.2.1,MacIntel,58.82352941,,,,,space,0.8689,NAN,,NAN,0.44,5.56,,0,23,23,23,1,24,Riley,Acc,Participant_Images/62865af5a1e349260f58cdf7/62865af5a1e349260f58cdf7_Images/62865af5a1e349260f58cdf7_Image_17.jpeg,liked,2.7105123,,,,,,,,,,,,,,,,,,,,,,
,,62865af5a1e349260f58cdf7,6685aa9113c938e83b4f1ea0,6700427b9ba5a0f5593693c1,2024-10-04_14h32.05.270,WTP_SM_Choice,2022.2.1,MacIntel,58.82352941,,,,,,,,,,,,,,,,,,21,,,,,,space,0.6725,space,0.4986,0.01,1,2.0692,0,0,0,0,1,Facetime calls with my best friend late at night,Watch sports and learning old sports lore,0.01,0.05,8.8,0,,,,
,,62865af5a1e349260f58cdf7,6685aa9113c938e83b4f1ea0,6700427b9ba5a0f5593693c1,2024-10-04_14h32.05.270,WTP_SM_Choice,2022.2.1,MacIntel,58.82352941,,,,,,,,,,,,,,,,,,22,,,,,,,,,,0.02,1,1.5002,0,1,1,1,1,Facetime calls with my best friend late at night,Go to the gym and exercising for a bit,0.02,0.05,4.4,0,,,,
,,62865af5a1e349260f58cdf7,6685aa9113c938e83b4f1ea0,6700427b9ba5a0f5593693c1,2024-10-04_14h32.05.270,WTP_SM_Choice,2022.2.1,MacIntel,58.82352941,,,,,,,,,,,,,,,,,,23,,,,,,,,,,0.03,1,1.9641,0,2,2,2,1,Facetime calls with my best friend late at night,Cook a nice meal and eating on the patio on a sunny day,0.03,0.05,1.1,0,,,,
,,62865af5a1e349260f58cdf7,6685aa9113c938e83b4f1ea0,6700427b9ba5a0f5593693c1,2024-10-04_14h32.05.270,WTP_SM_Choice,2022.2.1,MacIntel,58.82352941,,,,,,,,,,,,,,,,,,24,,,,,,,,,,0.04,1,1.6477,0,3,3,3,1,Go on road trips with friends,Watch sports and learning old sports lore,0.04,0.05,4.4,0,,,,
,,62865af5a1e349260f58cdf7,6685aa9113c938e83b4f1ea0,6700427b9ba5a0f5593693c1,2024-10-04_14h32.05.270,WTP_SM_Choice,2022.2.1,MacIntel,58.82352941,,,,,,,,,,,,,,,,,,25,,,,,,,,,,0.05,2,3.0754,0,4,4,4,1,Scroll through tik tok when I'm supposed to be asleep,Go out and trying a new vegetarian restaurant with friends,0.05,0.05,3.3,1,,,,
,,62865af5a1e349260f58cdf7,6685aa9113c938e83b4f1ea0,6700427b9ba5a0f5593693c1,2024-10-04_14h32.05.270,WTP_SM_Choice,2022.2.1,MacIntel,58.82352941,,,,,,,4,,7,0.59,5.41,,0,24,24,24,1,25,Riley,Acc,Participant_Images/62865af5a1e349260f58cdf7/62865af5a1e349260f58cdf7_Images/62865af5a1e349260f58cdf7_Image_19.jpeg,did not like,3.602308302,,,,,,,,,,,,,,,,,,,space,5.1479,,
,,62865af5a1e349260f58cdf7,6685aa9113c938e83b4f1ea0,6700427b9ba5a0f5593693c1,2024-10-04_14h32.05.270,WTP_SM_Choice,2022.2.1,MacIntel,58.82352941,,,space,2.0184,space,3.2366,NAN,,NAN,0.59,5.41,,0,25,25,25,1,26,Charlie,Acc,Participant_Images/62865af5a1e349260f58cdf7/62865af5a1e349260f58cdf7_Images/62865af5a1e349260f58cdf7_Image_10.jpeg,did not like,4.106391878,,,,,,,,,,,,,,,,,,,,,,
,,62865af5a1e349260f58cdf7,6685aa9113c938e83b4f1ea0,6700427b9ba5a0f5593693c1,2024-10-04_14h32.05.270,WTP_SM_Choice,2022.2.1,MacIntel,58.82352941,,,,,space,2.1356,NAN,,NAN,0.59,5.41,,0,26,26,26,1,27,Charlie,Acc,Participant_Images/62865af5a1e349260f58cdf7/62865af5a1e349260f58cdf7_Images/62865af5a1e349260f58cdf7_Image_1.jpeg,liked,3.799433026,,,,,,,,,,,,,,,,,,,,,,
,,62865af5a1e349260f58cdf7,6685aa9113c938e83b4f1ea0,6700427b9ba5a0f5593693c1,2024-10-04_14h32.05.270,WTP_SM_Choice,2022.2.1,MacIntel,58.82352941,,,,,space,1.3052,NAN,,NAN,0.59,5.41,,0,27,27,27,1,28,Charlie,Acc,Participant_Images/62865af5a1e349260f58cdf7/62865af5a1e349260f58cdf7_Images/62865af5a1e349260f58cdf7_Image_24.jpeg,liked,5.246980764,,,,,,,,,,,,,,,,,,,,,,
,,62865af5a1e349260f58cdf7,6685aa9113c938e83b4f1ea0,6700427b9ba5a0f5593693c1,2024-10-04_14h32.05.270,WTP_SM_Choice,2022.2.1,MacIntel,58.82352941,,,,,space,1.2577,NAN,,NAN,0.59,5.41,,0,28,28,28,1,29,Charlie,Acc,Participant_Images/62865af5a1e349260f58cdf7/62865af5a1e349260f58cdf7_Images/62865af5a1e349260f58cdf7_Image_8.jpeg,did not like,3.30081769,,,,,,,,,,,,,,,,,,,,,,
,,62865af5a1e349260f58cdf7,6685aa9113c938e83b4f1ea0,6700427b9ba5a0f5593693c1,2024-10-04_14h32.05.270,WTP_SM_Choice,2022.2.1,MacIntel,58.82352941,,,,,,,,,,,,,,,,,,26,,,,,,space,2.991,space,0.6162,0.01,2,2.5155,0,0,0,0,1,Take spontaneous trips with my brother,Cook a nice meal and eating on the patio on a sunny day,0.01,0.01,4.4,0,,,,
,,62865af5a1e349260f58cdf7,6685aa9113c938e83b4f1ea0,6700427b9ba5a0f5593693c1,2024-10-04_14h32.05.270,WTP_SM_Choice,2022.2.1,MacIntel,58.82352941,,,,,,,,,,,,,,,,,,27,,,,,,,,,,0.02,1,2.2767,0,1,1,1,1,Facetime calls with my best friend late at night,Scroll through tik tok when I'm supposed to be asleep,0.02,0.01,3.3,0,,,,
,,62865af5a1e349260f58cdf7,6685aa9113c938e83b4f1ea0,6700427b9ba5a0f5593693c1,2024-10-04_14h32.05.270,WTP_SM_Choice,2022.2.1,MacIntel,58.82352941,,,,,,,,,,,,,,,,,,28,,,,,,,,,,0.01,2,1.6597,0,2,2,2,1,Go to a new coffee shop and reading a book,Go out and trying a new vegetarian restaurant with friends,0.03,0.01,3.3,1,,,,
,,62865af5a1e349260f58cdf7,6685aa9113c938e83b4f1ea0,6700427b9ba5a0f5593693c1,2024-10-04_14h32.05.270,WTP_SM_Choice,2022.2.1,MacIntel,58.82352941,,,,,,,,,,,,,,,,,,29,,,,,,,,,,0.01,2,3.6751,0,3,3,3,1,Study at the library,Take long showers when I need a mental pick me up,0.04,0.01,4.4,0,,,,
,,62865af5a1e349260f58cdf7,6685aa9113c938e83b4f1ea0,6700427b9ba5a0f5593693c1,2024-10-04_14h32.05.270,WTP_SM_Choice,2022.2.1,MacIntel,58.82352941,,,,,,,,,,,,,,,,,,30,,,,,,,,,,0.05,1,2.7215,0,4,4,4,1,Teach myself graphic design and learning new techniques in my free time,Take spontaneous trips with my brother,0.05,0.01,8.8,1,,,,
,,62865af5a1e349260f58cdf7,6685aa9113c938e83b4f1ea0,6700427b9ba5a0f5593693c1,2024-10-04_14h32.05.270,WTP_SM_Choice,2022.2.1,MacIntel,58.82352941,,,,,,,NAN,,NAN,0.69,5.31,,0,29,29,29,1,30,Charlie,Acc,Participant_Images/62865af5a1e349260f58cdf7/62865af5a1e349260f58cdf7_Images/62865af5a1e349260f58cdf7_Image_13.jpeg,liked,1.661473164,,,,,,,,,,,,,,,,,,,,,,
,,62865af5a1e349260f58cdf7,6685aa9113c938e83b4f1ea0,6700427b9ba5a0f5593693c1,2024-10-04_14h32.05.270,WTP_SM_Choice,2022.2.1,MacIntel,58.82352941,,,,,space,1.611,NAN,,NAN,0.69,5.31,,0,30,30,30,1,31,Charlie,Acc,Participant_Images/62865af5a1e349260f58cdf7/62865af5a1e349260f58cdf7_Images/62865af5a1e349260f58cdf7_Image_2.jpeg,liked,3.613205605,,,,,,,,,,,,,,,,,,,,,,
,,62865af5a1e349260f58cdf7,6685aa9113c938e83b4f1ea0,6700427b9ba5a0f5593693c1,2024-10-04_14h32.05.270,WTP_SM_Choice,2022.2.1,MacIntel,58.82352941,,,,,space,1.9056,NAN,,NAN,0.69,5.31,,0,31,31,31,1,32,Charlie,Acc,Participant_Images/62865af5a1e349260f58cdf7/62865af5a1e349260f58cdf7_Images/62865af5a1e349260f58cdf7_Image_9.jpeg,liked,4.988446431,,,,,,,,,,,,,,,,,,,,,,
,,62865af5a1e349260f58cdf7,6685aa9113c938e83b4f1ea0,6700427b9ba5a0f5593693c1,2024-10-04_14h32.05.270,WTP_SM_Choice,2022.2.1,MacIntel,58.82352941,,,,,space,3.2382,NAN,,NAN,0.69,5.31,,0,32,32,32,1,33,Charlie,Acc,Participant_Images/62865af5a1e349260f58cdf7/62865af5a1e349260f58cdf7_Images/62865af5a1e349260f58cdf7_Image_17.jpeg,did not like,3.470791822,,,,,,,,,,,,,,,,,,,,,,
,,62865af5a1e349260f58cdf7,6685aa9113c938e83b4f1ea0,6700427b9ba5a0f5593693c1,2024-10-04_14h32.05.270,WTP_SM_Choice,2022.2.1,MacIntel,58.82352941,,,,,space,1.1039,NAN,,NAN,0.69,5.31,,0,33,33,33,1,34,Charlie,Acc,Participant_Images/62865af5a1e349260f58cdf7/62865af5a1e349260f58cdf7_Images/62865af5a1e349260f58cdf7_Image_14.jpeg,liked,3.820572462,,,,,,,,,,,,,,,,,,,,,,
,,62865af5a1e349260f58cdf7,6685aa9113c938e83b4f1ea0,6700427b9ba5a0f5593693c1,2024-10-04_14h32.05.270,WTP_SM_Choice,2022.2.1,MacIntel,58.82352941,,,,,,,,,,,,,,,,,,31,,,,,,space,1.1823,space,1.0874,0.01,1,1.9184,0,0,0,0,1,Watch sports with my family,Scroll through tik tok when I'm supposed to be asleep,0.01,0.02,8.8,0,,,,
,,62865af5a1e349260f58cdf7,6685aa9113c938e83b4f1ea0,6700427b9ba5a0f5593693c1,2024-10-04_14h32.05.270,WTP_SM_Choice,2022.2.1,MacIntel,58.82352941,,,,,,,,,,,,,,,,,,32,,,,,,,,,,0.02,1,1.7575,0,1,1,1,1,Study at the library,Scroll through tik tok when I'm supposed to be asleep,0.02,0.02,1.1,0,,,,
,,62865af5a1e349260f58cdf7,6685aa9113c938e83b4f1ea0,6700427b9ba5a0f5593693c1,2024-10-04_14h32.05.270,WTP_SM_Choice,2022.2.1,MacIntel,58.82352941,,,,,,,,,,,,,,,,,,33,,,,,,,,,,0.02,2,4.8812,0,2,2,2,1,Watch old episodes of law and order at night,Sing with my family,0.03,0.02,4.4,1,,,,
,,62865af5a1e349260f58cdf7,6685aa9113c938e83b4f1ea0,6700427b9ba5a0f5593693c1,2024-10-04_14h32.05.270,WTP_SM_Choice,2022.2.1,MacIntel,58.82352941,,,,,,,,,,,,,,,,,,34,,,,,,,,,,0.04,1,4.4125,0,3,3,3,1,Teach myself graphic design and learning new techniques in my free time,Sing with my family,0.04,0.02,3.3,1,,,,
,,62865af5a1e349260f58cdf7,6685aa9113c938e83b4f1ea0,6700427b9ba5a0f5593693c1,2024-10-04_14h32.05.270,WTP_SM_Choice,2022.2.1,MacIntel,58.82352941,,,,,,,,,,,,,,,,,,35,,,,,,,,,,0.02,2,3.9214,0,4,4,4,1,Talk to my grandmother,Scroll through tik tok when I'm supposed to be asleep,0.05,0.02,1.1,0,,,,
,,62865af5a1e349260f58cdf7,6685aa9113c938e83b4f1ea0,6700427b9ba5a0f5593693c1,2024-10-04_14h32.05.270,WTP_SM_Choice,2022.2.1,MacIntel,58.82352941,,,,,,,NAN,,NAN,0.8,5.2,,0,34,34,34,1,35,Charlie,Acc,Participant_Images/62865af5a1e349260f58cdf7/62865af5a1e349260f58cdf7_Images/62865af5a1e349260f58cdf7_Image_12.jpeg,liked,2.455989137,,,,,,,,,,,,,,,,,,,,,,
,,62865af5a1e349260f58cdf7,6685aa9113c938e83b4f1ea0,6700427b9ba5a0f5593693c1,2024-10-04_14h32.05.270,WTP_SM_Choice,2022.2.1,MacIntel,58.82352941,,,,,space,14.9271,NAN,,NAN,0.8,5.2,,0,35,35,35,1,36,Charlie,Acc,Participant_Images/62865af5a1e349260f58cdf7/62865af5a1e349260f58cdf7_Images/62865af5a1e349260f58cdf7_Image_5.jpeg,liked,3.79605092,,,,,,,,,,,,,,,,,,,,,,
,,62865af5a1e349260f58cdf7,6685aa9113c938e83b4f1ea0,6700427b9ba5a0f5593693c1,2024-10-04_14h32.05.270,WTP_SM_Choice,2022.2.1,MacIntel,58.82352941,,,,,space,3.8374,NAN,,NAN,0.8,5.2,,0,36,36,36,1,37,Charlie,Acc,Participant_Images/62865af5a1e349260f58cdf7/62865af5a1e349260f58cdf7_Images/62865af5a1e349260f58cdf7_Image_6.jpeg,liked,3.562416326,,,,,,,,,,,,,,,,,,,,,,
,,62865af5a1e349260f58cdf7,6685aa9113c938e83b4f1ea0,6700427b9ba5a0f5593693c1,2024-10-04_14h32.05.270,WTP_SM_Choice,2022.2.1,MacIntel,58.82352941,,,,,space,1.136,NAN,,NAN,0.8,5.2,,0,37,37,37,1,38,Charlie,Acc,Participant_Images/62865af5a1e349260f58cdf7/62865af5a1e349260f58cdf7_Images/62865af5a1e349260f58cdf7_Image_23.jpeg,liked,2.843822497,,,,,,,,,,,,,,,,,,,,,,
,,62865af5a1e349260f58cdf7,6685aa9113c938e83b4f1ea0,6700427b9ba5a0f5593693c1,2024-10-04_14h32.05.270,WTP_SM_Choice,2022.2.1,MacIntel,58.82352941,,,,,space,0.5514,NAN,,NAN,0.8,5.2,,0,38,38,38,1,39,Charlie,Acc,Participant_Images/62865af5a1e349260f58cdf7/62865af5a1e349260f58cdf7_Images/62865af5a1e349260f58cdf7_Image_7.jpeg,did not like,3.546495948,,,,,,,,,,,,,,,,,,,,,,
,,62865af5a1e349260f58cdf7,6685aa9113c938e83b4f1ea0,6700427b9ba5a0f5593693c1,2024-10-04_14h32.05.270,WTP_SM_Choice,2022.2.1,MacIntel,58.82352941,,,,,,,,,,,,,,,,,,36,,,,,,space,0.8183,space,0.4379,0.01,1,1.6343,0,0,0,0,1,Read a book on my couch on a rainy day,Facetime calls with my best friend late at night,0.01,0.03,3.3,1,,,,
,,62865af5a1e349260f58cdf7,6685aa9113c938e83b4f1ea0,6700427b9ba5a0f5593693c1,2024-10-04_14h32.05.270,WTP_SM_Choice,2022.2.1,MacIntel,58.82352941,,,,,,,,,,,,,,,,,,37,,,,,,,,,,0.02,1,1.8051,0,1,1,1,1,Watch sports and learning old sports lore,Go to a new coffee shop and chitchatting about everything,0.02,0.03,1.1,1,,,,
,,62865af5a1e349260f58cdf7,6685aa9113c938e83b4f1ea0,6700427b9ba5a0f5593693c1,2024-10-04_14h32.05.270,WTP_SM_Choice,2022.2.1,MacIntel,58.82352941,,,,,,,,,,,,,,,,,,38,,,,,,,,,,0.03,1,1.5545,0,2,2,2,1,Cook a nice meal and eating on the patio on a sunny day,Go to my temple every week,0.03,0.03,1.1,1,,,,
,,62865af5a1e349260f58cdf7,6685aa9113c938e83b4f1ea0,6700427b9ba5a0f5593693c1,2024-10-04_14h32.05.270,WTP_SM_Choice,2022.2.1,MacIntel,58.82352941,,,,,,,,,,,,,,,,,,39,,,,,,,,,,0.03,2,1.8203,0,3,3,3,1,Go to a new coffee shop and reading a book,Facetime calls with my best friend late at night,0.04,0.03,3.3,1,,,,
,,62865af5a1e349260f58cdf7,6685aa9113c938e83b4f1ea0,6700427b9ba5a0f5593693c1,2024-10-04_14h32.05.270,WTP_SM_Choice,2022.2.1,MacIntel,58.82352941,,,,,,,,,,,,,,,,,,40,,,,,,,,,,0.03,2,2.0061,0,4,4,4,1,Go on road trips with friends,Take long showers when I need a mental pick me up,0.05,0.03,4.4,0,,,,
,,62865af5a1e349260f58cdf7,6685aa9113c938e83b4f1ea0,6700427b9ba5a0f5593693c1,2024-10-04_14h32.05.270,WTP_SM_Choice,2022.2.1,MacIntel,58.82352941,,,,,,,NAN,,NAN,0.92,5.08,,0,39,39,39,1,40,Charlie,Acc,Participant_Images/62865af5a1e349260f58cdf7/62865af5a1e349260f58cdf7_Images/62865af5a1e349260f58cdf7_Image_19.jpeg,did not like,1.672012706,,,,,,,,,,,,,,,,,,,,,,
,,62865af5a1e349260f58cdf7,6685aa9113c938e83b4f1ea0,6700427b9ba5a0f5593693c1,2024-10-04_14h32.05.270,WTP_SM_Choice,2022.2.1,MacIntel,58.82352941,,,,,space,1.5034,NAN,,NAN,0.92,5.08,,0,40,40,40,1,41,Charlie,Acc,Participant_Images/62865af5a1e349260f58cdf7/62865af5a1e349260f58cdf7_Images/62865af5a1e349260f58cdf7_Image_25.jpeg,liked,4.942172136,,,,,,,,,,,,,,,,,,,,,,
,,62865af5a1e349260f58cdf7,6685aa9113c938e83b4f1ea0,6700427b9ba5a0f5593693c1,2024-10-04_14h32.05.270,WTP_SM_Choice,2022.2.1,MacIntel,58.82352941,,,,,space,0.9192,NAN,,NAN,0.92,5.08,,0,41,41,41,1,42,Charlie,Acc,Participant_Images/62865af5a1e349260f58cdf7/62865af5a1e349260f58cdf7_Images/62865af5a1e349260f58cdf7_Image_11.jpeg,did not like,2.50187214,,,,,,,,,,,,,,,,,,,,,,
,,62865af5a1e349260f58cdf7,6685aa9113c938e83b4f1ea0,6700427b9ba5a0f5593693c1,2024-10-04_14h32.05.270,WTP_SM_Choice,2022.2.1,MacIntel,58.82352941,,,,,space,6.6081,NAN,,NAN,0.92,5.08,,0,42,42,42,1,43,Charlie,Acc,Participant_Images/62865af5a1e349260f58cdf7/62865af5a1e349260f58cdf7_Images/62865af5a1e349260f58cdf7_Image_15.jpeg,liked,2.071164779,,,,,,,,,,,,,,,,,,,,,,
,,62865af5a1e349260f58cdf7,6685aa9113c938e83b4f1ea0,6700427b9ba5a0f5593693c1,2024-10-04_14h32.05.270,WTP_SM_Choice,2022.2.1,MacIntel,58.82352941,,,,,space,0.7701,NAN,,NAN,0.92,5.08,,0,43,43,43,1,44,Charlie,Acc,Participant_Images/62865af5a1e349260f58cdf7/62865af5a1e349260f58cdf7_Images/62865af5a1e349260f58cdf7_Image_18.jpeg,liked,5.336503566,,,,,,,,,,,,,,,,,,,,,,
,,62865af5a1e349260f58cdf7,6685aa9113c938e83b4f1ea0,6700427b9ba5a0f5593693c1,2024-10-04_14h32.05.270,WTP_SM_Choice,2022.2.1,MacIntel,58.82352941,,,,,,,,,,,,,,,,,,41,,,,,,space,0.6337,space,0.3712,0.04,2,1.7918,0,0,0,0,1,Cook a nice meal and eating on the patio on a sunny day,Study at the library,0.01,0.04,1.1,1,,,,
,,62865af5a1e349260f58cdf7,6685aa9113c938e83b4f1ea0,6700427b9ba5a0f5593693c1,2024-10-04_14h32.05.270,WTP_SM_Choice,2022.2.1,MacIntel,58.82352941,,,,,,,,,,,,,,,,,,42,,,,,,,,,,0.02,1,1.8438,0,1,1,1,1,Read a book on my couch on a rainy day,Watch sports with my family,0.02,0.04,3.3,1,,,,
,,62865af5a1e349260f58cdf7,6685aa9113c938e83b4f1ea0,6700427b9ba5a0f5593693c1,2024-10-04_14h32.05.270,WTP_SM_Choice,2022.2.1,MacIntel,58.82352941,,,,,,,,,,,,,,,,,,43,,,,,,,,,,0.03,1,1.6038,0,2,2,2,1,Go on road trips with friends,Cook a nice meal and eating on the patio on a sunny day,0.03,0.04,1.1,0,,,,
,,62865af5a1e349260f58cdf7,6685aa9113c938e83b4f1ea0,6700427b9ba5a0f5593693c1,2024-10-04_14h32.05.270,WTP_SM_Choice,2022.2.1,MacIntel,58.82352941,,,,,,,,,,,,,,,,,,44,,,,,,,,,,0.04,1,2.345,0,3,3,3,1,Go to the gym and exercising for a bit,Go to a new coffee shop and chitchatting about everything,0.04,0.04,1.1,1,,,,
,,62865af5a1e349260f58cdf7,6685aa9113c938e83b4f1ea0,6700427b9ba5a0f5593693c1,2024-10-04_14h32.05.270,WTP_SM_Choice,2022.2.1,MacIntel,58.82352941,,,,,,,,,,,,,,,,,,45,,,,,,,,,,0.04,2,2.4402,0,4,4,4,1,Peruse google maps and exploring random places via street view,Study at the library,0.05,0.04,4.4,1,,,,
,,62865af5a1e349260f58cdf7,6685aa9113c938e83b4f1ea0,6700427b9ba5a0f5593693c1,2024-10-04_14h32.05.270,WTP_SM_Choice,2022.2.1,MacIntel,58.82352941,,,,,,,NAN,,NAN,1.09,4.91,,0,44,44,44,1,45,Charlie,Acc,Participant_Images/62865af5a1e349260f58cdf7/62865af5a1e349260f58cdf7_Images/62865af5a1e349260f58cdf7_Image_16.jpeg,liked,2.642157193,,,,,,,,,,,,,,,,,,,,,,
,,62865af5a1e349260f58cdf7,6685aa9113c938e83b4f1ea0,6700427b9ba5a0f5593693c1,2024-10-04_14h32.05.270,WTP_SM_Choice,2022.2.1,MacIntel,58.82352941,,,,,space,9.957,NAN,,NAN,1.09,4.91,,0,45,45,45,1,46,Charlie,Acc,Participant_Images/62865af5a1e349260f58cdf7/62865af5a1e349260f58cdf7_Images/62865af5a1e349260f58cdf7_Image_4.jpeg,did not like,4.456234322,,,,,,,,,,,,,,,,,,,,,,
,,62865af5a1e349260f58cdf7,6685aa9113c938e83b4f1ea0,6700427b9ba5a0f5593693c1,2024-10-04_14h32.05.270,WTP_SM_Choice,2022.2.1,MacIntel,58.82352941,,,,,space,1.2087,NAN,,NAN,1.09,4.91,,0,46,46,46,1,47,Charlie,Acc,Participant_Images/62865af5a1e349260f58cdf7/62865af5a1e349260f58cdf7_Images/62865af5a1e349260f58cdf7_Image_20.jpeg,liked,4.438512181,,,,,,,,,,,,,,,,,,,,,,
,,62865af5a1e349260f58cdf7,6685aa9113c938e83b4f1ea0,6700427b9ba5a0f5593693c1,2024-10-04_14h32.05.270,WTP_SM_Choice,2022.2.1,MacIntel,58.82352941,,,,,space,5.1893,NAN,,NAN,1.09,4.91,,0,47,47,47,1,48,Charlie,Acc,Participant_Images/62865af5a1e349260f58cdf7/62865af5a1e349260f58cdf7_Images/62865af5a1e349260f58cdf7_Image_21.jpeg,liked,2.682944783,,,,,,,,,,,,,,,,,,,,,,
,,62865af5a1e349260f58cdf7,6685aa9113c938e83b4f1ea0,6700427b9ba5a0f5593693c1,2024-10-04_14h32.05.270,WTP_SM_Choice,2022.2.1,MacIntel,58.82352941,,,,,space,1.8861,NAN,,NAN,1.09,4.91,,0,48,48,48,1,49,Charlie,Acc,Participant_Images/62865af5a1e349260f58cdf7/62865af5a1e349260f58cdf7_Images/62865af5a1e349260f58cdf7_Image_22.jpeg,liked,4.51984296,,,,,,,,,,,,,,,,,,,,,,
,,62865af5a1e349260f58cdf7,6685aa9113c938e83b4f1ea0,6700427b9ba5a0f5593693c1,2024-10-04_14h32.05.270,WTP_SM_Choice,2022.2.1,MacIntel,58.82352941,,,,,,,,,,,,,,,,,,46,,,,,,space,0.5867,space,0.3848,0.01,1,1.2547,0,0,0,0,1,Study at the library,Watch sports and learning old sports lore,0.01,0.05,8.8,0,,,,
,,62865af5a1e349260f58cdf7,6685aa9113c938e83b4f1ea0,6700427b9ba5a0f5593693c1,2024-10-04_14h32.05.270,WTP_SM_Choice,2022.2.1,MacIntel,58.82352941,,,,,,,,,,,,,,,,,,47,,,,,,,,,,0.02,1,1.5306,0,1,1,1,1,Go to my temple every week,Watch old episodes of law and order at night,0.02,0.05,1.1,0,,,,
,,62865af5a1e349260f58cdf7,6685aa9113c938e83b4f1ea0,6700427b9ba5a0f5593693c1,2024-10-04_14h32.05.270,WTP_SM_Choice,2022.2.1,MacIntel,58.82352941,,,,,,,,,,,,,,,,,,48,,,,,,,,,,0.03,1,2.0101,0,2,2,2,1,Watch sports with my family,Cook a nice meal and eating on the patio on a sunny day,0.03,0.05,4.4,0,,,,
,,62865af5a1e349260f58cdf7,6685aa9113c938e83b4f1ea0,6700427b9ba5a0f5593693c1,2024-10-04_14h32.05.270,WTP_SM_Choice,2022.2.1,MacIntel,58.82352941,,,,,,,,,,,,,,,,,,49,,,,,,,,,,0.04,1,2.2591,0,3,3,3,1,Sing with my family,Scroll through tik tok when I'm supposed to be asleep,0.04,0.05,3.3,0,,,,
,,62865af5a1e349260f58cdf7,6685aa9113c938e83b4f1ea0,6700427b9ba5a0f5593693c1,2024-10-04_14h32.05.270,WTP_SM_Choice,2022.2.1,MacIntel,58.82352941,,,,,,,,,,,,,,,,,,50,,,,,,,,,,0.05,1,4.7077,0,4,4,4,1,Sing with my family,Peruse google maps and exploring random places via street view,0.05,0.05,1.1,0,,,,
,,62865af5a1e349260f58cdf7,6685aa9113c938e83b4f1ea0,6700427b9ba5a0f5593693c1,2024-10-04_14h32.05.270,WTP_SM_Choice,2022.2.1,MacIntel,58.82352941,,,,,,,4,,3,1.24,4.76,,0,49,49,49,1,50,Charlie,Acc,Participant_Images/62865af5a1e349260f58cdf7/62865af5a1e349260f58cdf7_Images/62865af5a1e349260f58cdf7_Image_3.jpeg,liked,3.195382774,,,,,,,,,,,,,,,,,,,space,2.6935,,
,,62865af5a1e349260f58cdf7,6685aa9113c938e83b4f1ea0,6700427b9ba5a0f5593693c1,2024-10-04_14h32.05.270,WTP_SM_Choice,2022.2.1,MacIntel,58.82352941,,,space,1.2465,space,6.9629,NAN,,NAN,1.24,4.76,,0,50,50,50,1,51,Alex,Rej,Participant_Images/62865af5a1e349260f58cdf7/62865af5a1e349260f58cdf7_Images/62865af5a1e349260f58cdf7_Image_19.jpeg,did not like,1.779333479,,,,,,,,,,,,,,,,,,,,,,
,,62865af5a1e349260f58cdf7,6685aa9113c938e83b4f1ea0,6700427b9ba5a0f5593693c1,2024-10-04_14h32.05.270,WTP_SM_Choice,2022.2.1,MacIntel,58.82352941,,,,,space,2.1965,NAN,,NAN,1.24,4.76,,0,51,51,51,1,52,Alex,Rej,Participant_Images/62865af5a1e349260f58cdf7/62865af5a1e349260f58cdf7_Images/62865af5a1e349260f58cdf7_Image_25.jpeg,liked,4.312468682,,,,,,,,,,,,,,,,,,,,,,
,,62865af5a1e349260f58cdf7,6685aa9113c938e83b4f1ea0,6700427b9ba5a0f5593693c1,2024-10-04_14h32.05.270,WTP_SM_Choice,2022.2.1,MacIntel,58.82352941,,,,,space,1.3584,NAN,,NAN,1.24,4.76,,0,52,52,52,1,53,Alex,Rej,Participant_Images/62865af5a1e349260f58cdf7/62865af5a1e349260f58cdf7_Images/62865af5a1e349260f58cdf7_Image_17.jpeg,did not like,4.940433059,,,,,,,,,,,,,,,,,,,,,,
,,62865af5a1e349260f58cdf7,6685aa9113c938e83b4f1ea0,6700427b9ba5a0f5593693c1,2024-10-04_14h32.05.270,WTP_SM_Choice,2022.2.1,MacIntel,58.82352941,,,,,space,3.711,NAN,,NAN,1.24,4.76,,0,53,53,53,1,54,Alex,Rej,Participant_Images/62865af5a1e349260f58cdf7/62865af5a1e349260f58cdf7_Images/62865af5a1e349260f58cdf7_Image_13.jpeg,did not like,2.7105123,,,,,,,,,,,,,,,,,,,,,,
,,62865af5a1e349260f58cdf7,6685aa9113c938e83b4f1ea0,6700427b9ba5a0f5593693c1,2024-10-04_14h32.05.270,WTP_SM_Choice,2022.2.1,MacIntel,58.82352941,,,,,,,,,,,,,,,,,,51,,,,,,space,1.0041,space,0.3832,0.01,2,1.4188,0,0,0,0,1,Take spontaneous trips with my brother,Go to the gym and exercising for a bit,0.01,0.01,1.1,0,,,,
,,62865af5a1e349260f58cdf7,6685aa9113c938e83b4f1ea0,6700427b9ba5a0f5593693c1,2024-10-04_14h32.05.270,WTP_SM_Choice,2022.2.1,MacIntel,58.82352941,,,,,,,,,,,,,,,,,,52,,,,,,,,,,0.01,2,3.5578,0,1,1,1,1,Take spontaneous trips with my brother,Take long showers when I need a mental pick me up,0.02,0.01,3.3,0,,,,
,,62865af5a1e349260f58cdf7,6685aa9113c938e83b4f1ea0,6700427b9ba5a0f5593693c1,2024-10-04_14h32.05.270,WTP_SM_Choice,2022.2.1,MacIntel,58.82352941,,,,,,,,,,,,,,,,,,53,,,,,,,,,,0.01,2,2.5283,0,2,2,2,1,Peruse google maps and exploring random places via street view,Go to my temple every week,0.03,0.01,1.1,1,,,,
,,62865af5a1e349260f58cdf7,6685aa9113c938e83b4f1ea0,6700427b9ba5a0f5593693c1,2024-10-04_14h32.05.270,WTP_SM_Choice,2022.2.1,MacIntel,58.82352941,,,,,,,,,,,,,,,,,,54,,,,,,,,,,0.01,2,5.1789,0,3,3,3,1,Go out and trying a new vegetarian restaurant with friends,Go to the gym and exercising for a bit,0.04,0.01,4.4,0,,,,
,,62865af5a1e349260f58cdf7,6685aa9113c938e83b4f1ea0,6700427b9ba5a0f5593693c1,2024-10-04_14h32.05.270,WTP_SM_Choice,2022.2.1,MacIntel,58.82352941,,,,,,,,,,,,,,,,,,55,,,,,,,,,,0.01,2,2.0212,0,4,4,4,1,Facetime calls with my best friend late at night,Teach myself graphic design and learning new techniques in my free time,0.05,0.01,1.1,0,,,,
,,62865af5a1e349260f58cdf7,6685aa9113c938e83b4f1ea0,6700427b9ba5a0f5593693c1,2024-10-04_14h32.05.270,WTP_SM_Choice,2022.2.1,MacIntel,58.82352941,,,,,,,NAN,,NAN,1.29,4.71,,0,54,54,54,1,55,Alex,Rej,Participant_Images/62865af5a1e349260f58cdf7/62865af5a1e349260f58cdf7_Images/62865af5a1e349260f58cdf7_Image_23.jpeg,did not like,3.602308302,,,,,,,,,,,,,,,,,,,,,,
,,62865af5a1e349260f58cdf7,6685aa9113c938e83b4f1ea0,6700427b9ba5a0f5593693c1,2024-10-04_14h32.05.270,WTP_SM_Choice,2022.2.1,MacIntel,58.82352941,,,,,space,2.4863,NAN,,NAN,1.29,4.71,,0,55,55,55,1,56,Alex,Rej,Participant_Images/62865af5a1e349260f58cdf7/62865af5a1e349260f58cdf7_Images/62865af5a1e349260f58cdf7_Image_3.jpeg,did not like,4.106391878,,,,,,,,,,,,,,,,,,,,,,
,,62865af5a1e349260f58cdf7,6685aa9113c938e83b4f1ea0,6700427b9ba5a0f5593693c1,2024-10-04_14h32.05.270,WTP_SM_Choice,2022.2.1,MacIntel,58.82352941,,,,,space,3.705,NAN,,NAN,1.29,4.71,,0,56,56,56,1,57,Alex,Rej,Participant_Images/62865af5a1e349260f58cdf7/62865af5a1e349260f58cdf7_Images/62865af5a1e349260f58cdf7_Image_8.jpeg,liked,3.799433026,,,,,,,,,,,,,,,,,,,,,,
,,62865af5a1e349260f58cdf7,6685aa9113c938e83b4f1ea0,6700427b9ba5a0f5593693c1,2024-10-04_14h32.05.270,WTP_SM_Choice,2022.2.1,MacIntel,58.82352941,,,,,space,2.8701,NAN,,NAN,1.29,4.71,,0,57,57,57,1,58,Alex,Rej,Participant_Images/62865af5a1e349260f58cdf7/62865af5a1e349260f58cdf7_Images/62865af5a1e349260f58cdf7_Image_20.jpeg,did not like,5.246980764,,,,,,,,,,,,,,,,,,,,,,
,,62865af5a1e349260f58cdf7,6685aa9113c938e83b4f1ea0,6700427b9ba5a0f5593693c1,2024-10-04_14h32.05.270,WTP_SM_Choice,2022.2.1,MacIntel,58.82352941,,,,,space,1.5373,NAN,,NAN,1.29,4.71,,0,58,58,58,1,59,Alex,Rej,Participant_Images/62865af5a1e349260f58cdf7/62865af5a1e349260f58cdf7_Images/62865af5a1e349260f58cdf7_Image_15.jpeg,liked,3.30081769,,,,,,,,,,,,,,,,,,,,,,
,,62865af5a1e349260f58cdf7,6685aa9113c938e83b4f1ea0,6700427b9ba5a0f5593693c1,2024-10-04_14h32.05.270,WTP_SM_Choice,2022.2.1,MacIntel,58.82352941,,,,,,,,,,,,,,,,,,56,,,,,,space,2.1861,space,0.4676,0.02,2,2.059,0,0,0,0,1,Go to a new coffee shop and reading a book,Sing with my family,0.01,0.02,8.8,1,,,,
,,62865af5a1e349260f58cdf7,6685aa9113c938e83b4f1ea0,6700427b9ba5a0f5593693c1,2024-10-04_14h32.05.270,WTP_SM_Choice,2022.2.1,MacIntel,58.82352941,,,,,,,,,,,,,,,,,,57,,,,,,,,,,0.02,2,1.5041,0,1,1,1,1,Go to a new coffee shop and chitchatting about everything,Take long showers when I need a mental pick me up,0.02,0.02,4.4,0,,,,
,,62865af5a1e349260f58cdf7,6685aa9113c938e83b4f1ea0,6700427b9ba5a0f5593693c1,2024-10-04_14h32.05.270,WTP_SM_Choice,2022.2.1,MacIntel,58.82352941,,,,,,,,,,,,,,,,,,58,,,,,,,,,,0.03,1,1.7924,0,2,2,2,1,Sing with my family,Take long showers when I need a mental pick me up,0.03,0.02,4.4,0,,,,
,,62865af5a1e349260f58cdf7,6685aa9113c938e83b4f1ea0,6700427b9ba5a0f5593693c1,2024-10-04_14h32.05.270,WTP_SM_Choice,2022.2.1,MacIntel,58.82352941,,,,,,,,,,,,,,,,,,59,,,,,,,,,,0.02,2,2.3895,0,3,3,3,1,Peruse google maps and exploring random places via street view,Go on road trips with friends,0.04,0.02,4.4,1,,,,
,,62865af5a1e349260f58cdf7,6685aa9113c938e83b4f1ea0,6700427b9ba5a0f5593693c1,2024-10-04_14h32.05.270,WTP_SM_Choice,2022.2.1,MacIntel,58.82352941,,,,,,,,,,,,,,,,,,60,,,,,,,,,,0.02,2,1.7374,0,4,4,4,1,Facetime calls with my best friend late at night,Watch old episodes of law and order at night,0.05,0.02,1.1,0,,,,
,,62865af5a1e349260f58cdf7,6685aa9113c938e83b4f1ea0,6700427b9ba5a0f5593693c1,2024-10-04_14h32.05.270,WTP_SM_Choice,2022.2.1,MacIntel,58.82352941,,,,,,,NAN,,NAN,1.4,4.6,,0,59,59,59,1,60,Alex,Rej,Participant_Images/62865af5a1e349260f58cdf7/62865af5a1e349260f58cdf7_Images/62865af5a1e349260f58cdf7_Image_21.jpeg,did not like,1.661473164,,,,,,,,,,,,,,,,,,,,,,
,,62865af5a1e349260f58cdf7,6685aa9113c938e83b4f1ea0,6700427b9ba5a0f5593693c1,2024-10-04_14h32.05.270,WTP_SM_Choice,2022.2.1,MacIntel,58.82352941,,,,,space,1.8699,NAN,,NAN,1.4,4.6,,0,60,60,60,1,61,Alex,Rej,Participant_Images/62865af5a1e349260f58cdf7/62865af5a1e349260f58cdf7_Images/62865af5a1e349260f58cdf7_Image_22.jpeg,did not like,3.613205605,,,,,,,,,,,,,,,,,,,,,,
,,62865af5a1e349260f58cdf7,6685aa9113c938e83b4f1ea0,6700427b9ba5a0f5593693c1,2024-10-04_14h32.05.270,WTP_SM_Choice,2022.2.1,MacIntel,58.82352941,,,,,space,2.2413,NAN,,NAN,1.4,4.6,,0,61,61,61,1,62,Alex,Rej,Participant_Images/62865af5a1e349260f58cdf7/62865af5a1e349260f58cdf7_Images/62865af5a1e349260f58cdf7_Image_5.jpeg,did not like,4.988446431,,,,,,,,,,,,,,,,,,,,,,
,,62865af5a1e349260f58cdf7,6685aa9113c938e83b4f1ea0,6700427b9ba5a0f5593693c1,2024-10-04_14h32.05.270,WTP_SM_Choice,2022.2.1,MacIntel,58.82352941,,,,,space,4.0069,NAN,,NAN,1.4,4.6,,0,62,62,62,1,63,Alex,Rej,Participant_Images/62865af5a1e349260f58cdf7/62865af5a1e349260f58cdf7_Images/62865af5a1e349260f58cdf7_Image_6.jpeg,did not like,3.470791822,,,,,,,,,,,,,,,,,,,,,,
,,62865af5a1e349260f58cdf7,6685aa9113c938e83b4f1ea0,6700427b9ba5a0f5593693c1,2024-10-04_14h32.05.270,WTP_SM_Choice,2022.2.1,MacIntel,58.82352941,,,,,space,3.4873,NAN,,NAN,1.4,4.6,,0,63,63,63,1,64,Alex,Rej,Participant_Images/62865af5a1e349260f58cdf7/62865af5a1e349260f58cdf7_Images/62865af5a1e349260f58cdf7_Image_10.jpeg,liked,3.820572462,,,,,,,,,,,,,,,,,,,,,,
,,62865af5a1e349260f58cdf7,6685aa9113c938e83b4f1ea0,6700427b9ba5a0f5593693c1,2024-10-04_14h32.05.270,WTP_SM_Choice,2022.2.1,MacIntel,58.82352941,,,,,,,,,,,,,,,,,,61,,,,,,space,3.9342,space,0.3903,0.03,2,2.4539,0,0,0,0,1,Read a book on my couch on a rainy day,Study at the library,0.01,0.03,3.3,1,,,,
,,62865af5a1e349260f58cdf7,6685aa9113c938e83b4f1ea0,6700427b9ba5a0f5593693c1,2024-10-04_14h32.05.270,WTP_SM_Choice,2022.2.1,MacIntel,58.82352941,,,,,,,,,,,,,,,,,,62,,,,,,,,,,0.03,2,5.1436,0,1,1,1,1,Peruse google maps and exploring random places via street view,Watch sports with my family,0.02,0.03,3.3,1,,,,
,,62865af5a1e349260f58cdf7,6685aa9113c938e83b4f1ea0,6700427b9ba5a0f5593693c1,2024-10-04_14h32.05.270,WTP_SM_Choice,2022.2.1,MacIntel,58.82352941,,,,,,,,,,,,,,,,,,63,,,,,,,,,,0.03,1,4.6124,0,2,2,2,1,Go to the gym and exercising for a bit,Go on road trips with friends,0.03,0.03,3.3,1,,,,
,,62865af5a1e349260f58cdf7,6685aa9113c938e83b4f1ea0,6700427b9ba5a0f5593693c1,2024-10-04_14h32.05.270,WTP_SM_Choice,2022.2.1,MacIntel,58.82352941,,,,,,,,,,,,,,,,,,64,,,,,,,,,,0.04,1,1.6911,0,3,3,3,1,Go to my temple every week,Scroll through tik tok when I'm supposed to be asleep,0.04,0.03,1.1,0,,,,
,,62865af5a1e349260f58cdf7,6685aa9113c938e83b4f1ea0,6700427b9ba5a0f5593693c1,2024-10-04_14h32.05.270,WTP_SM_Choice,2022.2.1,MacIntel,58.82352941,,,,,,,,,,,,,,,,,,65,,,,,,,,,,0.03,2,2.3908,0,4,4,4,1,Study at the library,Teach myself graphic design and learning new techniques in my free time,0.05,0.03,1.1,0,,,,
,,62865af5a1e349260f58cdf7,6685aa9113c938e83b4f1ea0,6700427b9ba5a0f5593693c1,2024-10-04_14h32.05.270,WTP_SM_Choice,2022.2.1,MacIntel,58.82352941,,,,,,,NAN,,NAN,1.56,4.44,,0,64,64,64,1,65,Alex,Rej,Participant_Images/62865af5a1e349260f58cdf7/62865af5a1e349260f58cdf7_Images/62865af5a1e349260f58cdf7_Image_9.jpeg,did not like,2.455989137,,,,,,,,,,,,,,,,,,,,,,
,,62865af5a1e349260f58cdf7,6685aa9113c938e83b4f1ea0,6700427b9ba5a0f5593693c1,2024-10-04_14h32.05.270,WTP_SM_Choice,2022.2.1,MacIntel,58.82352941,,,,,space,3.9221,NAN,,NAN,1.56,4.44,,0,65,65,65,1,66,Alex,Rej,Participant_Images/62865af5a1e349260f58cdf7/62865af5a1e349260f58cdf7_Images/62865af5a1e349260f58cdf7_Image_24.jpeg,liked,3.79605092,,,,,,,,,,,,,,,,,,,,,,
,,62865af5a1e349260f58cdf7,6685aa9113c938e83b4f1ea0,6700427b9ba5a0f5593693c1,2024-10-04_14h32.05.270,WTP_SM_Choice,2022.2.1,MacIntel,58.82352941,,,,,space,2.1752,NAN,,NAN,1.56,4.44,,0,66,66,66,1,67,Alex,Rej,Participant_Images/62865af5a1e349260f58cdf7/62865af5a1e349260f58cdf7_Images/62865af5a1e349260f58cdf7_Image_2.jpeg,liked,3.562416326,,,,,,,,,,,,,,,,,,,,,,
,,62865af5a1e349260f58cdf7,6685aa9113c938e83b4f1ea0,6700427b9ba5a0f5593693c1,2024-10-04_14h32.05.270,WTP_SM_Choice,2022.2.1,MacIntel,58.82352941,,,,,space,1.2099,NAN,,NAN,1.56,4.44,,0,67,67,67,1,68,Alex,Rej,Participant_Images/62865af5a1e349260f58cdf7/62865af5a1e349260f58cdf7_Images/62865af5a1e349260f58cdf7_Image_12.jpeg,did not like,2.843822497,,,,,,,,,,,,,,,,,,,,,,
,,62865af5a1e349260f58cdf7,6685aa9113c938e83b4f1ea0,6700427b9ba5a0f5593693c1,2024-10-04_14h32.05.270,WTP_SM_Choice,2022.2.1,MacIntel,58.82352941,,,,,space,0.6251,NAN,,NAN,1.56,4.44,,0,68,68,68,1,69,Alex,Rej,Participant_Images/62865af5a1e349260f58cdf7/62865af5a1e349260f58cdf7_Images/62865af5a1e349260f58cdf7_Image_18.jpeg,did not like,3.546495948,,,,,,,,,,,,,,,,,,,,,,
,,62865af5a1e349260f58cdf7,6685aa9113c938e83b4f1ea0,6700427b9ba5a0f5593693c1,2024-10-04_14h32.05.270,WTP_SM_Choice,2022.2.1,MacIntel,58.82352941,,,,,,,,,,,,,,,,,,66,,,,,,space,6.273,space,0.4167,0.01,1,1.5658,0,0,0,0,1,Watch sports with my family,Watch old episodes of law and order at night,0.01,0.04,1.1,0,,,,
,,62865af5a1e349260f58cdf7,6685aa9113c938e83b4f1ea0,6700427b9ba5a0f5593693c1,2024-10-04_14h32.05.270,WTP_SM_Choice,2022.2.1,MacIntel,58.82352941,,,,,,,,,,,,,,,,,,67,,,,,,,,,,0.04,2,1.7638,0,1,1,1,1,Watch sports and learning old sports lore,Sing with my family,0.02,0.04,8.8,1,,,,
,,62865af5a1e349260f58cdf7,6685aa9113c938e83b4f1ea0,6700427b9ba5a0f5593693c1,2024-10-04_14h32.05.270,WTP_SM_Choice,2022.2.1,MacIntel,58.82352941,,,,,,,,,,,,,,,,,,68,,,,,,,,,,0.03,1,1.657,0,2,2,2,1,Talk to my grandmother,Go to a new coffee shop and reading a book,0.03,0.04,4.4,0,,,,
,,62865af5a1e349260f58cdf7,6685aa9113c938e83b4f1ea0,6700427b9ba5a0f5593693c1,2024-10-04_14h32.05.270,WTP_SM_Choice,2022.2.1,MacIntel,58.82352941,,,,,,,,,,,,,,,,,,69,,,,,,,,,,0.04,1,2.7606,0,3,3,3,1,Go to my temple every week,Take long showers when I need a mental pick me up,0.04,0.04,1.1,0,,,,
,,62865af5a1e349260f58cdf7,6685aa9113c938e83b4f1ea0,6700427b9ba5a0f5593693c1,2024-10-04_14h32.05.270,WTP_SM_Choice,2022.2.1,MacIntel,58.82352941,,,,,,,,,,,,,,,,,,70,,,,,,,,,,0.04,2,2.9541,0,4,4,4,1,Peruse google maps and exploring random places via street view,Go out and trying a new vegetarian restaurant with friends,0.05,0.04,1.1,1,,,,
,,62865af5a1e349260f58cdf7,6685aa9113c938e83b4f1ea0,6700427b9ba5a0f5593693c1,2024-10-04_14h32.05.270,WTP_SM_Choice,2022.2.1,MacIntel,58.82352941,,,,,,,NAN,,NAN,1.72,4.28,,0,69,69,69,1,70,Alex,Rej,Participant_Images/62865af5a1e349260f58cdf7/62865af5a1e349260f58cdf7_Images/62865af5a1e349260f58cdf7_Image_14.jpeg,did not like,1.672012706,,,,,,,,,,,,,,,,,,,,,,
,,62865af5a1e349260f58cdf7,6685aa9113c938e83b4f1ea0,6700427b9ba5a0f5593693c1,2024-10-04_14h32.05.270,WTP_SM_Choice,2022.2.1,MacIntel,58.82352941,,,,,space,2.3031,NAN,,NAN,1.72,4.28,,0,70,70,70,1,71,Alex,Rej,Participant_Images/62865af5a1e349260f58cdf7/62865af5a1e349260f58cdf7_Images/62865af5a1e349260f58cdf7_Image_11.jpeg,liked,4.942172136,,,,,,,,,,,,,,,,,,,,,,
,,62865af5a1e349260f58cdf7,6685aa9113c938e83b4f1ea0,6700427b9ba5a0f5593693c1,2024-10-04_14h32.05.270,WTP_SM_Choice,2022.2.1,MacIntel,58.82352941,,,,,space,1.0202,NAN,,NAN,1.72,4.28,,0,71,71,71,1,72,Alex,Rej,Participant_Images/62865af5a1e349260f58cdf7/62865af5a1e349260f58cdf7_Images/62865af5a1e349260f58cdf7_Image_4.jpeg,did not like,2.50187214,,,,,,,,,,,,,,,,,,,,,,
,,62865af5a1e349260f58cdf7,6685aa9113c938e83b4f1ea0,6700427b9ba5a0f5593693c1,2024-10-04_14h32.05.270,WTP_SM_Choice,2022.2.1,MacIntel,58.82352941,,,,,space,1.2923,NAN,,NAN,1.72,4.28,,0,72,72,72,1,73,Alex,Rej,Participant_Images/62865af5a1e349260f58cdf7/62865af5a1e349260f58cdf7_Images/62865af5a1e349260f58cdf7_Image_7.jpeg,did not like,2.071164779,,,,,,,,,,,,,,,,,,,,,,
,,62865af5a1e349260f58cdf7,6685aa9113c938e83b4f1ea0,6700427b9ba5a0f5593693c1,2024-10-04_14h32.05.270,WTP_SM_Choice,2022.2.1,MacIntel,58.82352941,,,,,space,1.2023,NAN,,NAN,1.72,4.28,,0,73,73,73,1,74,Alex,Rej,Participant_Images/62865af5a1e349260f58cdf7/62865af5a1e349260f58cdf7_Images/62865af5a1e349260f58cdf7_Image_16.jpeg,did not like,5.336503566,,,,,,,,,,,,,,,,,,,,,,
,,62865af5a1e349260f58cdf7,6685aa9113c938e83b4f1ea0,6700427b9ba5a0f5593693c1,2024-10-04_14h32.05.270,WTP_SM_Choice,2022.2.1,MacIntel,58.82352941,,,,,,,,,,,,,,,,,,71,,,,,,space,1.5573,space,0.3328,0.01,1,1.1704,0,0,0,0,1,Teach myself graphic design and learning new techniques in my free time,Watch sports with my family,0.01,0.05,3.3,1,,,,
,,62865af5a1e349260f58cdf7,6685aa9113c938e83b4f1ea0,6700427b9ba5a0f5593693c1,2024-10-04_14h32.05.270,WTP_SM_Choice,2022.2.1,MacIntel,58.82352941,,,,,,,,,,,,,,,,,,72,,,,,,,,,,0.02,1,3.0444,0,1,1,1,1,Take long showers when I need a mental pick me up,Go out and trying a new vegetarian restaurant with friends,0.02,0.05,8.8,1,,,,
,,62865af5a1e349260f58cdf7,6685aa9113c938e83b4f1ea0,6700427b9ba5a0f5593693c1,2024-10-04_14h32.05.270,WTP_SM_Choice,2022.2.1,MacIntel,58.82352941,,,,,,,,,,,,,,,,,,73,,,,,,,,,,0.03,1,2.2926,0,2,2,2,1,Take spontaneous trips with my brother,Watch sports and learning old sports lore,0.03,0.05,3.3,0,,,,
,,62865af5a1e349260f58cdf7,6685aa9113c938e83b4f1ea0,6700427b9ba5a0f5593693c1,2024-10-04_14h32.05.270,WTP_SM_Choice,2022.2.1,MacIntel,58.82352941,,,,,,,,,,,,,,,,,,74,,,,,,,,,,0.04,1,3.3793,0,3,3,3,1,Talk to my grandmother,Watch old episodes of law and order at night,0.04,0.05,4.4,0,,,,
,,62865af5a1e349260f58cdf7,6685aa9113c938e83b4f1ea0,6700427b9ba5a0f5593693c1,2024-10-04_14h32.05.270,WTP_SM_Choice,2022.2.1,MacIntel,58.82352941,,,,,,,,,,,,,,,,,,75,,,,,,,,,,0.05,2,6.6456,0,4,4,4,1,Watch sports and learning old sports lore,Watch sports with my family,0.05,0.05,3.3,1,,,,
,,62865af5a1e349260f58cdf7,6685aa9113c938e83b4f1ea0,6700427b9ba5a0f5593693c1,2024-10-04_14h32.05.270,WTP_SM_Choice,2022.2.1,MacIntel,58.82352941,,,,,,,4,,3,1.87,4.13,,0,74,74,74,1,75,Alex,Rej,Participant_Images/62865af5a1e349260f58cdf7/62865af5a1e349260f58cdf7_Images/62865af5a1e349260f58cdf7_Image_1.jpeg,did not like,2.642157193,,,,,,,,,,,,,,,,,,,space,6.6903,,
,,62865af5a1e349260f58cdf7,6685aa9113c938e83b4f1ea0,6700427b9ba5a0f5593693c1,2024-10-04_14h32.05.270,WTP_SM_Choice,2022.2.1,MacIntel,58.82352941,,,space,2.6713,space,0.8683,NAN,,NAN,1.87,4.13,,0,75,75,75,1,76,Sam,Rej,Participant_Images/62865af5a1e349260f58cdf7/62865af5a1e349260f58cdf7_Images/62865af5a1e349260f58cdf7_Image_18.jpeg,liked,4.456234322,,,,,,,,,,,,,,,,,,,,,,
,,62865af5a1e349260f58cdf7,6685aa9113c938e83b4f1ea0,6700427b9ba5a0f5593693c1,2024-10-04_14h32.05.270,WTP_SM_Choice,2022.2.1,MacIntel,58.82352941,,,,,space,14.5104,NAN,,NAN,1.87,4.13,,0,76,76,76,1,77,Sam,Rej,Participant_Images/62865af5a1e349260f58cdf7/62865af5a1e349260f58cdf7_Images/62865af5a1e349260f58cdf7_Image_14.jpeg,did not like,4.438512181,,,,,,,,,,,,,,,,,,,,,,
,,62865af5a1e349260f58cdf7,6685aa9113c938e83b4f1ea0,6700427b9ba5a0f5593693c1,2024-10-04_14h32.05.270,WTP_SM_Choice,2022.2.1,MacIntel,58.82352941,,,,,space,0.6521,NAN,,NAN,1.87,4.13,,0,77,77,77,1,78,Sam,Rej,Participant_Images/62865af5a1e349260f58cdf7/62865af5a1e349260f58cdf7_Images/62865af5a1e349260f58cdf7_Image_6.jpeg,did not like,2.682944783,,,,,,,,,,,,,,,,,,,,,,
,,62865af5a1e349260f58cdf7,6685aa9113c938e83b4f1ea0,6700427b9ba5a0f5593693c1,2024-10-04_14h32.05.270,WTP_SM_Choice,2022.2.1,MacIntel,58.82352941,,,,,space,3.5933,NAN,,NAN,1.87,4.13,,0,78,78,78,1,79,Sam,Rej,Participant_Images/62865af5a1e349260f58cdf7/62865af5a1e349260f58cdf7_Images/62865af5a1e349260f58cdf7_Image_23.jpeg,liked,4.51984296,,,,,,,,,,,,,,,,,,,,,,
,,62865af5a1e349260f58cdf7,6685aa9113c938e83b4f1ea0,6700427b9ba5a0f5593693c1,2024-10-04_14h32.05.270,WTP_SM_Choice,2022.2.1,MacIntel,58.82352941,,,,,,,,,,,,,,,,,,76,,,,,,space,2.1117,space,0.3489,0.01,1,2.5477,0,0,0,0,1,Cook a nice meal and eating on the patio on a sunny day,Go out and trying a new vegetarian restaurant with friends,0.01,0.01,1.1,1,,,,
,,62865af5a1e349260f58cdf7,6685aa9113c938e83b4f1ea0,6700427b9ba5a0f5593693c1,2024-10-04_14h32.05.270,WTP_SM_Choice,2022.2.1,MacIntel,58.82352941,,,,,,,,,,,,,,,,,,77,,,,,,,,,,0.02,1,2.9042,0,1,1,1,1,Read a book on my couch on a rainy day,Go to a new coffee shop and chitchatting about everything,0.02,0.01,8.8,1,,,,
,,62865af5a1e349260f58cdf7,6685aa9113c938e83b4f1ea0,6700427b9ba5a0f5593693c1,2024-10-04_14h32.05.270,WTP_SM_Choice,2022.2.1,MacIntel,58.82352941,,,,,,,,,,,,,,,,,,78,,,,,,,,,,0.01,2,2.4925,0,2,2,2,1,Watch old episodes of law and order at night,Study at the library,0.03,0.01,1.1,1,,,,
,,62865af5a1e349260f58cdf7,6685aa9113c938e83b4f1ea0,6700427b9ba5a0f5593693c1,2024-10-04_14h32.05.270,WTP_SM_Choice,2022.2.1,MacIntel,58.82352941,,,,,,,,,,,,,,,,,,79,,,,,,,,,,0.01,2,3.2046,0,3,3,3,1,Go to my temple every week,Watch sports and learning old sports lore,0.04,0.01,1.1,0,,,,
,,62865af5a1e349260f58cdf7,6685aa9113c938e83b4f1ea0,6700427b9ba5a0f5593693c1,2024-10-04_14h32.05.270,WTP_SM_Choice,2022.2.1,MacIntel,58.82352941,,,,,,,,,,,,,,,,,,80,,,,,,,,,,0.01,2,5.5746,0,4,4,4,1,Go to the gym and exercising for a bit,Sing with my family,0.05,0.01,4.4,1,,,,
,,62865af5a1e349260f58cdf7,6685aa9113c938e83b4f1ea0,6700427b9ba5a0f5593693c1,2024-10-04_14h32.05.270,WTP_SM_Choice,2022.2.1,MacIntel,58.82352941,,,,,,,NAN,,NAN,1.93,4.07,,0,79,79,79,1,80,Sam,Rej,Participant_Images/62865af5a1e349260f58cdf7/62865af5a1e349260f58cdf7_Images/62865af5a1e349260f58cdf7_Image_24.jpeg,did not like,3.195382774,,,,,,,,,,,,,,,,,,,,,,
,,62865af5a1e349260f58cdf7,6685aa9113c938e83b4f1ea0,6700427b9ba5a0f5593693c1,2024-10-04_14h32.05.270,WTP_SM_Choice,2022.2.1,MacIntel,58.82352941,,,,,space,4.4442,NAN,,NAN,1.93,4.07,,0,80,80,80,1,81,Sam,Rej,Participant_Images/62865af5a1e349260f58cdf7/62865af5a1e349260f58cdf7_Images/62865af5a1e349260f58cdf7_Image_25.jpeg,did not like,1.779333479,,,,,,,,,,,,,,,,,,,,,,
,,62865af5a1e349260f58cdf7,6685aa9113c938e83b4f1ea0,6700427b9ba5a0f5593693c1,2024-10-04_14h32.05.270,WTP_SM_Choice,2022.2.1,MacIntel,58.82352941,,,,,space,3.111,NAN,,NAN,1.93,4.07,,0,81,81,81,1,82,Sam,Rej,Participant_Images/62865af5a1e349260f58cdf7/62865af5a1e349260f58cdf7_Images/62865af5a1e349260f58cdf7_Image_7.jpeg,liked,4.312468682,,,,,,,,,,,,,,,,,,,,,,
,,62865af5a1e349260f58cdf7,6685aa9113c938e83b4f1ea0,6700427b9ba5a0f5593693c1,2024-10-04_14h32.05.270,WTP_SM_Choice,2022.2.1,MacIntel,58.82352941,,,,,space,2.0274,NAN,,NAN,1.93,4.07,,0,82,82,82,1,83,Sam,Rej,Participant_Images/62865af5a1e349260f58cdf7/62865af5a1e349260f58cdf7_Images/62865af5a1e349260f58cdf7_Image_5.jpeg,did not like,4.940433059,,,,,,,,,,,,,,,,,,,,,,
,,62865af5a1e349260f58cdf7,6685aa9113c938e83b4f1ea0,6700427b9ba5a0f5593693c1,2024-10-04_14h32.05.270,WTP_SM_Choice,2022.2.1,MacIntel,58.82352941,,,,,space,1.2607,NAN,,NAN,1.93,4.07,,0,83,83,83,1,84,Sam,Rej,Participant_Images/62865af5a1e349260f58cdf7/62865af5a1e349260f58cdf7_Images/62865af5a1e349260f58cdf7_Image_11.jpeg,did not like,2.7105123,,,,,,,,,,,,,,,,,,,,,,
,,62865af5a1e349260f58cdf7,6685aa9113c938e83b4f1ea0,6700427b9ba5a0f5593693c1,2024-10-04_14h32.05.270,WTP_SM_Choice,2022.2.1,MacIntel,58.82352941,,,,,,,,,,,,,,,,,,81,,,,,,space,1.2584,space,0.5842,0.02,2,3.6071,0,0,0,0,1,Peruse google maps and exploring random places via street view,Facetime calls with my best friend late at night,0.01,0.02,3.3,1,,,,
,,62865af5a1e349260f58cdf7,6685aa9113c938e83b4f1ea0,6700427b9ba5a0f5593693c1,2024-10-04_14h32.05.270,WTP_SM_Choice,2022.2.1,MacIntel,58.82352941,,,,,,,,,,,,,,,,,,82,,,,,,,,,,0.02,1,2.9109,0,1,1,1,1,Talk to my grandmother,Take long showers when I need a mental pick me up,0.02,0.02,4.4,0,,,,
,,62865af5a1e349260f58cdf7,6685aa9113c938e83b4f1ea0,6700427b9ba5a0f5593693c1,2024-10-04_14h32.05.270,WTP_SM_Choice,2022.2.1,MacIntel,58.82352941,,,,,,,,,,,,,,,,,,83,,,,,,,,,,0.03,1,2.7031,0,2,2,2,1,Take spontaneous trips with my brother,Go to a new coffee shop and reading a book,0.03,0.02,1.1,0,,,,
,,62865af5a1e349260f58cdf7,6685aa9113c938e83b4f1ea0,6700427b9ba5a0f5593693c1,2024-10-04_14h32.05.270,WTP_SM_Choice,2022.2.1,MacIntel,58.82352941,,,,,,,,,,,,,,,,,,84,,,,,,,,,,0.02,2,3.0785,0,3,3,3,1,Watch sports and learning old sports lore,Talk to my grandmother,0.04,0.02,3.3,1,,,,
,,62865af5a1e349260f58cdf7,6685aa9113c938e83b4f1ea0,6700427b9ba5a0f5593693c1,2024-10-04_14h32.05.270,WTP_SM_Choice,2022.2.1,MacIntel,58.82352941,,,,,,,,,,,,,,,,,,85,,,,,,,,,,0.02,2,3.6735,0,4,4,4,1,Go to a new coffee shop and reading a book,Go to my temple every week,0.05,0.02,3.3,1,,,,
,,62865af5a1e349260f58cdf7,6685aa9113c938e83b4f1ea0,6700427b9ba5a0f5593693c1,2024-10-04_14h32.05.270,WTP_SM_Choice,2022.2.1,MacIntel,58.82352941,,,,,,,NAN,,NAN,2.04,3.96,,0,84,84,84,1,85,Sam,Rej,Participant_Images/62865af5a1e349260f58cdf7/62865af5a1e349260f58cdf7_Images/62865af5a1e349260f58cdf7_Image_20.jpeg,liked,3.602308302,,,,,,,,,,,,,,,,,,,,,,
,,62865af5a1e349260f58cdf7,6685aa9113c938e83b4f1ea0,6700427b9ba5a0f5593693c1,2024-10-04_14h32.05.270,WTP_SM_Choice,2022.2.1,MacIntel,58.82352941,,,,,space,1.4891,NAN,,NAN,2.04,3.96,,0,85,85,85,1,86,Sam,Rej,Participant_Images/62865af5a1e349260f58cdf7/62865af5a1e349260f58cdf7_Images/62865af5a1e349260f58cdf7_Image_19.jpeg,did not like,4.106391878,,,,,,,,,,,,,,,,,,,,,,
,,62865af5a1e349260f58cdf7,6685aa9113c938e83b4f1ea0,6700427b9ba5a0f5593693c1,2024-10-04_14h32.05.270,WTP_SM_Choice,2022.2.1,MacIntel,58.82352941,,,,,space,1.8043,NAN,,NAN,2.04,3.96,,0,86,86,86,1,87,Sam,Rej,Participant_Images/62865af5a1e349260f58cdf7/62865af5a1e349260f58cdf7_Images/62865af5a1e349260f58cdf7_Image_12.jpeg,did not like,3.799433026,,,,,,,,,,,,,,,,,,,,,,
,,62865af5a1e349260f58cdf7,6685aa9113c938e83b4f1ea0,6700427b9ba5a0f5593693c1,2024-10-04_14h32.05.270,WTP_SM_Choice,2022.2.1,MacIntel,58.82352941,,,,,space,0.9234,NAN,,NAN,2.04,3.96,,0,87,87,87,1,88,Sam,Rej,Participant_Images/62865af5a1e349260f58cdf7/62865af5a1e349260f58cdf7_Images/62865af5a1e349260f58cdf7_Image_16.jpeg,did not like,5.246980764,,,,,,,,,,,,,,,,,,,,,,
,,62865af5a1e349260f58cdf7,6685aa9113c938e83b4f1ea0,6700427b9ba5a0f5593693c1,2024-10-04_14h32.05.270,WTP_SM_Choice,2022.2.1,MacIntel,58.82352941,,,,,space,0.8523,NAN,,NAN,2.04,3.96,,0,88,88,88,1,89,Sam,Rej,Participant_Images/62865af5a1e349260f58cdf7/62865af5a1e349260f58cdf7_Images/62865af5a1e349260f58cdf7_Image_10.jpeg,liked,3.30081769,,,,,,,,,,,,,,,,,,,,,,
,,62865af5a1e349260f58cdf7,6685aa9113c938e83b4f1ea0,6700427b9ba5a0f5593693c1,2024-10-04_14h32.05.270,WTP_SM_Choice,2022.2.1,MacIntel,58.82352941,,,,,,,,,,,,,,,,,,86,,,,,,space,2.3302,space,0.2575,0.03,2,1.1351,0,0,0,0,1,Read a book on my couch on a rainy day,Sing with my family,0.01,0.03,1.1,1,,,,
,,62865af5a1e349260f58cdf7,6685aa9113c938e83b4f1ea0,6700427b9ba5a0f5593693c1,2024-10-04_14h32.05.270,WTP_SM_Choice,2022.2.1,MacIntel,58.82352941,,,,,,,,,,,,,,,,,,87,,,,,,,,,,0.02,1,1.6818,0,1,1,1,1,Watch old episodes of law and order at night,Take spontaneous trips with my brother,0.02,0.03,4.4,1,,,,
,,62865af5a1e349260f58cdf7,6685aa9113c938e83b4f1ea0,6700427b9ba5a0f5593693c1,2024-10-04_14h32.05.270,WTP_SM_Choice,2022.2.1,MacIntel,58.82352941,,,,,,,,,,,,,,,,,,88,,,,,,,,,,0.03,1,8.1736,0,2,2,2,1,Go on road trips with friends,Go to a new coffee shop and reading a book,0.03,0.03,1.1,0,,,,
,,62865af5a1e349260f58cdf7,6685aa9113c938e83b4f1ea0,6700427b9ba5a0f5593693c1,2024-10-04_14h32.05.270,WTP_SM_Choice,2022.2.1,MacIntel,58.82352941,,,,,,,,,,,,,,,,,,89,,,,,,,,,,0.03,2,2.694,0,3,3,3,1,Take long showers when I need a mental pick me up,Facetime calls with my best friend late at night,0.04,0.03,3.3,1,,,,
,,62865af5a1e349260f58cdf7,6685aa9113c938e83b4f1ea0,6700427b9ba5a0f5593693c1,2024-10-04_14h32.05.270,WTP_SM_Choice,2022.2.1,MacIntel,58.82352941,,,,,,,,,,,,,,,,,,90,,,,,,,,,,0.03,2,2.754,0,4,4,4,1,Go on road trips with friends,Teach myself graphic design and learning new techniques in my free time,0.05,0.03,8.8,0,,,,
,,62865af5a1e349260f58cdf7,6685aa9113c938e83b4f1ea0,6700427b9ba5a0f5593693c1,2024-10-04_14h32.05.270,WTP_SM_Choice,2022.2.1,MacIntel,58.82352941,,,,,,,NAN,,NAN,2.18,3.82,,0,89,89,89,1,90,Sam,Rej,Participant_Images/62865af5a1e349260f58cdf7/62865af5a1e349260f58cdf7_Images/62865af5a1e349260f58cdf7_Image_2.jpeg,liked,1.661473164,,,,,,,,,,,,,,,,,,,,,,
,,62865af5a1e349260f58cdf7,6685aa9113c938e83b4f1ea0,6700427b9ba5a0f5593693c1,2024-10-04_14h32.05.270,WTP_SM_Choice,2022.2.1,MacIntel,58.82352941,,,,,space,0.8934,NAN,,NAN,2.18,3.82,,0,90,90,90,1,91,Sam,Rej,Participant_Images/62865af5a1e349260f58cdf7/62865af5a1e349260f58cdf7_Images/62865af5a1e349260f58cdf7_Image_9.jpeg,did not like,3.613205605,,,,,,,,,,,,,,,,,,,,,,
,,62865af5a1e349260f58cdf7,6685aa9113c938e83b4f1ea0,6700427b9ba5a0f5593693c1,2024-10-04_14h32.05.270,WTP_SM_Choice,2022.2.1,MacIntel,58.82352941,,,,,space,1.4181,NAN,,NAN,2.18,3.82,,0,91,91,91,1,92,Sam,Rej,Participant_Images/62865af5a1e349260f58cdf7/62865af5a1e349260f58cdf7_Images/62865af5a1e349260f58cdf7_Image_3.jpeg,did not like,4.988446431,,,,,,,,,,,,,,,,,,,,,,
,,62865af5a1e349260f58cdf7,6685aa9113c938e83b4f1ea0,6700427b9ba5a0f5593693c1,2024-10-04_14h32.05.270,WTP_SM_Choice,2022.2.1,MacIntel,58.82352941,,,,,space,5.6221,NAN,,NAN,2.18,3.82,,0,92,92,92,1,93,Sam,Rej,Participant_Images/62865af5a1e349260f58cdf7/62865af5a1e349260f58cdf7_Images/62865af5a1e349260f58cdf7_Image_22.jpeg,did not like,3.470791822,,,,,,,,,,,,,,,,,,,,,,
,,62865af5a1e349260f58cdf7,6685aa9113c938e83b4f1ea0,6700427b9ba5a0f5593693c1,2024-10-04_14h32.05.270,WTP_SM_Choice,2022.2.1,MacIntel,58.82352941,,,,,space,0.6436,NAN,,NAN,2.18,3.82,,0,93,93,93,1,94,Sam,Rej,Participant_Images/62865af5a1e349260f58cdf7/62865af5a1e349260f58cdf7_Images/62865af5a1e349260f58cdf7_Image_1.jpeg,liked,3.820572462,,,,,,,,,,,,,,,,,,,,,,
,,62865af5a1e349260f58cdf7,6685aa9113c938e83b4f1ea0,6700427b9ba5a0f5593693c1,2024-10-04_14h32.05.270,WTP_SM_Choice,2022.2.1,MacIntel,58.82352941,,,,,,,,,,,,,,,,,,91,,,,,,space,0.6929,space,0.234,0.04,2,1.0821,0,0,0,0,1,Watch sports with my family,Go to the gym and exercising for a bit,0.01,0.04,3.3,0,,,,
,,62865af5a1e349260f58cdf7,6685aa9113c938e83b4f1ea0,6700427b9ba5a0f5593693c1,2024-10-04_14h32.05.270,WTP_SM_Choice,2022.2.1,MacIntel,58.82352941,,,,,,,,,,,,,,,,,,92,,,,,,,,,,0.04,2,5.9366,0,1,1,1,1,Go to a new coffee shop and reading a book,Study at the library,0.02,0.04,8.8,1,,,,
,,62865af5a1e349260f58cdf7,6685aa9113c938e83b4f1ea0,6700427b9ba5a0f5593693c1,2024-10-04_14h32.05.270,WTP_SM_Choice,2022.2.1,MacIntel,58.82352941,,,,,,,,,,,,,,,,,,93,,,,,,,,,,0.03,1,4.2381,0,2,2,2,1,Teach myself graphic design and learning new techniques in my free time,Go to my temple every week,0.03,0.04,1.1,1,,,,
,,62865af5a1e349260f58cdf7,6685aa9113c938e83b4f1ea0,6700427b9ba5a0f5593693c1,2024-10-04_14h32.05.270,WTP_SM_Choice,2022.2.1,MacIntel,58.82352941,,,,,,,,,,,,,,,,,,94,,,,,,,,,,0.04,1,2.4386,0,3,3,3,1,Cook a nice meal and eating on the patio on a sunny day,Go to a new coffee shop and chitchatting about everything,0.04,0.04,4.4,1,,,,
,,62865af5a1e349260f58cdf7,6685aa9113c938e83b4f1ea0,6700427b9ba5a0f5593693c1,2024-10-04_14h32.05.270,WTP_SM_Choice,2022.2.1,MacIntel,58.82352941,,,,,,,,,,,,,,,,,,95,,,,,,,,,,0.04,2,3.6565,0,4,4,4,1,Watch old episodes of law and order at night,Go on road trips with friends,0.05,0.04,4.4,1,,,,
,,62865af5a1e349260f58cdf7,6685aa9113c938e83b4f1ea0,6700427b9ba5a0f5593693c1,2024-10-04_14h32.05.270,WTP_SM_Choice,2022.2.1,MacIntel,58.82352941,,,,,,,NAN,,NAN,2.37,3.63,,0,94,94,94,1,95,Sam,Rej,Participant_Images/62865af5a1e349260f58cdf7/62865af5a1e349260f58cdf7_Images/62865af5a1e349260f58cdf7_Image_4.jpeg,did not like,2.455989137,,,,,,,,,,,,,,,,,,,,,,
,,62865af5a1e349260f58cdf7,6685aa9113c938e83b4f1ea0,6700427b9ba5a0f5593693c1,2024-10-04_14h32.05.270,WTP_SM_Choice,2022.2.1,MacIntel,58.82352941,,,,,space,2.1889,NAN,,NAN,2.37,3.63,,0,95,95,95,1,96,Sam,Rej,Participant_Images/62865af5a1e349260f58cdf7/62865af5a1e349260f58cdf7_Images/62865af5a1e349260f58cdf7_Image_8.jpeg,did not like,3.79605092,,,,,,,,,,,,,,,,,,,,,,
,,62865af5a1e349260f58cdf7,6685aa9113c938e83b4f1ea0,6700427b9ba5a0f5593693c1,2024-10-04_14h32.05.270,WTP_SM_Choice,2022.2.1,MacIntel,58.82352941,,,,,space,1.1373,NAN,,NAN,2.37,3.63,,0,96,96,96,1,97,Sam,Rej,Participant_Images/62865af5a1e349260f58cdf7/62865af5a1e349260f58cdf7_Images/62865af5a1e349260f58cdf7_Image_13.jpeg,did not like,3.562416326,,,,,,,,,,,,,,,,,,,,,,
,,62865af5a1e349260f58cdf7,6685aa9113c938e83b4f1ea0,6700427b9ba5a0f5593693c1,2024-10-04_14h32.05.270,WTP_SM_Choice,2022.2.1,MacIntel,58.82352941,,,,,space,2.2872,NAN,,NAN,2.37,3.63,,0,97,97,97,1,98,Sam,Rej,Participant_Images/62865af5a1e349260f58cdf7/62865af5a1e349260f58cdf7_Images/62865af5a1e349260f58cdf7_Image_17.jpeg,did not like,2.843822497,,,,,,,,,,,,,,,,,,,,,,
,,62865af5a1e349260f58cdf7,6685aa9113c938e83b4f1ea0,6700427b9ba5a0f5593693c1,2024-10-04_14h32.05.270,WTP_SM_Choice,2022.2.1,MacIntel,58.82352941,,,,,space,0.6026,NAN,,NAN,2.37,3.63,,0,98,98,98,1,99,Sam,Rej,Participant_Images/62865af5a1e349260f58cdf7/62865af5a1e349260f58cdf7_Images/62865af5a1e349260f58cdf7_Image_15.jpeg,did not like,3.546495948,,,,,,,,,,,,,,,,,,,,,,
,,62865af5a1e349260f58cdf7,6685aa9113c938e83b4f1ea0,6700427b9ba5a0f5593693c1,2024-10-04_14h32.05.270,WTP_SM_Choice,2022.2.1,MacIntel,58.82352941,,,,,,,,,,,,,,,,,,96,,,,,,space,1.401,space,7.8874,0.01,1,1.2202,0,0,0,0,1,Scroll through tik tok when I'm supposed to be asleep,Go to a new coffee shop and chitchatting about everything,0.01,0.05,3.3,1,,,,
,,62865af5a1e349260f58cdf7,6685aa9113c938e83b4f1ea0,6700427b9ba5a0f5593693c1,2024-10-04_14h32.05.270,WTP_SM_Choice,2022.2.1,MacIntel,58.82352941,,,,,,,,,,,,,,,,,,97,,,,,,,,,,0.02,1,1.4872,0,1,1,1,1,Sing with my family,Cook a nice meal and eating on the patio on a sunny day,0.02,0.05,1.1,0,,,,
,,62865af5a1e349260f58cdf7,6685aa9113c938e83b4f1ea0,6700427b9ba5a0f5593693c1,2024-10-04_14h32.05.270,WTP_SM_Choice,2022.2.1,MacIntel,58.82352941,,,,,,,,,,,,,,,,,,98,,,,,,,,,,0.03,1,1.8367,0,2,2,2,1,Scroll through tik tok when I'm supposed to be asleep,Take spontaneous trips with my brother,0.03,0.05,1.1,1,,,,
,,62865af5a1e349260f58cdf7,6685aa9113c938e83b4f1ea0,6700427b9ba5a0f5593693c1,2024-10-04_14h32.05.270,WTP_SM_Choice,2022.2.1,MacIntel,58.82352941,,,,,,,,,,,,,,,,,,99,,,,,,,,,,0.04,1,1.4559,0,3,3,3,1,Teach myself graphic design and learning new techniques in my free time,Go to a new coffee shop and chitchatting about everything,0.04,0.05,3.3,1,,,,
,,62865af5a1e349260f58cdf7,6685aa9113c938e83b4f1ea0,6700427b9ba5a0f5593693c1,2024-10-04_14h32.05.270,WTP_SM_Choice,2022.2.1,MacIntel,58.82352941,,,,,,,,,,,,,,,,,,100,,,,,,,,,,0.05,2,1.8179,0,4,4,4,1,Cook a nice meal and eating on the patio on a sunny day,Talk to my grandmother,0.05,0.05,4.4,1,,,,
,,62865af5a1e349260f58cdf7,6685aa9113c938e83b4f1ea0,6700427b9ba5a0f5593693c1,2024-10-04_14h32.05.270,WTP_SM_Choice,2022.2.1,MacIntel,58.82352941,,,,,,,4,,2,2.52,3.48,,0,99,99,99,1,100,Sam,Rej,Participant_Images/62865af5a1e349260f58cdf7/62865af5a1e349260f58cdf7_Images/62865af5a1e349260f58cdf7_Image_21.jpeg,did not like,1.672012706,,,,,,,,,,,,,,,,,,,space,1.5597,,
,,62865af5a1e349260f58cdf7,6685aa9113c938e83b4f1ea0,6700427b9ba5a0f5593693c1,2024-10-04_14h32.05.270,WTP_SM_Choice,2022.2.1,MacIntel,58.82352941,,,,,,,,,,,,,,,,,,,,,,,,,,,,,,,,,,,,,,,,,,,,space,6.9908
