endwelcomescreen_keys.keys,endwelcomescreen_keys.rt,participant,STUDY_ID,SESSION_ID,date,expName,psychopyVersion,OS,frameRate,endinstructionscreen_keys.keys,endinstructionscreen_keys.rt,endpartnermatch_keys.keys,endpartnermatch_keys.rt,sharenextphoto_key.keys,sharenextphoto_key.rt,salience_rating,key_resp.keys,stress_level,subtract_bonus,TOTAL_TASK_BONUS,stresslevel_keypress.keys,entiretaskloop.thisRepN,entiretaskloop.thisTrialN,entiretaskloop.thisN,entiretaskloop.thisIndex,entiretaskloop.ran,TrialNumber,Partner,Condition,Photos,Feedback,FeedbackWait,WTP_ins_keys1.keys,WTP_ins_keys1.rt,WTP_ins_keys2.keys,WTP_ins_keys2.rt,decision_price,responses.keys,responses.rt,WTPTaskLoop.thisRepN,WTPTaskLoop.thisTrialN,WTPTaskLoop.thisN,WTPTaskLoop.thisIndex,WTPTaskLoop.ran,right,left,leftmoney,rightmoney,WTP_ITI,social_left,Resume_keys.keys,Resume_keys.rt,key_resp.rt,end_screen_keys.keys,end_screen_keys.rt
space,19.5237,63d161e70272bba9f3f70980,6685aa9113c938e83b4f1ea0,67007f967d30653e7e1c218a,2024-10-04_19h58.55.250,WTP_SM_Choice,2022.2.1,Win32,7.501875469,,,,,,,,,,,,,,,,,,,,,,,,,,,,,,,,,,,,,,,,,,,,,,
,,63d161e70272bba9f3f70980,6685aa9113c938e83b4f1ea0,67007f967d30653e7e1c218a,2024-10-04_19h58.55.250,WTP_SM_Choice,2022.2.1,Win32,7.501875469,space,10.5558,,,,,,,,,,,,,,,,,,,,,,,,,,,,,,,,,,,,,,,,,,,,
,,63d161e70272bba9f3f70980,6685aa9113c938e83b4f1ea0,67007f967d30653e7e1c218a,2024-10-04_19h58.55.250,WTP_SM_Choice,2022.2.1,Win32,7.501875469,,,space,23.6837,space,1.8322,NAN,,NAN,0,6,,0,0,0,0,1,1,Sam,Rej,Participant_Images/63d161e70272bba9f3f70980/63d161e70272bba9f3f70980_Images/63d161e70272bba9f3f70980_Image_12.jpeg,did not like,3.613205605,,,,,,,,,,,,,,,,,,,,,,,
,,63d161e70272bba9f3f70980,6685aa9113c938e83b4f1ea0,67007f967d30653e7e1c218a,2024-10-04_19h58.55.250,WTP_SM_Choice,2022.2.1,Win32,7.501875469,,,,,space,0.7669,NAN,,NAN,0,6,,0,1,1,1,1,2,Sam,Rej,Participant_Images/63d161e70272bba9f3f70980/63d161e70272bba9f3f70980_Images/63d161e70272bba9f3f70980_Image_4.jpeg,did not like,4.988446431,,,,,,,,,,,,,,,,,,,,,,,
,,63d161e70272bba9f3f70980,6685aa9113c938e83b4f1ea0,67007f967d30653e7e1c218a,2024-10-04_19h58.55.250,WTP_SM_Choice,2022.2.1,Win32,7.501875469,,,,,space,0.7851,NAN,,NAN,0,6,,0,2,2,2,1,3,Sam,Rej,Participant_Images/63d161e70272bba9f3f70980/63d161e70272bba9f3f70980_Images/63d161e70272bba9f3f70980_Image_19.jpeg,liked,3.470791822,,,,,,,,,,,,,,,,,,,,,,,
,,63d161e70272bba9f3f70980,6685aa9113c938e83b4f1ea0,67007f967d30653e7e1c218a,2024-10-04_19h58.55.250,WTP_SM_Choice,2022.2.1,Win32,7.501875469,,,,,space,2.0697,NAN,,NAN,0,6,,0,3,3,3,1,4,Sam,Rej,Participant_Images/63d161e70272bba9f3f70980/63d161e70272bba9f3f70980_Images/63d161e70272bba9f3f70980_Image_22.jpeg,did not like,3.820572462,,,,,,,,,,,,,,,,,,,,,,,
,,63d161e70272bba9f3f70980,6685aa9113c938e83b4f1ea0,67007f967d30653e7e1c218a,2024-10-04_19h58.55.250,WTP_SM_Choice,2022.2.1,Win32,7.501875469,,,,,,,,,,,,,,,,,,1,,,,,,space,25.3729,space,6.4027,0.01,2,4.7846,0,0,0,0,1,Do random karaoke through singing video games,Look for comic book shops to check out together,0.01,0.01,4.4,1,,,,,
,,63d161e70272bba9f3f70980,6685aa9113c938e83b4f1ea0,67007f967d30653e7e1c218a,2024-10-04_19h58.55.250,WTP_SM_Choice,2022.2.1,Win32,7.501875469,,,,,,,,,,,,,,,,,,2,,,,,,,,,,0.01,2,2.5241,0,1,1,1,1,Have parsec gaming nights with new friends to introduce some games,Look up new recipes for birthday cake stuff,0.02,0.01,8.8,0,,,,,
,,63d161e70272bba9f3f70980,6685aa9113c938e83b4f1ea0,67007f967d30653e7e1c218a,2024-10-04_19h58.55.250,WTP_SM_Choice,2022.2.1,Win32,7.501875469,,,,,,,,,,,,,,,,,,3,,,,,,,,,,0.03,1,2.2023,0,2,2,2,1,Research my favorite shows and learning more behind the scenes information I didn't know,Look for comic book shops to check out together,0.03,0.01,3.3,1,,,,,
,,63d161e70272bba9f3f70980,6685aa9113c938e83b4f1ea0,67007f967d30653e7e1c218a,2024-10-04_19h58.55.250,WTP_SM_Choice,2022.2.1,Win32,7.501875469,,,,,,,,,,,,,,,,,,4,,,,,,,,,,0.04,1,3.3318,0,3,3,3,1,demonstrate to some of my friends kind of a crash course on tinkering and modding game consoles and systems,Look up new recipes for birthday cake stuff,0.04,0.01,1.1,0,,,,,
,,63d161e70272bba9f3f70980,6685aa9113c938e83b4f1ea0,67007f967d30653e7e1c218a,2024-10-04_19h58.55.250,WTP_SM_Choice,2022.2.1,Win32,7.501875469,,,,,,,,,,,,,,,,,,5,,,,,,,,,,0.05,1,2.3436,0,4,4,4,1,Hang out with a weekly gaming group in the city,Turn off social media during the beginning and end of the day to clear my head and keep a calm state,0.05,0.01,1.1,0,,,,,
,,63d161e70272bba9f3f70980,6685aa9113c938e83b4f1ea0,67007f967d30653e7e1c218a,2024-10-04_19h58.55.250,WTP_SM_Choice,2022.2.1,Win32,7.501875469,,,,,,,NAN,,NAN,0.14,5.86,,0,4,4,4,1,5,Sam,Rej,Participant_Images/63d161e70272bba9f3f70980/63d161e70272bba9f3f70980_Images/63d161e70272bba9f3f70980_Image_7.jpeg,did not like,2.455989137,,,,,,,,,,,,,,,,,,,,,,,
,,63d161e70272bba9f3f70980,6685aa9113c938e83b4f1ea0,67007f967d30653e7e1c218a,2024-10-04_19h58.55.250,WTP_SM_Choice,2022.2.1,Win32,7.501875469,,,,,space,1.5228,NAN,,NAN,0.14,5.86,,0,5,5,5,1,6,Sam,Rej,Participant_Images/63d161e70272bba9f3f70980/63d161e70272bba9f3f70980_Images/63d161e70272bba9f3f70980_Image_16.jpeg,did not like,3.79605092,,,,,,,,,,,,,,,,,,,,,,,
,,63d161e70272bba9f3f70980,6685aa9113c938e83b4f1ea0,67007f967d30653e7e1c218a,2024-10-04_19h58.55.250,WTP_SM_Choice,2022.2.1,Win32,7.501875469,,,,,space,5.859,NAN,,NAN,0.14,5.86,,0,6,6,6,1,7,Sam,Rej,Participant_Images/63d161e70272bba9f3f70980/63d161e70272bba9f3f70980_Images/63d161e70272bba9f3f70980_Image_14.jpeg,did not like,3.562416326,,,,,,,,,,,,,,,,,,,,,,,
,,63d161e70272bba9f3f70980,6685aa9113c938e83b4f1ea0,67007f967d30653e7e1c218a,2024-10-04_19h58.55.250,WTP_SM_Choice,2022.2.1,Win32,7.501875469,,,,,space,3.82,NAN,,NAN,0.14,5.86,,0,7,7,7,1,8,Sam,Rej,Participant_Images/63d161e70272bba9f3f70980/63d161e70272bba9f3f70980_Images/63d161e70272bba9f3f70980_Image_23.jpeg,did not like,2.843822497,,,,,,,,,,,,,,,,,,,,,,,
,,63d161e70272bba9f3f70980,6685aa9113c938e83b4f1ea0,67007f967d30653e7e1c218a,2024-10-04_19h58.55.250,WTP_SM_Choice,2022.2.1,Win32,7.501875469,,,,,space,1.9907,NAN,,NAN,0.14,5.86,,0,8,8,8,1,9,Sam,Rej,Participant_Images/63d161e70272bba9f3f70980/63d161e70272bba9f3f70980_Images/63d161e70272bba9f3f70980_Image_3.jpeg,liked,3.546495948,,,,,,,,,,,,,,,,,,,,,,,
,,63d161e70272bba9f3f70980,6685aa9113c938e83b4f1ea0,67007f967d30653e7e1c218a,2024-10-04_19h58.55.250,WTP_SM_Choice,2022.2.1,Win32,7.501875469,,,,,,,,,,,,,,,,,,6,,,,,,space,4.4126,space,2.6125,0.02,2,5.122,0,0,0,0,1,Find new games to play with friends together for the first time,Research my favorite shows and learning more behind the scenes information I didn't know,0.01,0.02,3.3,0,,,,,
,,63d161e70272bba9f3f70980,6685aa9113c938e83b4f1ea0,67007f967d30653e7e1c218a,2024-10-04_19h58.55.250,WTP_SM_Choice,2022.2.1,Win32,7.501875469,,,,,,,,,,,,,,,,,,7,,,,,,,,,,0.02,2,3.3085,0,1,1,1,1,Find new games to play with friends together for the first time,Look up new recipes for birthday cake stuff,0.02,0.02,1.1,0,,,,,
,,63d161e70272bba9f3f70980,6685aa9113c938e83b4f1ea0,67007f967d30653e7e1c218a,2024-10-04_19h58.55.250,WTP_SM_Choice,2022.2.1,Win32,7.501875469,,,,,,,,,,,,,,,,,,8,,,,,,,,,,0.03,1,2.3463,0,2,2,2,1,Go to one of the usual ramen places with my friends to chill before seeing a movie together in theaters,Play games that are bizarre and very out there,0.03,0.02,1.1,0,,,,,
,,63d161e70272bba9f3f70980,6685aa9113c938e83b4f1ea0,67007f967d30653e7e1c218a,2024-10-04_19h58.55.250,WTP_SM_Choice,2022.2.1,Win32,7.501875469,,,,,,,,,,,,,,,,,,9,,,,,,,,,,0.04,1,3.0479,0,3,3,3,1,Collect new nerdy gaming shirts to wear that stand out to me,demonstrate to some of my friends kind of a crash course on tinkering and modding game consoles and systems,0.04,0.02,4.4,1,,,,,
,,63d161e70272bba9f3f70980,6685aa9113c938e83b4f1ea0,67007f967d30653e7e1c218a,2024-10-04_19h58.55.250,WTP_SM_Choice,2022.2.1,Win32,7.501875469,,,,,,,,,,,,,,,,,,10,,,,,,,,,,0.05,1,4.293,0,4,4,4,1,Collect new nerdy gaming shirts to wear that stand out to me,Hang out with a weekly gaming group in the city,0.05,0.02,1.1,1,,,,,
,,63d161e70272bba9f3f70980,6685aa9113c938e83b4f1ea0,67007f967d30653e7e1c218a,2024-10-04_19h58.55.250,WTP_SM_Choice,2022.2.1,Win32,7.501875469,,,,,,,NAN,,NAN,0.3,5.7,,0,9,9,9,1,10,Sam,Rej,Participant_Images/63d161e70272bba9f3f70980/63d161e70272bba9f3f70980_Images/63d161e70272bba9f3f70980_Image_1.jpeg,did not like,1.672012706,,,,,,,,,,,,,,,,,,,,,,,
,,63d161e70272bba9f3f70980,6685aa9113c938e83b4f1ea0,67007f967d30653e7e1c218a,2024-10-04_19h58.55.250,WTP_SM_Choice,2022.2.1,Win32,7.501875469,,,,,space,8.1566,NAN,,NAN,0.3,5.7,,0,10,10,10,1,11,Sam,Rej,Participant_Images/63d161e70272bba9f3f70980/63d161e70272bba9f3f70980_Images/63d161e70272bba9f3f70980_Image_5.jpeg,did not like,4.942172136,,,,,,,,,,,,,,,,,,,,,,,
,,63d161e70272bba9f3f70980,6685aa9113c938e83b4f1ea0,67007f967d30653e7e1c218a,2024-10-04_19h58.55.250,WTP_SM_Choice,2022.2.1,Win32,7.501875469,,,,,space,3.6535,NAN,,NAN,0.3,5.7,,0,11,11,11,1,12,Sam,Rej,Participant_Images/63d161e70272bba9f3f70980/63d161e70272bba9f3f70980_Images/63d161e70272bba9f3f70980_Image_17.jpeg,did not like,2.50187214,,,,,,,,,,,,,,,,,,,,,,,
,,63d161e70272bba9f3f70980,6685aa9113c938e83b4f1ea0,67007f967d30653e7e1c218a,2024-10-04_19h58.55.250,WTP_SM_Choice,2022.2.1,Win32,7.501875469,,,,,space,5.2241,NAN,,NAN,0.3,5.7,,0,12,12,12,1,13,Sam,Rej,Participant_Images/63d161e70272bba9f3f70980/63d161e70272bba9f3f70980_Images/63d161e70272bba9f3f70980_Image_11.jpeg,did not like,2.071164779,,,,,,,,,,,,,,,,,,,,,,,
,,63d161e70272bba9f3f70980,6685aa9113c938e83b4f1ea0,67007f967d30653e7e1c218a,2024-10-04_19h58.55.250,WTP_SM_Choice,2022.2.1,Win32,7.501875469,,,,,space,2.282,NAN,,NAN,0.3,5.7,,0,13,13,13,1,14,Sam,Rej,Participant_Images/63d161e70272bba9f3f70980/63d161e70272bba9f3f70980_Images/63d161e70272bba9f3f70980_Image_10.jpeg,liked,5.336503566,,,,,,,,,,,,,,,,,,,,,,,
,,63d161e70272bba9f3f70980,6685aa9113c938e83b4f1ea0,67007f967d30653e7e1c218a,2024-10-04_19h58.55.250,WTP_SM_Choice,2022.2.1,Win32,7.501875469,,,,,,,,,,,,,,,,,,11,,,,,,space,17.4506,space,2.4229,0.01,1,1.2346,0,0,0,0,1,Look up new recipes for birthday cake stuff,Stream activities on twitch,0.01,0.03,3.3,1,,,,,
,,63d161e70272bba9f3f70980,6685aa9113c938e83b4f1ea0,67007f967d30653e7e1c218a,2024-10-04_19h58.55.250,WTP_SM_Choice,2022.2.1,Win32,7.501875469,,,,,,,,,,,,,,,,,,12,,,,,,,,,,0.02,1,1.9339,0,1,1,1,1,Coordinate discord movie and show nights to watch stuff together,Tinker with game systems and seeing what new things I can add to them,0.02,0.03,4.4,0,,,,,
,,63d161e70272bba9f3f70980,6685aa9113c938e83b4f1ea0,67007f967d30653e7e1c218a,2024-10-04_19h58.55.250,WTP_SM_Choice,2022.2.1,Win32,7.501875469,,,,,,,,,,,,,,,,,,13,,,,,,,,,,0.03,2,2.0561,0,2,2,2,1,Turn off social media during the beginning and end of the day to clear my head and keep a calm state,Stream activities on twitch,0.03,0.03,1.1,1,,,,,
,,63d161e70272bba9f3f70980,6685aa9113c938e83b4f1ea0,67007f967d30653e7e1c218a,2024-10-04_19h58.55.250,WTP_SM_Choice,2022.2.1,Win32,7.501875469,,,,,,,,,,,,,,,,,,14,,,,,,,,,,0.03,2,1.2656,0,3,3,3,1,Look for comic book shops to check out together,Take a walk outside alone music on my headphones during the night,0.04,0.03,3.3,0,,,,,
,,63d161e70272bba9f3f70980,6685aa9113c938e83b4f1ea0,67007f967d30653e7e1c218a,2024-10-04_19h58.55.250,WTP_SM_Choice,2022.2.1,Win32,7.501875469,,,,,,,,,,,,,,,,,,15,,,,,,,,,,0.03,2,1.1273,0,4,4,4,1,Collect new nerdy gaming shirts to wear that stand out to me,Find new games to play with friends together for the first time,0.05,0.03,4.4,1,,,,,
,,63d161e70272bba9f3f70980,6685aa9113c938e83b4f1ea0,67007f967d30653e7e1c218a,2024-10-04_19h58.55.250,WTP_SM_Choice,2022.2.1,Win32,7.501875469,,,,,,,NAN,,NAN,0.42,5.58,,0,14,14,14,1,15,Sam,Rej,Participant_Images/63d161e70272bba9f3f70980/63d161e70272bba9f3f70980_Images/63d161e70272bba9f3f70980_Image_15.jpeg,liked,2.642157193,,,,,,,,,,,,,,,,,,,,,,,
,,63d161e70272bba9f3f70980,6685aa9113c938e83b4f1ea0,67007f967d30653e7e1c218a,2024-10-04_19h58.55.250,WTP_SM_Choice,2022.2.1,Win32,7.501875469,,,,,space,2.6564,NAN,,NAN,0.42,5.58,,0,15,15,15,1,16,Sam,Rej,Participant_Images/63d161e70272bba9f3f70980/63d161e70272bba9f3f70980_Images/63d161e70272bba9f3f70980_Image_13.jpeg,did not like,4.456234322,,,,,,,,,,,,,,,,,,,,,,,
,,63d161e70272bba9f3f70980,6685aa9113c938e83b4f1ea0,67007f967d30653e7e1c218a,2024-10-04_19h58.55.250,WTP_SM_Choice,2022.2.1,Win32,7.501875469,,,,,space,2.6119,NAN,,NAN,0.42,5.58,,0,16,16,16,1,17,Sam,Rej,Participant_Images/63d161e70272bba9f3f70980/63d161e70272bba9f3f70980_Images/63d161e70272bba9f3f70980_Image_8.jpeg,liked,4.438512181,,,,,,,,,,,,,,,,,,,,,,,
,,63d161e70272bba9f3f70980,6685aa9113c938e83b4f1ea0,67007f967d30653e7e1c218a,2024-10-04_19h58.55.250,WTP_SM_Choice,2022.2.1,Win32,7.501875469,,,,,space,2.7697,NAN,,NAN,0.42,5.58,,0,17,17,17,1,18,Sam,Rej,Participant_Images/63d161e70272bba9f3f70980/63d161e70272bba9f3f70980_Images/63d161e70272bba9f3f70980_Image_2.jpeg,did not like,2.682944783,,,,,,,,,,,,,,,,,,,,,,,
,,63d161e70272bba9f3f70980,6685aa9113c938e83b4f1ea0,67007f967d30653e7e1c218a,2024-10-04_19h58.55.250,WTP_SM_Choice,2022.2.1,Win32,7.501875469,,,,,space,6.4292,NAN,,NAN,0.42,5.58,,0,18,18,18,1,19,Sam,Rej,Participant_Images/63d161e70272bba9f3f70980/63d161e70272bba9f3f70980_Images/63d161e70272bba9f3f70980_Image_9.jpeg,liked,4.51984296,,,,,,,,,,,,,,,,,,,,,,,
,,63d161e70272bba9f3f70980,6685aa9113c938e83b4f1ea0,67007f967d30653e7e1c218a,2024-10-04_19h58.55.250,WTP_SM_Choice,2022.2.1,Win32,7.501875469,,,,,,,,,,,,,,,,,,16,,,,,,space,17.8608,space,1.6175,0.01,1,1.253,0,0,0,0,1,Coordinate discord movie and show nights to watch stuff together,Look up new recipes for birthday cake stuff,0.01,0.04,1.1,0,,,,,
,,63d161e70272bba9f3f70980,6685aa9113c938e83b4f1ea0,67007f967d30653e7e1c218a,2024-10-04_19h58.55.250,WTP_SM_Choice,2022.2.1,Win32,7.501875469,,,,,,,,,,,,,,,,,,17,,,,,,,,,,0.02,1,1.1093,0,1,1,1,1,Play games that are bizarre and very out there,demonstrate to some of my friends kind of a crash course on tinkering and modding game consoles and systems,0.02,0.04,8.8,1,,,,,
,,63d161e70272bba9f3f70980,6685aa9113c938e83b4f1ea0,67007f967d30653e7e1c218a,2024-10-04_19h58.55.250,WTP_SM_Choice,2022.2.1,Win32,7.501875469,,,,,,,,,,,,,,,,,,18,,,,,,,,,,0.03,1,1.7677,0,2,2,2,1,Explore new music to listen to through different playlists,Coordinate discord movie and show nights to watch stuff together,0.03,0.04,3.3,1,,,,,
,,63d161e70272bba9f3f70980,6685aa9113c938e83b4f1ea0,67007f967d30653e7e1c218a,2024-10-04_19h58.55.250,WTP_SM_Choice,2022.2.1,Win32,7.501875469,,,,,,,,,,,,,,,,,,19,,,,,,,,,,0.04,1,2.9672,0,3,3,3,1,Check out stores and seeing what toys are available,Have parsec gaming nights with new friends to introduce some games,0.04,0.04,3.3,1,,,,,
,,63d161e70272bba9f3f70980,6685aa9113c938e83b4f1ea0,67007f967d30653e7e1c218a,2024-10-04_19h58.55.250,WTP_SM_Choice,2022.2.1,Win32,7.501875469,,,,,,,,,,,,,,,,,,20,,,,,,,,,,0.04,2,1.6196,0,4,4,4,1,Go to one of the usual ramen places with my friends to chill before seeing a movie together in theaters,Turn off social media during the beginning and end of the day to clear my head and keep a calm state,0.05,0.04,1.1,0,,,,,
,,63d161e70272bba9f3f70980,6685aa9113c938e83b4f1ea0,67007f967d30653e7e1c218a,2024-10-04_19h58.55.250,WTP_SM_Choice,2022.2.1,Win32,7.501875469,,,,,,,NAN,,NAN,0.56,5.44,,0,19,19,19,1,20,Sam,Rej,Participant_Images/63d161e70272bba9f3f70980/63d161e70272bba9f3f70980_Images/63d161e70272bba9f3f70980_Image_21.jpeg,did not like,3.195382774,,,,,,,,,,,,,,,,,,,,,,,
,,63d161e70272bba9f3f70980,6685aa9113c938e83b4f1ea0,67007f967d30653e7e1c218a,2024-10-04_19h58.55.250,WTP_SM_Choice,2022.2.1,Win32,7.501875469,,,,,space,5.8633,NAN,,NAN,0.56,5.44,,0,20,20,20,1,21,Sam,Rej,Participant_Images/63d161e70272bba9f3f70980/63d161e70272bba9f3f70980_Images/63d161e70272bba9f3f70980_Image_25.jpeg,did not like,1.779333479,,,,,,,,,,,,,,,,,,,,,,,
,,63d161e70272bba9f3f70980,6685aa9113c938e83b4f1ea0,67007f967d30653e7e1c218a,2024-10-04_19h58.55.250,WTP_SM_Choice,2022.2.1,Win32,7.501875469,,,,,space,11.0615,NAN,,NAN,0.56,5.44,,0,21,21,21,1,22,Sam,Rej,Participant_Images/63d161e70272bba9f3f70980/63d161e70272bba9f3f70980_Images/63d161e70272bba9f3f70980_Image_6.jpeg,did not like,4.312468682,,,,,,,,,,,,,,,,,,,,,,,
,,63d161e70272bba9f3f70980,6685aa9113c938e83b4f1ea0,67007f967d30653e7e1c218a,2024-10-04_19h58.55.250,WTP_SM_Choice,2022.2.1,Win32,7.501875469,,,,,space,3.8159,NAN,,NAN,0.56,5.44,,0,22,22,22,1,23,Sam,Rej,Participant_Images/63d161e70272bba9f3f70980/63d161e70272bba9f3f70980_Images/63d161e70272bba9f3f70980_Image_24.jpeg,did not like,4.940433059,,,,,,,,,,,,,,,,,,,,,,,
,,63d161e70272bba9f3f70980,6685aa9113c938e83b4f1ea0,67007f967d30653e7e1c218a,2024-10-04_19h58.55.250,WTP_SM_Choice,2022.2.1,Win32,7.501875469,,,,,space,6.9039,NAN,,NAN,0.56,5.44,,0,23,23,23,1,24,Sam,Rej,Participant_Images/63d161e70272bba9f3f70980/63d161e70272bba9f3f70980_Images/63d161e70272bba9f3f70980_Image_18.jpeg,did not like,2.7105123,,,,,,,,,,,,,,,,,,,,,,,
,,63d161e70272bba9f3f70980,6685aa9113c938e83b4f1ea0,67007f967d30653e7e1c218a,2024-10-04_19h58.55.250,WTP_SM_Choice,2022.2.1,Win32,7.501875469,,,,,,,,,,,,,,,,,,21,,,,,,space,7.8357,space,2.4317,0.01,1,1.1405,0,0,0,0,1,Do random karaoke through singing video games,demonstrate to some of my friends kind of a crash course on tinkering and modding game consoles and systems,0.01,0.05,8.8,1,,,,,
,,63d161e70272bba9f3f70980,6685aa9113c938e83b4f1ea0,67007f967d30653e7e1c218a,2024-10-04_19h58.55.250,WTP_SM_Choice,2022.2.1,Win32,7.501875469,,,,,,,,,,,,,,,,,,22,,,,,,,,,,0.02,1,1.26,0,1,1,1,1,Hang out with a weekly gaming group in the city,Do random karaoke through singing video games,0.02,0.05,4.4,0,,,,,
,,63d161e70272bba9f3f70980,6685aa9113c938e83b4f1ea0,67007f967d30653e7e1c218a,2024-10-04_19h58.55.250,WTP_SM_Choice,2022.2.1,Win32,7.501875469,,,,,,,,,,,,,,,,,,23,,,,,,,,,,0.03,1,2.6945,0,2,2,2,1,Explore new music to listen to through different playlists,Find new games to play with friends together for the first time,0.03,0.05,1.1,1,,,,,
,,63d161e70272bba9f3f70980,6685aa9113c938e83b4f1ea0,67007f967d30653e7e1c218a,2024-10-04_19h58.55.250,WTP_SM_Choice,2022.2.1,Win32,7.501875469,,,,,,,,,,,,,,,,,,24,,,,,,,,,,0.04,1,3.5871,0,3,3,3,1,Check out stores and seeing what toys are available,Have deep personal conversations late at night,0.04,0.05,4.4,1,,,,,
,,63d161e70272bba9f3f70980,6685aa9113c938e83b4f1ea0,67007f967d30653e7e1c218a,2024-10-04_19h58.55.250,WTP_SM_Choice,2022.2.1,Win32,7.501875469,,,,,,,,,,,,,,,,,,25,,,,,,,,,,0.05,1,2.9781,0,4,4,4,1,Take a walk outside alone music on my headphones during the night,Do regular discord calls daily,0.05,0.05,3.3,1,,,,,
,,63d161e70272bba9f3f70980,6685aa9113c938e83b4f1ea0,67007f967d30653e7e1c218a,2024-10-04_19h58.55.250,WTP_SM_Choice,2022.2.1,Win32,7.501875469,,,,,,,2,,4,0.71,5.29,,0,24,24,24,1,25,Sam,Rej,Participant_Images/63d161e70272bba9f3f70980/63d161e70272bba9f3f70980_Images/63d161e70272bba9f3f70980_Image_20.jpeg,liked,3.602308302,,,,,,,,,,,,,,,,,,,space,2.4642,,,
,,63d161e70272bba9f3f70980,6685aa9113c938e83b4f1ea0,67007f967d30653e7e1c218a,2024-10-04_19h58.55.250,WTP_SM_Choice,2022.2.1,Win32,7.501875469,,,space,1.7885,space,1.5567,NAN,,NAN,0.71,5.29,,0,25,25,25,1,26,Riley,Acc,Participant_Images/63d161e70272bba9f3f70980/63d161e70272bba9f3f70980_Images/63d161e70272bba9f3f70980_Image_6.jpeg,liked,4.106391878,,,,,,,,,,,,,,,,,,,,,,,
,,63d161e70272bba9f3f70980,6685aa9113c938e83b4f1ea0,67007f967d30653e7e1c218a,2024-10-04_19h58.55.250,WTP_SM_Choice,2022.2.1,Win32,7.501875469,,,,,space,3.3813,NAN,,NAN,0.71,5.29,,0,26,26,26,1,27,Riley,Acc,Participant_Images/63d161e70272bba9f3f70980/63d161e70272bba9f3f70980_Images/63d161e70272bba9f3f70980_Image_11.jpeg,liked,3.799433026,,,,,,,,,,,,,,,,,,,,,,,
,,63d161e70272bba9f3f70980,6685aa9113c938e83b4f1ea0,67007f967d30653e7e1c218a,2024-10-04_19h58.55.250,WTP_SM_Choice,2022.2.1,Win32,7.501875469,,,,,space,7.5339,NAN,,NAN,0.71,5.29,,0,27,27,27,1,28,Riley,Acc,Participant_Images/63d161e70272bba9f3f70980/63d161e70272bba9f3f70980_Images/63d161e70272bba9f3f70980_Image_18.jpeg,liked,5.246980764,,,,,,,,,,,,,,,,,,,,,,,
,,63d161e70272bba9f3f70980,6685aa9113c938e83b4f1ea0,67007f967d30653e7e1c218a,2024-10-04_19h58.55.250,WTP_SM_Choice,2022.2.1,Win32,7.501875469,,,,,space,1.8317,NAN,,NAN,0.71,5.29,,0,28,28,28,1,29,Riley,Acc,Participant_Images/63d161e70272bba9f3f70980/63d161e70272bba9f3f70980_Images/63d161e70272bba9f3f70980_Image_24.jpeg,did not like,3.30081769,,,,,,,,,,,,,,,,,,,,,,,
,,63d161e70272bba9f3f70980,6685aa9113c938e83b4f1ea0,67007f967d30653e7e1c218a,2024-10-04_19h58.55.250,WTP_SM_Choice,2022.2.1,Win32,7.501875469,,,,,,,,,,,,,,,,,,26,,,,,,space,2.2171,space,0.9763,0.01,1,1.1632,0,0,0,0,1,Have parsec gaming nights with new friends to introduce some games,Take a walk outside alone music on my headphones during the night,0.01,0.01,4.4,0,,,,,
,,63d161e70272bba9f3f70980,6685aa9113c938e83b4f1ea0,67007f967d30653e7e1c218a,2024-10-04_19h58.55.250,WTP_SM_Choice,2022.2.1,Win32,7.501875469,,,,,,,,,,,,,,,,,,27,,,,,,,,,,0.01,2,1.0965,0,1,1,1,1,Stream activities on twitch,Research my favorite shows and learning more behind the scenes information I didn't know,0.02,0.01,3.3,0,,,,,
,,63d161e70272bba9f3f70980,6685aa9113c938e83b4f1ea0,67007f967d30653e7e1c218a,2024-10-04_19h58.55.250,WTP_SM_Choice,2022.2.1,Win32,7.501875469,,,,,,,,,,,,,,,,,,28,,,,,,,,,,0.01,2,2.3281,0,2,2,2,1,Stream activities on twitch,Do random karaoke through singing video games,0.03,0.01,3.3,0,,,,,
,,63d161e70272bba9f3f70980,6685aa9113c938e83b4f1ea0,67007f967d30653e7e1c218a,2024-10-04_19h58.55.250,WTP_SM_Choice,2022.2.1,Win32,7.501875469,,,,,,,,,,,,,,,,,,29,,,,,,,,,,0.01,2,1.5855,0,3,3,3,1,Turn off social media during the beginning and end of the day to clear my head and keep a calm state,Have parsec gaming nights with new friends to introduce some games,0.04,0.01,4.4,1,,,,,
,,63d161e70272bba9f3f70980,6685aa9113c938e83b4f1ea0,67007f967d30653e7e1c218a,2024-10-04_19h58.55.250,WTP_SM_Choice,2022.2.1,Win32,7.501875469,,,,,,,,,,,,,,,,,,30,,,,,,,,,,0.01,2,1.4496,0,4,4,4,1,Check out stores and seeing what toys are available,Coordinate discord movie and show nights to watch stuff together,0.05,0.01,8.8,1,,,,,
,,63d161e70272bba9f3f70980,6685aa9113c938e83b4f1ea0,67007f967d30653e7e1c218a,2024-10-04_19h58.55.250,WTP_SM_Choice,2022.2.1,Win32,7.501875469,,,,,,,NAN,,NAN,0.76,5.24,,0,29,29,29,1,30,Riley,Acc,Participant_Images/63d161e70272bba9f3f70980/63d161e70272bba9f3f70980_Images/63d161e70272bba9f3f70980_Image_1.jpeg,liked,1.661473164,,,,,,,,,,,,,,,,,,,,,,,
,,63d161e70272bba9f3f70980,6685aa9113c938e83b4f1ea0,67007f967d30653e7e1c218a,2024-10-04_19h58.55.250,WTP_SM_Choice,2022.2.1,Win32,7.501875469,,,,,space,1.7279,NAN,,NAN,0.76,5.24,,0,30,30,30,1,31,Riley,Acc,Participant_Images/63d161e70272bba9f3f70980/63d161e70272bba9f3f70980_Images/63d161e70272bba9f3f70980_Image_2.jpeg,liked,3.613205605,,,,,,,,,,,,,,,,,,,,,,,
,,63d161e70272bba9f3f70980,6685aa9113c938e83b4f1ea0,67007f967d30653e7e1c218a,2024-10-04_19h58.55.250,WTP_SM_Choice,2022.2.1,Win32,7.501875469,,,,,space,0.6238,NAN,,NAN,0.76,5.24,,0,31,31,31,1,32,Riley,Acc,Participant_Images/63d161e70272bba9f3f70980/63d161e70272bba9f3f70980_Images/63d161e70272bba9f3f70980_Image_10.jpeg,did not like,4.988446431,,,,,,,,,,,,,,,,,,,,,,,
,,63d161e70272bba9f3f70980,6685aa9113c938e83b4f1ea0,67007f967d30653e7e1c218a,2024-10-04_19h58.55.250,WTP_SM_Choice,2022.2.1,Win32,7.501875469,,,,,space,1.6929,NAN,,NAN,0.76,5.24,,0,32,32,32,1,33,Riley,Acc,Participant_Images/63d161e70272bba9f3f70980/63d161e70272bba9f3f70980_Images/63d161e70272bba9f3f70980_Image_20.jpeg,liked,3.470791822,,,,,,,,,,,,,,,,,,,,,,,
,,63d161e70272bba9f3f70980,6685aa9113c938e83b4f1ea0,67007f967d30653e7e1c218a,2024-10-04_19h58.55.250,WTP_SM_Choice,2022.2.1,Win32,7.501875469,,,,,space,0.9314,NAN,,NAN,0.76,5.24,,0,33,33,33,1,34,Riley,Acc,Participant_Images/63d161e70272bba9f3f70980/63d161e70272bba9f3f70980_Images/63d161e70272bba9f3f70980_Image_16.jpeg,liked,3.820572462,,,,,,,,,,,,,,,,,,,,,,,
,,63d161e70272bba9f3f70980,6685aa9113c938e83b4f1ea0,67007f967d30653e7e1c218a,2024-10-04_19h58.55.250,WTP_SM_Choice,2022.2.1,Win32,7.501875469,,,,,,,,,,,,,,,,,,31,,,,,,space,4.6112,space,1.615,0.01,1,0.6463,0,0,0,0,1,Turn off social media during the beginning and end of the day to clear my head and keep a calm state,Coordinate discord movie and show nights to watch stuff together,0.01,0.02,8.8,1,,,,,
,,63d161e70272bba9f3f70980,6685aa9113c938e83b4f1ea0,67007f967d30653e7e1c218a,2024-10-04_19h58.55.250,WTP_SM_Choice,2022.2.1,Win32,7.501875469,,,,,,,,,,,,,,,,,,32,,,,,,,,,,0.02,2,1.1416,0,1,1,1,1,Take a walk outside alone music on my headphones during the night,demonstrate to some of my friends kind of a crash course on tinkering and modding game consoles and systems,0.02,0.02,1.1,1,,,,,
,,63d161e70272bba9f3f70980,6685aa9113c938e83b4f1ea0,67007f967d30653e7e1c218a,2024-10-04_19h58.55.250,WTP_SM_Choice,2022.2.1,Win32,7.501875469,,,,,,,,,,,,,,,,,,33,,,,,,,,,,0.02,2,1.6049,0,2,2,2,1,Coordinate discord movie and show nights to watch stuff together,Do random karaoke through singing video games,0.03,0.02,4.4,0,,,,,
,,63d161e70272bba9f3f70980,6685aa9113c938e83b4f1ea0,67007f967d30653e7e1c218a,2024-10-04_19h58.55.250,WTP_SM_Choice,2022.2.1,Win32,7.501875469,,,,,,,,,,,,,,,,,,34,,,,,,,,,,0.02,2,1.4061,0,3,3,3,1,Play games that are bizarre and very out there,Hang out with a weekly gaming group in the city,0.04,0.02,3.3,1,,,,,
,,63d161e70272bba9f3f70980,6685aa9113c938e83b4f1ea0,67007f967d30653e7e1c218a,2024-10-04_19h58.55.250,WTP_SM_Choice,2022.2.1,Win32,7.501875469,,,,,,,,,,,,,,,,,,35,,,,,,,,,,0.02,2,1.5658,0,4,4,4,1,Collect new nerdy gaming shirts to wear that stand out to me,Have deep personal conversations late at night,0.05,0.02,1.1,1,,,,,
,,63d161e70272bba9f3f70980,6685aa9113c938e83b4f1ea0,67007f967d30653e7e1c218a,2024-10-04_19h58.55.250,WTP_SM_Choice,2022.2.1,Win32,7.501875469,,,,,,,NAN,,NAN,0.85,5.15,,0,34,34,34,1,35,Riley,Acc,Participant_Images/63d161e70272bba9f3f70980/63d161e70272bba9f3f70980_Images/63d161e70272bba9f3f70980_Image_3.jpeg,liked,2.455989137,,,,,,,,,,,,,,,,,,,,,,,
,,63d161e70272bba9f3f70980,6685aa9113c938e83b4f1ea0,67007f967d30653e7e1c218a,2024-10-04_19h58.55.250,WTP_SM_Choice,2022.2.1,Win32,7.501875469,,,,,space,0.6286,NAN,,NAN,0.85,5.15,,0,35,35,35,1,36,Riley,Acc,Participant_Images/63d161e70272bba9f3f70980/63d161e70272bba9f3f70980_Images/63d161e70272bba9f3f70980_Image_14.jpeg,liked,3.79605092,,,,,,,,,,,,,,,,,,,,,,,
,,63d161e70272bba9f3f70980,6685aa9113c938e83b4f1ea0,67007f967d30653e7e1c218a,2024-10-04_19h58.55.250,WTP_SM_Choice,2022.2.1,Win32,7.501875469,,,,,space,7.1953,NAN,,NAN,0.85,5.15,,0,36,36,36,1,37,Riley,Acc,Participant_Images/63d161e70272bba9f3f70980/63d161e70272bba9f3f70980_Images/63d161e70272bba9f3f70980_Image_22.jpeg,liked,3.562416326,,,,,,,,,,,,,,,,,,,,,,,
,,63d161e70272bba9f3f70980,6685aa9113c938e83b4f1ea0,67007f967d30653e7e1c218a,2024-10-04_19h58.55.250,WTP_SM_Choice,2022.2.1,Win32,7.501875469,,,,,space,4.7635,NAN,,NAN,0.85,5.15,,0,37,37,37,1,38,Riley,Acc,Participant_Images/63d161e70272bba9f3f70980/63d161e70272bba9f3f70980_Images/63d161e70272bba9f3f70980_Image_19.jpeg,liked,2.843822497,,,,,,,,,,,,,,,,,,,,,,,
,,63d161e70272bba9f3f70980,6685aa9113c938e83b4f1ea0,67007f967d30653e7e1c218a,2024-10-04_19h58.55.250,WTP_SM_Choice,2022.2.1,Win32,7.501875469,,,,,space,3.4347,NAN,,NAN,0.85,5.15,,0,38,38,38,1,39,Riley,Acc,Participant_Images/63d161e70272bba9f3f70980/63d161e70272bba9f3f70980_Images/63d161e70272bba9f3f70980_Image_8.jpeg,liked,3.546495948,,,,,,,,,,,,,,,,,,,,,,,
,,63d161e70272bba9f3f70980,6685aa9113c938e83b4f1ea0,67007f967d30653e7e1c218a,2024-10-04_19h58.55.250,WTP_SM_Choice,2022.2.1,Win32,7.501875469,,,,,,,,,,,,,,,,,,36,,,,,,space,4.7643,space,1.1621,0.01,1,0.7899,0,0,0,0,1,Check out stores and seeing what toys are available,Stream activities on twitch,0.01,0.03,3.3,1,,,,,
,,63d161e70272bba9f3f70980,6685aa9113c938e83b4f1ea0,67007f967d30653e7e1c218a,2024-10-04_19h58.55.250,WTP_SM_Choice,2022.2.1,Win32,7.501875469,,,,,,,,,,,,,,,,,,37,,,,,,,,,,0.02,1,1.1211,0,1,1,1,1,Hang out with a weekly gaming group in the city,Explore new music to listen to through different playlists,0.02,0.03,1.1,0,,,,,
,,63d161e70272bba9f3f70980,6685aa9113c938e83b4f1ea0,67007f967d30653e7e1c218a,2024-10-04_19h58.55.250,WTP_SM_Choice,2022.2.1,Win32,7.501875469,,,,,,,,,,,,,,,,,,38,,,,,,,,,,0.03,2,2.6822,0,2,2,2,1,Play games that are bizarre and very out there,Find new games to play with friends together for the first time,0.03,0.03,1.1,1,,,,,
,,63d161e70272bba9f3f70980,6685aa9113c938e83b4f1ea0,67007f967d30653e7e1c218a,2024-10-04_19h58.55.250,WTP_SM_Choice,2022.2.1,Win32,7.501875469,,,,,,,,,,,,,,,,,,39,,,,,,,,,,0.03,2,1.4175,0,3,3,3,1,Tinker with game systems and seeing what new things I can add to them,Look for comic book shops to check out together,0.04,0.03,3.3,1,,,,,
,,63d161e70272bba9f3f70980,6685aa9113c938e83b4f1ea0,67007f967d30653e7e1c218a,2024-10-04_19h58.55.250,WTP_SM_Choice,2022.2.1,Win32,7.501875469,,,,,,,,,,,,,,,,,,40,,,,,,,,,,0.03,2,1.1092,0,4,4,4,1,Have parsec gaming nights with new friends to introduce some games,Do random karaoke through singing video games,0.05,0.03,4.4,0,,,,,
,,63d161e70272bba9f3f70980,6685aa9113c938e83b4f1ea0,67007f967d30653e7e1c218a,2024-10-04_19h58.55.250,WTP_SM_Choice,2022.2.1,Win32,7.501875469,,,,,,,NAN,,NAN,0.97,5.03,,0,39,39,39,1,40,Riley,Acc,Participant_Images/63d161e70272bba9f3f70980/63d161e70272bba9f3f70980_Images/63d161e70272bba9f3f70980_Image_4.jpeg,liked,1.672012706,,,,,,,,,,,,,,,,,,,,,,,
,,63d161e70272bba9f3f70980,6685aa9113c938e83b4f1ea0,67007f967d30653e7e1c218a,2024-10-04_19h58.55.250,WTP_SM_Choice,2022.2.1,Win32,7.501875469,,,,,space,2.3203,NAN,,NAN,0.97,5.03,,0,40,40,40,1,41,Riley,Acc,Participant_Images/63d161e70272bba9f3f70980/63d161e70272bba9f3f70980_Images/63d161e70272bba9f3f70980_Image_25.jpeg,liked,4.942172136,,,,,,,,,,,,,,,,,,,,,,,
,,63d161e70272bba9f3f70980,6685aa9113c938e83b4f1ea0,67007f967d30653e7e1c218a,2024-10-04_19h58.55.250,WTP_SM_Choice,2022.2.1,Win32,7.501875469,,,,,space,4.4945,NAN,,NAN,0.97,5.03,,0,41,41,41,1,42,Riley,Acc,Participant_Images/63d161e70272bba9f3f70980/63d161e70272bba9f3f70980_Images/63d161e70272bba9f3f70980_Image_13.jpeg,liked,2.50187214,,,,,,,,,,,,,,,,,,,,,,,
,,63d161e70272bba9f3f70980,6685aa9113c938e83b4f1ea0,67007f967d30653e7e1c218a,2024-10-04_19h58.55.250,WTP_SM_Choice,2022.2.1,Win32,7.501875469,,,,,space,5.9568,NAN,,NAN,0.97,5.03,,0,42,42,42,1,43,Riley,Acc,Participant_Images/63d161e70272bba9f3f70980/63d161e70272bba9f3f70980_Images/63d161e70272bba9f3f70980_Image_21.jpeg,did not like,2.071164779,,,,,,,,,,,,,,,,,,,,,,,
,,63d161e70272bba9f3f70980,6685aa9113c938e83b4f1ea0,67007f967d30653e7e1c218a,2024-10-04_19h58.55.250,WTP_SM_Choice,2022.2.1,Win32,7.501875469,,,,,space,7.9558,NAN,,NAN,0.97,5.03,,0,43,43,43,1,44,Riley,Acc,Participant_Images/63d161e70272bba9f3f70980/63d161e70272bba9f3f70980_Images/63d161e70272bba9f3f70980_Image_23.jpeg,liked,5.336503566,,,,,,,,,,,,,,,,,,,,,,,
,,63d161e70272bba9f3f70980,6685aa9113c938e83b4f1ea0,67007f967d30653e7e1c218a,2024-10-04_19h58.55.250,WTP_SM_Choice,2022.2.1,Win32,7.501875469,,,,,,,,,,,,,,,,,,41,,,,,,space,2.9371,space,1.282,0.01,1,1.1071,0,0,0,0,1,Do regular discord calls daily,Look up new recipes for birthday cake stuff,0.01,0.04,1.1,0,,,,,
,,63d161e70272bba9f3f70980,6685aa9113c938e83b4f1ea0,67007f967d30653e7e1c218a,2024-10-04_19h58.55.250,WTP_SM_Choice,2022.2.1,Win32,7.501875469,,,,,,,,,,,,,,,,,,42,,,,,,,,,,0.02,1,2.2579,0,1,1,1,1,Find new games to play with friends together for the first time,Tinker with game systems and seeing what new things I can add to them,0.02,0.04,3.3,0,,,,,
,,63d161e70272bba9f3f70980,6685aa9113c938e83b4f1ea0,67007f967d30653e7e1c218a,2024-10-04_19h58.55.250,WTP_SM_Choice,2022.2.1,Win32,7.501875469,,,,,,,,,,,,,,,,,,43,,,,,,,,,,0.03,1,0.9602,0,2,2,2,1,Play games that are bizarre and very out there,Have parsec gaming nights with new friends to introduce some games,0.03,0.04,1.1,1,,,,,
,,63d161e70272bba9f3f70980,6685aa9113c938e83b4f1ea0,67007f967d30653e7e1c218a,2024-10-04_19h58.55.250,WTP_SM_Choice,2022.2.1,Win32,7.501875469,,,,,,,,,,,,,,,,,,44,,,,,,,,,,0.04,1,2.3445,0,3,3,3,1,Play games that are bizarre and very out there,Stream activities on twitch,0.04,0.04,1.1,1,,,,,
,,63d161e70272bba9f3f70980,6685aa9113c938e83b4f1ea0,67007f967d30653e7e1c218a,2024-10-04_19h58.55.250,WTP_SM_Choice,2022.2.1,Win32,7.501875469,,,,,,,,,,,,,,,,,,45,,,,,,,,,,0.04,2,2.0802,0,4,4,4,1,Stream activities on twitch,Tinker with game systems and seeing what new things I can add to them,0.05,0.04,4.4,0,,,,,
,,63d161e70272bba9f3f70980,6685aa9113c938e83b4f1ea0,67007f967d30653e7e1c218a,2024-10-04_19h58.55.250,WTP_SM_Choice,2022.2.1,Win32,7.501875469,,,,,,,NAN,,NAN,1.11,4.89,,0,44,44,44,1,45,Riley,Acc,Participant_Images/63d161e70272bba9f3f70980/63d161e70272bba9f3f70980_Images/63d161e70272bba9f3f70980_Image_5.jpeg,liked,2.642157193,,,,,,,,,,,,,,,,,,,,,,,
,,63d161e70272bba9f3f70980,6685aa9113c938e83b4f1ea0,67007f967d30653e7e1c218a,2024-10-04_19h58.55.250,WTP_SM_Choice,2022.2.1,Win32,7.501875469,,,,,space,5.8576,NAN,,NAN,1.11,4.89,,0,45,45,45,1,46,Riley,Acc,Participant_Images/63d161e70272bba9f3f70980/63d161e70272bba9f3f70980_Images/63d161e70272bba9f3f70980_Image_7.jpeg,did not like,4.456234322,,,,,,,,,,,,,,,,,,,,,,,
,,63d161e70272bba9f3f70980,6685aa9113c938e83b4f1ea0,67007f967d30653e7e1c218a,2024-10-04_19h58.55.250,WTP_SM_Choice,2022.2.1,Win32,7.501875469,,,,,space,5.6791,NAN,,NAN,1.11,4.89,,0,46,46,46,1,47,Riley,Acc,Participant_Images/63d161e70272bba9f3f70980/63d161e70272bba9f3f70980_Images/63d161e70272bba9f3f70980_Image_9.jpeg,liked,4.438512181,,,,,,,,,,,,,,,,,,,,,,,
,,63d161e70272bba9f3f70980,6685aa9113c938e83b4f1ea0,67007f967d30653e7e1c218a,2024-10-04_19h58.55.250,WTP_SM_Choice,2022.2.1,Win32,7.501875469,,,,,space,2.1552,NAN,,NAN,1.11,4.89,,0,47,47,47,1,48,Riley,Acc,Participant_Images/63d161e70272bba9f3f70980/63d161e70272bba9f3f70980_Images/63d161e70272bba9f3f70980_Image_12.jpeg,did not like,2.682944783,,,,,,,,,,,,,,,,,,,,,,,
,,63d161e70272bba9f3f70980,6685aa9113c938e83b4f1ea0,67007f967d30653e7e1c218a,2024-10-04_19h58.55.250,WTP_SM_Choice,2022.2.1,Win32,7.501875469,,,,,space,3.221,NAN,,NAN,1.11,4.89,,0,48,48,48,1,49,Riley,Acc,Participant_Images/63d161e70272bba9f3f70980/63d161e70272bba9f3f70980_Images/63d161e70272bba9f3f70980_Image_15.jpeg,did not like,4.51984296,,,,,,,,,,,,,,,,,,,,,,,
,,63d161e70272bba9f3f70980,6685aa9113c938e83b4f1ea0,67007f967d30653e7e1c218a,2024-10-04_19h58.55.250,WTP_SM_Choice,2022.2.1,Win32,7.501875469,,,,,,,,,,,,,,,,,,46,,,,,,space,4.2756,space,4.5206,0.01,1,0.9673,0,0,0,0,1,Find new games to play with friends together for the first time,Turn off social media during the beginning and end of the day to clear my head and keep a calm state,0.01,0.05,8.8,0,,,,,
,,63d161e70272bba9f3f70980,6685aa9113c938e83b4f1ea0,67007f967d30653e7e1c218a,2024-10-04_19h58.55.250,WTP_SM_Choice,2022.2.1,Win32,7.501875469,,,,,,,,,,,,,,,,,,47,,,,,,,,,,0.02,1,1.1222,0,1,1,1,1,Take a walk outside alone music on my headphones during the night,Find new games to play with friends together for the first time,0.02,0.05,1.1,1,,,,,
,,63d161e70272bba9f3f70980,6685aa9113c938e83b4f1ea0,67007f967d30653e7e1c218a,2024-10-04_19h58.55.250,WTP_SM_Choice,2022.2.1,Win32,7.501875469,,,,,,,,,,,,,,,,,,48,,,,,,,,,,0.03,1,1.1272,0,2,2,2,1,Research my favorite shows and learning more behind the scenes information I didn't know,Hang out with a weekly gaming group in the city,0.03,0.05,4.4,1,,,,,
,,63d161e70272bba9f3f70980,6685aa9113c938e83b4f1ea0,67007f967d30653e7e1c218a,2024-10-04_19h58.55.250,WTP_SM_Choice,2022.2.1,Win32,7.501875469,,,,,,,,,,,,,,,,,,49,,,,,,,,,,0.04,1,0.9701,0,3,3,3,1,Research my favorite shows and learning more behind the scenes information I didn't know,Have parsec gaming nights with new friends to introduce some games,0.04,0.05,3.3,1,,,,,
,,63d161e70272bba9f3f70980,6685aa9113c938e83b4f1ea0,67007f967d30653e7e1c218a,2024-10-04_19h58.55.250,WTP_SM_Choice,2022.2.1,Win32,7.501875469,,,,,,,,,,,,,,,,,,50,,,,,,,,,,0.05,1,2.0824,0,4,4,4,1,Tinker with game systems and seeing what new things I can add to them,Go to one of the usual ramen places with my friends to chill before seeing a movie together in theaters,0.05,0.05,1.1,1,,,,,
,,63d161e70272bba9f3f70980,6685aa9113c938e83b4f1ea0,67007f967d30653e7e1c218a,2024-10-04_19h58.55.250,WTP_SM_Choice,2022.2.1,Win32,7.501875469,,,,,,,NAN,space,4,1.26,4.74,,0,49,49,49,1,50,Riley,Acc,Participant_Images/63d161e70272bba9f3f70980/63d161e70272bba9f3f70980_Images/63d161e70272bba9f3f70980_Image_17.jpeg,did not like,3.195382774,,,,,,,,,,,,,,,,,,,space,4.198,0.0093,,
,,63d161e70272bba9f3f70980,6685aa9113c938e83b4f1ea0,67007f967d30653e7e1c218a,2024-10-04_19h58.55.250,WTP_SM_Choice,2022.2.1,Win32,7.501875469,,,space,14.6011,space,6.7727,NAN,,NAN,1.26,4.74,,0,50,50,50,1,51,Alex,Acc,Participant_Images/63d161e70272bba9f3f70980/63d161e70272bba9f3f70980_Images/63d161e70272bba9f3f70980_Image_18.jpeg,liked,1.779333479,,,,,,,,,,,,,,,,,,,,,,,
,,63d161e70272bba9f3f70980,6685aa9113c938e83b4f1ea0,67007f967d30653e7e1c218a,2024-10-04_19h58.55.250,WTP_SM_Choice,2022.2.1,Win32,7.501875469,,,,,space,3.0798,NAN,,NAN,1.26,4.74,,0,51,51,51,1,52,Alex,Acc,Participant_Images/63d161e70272bba9f3f70980/63d161e70272bba9f3f70980_Images/63d161e70272bba9f3f70980_Image_22.jpeg,liked,4.312468682,,,,,,,,,,,,,,,,,,,,,,,
,,63d161e70272bba9f3f70980,6685aa9113c938e83b4f1ea0,67007f967d30653e7e1c218a,2024-10-04_19h58.55.250,WTP_SM_Choice,2022.2.1,Win32,7.501875469,,,,,space,4.9181,NAN,,NAN,1.26,4.74,,0,52,52,52,1,53,Alex,Acc,Participant_Images/63d161e70272bba9f3f70980/63d161e70272bba9f3f70980_Images/63d161e70272bba9f3f70980_Image_5.jpeg,did not like,4.940433059,,,,,,,,,,,,,,,,,,,,,,,
,,63d161e70272bba9f3f70980,6685aa9113c938e83b4f1ea0,67007f967d30653e7e1c218a,2024-10-04_19h58.55.250,WTP_SM_Choice,2022.2.1,Win32,7.501875469,,,,,space,1.7135,NAN,,NAN,1.26,4.74,,0,53,53,53,1,54,Alex,Acc,Participant_Images/63d161e70272bba9f3f70980/63d161e70272bba9f3f70980_Images/63d161e70272bba9f3f70980_Image_1.jpeg,did not like,2.7105123,,,,,,,,,,,,,,,,,,,,,,,
,,63d161e70272bba9f3f70980,6685aa9113c938e83b4f1ea0,67007f967d30653e7e1c218a,2024-10-04_19h58.55.250,WTP_SM_Choice,2022.2.1,Win32,7.501875469,,,,,,,,,,,,,,,,,,51,,,,,,space,3.7251,space,1.811,0.01,1,0.9487,0,0,0,0,1,Do regular discord calls daily,Check out stores and seeing what toys are available,0.01,0.01,1.1,0,,,,,
,,63d161e70272bba9f3f70980,6685aa9113c938e83b4f1ea0,67007f967d30653e7e1c218a,2024-10-04_19h58.55.250,WTP_SM_Choice,2022.2.1,Win32,7.501875469,,,,,,,,,,,,,,,,,,52,,,,,,,,,,0.01,2,1.2485,0,1,1,1,1,Look for comic book shops to check out together,Look up new recipes for birthday cake stuff,0.02,0.01,3.3,0,,,,,
,,63d161e70272bba9f3f70980,6685aa9113c938e83b4f1ea0,67007f967d30653e7e1c218a,2024-10-04_19h58.55.250,WTP_SM_Choice,2022.2.1,Win32,7.501875469,,,,,,,,,,,,,,,,,,53,,,,,,,,,,0.01,2,1.4295,0,2,2,2,1,Hang out with a weekly gaming group in the city,Take a walk outside alone music on my headphones during the night,0.03,0.01,1.1,0,,,,,
,,63d161e70272bba9f3f70980,6685aa9113c938e83b4f1ea0,67007f967d30653e7e1c218a,2024-10-04_19h58.55.250,WTP_SM_Choice,2022.2.1,Win32,7.501875469,,,,,,,,,,,,,,,,,,54,,,,,,,,,,0.01,2,1.1236,0,3,3,3,1,Check out stores and seeing what toys are available,Go to one of the usual ramen places with my friends to chill before seeing a movie together in theaters,0.04,0.01,4.4,1,,,,,
,,63d161e70272bba9f3f70980,6685aa9113c938e83b4f1ea0,67007f967d30653e7e1c218a,2024-10-04_19h58.55.250,WTP_SM_Choice,2022.2.1,Win32,7.501875469,,,,,,,,,,,,,,,,,,55,,,,,,,,,,0.01,2,1.103,0,4,4,4,1,Stream activities on twitch,Explore new music to listen to through different playlists,0.05,0.01,1.1,0,,,,,
,,63d161e70272bba9f3f70980,6685aa9113c938e83b4f1ea0,67007f967d30653e7e1c218a,2024-10-04_19h58.55.250,WTP_SM_Choice,2022.2.1,Win32,7.501875469,,,,,,,NAN,,NAN,1.31,4.69,,0,54,54,54,1,55,Alex,Acc,Participant_Images/63d161e70272bba9f3f70980/63d161e70272bba9f3f70980_Images/63d161e70272bba9f3f70980_Image_8.jpeg,liked,3.602308302,,,,,,,,,,,,,,,,,,,,,,,
,,63d161e70272bba9f3f70980,6685aa9113c938e83b4f1ea0,67007f967d30653e7e1c218a,2024-10-04_19h58.55.250,WTP_SM_Choice,2022.2.1,Win32,7.501875469,,,,,space,0.9549,NAN,,NAN,1.31,4.69,,0,55,55,55,1,56,Alex,Acc,Participant_Images/63d161e70272bba9f3f70980/63d161e70272bba9f3f70980_Images/63d161e70272bba9f3f70980_Image_7.jpeg,did not like,4.106391878,,,,,,,,,,,,,,,,,,,,,,,
,,63d161e70272bba9f3f70980,6685aa9113c938e83b4f1ea0,67007f967d30653e7e1c218a,2024-10-04_19h58.55.250,WTP_SM_Choice,2022.2.1,Win32,7.501875469,,,,,space,4.6345,NAN,,NAN,1.31,4.69,,0,56,56,56,1,57,Alex,Acc,Participant_Images/63d161e70272bba9f3f70980/63d161e70272bba9f3f70980_Images/63d161e70272bba9f3f70980_Image_2.jpeg,liked,3.799433026,,,,,,,,,,,,,,,,,,,,,,,
,,63d161e70272bba9f3f70980,6685aa9113c938e83b4f1ea0,67007f967d30653e7e1c218a,2024-10-04_19h58.55.250,WTP_SM_Choice,2022.2.1,Win32,7.501875469,,,,,space,1.2364,NAN,,NAN,1.31,4.69,,0,57,57,57,1,58,Alex,Acc,Participant_Images/63d161e70272bba9f3f70980/63d161e70272bba9f3f70980_Images/63d161e70272bba9f3f70980_Image_11.jpeg,liked,5.246980764,,,,,,,,,,,,,,,,,,,,,,,
,,63d161e70272bba9f3f70980,6685aa9113c938e83b4f1ea0,67007f967d30653e7e1c218a,2024-10-04_19h58.55.250,WTP_SM_Choice,2022.2.1,Win32,7.501875469,,,,,space,5.07,NAN,,NAN,1.31,4.69,,0,58,58,58,1,59,Alex,Acc,Participant_Images/63d161e70272bba9f3f70980/63d161e70272bba9f3f70980_Images/63d161e70272bba9f3f70980_Image_14.jpeg,liked,3.30081769,,,,,,,,,,,,,,,,,,,,,,,
,,63d161e70272bba9f3f70980,6685aa9113c938e83b4f1ea0,67007f967d30653e7e1c218a,2024-10-04_19h58.55.250,WTP_SM_Choice,2022.2.1,Win32,7.501875469,,,,,,,,,,,,,,,,,,56,,,,,,space,1.7406,space,1.4863,0.01,1,0.805,0,0,0,0,1,Find new games to play with friends together for the first time,Check out stores and seeing what toys are available,0.01,0.02,8.8,0,,,,,
,,63d161e70272bba9f3f70980,6685aa9113c938e83b4f1ea0,67007f967d30653e7e1c218a,2024-10-04_19h58.55.250,WTP_SM_Choice,2022.2.1,Win32,7.501875469,,,,,,,,,,,,,,,,,,57,,,,,,,,,,0.02,1,1.7488,0,1,1,1,1,Stream activities on twitch,Collect new nerdy gaming shirts to wear that stand out to me,0.02,0.02,4.4,0,,,,,
,,63d161e70272bba9f3f70980,6685aa9113c938e83b4f1ea0,67007f967d30653e7e1c218a,2024-10-04_19h58.55.250,WTP_SM_Choice,2022.2.1,Win32,7.501875469,,,,,,,,,,,,,,,,,,58,,,,,,,,,,0.02,2,1.617,0,2,2,2,1,Find new games to play with friends together for the first time,Do random karaoke through singing video games,0.03,0.02,4.4,0,,,,,
,,63d161e70272bba9f3f70980,6685aa9113c938e83b4f1ea0,67007f967d30653e7e1c218a,2024-10-04_19h58.55.250,WTP_SM_Choice,2022.2.1,Win32,7.501875469,,,,,,,,,,,,,,,,,,59,,,,,,,,,,0.02,2,1.1057,0,3,3,3,1,Have deep personal conversations late at night,Turn off social media during the beginning and end of the day to clear my head and keep a calm state,0.04,0.02,4.4,0,,,,,
,,63d161e70272bba9f3f70980,6685aa9113c938e83b4f1ea0,67007f967d30653e7e1c218a,2024-10-04_19h58.55.250,WTP_SM_Choice,2022.2.1,Win32,7.501875469,,,,,,,,,,,,,,,,,,60,,,,,,,,,,0.02,2,2.2013,0,4,4,4,1,Explore new music to listen to through different playlists,Do regular discord calls daily,0.05,0.02,1.1,1,,,,,
,,63d161e70272bba9f3f70980,6685aa9113c938e83b4f1ea0,67007f967d30653e7e1c218a,2024-10-04_19h58.55.250,WTP_SM_Choice,2022.2.1,Win32,7.501875469,,,,,,,NAN,,NAN,1.4,4.6,,0,59,59,59,1,60,Alex,Acc,Participant_Images/63d161e70272bba9f3f70980/63d161e70272bba9f3f70980_Images/63d161e70272bba9f3f70980_Image_19.jpeg,liked,1.661473164,,,,,,,,,,,,,,,,,,,,,,,
,,63d161e70272bba9f3f70980,6685aa9113c938e83b4f1ea0,67007f967d30653e7e1c218a,2024-10-04_19h58.55.250,WTP_SM_Choice,2022.2.1,Win32,7.501875469,,,,,space,6.8002,NAN,,NAN,1.4,4.6,,0,60,60,60,1,61,Alex,Acc,Participant_Images/63d161e70272bba9f3f70980/63d161e70272bba9f3f70980_Images/63d161e70272bba9f3f70980_Image_13.jpeg,liked,3.613205605,,,,,,,,,,,,,,,,,,,,,,,
,,63d161e70272bba9f3f70980,6685aa9113c938e83b4f1ea0,67007f967d30653e7e1c218a,2024-10-04_19h58.55.250,WTP_SM_Choice,2022.2.1,Win32,7.501875469,,,,,space,4.9182,NAN,,NAN,1.4,4.6,,0,61,61,61,1,62,Alex,Acc,Participant_Images/63d161e70272bba9f3f70980/63d161e70272bba9f3f70980_Images/63d161e70272bba9f3f70980_Image_21.jpeg,liked,4.988446431,,,,,,,,,,,,,,,,,,,,,,,
,,63d161e70272bba9f3f70980,6685aa9113c938e83b4f1ea0,67007f967d30653e7e1c218a,2024-10-04_19h58.55.250,WTP_SM_Choice,2022.2.1,Win32,7.501875469,,,,,space,0.7855,NAN,,NAN,1.4,4.6,,0,62,62,62,1,63,Alex,Acc,Participant_Images/63d161e70272bba9f3f70980/63d161e70272bba9f3f70980_Images/63d161e70272bba9f3f70980_Image_9.jpeg,did not like,3.470791822,,,,,,,,,,,,,,,,,,,,,,,
,,63d161e70272bba9f3f70980,6685aa9113c938e83b4f1ea0,67007f967d30653e7e1c218a,2024-10-04_19h58.55.250,WTP_SM_Choice,2022.2.1,Win32,7.501875469,,,,,space,17.4714,NAN,,NAN,1.4,4.6,,0,63,63,63,1,64,Alex,Acc,Participant_Images/63d161e70272bba9f3f70980/63d161e70272bba9f3f70980_Images/63d161e70272bba9f3f70980_Image_23.jpeg,did not like,3.820572462,,,,,,,,,,,,,,,,,,,,,,,
,,63d161e70272bba9f3f70980,6685aa9113c938e83b4f1ea0,67007f967d30653e7e1c218a,2024-10-04_19h58.55.250,WTP_SM_Choice,2022.2.1,Win32,7.501875469,,,,,,,,,,,,,,,,,,61,,,,,,space,4.9325,space,3.866,0.01,1,1.4334,0,0,0,0,1,Go to one of the usual ramen places with my friends to chill before seeing a movie together in theaters,Explore new music to listen to through different playlists,0.01,0.03,3.3,0,,,,,
,,63d161e70272bba9f3f70980,6685aa9113c938e83b4f1ea0,67007f967d30653e7e1c218a,2024-10-04_19h58.55.250,WTP_SM_Choice,2022.2.1,Win32,7.501875469,,,,,,,,,,,,,,,,,,62,,,,,,,,,,0.02,1,1.2657,0,1,1,1,1,Take a walk outside alone music on my headphones during the night,Stream activities on twitch,0.02,0.03,3.3,1,,,,,
,,63d161e70272bba9f3f70980,6685aa9113c938e83b4f1ea0,67007f967d30653e7e1c218a,2024-10-04_19h58.55.250,WTP_SM_Choice,2022.2.1,Win32,7.501875469,,,,,,,,,,,,,,,,,,63,,,,,,,,,,0.03,1,2.9701,0,2,2,2,1,Tinker with game systems and seeing what new things I can add to them,Hang out with a weekly gaming group in the city,0.03,0.03,3.3,1,,,,,
,,63d161e70272bba9f3f70980,6685aa9113c938e83b4f1ea0,67007f967d30653e7e1c218a,2024-10-04_19h58.55.250,WTP_SM_Choice,2022.2.1,Win32,7.501875469,,,,,,,,,,,,,,,,,,64,,,,,,,,,,0.03,2,0.9739,0,3,3,3,1,Explore new music to listen to through different playlists,Have parsec gaming nights with new friends to introduce some games,0.04,0.03,1.1,1,,,,,
,,63d161e70272bba9f3f70980,6685aa9113c938e83b4f1ea0,67007f967d30653e7e1c218a,2024-10-04_19h58.55.250,WTP_SM_Choice,2022.2.1,Win32,7.501875469,,,,,,,,,,,,,,,,,,65,,,,,,,,,,0.03,2,1.2924,0,4,4,4,1,Research my favorite shows and learning more behind the scenes information I didn't know,Coordinate discord movie and show nights to watch stuff together,0.05,0.03,1.1,1,,,,,
,,63d161e70272bba9f3f70980,6685aa9113c938e83b4f1ea0,67007f967d30653e7e1c218a,2024-10-04_19h58.55.250,WTP_SM_Choice,2022.2.1,Win32,7.501875469,,,,,,,NAN,,NAN,1.52,4.48,,0,64,64,64,1,65,Alex,Acc,Participant_Images/63d161e70272bba9f3f70980/63d161e70272bba9f3f70980_Images/63d161e70272bba9f3f70980_Image_6.jpeg,liked,2.455989137,,,,,,,,,,,,,,,,,,,,,,,
,,63d161e70272bba9f3f70980,6685aa9113c938e83b4f1ea0,67007f967d30653e7e1c218a,2024-10-04_19h58.55.250,WTP_SM_Choice,2022.2.1,Win32,7.501875469,,,,,space,3.8176,NAN,,NAN,1.52,4.48,,0,65,65,65,1,66,Alex,Acc,Participant_Images/63d161e70272bba9f3f70980/63d161e70272bba9f3f70980_Images/63d161e70272bba9f3f70980_Image_3.jpeg,did not like,3.79605092,,,,,,,,,,,,,,,,,,,,,,,
,,63d161e70272bba9f3f70980,6685aa9113c938e83b4f1ea0,67007f967d30653e7e1c218a,2024-10-04_19h58.55.250,WTP_SM_Choice,2022.2.1,Win32,7.501875469,,,,,space,3.8426,NAN,,NAN,1.52,4.48,,0,66,66,66,1,67,Alex,Acc,Participant_Images/63d161e70272bba9f3f70980/63d161e70272bba9f3f70980_Images/63d161e70272bba9f3f70980_Image_17.jpeg,did not like,3.562416326,,,,,,,,,,,,,,,,,,,,,,,
,,63d161e70272bba9f3f70980,6685aa9113c938e83b4f1ea0,67007f967d30653e7e1c218a,2024-10-04_19h58.55.250,WTP_SM_Choice,2022.2.1,Win32,7.501875469,,,,,space,1.3862,NAN,,NAN,1.52,4.48,,0,67,67,67,1,68,Alex,Acc,Participant_Images/63d161e70272bba9f3f70980/63d161e70272bba9f3f70980_Images/63d161e70272bba9f3f70980_Image_10.jpeg,liked,2.843822497,,,,,,,,,,,,,,,,,,,,,,,
,,63d161e70272bba9f3f70980,6685aa9113c938e83b4f1ea0,67007f967d30653e7e1c218a,2024-10-04_19h58.55.250,WTP_SM_Choice,2022.2.1,Win32,7.501875469,,,,,space,2.7706,NAN,,NAN,1.52,4.48,,0,68,68,68,1,69,Alex,Acc,Participant_Images/63d161e70272bba9f3f70980/63d161e70272bba9f3f70980_Images/63d161e70272bba9f3f70980_Image_12.jpeg,liked,3.546495948,,,,,,,,,,,,,,,,,,,,,,,
,,63d161e70272bba9f3f70980,6685aa9113c938e83b4f1ea0,67007f967d30653e7e1c218a,2024-10-04_19h58.55.250,WTP_SM_Choice,2022.2.1,Win32,7.501875469,,,,,,,,,,,,,,,,,,66,,,,,,space,1.0298,space,1.2821,0.01,1,1.1095,0,0,0,0,1,Look for comic book shops to check out together,Play games that are bizarre and very out there,0.01,0.04,1.1,0,,,,,
,,63d161e70272bba9f3f70980,6685aa9113c938e83b4f1ea0,67007f967d30653e7e1c218a,2024-10-04_19h58.55.250,WTP_SM_Choice,2022.2.1,Win32,7.501875469,,,,,,,,,,,,,,,,,,67,,,,,,,,,,0.02,1,1.2706,0,1,1,1,1,Do regular discord calls daily,Turn off social media during the beginning and end of the day to clear my head and keep a calm state,0.02,0.04,8.8,0,,,,,
,,63d161e70272bba9f3f70980,6685aa9113c938e83b4f1ea0,67007f967d30653e7e1c218a,2024-10-04_19h58.55.250,WTP_SM_Choice,2022.2.1,Win32,7.501875469,,,,,,,,,,,,,,,,,,68,,,,,,,,,,0.03,1,3.3454,0,2,2,2,1,Have parsec gaming nights with new friends to introduce some games,Tinker with game systems and seeing what new things I can add to them,0.03,0.04,4.4,0,,,,,
,,63d161e70272bba9f3f70980,6685aa9113c938e83b4f1ea0,67007f967d30653e7e1c218a,2024-10-04_19h58.55.250,WTP_SM_Choice,2022.2.1,Win32,7.501875469,,,,,,,,,,,,,,,,,,69,,,,,,,,,,0.04,2,1.2906,0,3,3,3,1,Explore new music to listen to through different playlists,Look for comic book shops to check out together,0.04,0.04,1.1,1,,,,,
,,63d161e70272bba9f3f70980,6685aa9113c938e83b4f1ea0,67007f967d30653e7e1c218a,2024-10-04_19h58.55.250,WTP_SM_Choice,2022.2.1,Win32,7.501875469,,,,,,,,,,,,,,,,,,70,,,,,,,,,,0.04,2,3.2318,0,4,4,4,1,Have parsec gaming nights with new friends to introduce some games,Collect new nerdy gaming shirts to wear that stand out to me,0.05,0.04,1.1,0,,,,,
,,63d161e70272bba9f3f70980,6685aa9113c938e83b4f1ea0,67007f967d30653e7e1c218a,2024-10-04_19h58.55.250,WTP_SM_Choice,2022.2.1,Win32,7.501875469,,,,,,,NAN,,NAN,1.66,4.34,,0,69,69,69,1,70,Alex,Acc,Participant_Images/63d161e70272bba9f3f70980/63d161e70272bba9f3f70980_Images/63d161e70272bba9f3f70980_Image_4.jpeg,liked,1.672012706,,,,,,,,,,,,,,,,,,,,,,,
,,63d161e70272bba9f3f70980,6685aa9113c938e83b4f1ea0,67007f967d30653e7e1c218a,2024-10-04_19h58.55.250,WTP_SM_Choice,2022.2.1,Win32,7.501875469,,,,,space,1.5381,NAN,,NAN,1.66,4.34,,0,70,70,70,1,71,Alex,Acc,Participant_Images/63d161e70272bba9f3f70980/63d161e70272bba9f3f70980_Images/63d161e70272bba9f3f70980_Image_15.jpeg,liked,4.942172136,,,,,,,,,,,,,,,,,,,,,,,
,,63d161e70272bba9f3f70980,6685aa9113c938e83b4f1ea0,67007f967d30653e7e1c218a,2024-10-04_19h58.55.250,WTP_SM_Choice,2022.2.1,Win32,7.501875469,,,,,space,5.1394,NAN,,NAN,1.66,4.34,,0,71,71,71,1,72,Alex,Acc,Participant_Images/63d161e70272bba9f3f70980/63d161e70272bba9f3f70980_Images/63d161e70272bba9f3f70980_Image_24.jpeg,liked,2.50187214,,,,,,,,,,,,,,,,,,,,,,,
,,63d161e70272bba9f3f70980,6685aa9113c938e83b4f1ea0,67007f967d30653e7e1c218a,2024-10-04_19h58.55.250,WTP_SM_Choice,2022.2.1,Win32,7.501875469,,,,,space,0.6166,NAN,,NAN,1.66,4.34,,0,72,72,72,1,73,Alex,Acc,Participant_Images/63d161e70272bba9f3f70980/63d161e70272bba9f3f70980_Images/63d161e70272bba9f3f70980_Image_25.jpeg,liked,2.071164779,,,,,,,,,,,,,,,,,,,,,,,
,,63d161e70272bba9f3f70980,6685aa9113c938e83b4f1ea0,67007f967d30653e7e1c218a,2024-10-04_19h58.55.250,WTP_SM_Choice,2022.2.1,Win32,7.501875469,,,,,space,9.1297,NAN,,NAN,1.66,4.34,,0,73,73,73,1,74,Alex,Acc,Participant_Images/63d161e70272bba9f3f70980/63d161e70272bba9f3f70980_Images/63d161e70272bba9f3f70980_Image_16.jpeg,liked,5.336503566,,,,,,,,,,,,,,,,,,,,,,,
,,63d161e70272bba9f3f70980,6685aa9113c938e83b4f1ea0,67007f967d30653e7e1c218a,2024-10-04_19h58.55.250,WTP_SM_Choice,2022.2.1,Win32,7.501875469,,,,,,,,,,,,,,,,,,71,,,,,,space,6.1456,space,2.4851,0.01,1,0.8542,0,0,0,0,1,demonstrate to some of my friends kind of a crash course on tinkering and modding game consoles and systems,Research my favorite shows and learning more behind the scenes information I didn't know,0.01,0.05,3.3,0,,,,,
,,63d161e70272bba9f3f70980,6685aa9113c938e83b4f1ea0,67007f967d30653e7e1c218a,2024-10-04_19h58.55.250,WTP_SM_Choice,2022.2.1,Win32,7.501875469,,,,,,,,,,,,,,,,,,72,,,,,,,,,,0.02,1,0.9655,0,1,1,1,1,Do random karaoke through singing video games,Have deep personal conversations late at night,0.02,0.05,8.8,1,,,,,
,,63d161e70272bba9f3f70980,6685aa9113c938e83b4f1ea0,67007f967d30653e7e1c218a,2024-10-04_19h58.55.250,WTP_SM_Choice,2022.2.1,Win32,7.501875469,,,,,,,,,,,,,,,,,,73,,,,,,,,,,0.03,1,1.7498,0,2,2,2,1,Have deep personal conversations late at night,Tinker with game systems and seeing what new things I can add to them,0.03,0.05,3.3,0,,,,,
,,63d161e70272bba9f3f70980,6685aa9113c938e83b4f1ea0,67007f967d30653e7e1c218a,2024-10-04_19h58.55.250,WTP_SM_Choice,2022.2.1,Win32,7.501875469,,,,,,,,,,,,,,,,,,74,,,,,,,,,,0.04,1,2.4213,0,3,3,3,1,demonstrate to some of my friends kind of a crash course on tinkering and modding game consoles and systems,Check out stores and seeing what toys are available,0.04,0.05,4.4,0,,,,,
,,63d161e70272bba9f3f70980,6685aa9113c938e83b4f1ea0,67007f967d30653e7e1c218a,2024-10-04_19h58.55.250,WTP_SM_Choice,2022.2.1,Win32,7.501875469,,,,,,,,,,,,,,,,,,75,,,,,,,,,,0.05,1,2.2911,0,4,4,4,1,Check out stores and seeing what toys are available,Hang out with a weekly gaming group in the city,0.05,0.05,3.3,1,,,,,
,,63d161e70272bba9f3f70980,6685aa9113c938e83b4f1ea0,67007f967d30653e7e1c218a,2024-10-04_19h58.55.250,WTP_SM_Choice,2022.2.1,Win32,7.501875469,,,,,,,4,,6,1.81,4.19,,0,74,74,74,1,75,Alex,Acc,Participant_Images/63d161e70272bba9f3f70980/63d161e70272bba9f3f70980_Images/63d161e70272bba9f3f70980_Image_20.jpeg,liked,2.642157193,,,,,,,,,,,,,,,,,,,space,9.2944,,,
,,63d161e70272bba9f3f70980,6685aa9113c938e83b4f1ea0,67007f967d30653e7e1c218a,2024-10-04_19h58.55.250,WTP_SM_Choice,2022.2.1,Win32,7.501875469,,,space,7.2825,space,5.9749,NAN,,NAN,1.81,4.19,,0,75,75,75,1,76,Charlie,Rej,Participant_Images/63d161e70272bba9f3f70980/63d161e70272bba9f3f70980_Images/63d161e70272bba9f3f70980_Image_3.jpeg,did not like,4.456234322,,,,,,,,,,,,,,,,,,,,,,,
,,63d161e70272bba9f3f70980,6685aa9113c938e83b4f1ea0,67007f967d30653e7e1c218a,2024-10-04_19h58.55.250,WTP_SM_Choice,2022.2.1,Win32,7.501875469,,,,,space,2.0677,NAN,,NAN,1.81,4.19,,0,76,76,76,1,77,Charlie,Rej,Participant_Images/63d161e70272bba9f3f70980/63d161e70272bba9f3f70980_Images/63d161e70272bba9f3f70980_Image_15.jpeg,liked,4.438512181,,,,,,,,,,,,,,,,,,,,,,,
,,63d161e70272bba9f3f70980,6685aa9113c938e83b4f1ea0,67007f967d30653e7e1c218a,2024-10-04_19h58.55.250,WTP_SM_Choice,2022.2.1,Win32,7.501875469,,,,,space,1.0902,NAN,,NAN,1.81,4.19,,0,77,77,77,1,78,Charlie,Rej,Participant_Images/63d161e70272bba9f3f70980/63d161e70272bba9f3f70980_Images/63d161e70272bba9f3f70980_Image_18.jpeg,did not like,2.682944783,,,,,,,,,,,,,,,,,,,,,,,
,,63d161e70272bba9f3f70980,6685aa9113c938e83b4f1ea0,67007f967d30653e7e1c218a,2024-10-04_19h58.55.250,WTP_SM_Choice,2022.2.1,Win32,7.501875469,,,,,space,0.6181,NAN,,NAN,1.81,4.19,,0,78,78,78,1,79,Charlie,Rej,Participant_Images/63d161e70272bba9f3f70980/63d161e70272bba9f3f70980_Images/63d161e70272bba9f3f70980_Image_12.jpeg,did not like,4.51984296,,,,,,,,,,,,,,,,,,,,,,,
,,63d161e70272bba9f3f70980,6685aa9113c938e83b4f1ea0,67007f967d30653e7e1c218a,2024-10-04_19h58.55.250,WTP_SM_Choice,2022.2.1,Win32,7.501875469,,,,,,,,,,,,,,,,,,76,,,,,,space,10.3806,space,1.4446,0.01,1,0.7788,0,0,0,0,1,Do regular discord calls daily,Do random karaoke through singing video games,0.01,0.01,1.1,0,,,,,
,,63d161e70272bba9f3f70980,6685aa9113c938e83b4f1ea0,67007f967d30653e7e1c218a,2024-10-04_19h58.55.250,WTP_SM_Choice,2022.2.1,Win32,7.501875469,,,,,,,,,,,,,,,,,,77,,,,,,,,,,0.01,2,1.141,0,1,1,1,1,Explore new music to listen to through different playlists,Have deep personal conversations late at night,0.02,0.01,8.8,1,,,,,
,,63d161e70272bba9f3f70980,6685aa9113c938e83b4f1ea0,67007f967d30653e7e1c218a,2024-10-04_19h58.55.250,WTP_SM_Choice,2022.2.1,Win32,7.501875469,,,,,,,,,,,,,,,,,,78,,,,,,,,,,0.01,2,1.3118,0,2,2,2,1,Tinker with game systems and seeing what new things I can add to them,demonstrate to some of my friends kind of a crash course on tinkering and modding game consoles and systems,0.03,0.01,1.1,1,,,,,
,,63d161e70272bba9f3f70980,6685aa9113c938e83b4f1ea0,67007f967d30653e7e1c218a,2024-10-04_19h58.55.250,WTP_SM_Choice,2022.2.1,Win32,7.501875469,,,,,,,,,,,,,,,,,,79,,,,,,,,,,0.01,2,1.3065,0,3,3,3,1,Go to one of the usual ramen places with my friends to chill before seeing a movie together in theaters,Take a walk outside alone music on my headphones during the night,0.04,0.01,1.1,0,,,,,
,,63d161e70272bba9f3f70980,6685aa9113c938e83b4f1ea0,67007f967d30653e7e1c218a,2024-10-04_19h58.55.250,WTP_SM_Choice,2022.2.1,Win32,7.501875469,,,,,,,,,,,,,,,,,,80,,,,,,,,,,0.01,2,0.8107,0,4,4,4,1,Look for comic book shops to check out together,Check out stores and seeing what toys are available,0.05,0.01,4.4,0,,,,,
,,63d161e70272bba9f3f70980,6685aa9113c938e83b4f1ea0,67007f967d30653e7e1c218a,2024-10-04_19h58.55.250,WTP_SM_Choice,2022.2.1,Win32,7.501875469,,,,,,,NAN,,NAN,1.86,4.14,,0,79,79,79,1,80,Charlie,Rej,Participant_Images/63d161e70272bba9f3f70980/63d161e70272bba9f3f70980_Images/63d161e70272bba9f3f70980_Image_9.jpeg,did not like,3.195382774,,,,,,,,,,,,,,,,,,,,,,,
,,63d161e70272bba9f3f70980,6685aa9113c938e83b4f1ea0,67007f967d30653e7e1c218a,2024-10-04_19h58.55.250,WTP_SM_Choice,2022.2.1,Win32,7.501875469,,,,,space,1.0796,NAN,,NAN,1.86,4.14,,0,80,80,80,1,81,Charlie,Rej,Participant_Images/63d161e70272bba9f3f70980/63d161e70272bba9f3f70980_Images/63d161e70272bba9f3f70980_Image_4.jpeg,did not like,1.779333479,,,,,,,,,,,,,,,,,,,,,,,
,,63d161e70272bba9f3f70980,6685aa9113c938e83b4f1ea0,67007f967d30653e7e1c218a,2024-10-04_19h58.55.250,WTP_SM_Choice,2022.2.1,Win32,7.501875469,,,,,space,12.9347,NAN,,NAN,1.86,4.14,,0,81,81,81,1,82,Charlie,Rej,Participant_Images/63d161e70272bba9f3f70980/63d161e70272bba9f3f70980_Images/63d161e70272bba9f3f70980_Image_24.jpeg,liked,4.312468682,,,,,,,,,,,,,,,,,,,,,,,
,,63d161e70272bba9f3f70980,6685aa9113c938e83b4f1ea0,67007f967d30653e7e1c218a,2024-10-04_19h58.55.250,WTP_SM_Choice,2022.2.1,Win32,7.501875469,,,,,space,10.2206,NAN,,NAN,1.86,4.14,,0,82,82,82,1,83,Charlie,Rej,Participant_Images/63d161e70272bba9f3f70980/63d161e70272bba9f3f70980_Images/63d161e70272bba9f3f70980_Image_21.jpeg,did not like,4.940433059,,,,,,,,,,,,,,,,,,,,,,,
,,63d161e70272bba9f3f70980,6685aa9113c938e83b4f1ea0,67007f967d30653e7e1c218a,2024-10-04_19h58.55.250,WTP_SM_Choice,2022.2.1,Win32,7.501875469,,,,,space,0.478,NAN,,NAN,1.86,4.14,,0,83,83,83,1,84,Charlie,Rej,Participant_Images/63d161e70272bba9f3f70980/63d161e70272bba9f3f70980_Images/63d161e70272bba9f3f70980_Image_8.jpeg,did not like,2.7105123,,,,,,,,,,,,,,,,,,,,,,,
,,63d161e70272bba9f3f70980,6685aa9113c938e83b4f1ea0,67007f967d30653e7e1c218a,2024-10-04_19h58.55.250,WTP_SM_Choice,2022.2.1,Win32,7.501875469,,,,,,,,,,,,,,,,,,81,,,,,,space,1.7187,space,0.8011,0.01,1,0.7889,0,0,0,0,1,Have deep personal conversations late at night,Take a walk outside alone music on my headphones during the night,0.01,0.02,3.3,0,,,,,
,,63d161e70272bba9f3f70980,6685aa9113c938e83b4f1ea0,67007f967d30653e7e1c218a,2024-10-04_19h58.55.250,WTP_SM_Choice,2022.2.1,Win32,7.501875469,,,,,,,,,,,,,,,,,,82,,,,,,,,,,0.02,2,1.103,0,1,1,1,1,Look for comic book shops to check out together,Collect new nerdy gaming shirts to wear that stand out to me,0.02,0.02,4.4,0,,,,,
,,63d161e70272bba9f3f70980,6685aa9113c938e83b4f1ea0,67007f967d30653e7e1c218a,2024-10-04_19h58.55.250,WTP_SM_Choice,2022.2.1,Win32,7.501875469,,,,,,,,,,,,,,,,,,83,,,,,,,,,,0.02,2,1.4392,0,2,2,2,1,Have deep personal conversations late at night,Play games that are bizarre and very out there,0.03,0.02,1.1,0,,,,,
,,63d161e70272bba9f3f70980,6685aa9113c938e83b4f1ea0,67007f967d30653e7e1c218a,2024-10-04_19h58.55.250,WTP_SM_Choice,2022.2.1,Win32,7.501875469,,,,,,,,,,,,,,,,,,84,,,,,,,,,,0.02,2,2.2164,0,3,3,3,1,Turn off social media during the beginning and end of the day to clear my head and keep a calm state,Look for comic book shops to check out together,0.04,0.02,3.3,1,,,,,
,,63d161e70272bba9f3f70980,6685aa9113c938e83b4f1ea0,67007f967d30653e7e1c218a,2024-10-04_19h58.55.250,WTP_SM_Choice,2022.2.1,Win32,7.501875469,,,,,,,,,,,,,,,,,,85,,,,,,,,,,0.02,2,1.9238,0,4,4,4,1,Explore new music to listen to through different playlists,demonstrate to some of my friends kind of a crash course on tinkering and modding game consoles and systems,0.05,0.02,3.3,1,,,,,
,,63d161e70272bba9f3f70980,6685aa9113c938e83b4f1ea0,67007f967d30653e7e1c218a,2024-10-04_19h58.55.250,WTP_SM_Choice,2022.2.1,Win32,7.501875469,,,,,,,NAN,,NAN,1.95,4.05,,0,84,84,84,1,85,Charlie,Rej,Participant_Images/63d161e70272bba9f3f70980/63d161e70272bba9f3f70980_Images/63d161e70272bba9f3f70980_Image_17.jpeg,liked,3.602308302,,,,,,,,,,,,,,,,,,,,,,,
,,63d161e70272bba9f3f70980,6685aa9113c938e83b4f1ea0,67007f967d30653e7e1c218a,2024-10-04_19h58.55.250,WTP_SM_Choice,2022.2.1,Win32,7.501875469,,,,,space,11.0698,NAN,,NAN,1.95,4.05,,0,85,85,85,1,86,Charlie,Rej,Participant_Images/63d161e70272bba9f3f70980/63d161e70272bba9f3f70980_Images/63d161e70272bba9f3f70980_Image_1.jpeg,liked,4.106391878,,,,,,,,,,,,,,,,,,,,,,,
,,63d161e70272bba9f3f70980,6685aa9113c938e83b4f1ea0,67007f967d30653e7e1c218a,2024-10-04_19h58.55.250,WTP_SM_Choice,2022.2.1,Win32,7.501875469,,,,,space,7.5309,NAN,,NAN,1.95,4.05,,0,86,86,86,1,87,Charlie,Rej,Participant_Images/63d161e70272bba9f3f70980/63d161e70272bba9f3f70980_Images/63d161e70272bba9f3f70980_Image_10.jpeg,did not like,3.799433026,,,,,,,,,,,,,,,,,,,,,,,
,,63d161e70272bba9f3f70980,6685aa9113c938e83b4f1ea0,67007f967d30653e7e1c218a,2024-10-04_19h58.55.250,WTP_SM_Choice,2022.2.1,Win32,7.501875469,,,,,space,7.9776,NAN,,NAN,1.95,4.05,,0,87,87,87,1,88,Charlie,Rej,Participant_Images/63d161e70272bba9f3f70980/63d161e70272bba9f3f70980_Images/63d161e70272bba9f3f70980_Image_14.jpeg,did not like,5.246980764,,,,,,,,,,,,,,,,,,,,,,,
,,63d161e70272bba9f3f70980,6685aa9113c938e83b4f1ea0,67007f967d30653e7e1c218a,2024-10-04_19h58.55.250,WTP_SM_Choice,2022.2.1,Win32,7.501875469,,,,,space,6.185,NAN,,NAN,1.95,4.05,,0,88,88,88,1,89,Charlie,Rej,Participant_Images/63d161e70272bba9f3f70980/63d161e70272bba9f3f70980_Images/63d161e70272bba9f3f70980_Image_19.jpeg,liked,3.30081769,,,,,,,,,,,,,,,,,,,,,,,
,,63d161e70272bba9f3f70980,6685aa9113c938e83b4f1ea0,67007f967d30653e7e1c218a,2024-10-04_19h58.55.250,WTP_SM_Choice,2022.2.1,Win32,7.501875469,,,,,,,,,,,,,,,,,,86,,,,,,space,4.2682,space,1.6073,0.01,1,0.9469,0,0,0,0,1,Have deep personal conversations late at night,Research my favorite shows and learning more behind the scenes information I didn't know,0.01,0.03,1.1,0,,,,,
,,63d161e70272bba9f3f70980,6685aa9113c938e83b4f1ea0,67007f967d30653e7e1c218a,2024-10-04_19h58.55.250,WTP_SM_Choice,2022.2.1,Win32,7.501875469,,,,,,,,,,,,,,,,,,87,,,,,,,,,,0.02,1,2.261,0,1,1,1,1,Take a walk outside alone music on my headphones during the night,Coordinate discord movie and show nights to watch stuff together,0.02,0.03,4.4,1,,,,,
,,63d161e70272bba9f3f70980,6685aa9113c938e83b4f1ea0,67007f967d30653e7e1c218a,2024-10-04_19h58.55.250,WTP_SM_Choice,2022.2.1,Win32,7.501875469,,,,,,,,,,,,,,,,,,88,,,,,,,,,,0.03,1,4.4461,0,2,2,2,1,Coordinate discord movie and show nights to watch stuff together,Collect new nerdy gaming shirts to wear that stand out to me,0.03,0.03,1.1,0,,,,,
,,63d161e70272bba9f3f70980,6685aa9113c938e83b4f1ea0,67007f967d30653e7e1c218a,2024-10-04_19h58.55.250,WTP_SM_Choice,2022.2.1,Win32,7.501875469,,,,,,,,,,,,,,,,,,89,,,,,,,,,,0.03,2,2.705,0,3,3,3,1,Do random karaoke through singing video games,Go to one of the usual ramen places with my friends to chill before seeing a movie together in theaters,0.04,0.03,3.3,1,,,,,
,,63d161e70272bba9f3f70980,6685aa9113c938e83b4f1ea0,67007f967d30653e7e1c218a,2024-10-04_19h58.55.250,WTP_SM_Choice,2022.2.1,Win32,7.501875469,,,,,,,,,,,,,,,,,,90,,,,,,,,,,0.03,2,2.0668,0,4,4,4,1,Coordinate discord movie and show nights to watch stuff together,Play games that are bizarre and very out there,0.05,0.03,8.8,0,,,,,
,,63d161e70272bba9f3f70980,6685aa9113c938e83b4f1ea0,67007f967d30653e7e1c218a,2024-10-04_19h58.55.250,WTP_SM_Choice,2022.2.1,Win32,7.501875469,,,,,,,NAN,,NAN,2.07,3.93,,0,89,89,89,1,90,Charlie,Rej,Participant_Images/63d161e70272bba9f3f70980/63d161e70272bba9f3f70980_Images/63d161e70272bba9f3f70980_Image_16.jpeg,did not like,1.661473164,,,,,,,,,,,,,,,,,,,,,,,
,,63d161e70272bba9f3f70980,6685aa9113c938e83b4f1ea0,67007f967d30653e7e1c218a,2024-10-04_19h58.55.250,WTP_SM_Choice,2022.2.1,Win32,7.501875469,,,,,space,1.0997,NAN,,NAN,2.07,3.93,,0,90,90,90,1,91,Charlie,Rej,Participant_Images/63d161e70272bba9f3f70980/63d161e70272bba9f3f70980_Images/63d161e70272bba9f3f70980_Image_22.jpeg,did not like,3.613205605,,,,,,,,,,,,,,,,,,,,,,,
,,63d161e70272bba9f3f70980,6685aa9113c938e83b4f1ea0,67007f967d30653e7e1c218a,2024-10-04_19h58.55.250,WTP_SM_Choice,2022.2.1,Win32,7.501875469,,,,,space,13.5448,NAN,,NAN,2.07,3.93,,0,91,91,91,1,92,Charlie,Rej,Participant_Images/63d161e70272bba9f3f70980/63d161e70272bba9f3f70980_Images/63d161e70272bba9f3f70980_Image_13.jpeg,did not like,4.988446431,,,,,,,,,,,,,,,,,,,,,,,
,,63d161e70272bba9f3f70980,6685aa9113c938e83b4f1ea0,67007f967d30653e7e1c218a,2024-10-04_19h58.55.250,WTP_SM_Choice,2022.2.1,Win32,7.501875469,,,,,space,6.3258,NAN,,NAN,2.07,3.93,,0,92,92,92,1,93,Charlie,Rej,Participant_Images/63d161e70272bba9f3f70980/63d161e70272bba9f3f70980_Images/63d161e70272bba9f3f70980_Image_2.jpeg,did not like,3.470791822,,,,,,,,,,,,,,,,,,,,,,,
,,63d161e70272bba9f3f70980,6685aa9113c938e83b4f1ea0,67007f967d30653e7e1c218a,2024-10-04_19h58.55.250,WTP_SM_Choice,2022.2.1,Win32,7.501875469,,,,,space,1.2444,NAN,,NAN,2.07,3.93,,0,93,93,93,1,94,Charlie,Rej,Participant_Images/63d161e70272bba9f3f70980/63d161e70272bba9f3f70980_Images/63d161e70272bba9f3f70980_Image_25.jpeg,liked,3.820572462,,,,,,,,,,,,,,,,,,,,,,,
,,63d161e70272bba9f3f70980,6685aa9113c938e83b4f1ea0,67007f967d30653e7e1c218a,2024-10-04_19h58.55.250,WTP_SM_Choice,2022.2.1,Win32,7.501875469,,,,,,,,,,,,,,,,,,91,,,,,,space,1.7079,space,0.8046,0.01,1,1.0767,0,0,0,0,1,Play games that are bizarre and very out there,Do regular discord calls daily,0.01,0.04,3.3,1,,,,,
,,63d161e70272bba9f3f70980,6685aa9113c938e83b4f1ea0,67007f967d30653e7e1c218a,2024-10-04_19h58.55.250,WTP_SM_Choice,2022.2.1,Win32,7.501875469,,,,,,,,,,,,,,,,,,92,,,,,,,,,,0.02,1,5.463,0,1,1,1,1,Research my favorite shows and learning more behind the scenes information I didn't know,Go to one of the usual ramen places with my friends to chill before seeing a movie together in theaters,0.02,0.04,8.8,1,,,,,
,,63d161e70272bba9f3f70980,6685aa9113c938e83b4f1ea0,67007f967d30653e7e1c218a,2024-10-04_19h58.55.250,WTP_SM_Choice,2022.2.1,Win32,7.501875469,,,,,,,,,,,,,,,,,,93,,,,,,,,,,0.03,1,2.0231,0,2,2,2,1,Have deep personal conversations late at night,Look up new recipes for birthday cake stuff,0.03,0.04,1.1,0,,,,,
,,63d161e70272bba9f3f70980,6685aa9113c938e83b4f1ea0,67007f967d30653e7e1c218a,2024-10-04_19h58.55.250,WTP_SM_Choice,2022.2.1,Win32,7.501875469,,,,,,,,,,,,,,,,,,94,,,,,,,,,,0.04,1,3.152,0,3,3,3,1,Do regular discord calls daily,Tinker with game systems and seeing what new things I can add to them,0.04,0.04,4.4,0,,,,,
,,63d161e70272bba9f3f70980,6685aa9113c938e83b4f1ea0,67007f967d30653e7e1c218a,2024-10-04_19h58.55.250,WTP_SM_Choice,2022.2.1,Win32,7.501875469,,,,,,,,,,,,,,,,,,95,,,,,,,,,,0.04,2,4.7028,0,4,4,4,1,Collect new nerdy gaming shirts to wear that stand out to me,Go to one of the usual ramen places with my friends to chill before seeing a movie together in theaters,0.05,0.04,4.4,1,,,,,
,,63d161e70272bba9f3f70980,6685aa9113c938e83b4f1ea0,67007f967d30653e7e1c218a,2024-10-04_19h58.55.250,WTP_SM_Choice,2022.2.1,Win32,7.501875469,,,,,,,NAN,,NAN,2.21,3.79,,0,94,94,94,1,95,Charlie,Rej,Participant_Images/63d161e70272bba9f3f70980/63d161e70272bba9f3f70980_Images/63d161e70272bba9f3f70980_Image_11.jpeg,did not like,2.455989137,,,,,,,,,,,,,,,,,,,,,,,
,,63d161e70272bba9f3f70980,6685aa9113c938e83b4f1ea0,67007f967d30653e7e1c218a,2024-10-04_19h58.55.250,WTP_SM_Choice,2022.2.1,Win32,7.501875469,,,,,space,4.3207,NAN,,NAN,2.21,3.79,,0,95,95,95,1,96,Charlie,Rej,Participant_Images/63d161e70272bba9f3f70980/63d161e70272bba9f3f70980_Images/63d161e70272bba9f3f70980_Image_23.jpeg,did not like,3.79605092,,,,,,,,,,,,,,,,,,,,,,,
,,63d161e70272bba9f3f70980,6685aa9113c938e83b4f1ea0,67007f967d30653e7e1c218a,2024-10-04_19h58.55.250,WTP_SM_Choice,2022.2.1,Win32,7.501875469,,,,,space,5.844,NAN,,NAN,2.21,3.79,,0,96,96,96,1,97,Charlie,Rej,Participant_Images/63d161e70272bba9f3f70980/63d161e70272bba9f3f70980_Images/63d161e70272bba9f3f70980_Image_6.jpeg,did not like,3.562416326,,,,,,,,,,,,,,,,,,,,,,,
,,63d161e70272bba9f3f70980,6685aa9113c938e83b4f1ea0,67007f967d30653e7e1c218a,2024-10-04_19h58.55.250,WTP_SM_Choice,2022.2.1,Win32,7.501875469,,,,,space,5.3882,NAN,,NAN,2.21,3.79,,0,97,97,97,1,98,Charlie,Rej,Participant_Images/63d161e70272bba9f3f70980/63d161e70272bba9f3f70980_Images/63d161e70272bba9f3f70980_Image_5.jpeg,did not like,2.843822497,,,,,,,,,,,,,,,,,,,,,,,
,,63d161e70272bba9f3f70980,6685aa9113c938e83b4f1ea0,67007f967d30653e7e1c218a,2024-10-04_19h58.55.250,WTP_SM_Choice,2022.2.1,Win32,7.501875469,,,,,space,1.2445,NAN,,NAN,2.21,3.79,,0,98,98,98,1,99,Charlie,Rej,Participant_Images/63d161e70272bba9f3f70980/63d161e70272bba9f3f70980_Images/63d161e70272bba9f3f70980_Image_20.jpeg,did not like,3.546495948,,,,,,,,,,,,,,,,,,,,,,,
,,63d161e70272bba9f3f70980,6685aa9113c938e83b4f1ea0,67007f967d30653e7e1c218a,2024-10-04_19h58.55.250,WTP_SM_Choice,2022.2.1,Win32,7.501875469,,,,,,,,,,,,,,,,,,96,,,,,,space,1.5136,space,0.8134,0.01,1,0.79,0,0,0,0,1,Look up new recipes for birthday cake stuff,Go to one of the usual ramen places with my friends to chill before seeing a movie together in theaters,0.01,0.05,3.3,1,,,,,
,,63d161e70272bba9f3f70980,6685aa9113c938e83b4f1ea0,67007f967d30653e7e1c218a,2024-10-04_19h58.55.250,WTP_SM_Choice,2022.2.1,Win32,7.501875469,,,,,,,,,,,,,,,,,,97,,,,,,,,,,0.02,1,1.0771,0,1,1,1,1,Look up new recipes for birthday cake stuff,Hang out with a weekly gaming group in the city,0.02,0.05,1.1,1,,,,,
,,63d161e70272bba9f3f70980,6685aa9113c938e83b4f1ea0,67007f967d30653e7e1c218a,2024-10-04_19h58.55.250,WTP_SM_Choice,2022.2.1,Win32,7.501875469,,,,,,,,,,,,,,,,,,98,,,,,,,,,,0.03,1,1.2635,0,2,2,2,1,Collect new nerdy gaming shirts to wear that stand out to me,Do regular discord calls daily,0.03,0.05,1.1,1,,,,,
,,63d161e70272bba9f3f70980,6685aa9113c938e83b4f1ea0,67007f967d30653e7e1c218a,2024-10-04_19h58.55.250,WTP_SM_Choice,2022.2.1,Win32,7.501875469,,,,,,,,,,,,,,,,,,99,,,,,,,,,,0.04,1,2.0316,0,3,3,3,1,Do regular discord calls daily,Research my favorite shows and learning more behind the scenes information I didn't know,0.04,0.05,3.3,0,,,,,
,,63d161e70272bba9f3f70980,6685aa9113c938e83b4f1ea0,67007f967d30653e7e1c218a,2024-10-04_19h58.55.250,WTP_SM_Choice,2022.2.1,Win32,7.501875469,,,,,,,,,,,,,,,,,,100,,,,,,,,,,0.05,2,1.3178,0,4,4,4,1,demonstrate to some of my friends kind of a crash course on tinkering and modding game consoles and systems,Turn off social media during the beginning and end of the day to clear my head and keep a calm state,0.05,0.05,4.4,0,,,,,
,,63d161e70272bba9f3f70980,6685aa9113c938e83b4f1ea0,67007f967d30653e7e1c218a,2024-10-04_19h58.55.250,WTP_SM_Choice,2022.2.1,Win32,7.501875469,,,,,,,3,,6,2.36,3.64,,0,99,99,99,1,100,Charlie,Rej,Participant_Images/63d161e70272bba9f3f70980/63d161e70272bba9f3f70980_Images/63d161e70272bba9f3f70980_Image_7.jpeg,liked,1.672012706,,,,,,,,,,,,,,,,,,,space,0.8177,,,
,,63d161e70272bba9f3f70980,6685aa9113c938e83b4f1ea0,67007f967d30653e7e1c218a,2024-10-04_19h58.55.250,WTP_SM_Choice,2022.2.1,Win32,7.501875469,,,,,,,,,,,,,,,,,,,,,,,,,,,,,,,,,,,,,,,,,,,,,space,2.7797
