endwelcomescreen_keys.keys,endwelcomescreen_keys.rt,participant,date,expName,psychopyVersion,OS,frameRate,endinstructionscreen_keys.keys,endinstructionscreen_keys.rt,endpartnermatch_keys.keys,endpartnermatch_keys.rt,sharenextphoto_key.keys,sharenextphoto_key.rt,salience_rating,key_resp.keys,stress_level,subtract_bonus,TOTAL_TASK_BONUS,stresslevel_keypress.keys,entiretaskloop.thisRepN,entiretaskloop.thisTrialN,entiretaskloop.thisN,entiretaskloop.thisIndex,entiretaskloop.ran,TrialNumber,Partner,Condition,Photos,Feedback,FeedbackWait,WTP_ins_keys1.keys,WTP_ins_keys1.rt,WTP_ins_keys2.keys,WTP_ins_keys2.rt,decision_price,responses.keys,responses.rt,WTPTaskLoop.thisRepN,WTPTaskLoop.thisTrialN,WTPTaskLoop.thisN,WTPTaskLoop.thisIndex,WTPTaskLoop.ran,right,left,leftmoney,rightmoney,WTP_ITI,Resume_keys.keys,Resume_keys.rt
space,4.6234,63d432e27555fb4b5785cfcd,2024-04-13_08h54.22.699,WTP_SM_Choice,2022.2.1,Win32,60.24096386,,,,,,,,,,,,,,,,,,,,,,,,,,,,,,,,,,,,,,,,,,
,,63d432e27555fb4b5785cfcd,2024-04-13_08h54.22.699,WTP_SM_Choice,2022.2.1,Win32,60.24096386,space,7.382,,,,,,,,,,,,,,,,,,,,,,,,,,,,,,,,,,,,,,,,
,,63d432e27555fb4b5785cfcd,2024-04-13_08h54.22.699,WTP_SM_Choice,2022.2.1,Win32,60.24096386,,,space,1.6996,space,0.6656,NAN,,NAN,0,6,,0,0,0,0,1,1,Alex,Rej,Participant_Images/63d432e27555fb4b5785cfcd/63d432e27555fb4b5785cfcd_Images/63d432e27555fb4b5785cfcd_Image_22.jpeg,did not like,3.613205605,,,,,,,,,,,,,,,,,,,
,,63d432e27555fb4b5785cfcd,2024-04-13_08h54.22.699,WTP_SM_Choice,2022.2.1,Win32,60.24096386,,,,,space,0.3429,NAN,,NAN,0,6,,0,1,1,1,1,2,Alex,Rej,Participant_Images/63d432e27555fb4b5785cfcd/63d432e27555fb4b5785cfcd_Images/63d432e27555fb4b5785cfcd_Image_14.jpeg,did not like,4.988446431,,,,,,,,,,,,,,,,,,,
,,63d432e27555fb4b5785cfcd,2024-04-13_08h54.22.699,WTP_SM_Choice,2022.2.1,Win32,60.24096386,,,,,space,0.2678,NAN,,NAN,0,6,,0,2,2,2,1,3,Alex,Rej,Participant_Images/63d432e27555fb4b5785cfcd/63d432e27555fb4b5785cfcd_Images/63d432e27555fb4b5785cfcd_Image_18.jpeg,did not like,3.470791822,,,,,,,,,,,,,,,,,,,
,,63d432e27555fb4b5785cfcd,2024-04-13_08h54.22.699,WTP_SM_Choice,2022.2.1,Win32,60.24096386,,,,,space,0.6383,NAN,,NAN,0,6,,0,3,3,3,1,4,Alex,Rej,Participant_Images/63d432e27555fb4b5785cfcd/63d432e27555fb4b5785cfcd_Images/63d432e27555fb4b5785cfcd_Image_3.jpeg,did not like,3.820572462,,,,,,,,,,,,,,,,,,,
,,63d432e27555fb4b5785cfcd,2024-04-13_08h54.22.699,WTP_SM_Choice,2022.2.1,Win32,60.24096386,,,,,,,,,,,,,,,,,,1,,,,,,space,7.3484,space,9.0842,0.01,1,3.9064,0,0,0,0,1,Lounging around and reading a good book on the beach,Snuggling up with my husband kiddo and dogs and watching movies,0.01,0.01,4.4,,
,,63d432e27555fb4b5785cfcd,2024-04-13_08h54.22.699,WTP_SM_Choice,2022.2.1,Win32,60.24096386,,,,,,,,,,,,,,,,,,2,,,,,,,,,,0.01,2,2.7125,0,1,1,1,1,Lounging around and reading a good book on the beach,Getting tattoos with others such as my husband or my besties,0.02,0.01,8.8,,
,,63d432e27555fb4b5785cfcd,2024-04-13_08h54.22.699,WTP_SM_Choice,2022.2.1,Win32,60.24096386,,,,,,,,,,,,,,,,,,3,,,,,,,,,,0.03,1,1.8199,0,2,2,2,1,Playing fetch with the dogs or playing in the dirt in our backyard,Fishing with my family,0.03,0.01,3.3,,
,,63d432e27555fb4b5785cfcd,2024-04-13_08h54.22.699,WTP_SM_Choice,2022.2.1,Win32,60.24096386,,,,,,,,,,,,,,,,,,4,,,,,,,,,,0.04,1,2.7599,0,3,3,3,1,Listening to storms by a window,Going to my sister's house and spending time with my niece,0.04,0.01,1.1,,
,,63d432e27555fb4b5785cfcd,2024-04-13_08h54.22.699,WTP_SM_Choice,2022.2.1,Win32,60.24096386,,,,,,,,,,,,,,,,,,5,,,,,,,,,,0.05,1,1.6725,0,4,4,4,1,Taking time to learn new crochet stitches or make something,Going to the zoo with my toddler and watching the animals,0.05,0.01,1.1,,
,,63d432e27555fb4b5785cfcd,2024-04-13_08h54.22.699,WTP_SM_Choice,2022.2.1,Win32,60.24096386,,,,,,,NAN,,NAN,0.14,5.86,,0,4,4,4,1,5,Alex,Rej,Participant_Images/63d432e27555fb4b5785cfcd/63d432e27555fb4b5785cfcd_Images/63d432e27555fb4b5785cfcd_Image_16.jpeg,did not like,2.455989137,,,,,,,,,,,,,,,,,,,
,,63d432e27555fb4b5785cfcd,2024-04-13_08h54.22.699,WTP_SM_Choice,2022.2.1,Win32,60.24096386,,,,,space,0.7486,NAN,,NAN,0.14,5.86,,0,5,5,5,1,6,Alex,Rej,Participant_Images/63d432e27555fb4b5785cfcd/63d432e27555fb4b5785cfcd_Images/63d432e27555fb4b5785cfcd_Image_7.jpeg,liked,3.79605092,,,,,,,,,,,,,,,,,,,
,,63d432e27555fb4b5785cfcd,2024-04-13_08h54.22.699,WTP_SM_Choice,2022.2.1,Win32,60.24096386,,,,,space,0.5869,NAN,,NAN,0.14,5.86,,0,6,6,6,1,7,Alex,Rej,Participant_Images/63d432e27555fb4b5785cfcd/63d432e27555fb4b5785cfcd_Images/63d432e27555fb4b5785cfcd_Image_21.jpeg,liked,3.562416326,,,,,,,,,,,,,,,,,,,
,,63d432e27555fb4b5785cfcd,2024-04-13_08h54.22.699,WTP_SM_Choice,2022.2.1,Win32,60.24096386,,,,,space,0.7344,NAN,,NAN,0.14,5.86,,0,7,7,7,1,8,Alex,Rej,Participant_Images/63d432e27555fb4b5785cfcd/63d432e27555fb4b5785cfcd_Images/63d432e27555fb4b5785cfcd_Image_13.jpeg,did not like,2.843822497,,,,,,,,,,,,,,,,,,,
,,63d432e27555fb4b5785cfcd,2024-04-13_08h54.22.699,WTP_SM_Choice,2022.2.1,Win32,60.24096386,,,,,space,1.2103,NAN,,NAN,0.14,5.86,,0,8,8,8,1,9,Alex,Rej,Participant_Images/63d432e27555fb4b5785cfcd/63d432e27555fb4b5785cfcd_Images/63d432e27555fb4b5785cfcd_Image_8.jpeg,did not like,3.546495948,,,,,,,,,,,,,,,,,,,
,,63d432e27555fb4b5785cfcd,2024-04-13_08h54.22.699,WTP_SM_Choice,2022.2.1,Win32,60.24096386,,,,,,,,,,,,,,,,,,6,,,,,,space,2.833,space,2.2068,0.01,1,1.1415,0,0,0,0,1,Staying away at night and enjoying the quiet,Going to the beach with my family,0.01,0.02,3.3,,
,,63d432e27555fb4b5785cfcd,2024-04-13_08h54.22.699,WTP_SM_Choice,2022.2.1,Win32,60.24096386,,,,,,,,,,,,,,,,,,7,,,,,,,,,,0.02,1,1.0517,0,1,1,1,1,Playing fetch with the dogs or playing in the dirt in our backyard,Going to the zoo with my toddler and watching the animals,0.02,0.02,1.1,,
,,63d432e27555fb4b5785cfcd,2024-04-13_08h54.22.699,WTP_SM_Choice,2022.2.1,Win32,60.24096386,,,,,,,,,,,,,,,,,,8,,,,,,,,,,0.03,1,0.9236,0,2,2,2,1,Combing through the rocks and shells on the beach for hours,Fishing with my family,0.03,0.02,1.1,,
,,63d432e27555fb4b5785cfcd,2024-04-13_08h54.22.699,WTP_SM_Choice,2022.2.1,Win32,60.24096386,,,,,,,,,,,,,,,,,,9,,,,,,,,,,0.04,1,1.0512,0,3,3,3,1,Combing through the rocks and shells on the beach for hours,Going to the beach with my family,0.04,0.02,4.4,,
,,63d432e27555fb4b5785cfcd,2024-04-13_08h54.22.699,WTP_SM_Choice,2022.2.1,Win32,60.24096386,,,,,,,,,,,,,,,,,,10,,,,,,,,,,0.05,1,1.2225,0,4,4,4,1,Lounging around and reading a good book on the beach,Going to the beach with my family,0.05,0.02,1.1,,
,,63d432e27555fb4b5785cfcd,2024-04-13_08h54.22.699,WTP_SM_Choice,2022.2.1,Win32,60.24096386,,,,,,,NAN,,NAN,0.29,5.71,,0,9,9,9,1,10,Alex,Rej,Participant_Images/63d432e27555fb4b5785cfcd/63d432e27555fb4b5785cfcd_Images/63d432e27555fb4b5785cfcd_Image_24.jpeg,liked,1.672012706,,,,,,,,,,,,,,,,,,,
,,63d432e27555fb4b5785cfcd,2024-04-13_08h54.22.699,WTP_SM_Choice,2022.2.1,Win32,60.24096386,,,,,space,0.5698,NAN,,NAN,0.29,5.71,,0,10,10,10,1,11,Alex,Rej,Participant_Images/63d432e27555fb4b5785cfcd/63d432e27555fb4b5785cfcd_Images/63d432e27555fb4b5785cfcd_Image_11.jpeg,did not like,4.942172136,,,,,,,,,,,,,,,,,,,
,,63d432e27555fb4b5785cfcd,2024-04-13_08h54.22.699,WTP_SM_Choice,2022.2.1,Win32,60.24096386,,,,,space,0.7449,NAN,,NAN,0.29,5.71,,0,11,11,11,1,12,Alex,Rej,Participant_Images/63d432e27555fb4b5785cfcd/63d432e27555fb4b5785cfcd_Images/63d432e27555fb4b5785cfcd_Image_1.jpeg,did not like,2.50187214,,,,,,,,,,,,,,,,,,,
,,63d432e27555fb4b5785cfcd,2024-04-13_08h54.22.699,WTP_SM_Choice,2022.2.1,Win32,60.24096386,,,,,space,0.324,NAN,,NAN,0.29,5.71,,0,12,12,12,1,13,Alex,Rej,Participant_Images/63d432e27555fb4b5785cfcd/63d432e27555fb4b5785cfcd_Images/63d432e27555fb4b5785cfcd_Image_6.jpeg,did not like,2.071164779,,,,,,,,,,,,,,,,,,,
,,63d432e27555fb4b5785cfcd,2024-04-13_08h54.22.699,WTP_SM_Choice,2022.2.1,Win32,60.24096386,,,,,space,0.341,NAN,,NAN,0.29,5.71,,0,13,13,13,1,14,Alex,Rej,Participant_Images/63d432e27555fb4b5785cfcd/63d432e27555fb4b5785cfcd_Images/63d432e27555fb4b5785cfcd_Image_17.jpeg,did not like,5.336503566,,,,,,,,,,,,,,,,,,,
,,63d432e27555fb4b5785cfcd,2024-04-13_08h54.22.699,WTP_SM_Choice,2022.2.1,Win32,60.24096386,,,,,,,,,,,,,,,,,,11,,,,,,space,0.2969,space,1.4355,0.01,1,0.0474,0,0,0,0,1,Trying new coffee places around town and see what the atmosphere is like,Taking the dogs for a walk with my husband,0.01,0.03,3.3,,
,,63d432e27555fb4b5785cfcd,2024-04-13_08h54.22.699,WTP_SM_Choice,2022.2.1,Win32,60.24096386,,,,,,,,,,,,,,,,,,12,,,,,,,,,,0.02,1,1.8148,0,1,1,1,1,Lounging around and reading a good book on the beach,Monthly lunches with my best friends,0.02,0.03,4.4,,
,,63d432e27555fb4b5785cfcd,2024-04-13_08h54.22.699,WTP_SM_Choice,2022.2.1,Win32,60.24096386,,,,,,,,,,,,,,,,,,13,,,,,,,,,,0.03,1,1.6496,0,2,2,2,1,Taking time to learn new crochet stitches or make something,Taking a day off work and heading downtown to spend a day with my husband,0.03,0.03,1.1,,
,,63d432e27555fb4b5785cfcd,2024-04-13_08h54.22.699,WTP_SM_Choice,2022.2.1,Win32,60.24096386,,,,,,,,,,,,,,,,,,14,,,,,,,,,,0.04,1,1.4616,0,3,3,3,1,Going to  my favorite farmer's market in my favorite town on summer saturday morning,Fishing with my family,0.04,0.03,3.3,,
,,63d432e27555fb4b5785cfcd,2024-04-13_08h54.22.699,WTP_SM_Choice,2022.2.1,Win32,60.24096386,,,,,,,,,,,,,,,,,,15,,,,,,,,,,0.05,1,0.9633,0,4,4,4,1,Listening to storms by a window,Fishing with my family,0.05,0.03,4.4,,
,,63d432e27555fb4b5785cfcd,2024-04-13_08h54.22.699,WTP_SM_Choice,2022.2.1,Win32,60.24096386,,,,,,,NAN,,NAN,0.44,5.56,,0,14,14,14,1,15,Alex,Rej,Participant_Images/63d432e27555fb4b5785cfcd/63d432e27555fb4b5785cfcd_Images/63d432e27555fb4b5785cfcd_Image_10.jpeg,did not like,2.642157193,,,,,,,,,,,,,,,,,,,
,,63d432e27555fb4b5785cfcd,2024-04-13_08h54.22.699,WTP_SM_Choice,2022.2.1,Win32,60.24096386,,,,,space,0.5344,NAN,,NAN,0.44,5.56,,0,15,15,15,1,16,Alex,Rej,Participant_Images/63d432e27555fb4b5785cfcd/63d432e27555fb4b5785cfcd_Images/63d432e27555fb4b5785cfcd_Image_15.jpeg,did not like,4.456234322,,,,,,,,,,,,,,,,,,,
,,63d432e27555fb4b5785cfcd,2024-04-13_08h54.22.699,WTP_SM_Choice,2022.2.1,Win32,60.24096386,,,,,space,0.2884,NAN,,NAN,0.44,5.56,,0,16,16,16,1,17,Alex,Rej,Participant_Images/63d432e27555fb4b5785cfcd/63d432e27555fb4b5785cfcd_Images/63d432e27555fb4b5785cfcd_Image_25.jpeg,did not like,4.438512181,,,,,,,,,,,,,,,,,,,
,,63d432e27555fb4b5785cfcd,2024-04-13_08h54.22.699,WTP_SM_Choice,2022.2.1,Win32,60.24096386,,,,,space,0.7115,NAN,,NAN,0.44,5.56,,0,17,17,17,1,18,Alex,Rej,Participant_Images/63d432e27555fb4b5785cfcd/63d432e27555fb4b5785cfcd_Images/63d432e27555fb4b5785cfcd_Image_19.jpeg,liked,2.682944783,,,,,,,,,,,,,,,,,,,
,,63d432e27555fb4b5785cfcd,2024-04-13_08h54.22.699,WTP_SM_Choice,2022.2.1,Win32,60.24096386,,,,,space,0.5553,NAN,,NAN,0.44,5.56,,0,18,18,18,1,19,Alex,Rej,Participant_Images/63d432e27555fb4b5785cfcd/63d432e27555fb4b5785cfcd_Images/63d432e27555fb4b5785cfcd_Image_20.jpeg,liked,4.51984296,,,,,,,,,,,,,,,,,,,
,,63d432e27555fb4b5785cfcd,2024-04-13_08h54.22.699,WTP_SM_Choice,2022.2.1,Win32,60.24096386,,,,,,,,,,,,,,,,,,16,,,,,,space,2.2679,space,1.5161,0.04,2,2.2928,0,0,0,0,1,Going to  my favorite farmer's market in my favorite town on summer saturday morning,Going to my sister's house and spending time with my niece,0.01,0.04,1.1,,
,,63d432e27555fb4b5785cfcd,2024-04-13_08h54.22.699,WTP_SM_Choice,2022.2.1,Win32,60.24096386,,,,,,,,,,,,,,,,,,17,,,,,,,,,,0.02,1,1.7406,0,1,1,1,1,Going to  my favorite farmer's market in my favorite town on summer saturday morning,Monthly lunches with my best friends,0.02,0.04,8.8,,
,,63d432e27555fb4b5785cfcd,2024-04-13_08h54.22.699,WTP_SM_Choice,2022.2.1,Win32,60.24096386,,,,,,,,,,,,,,,,,,18,,,,,,,,,,0.03,1,2.2812,0,2,2,2,1,Staying away at night and enjoying the quiet,Getting tattoos with others such as my husband or my besties,0.03,0.04,3.3,,
,,63d432e27555fb4b5785cfcd,2024-04-13_08h54.22.699,WTP_SM_Choice,2022.2.1,Win32,60.24096386,,,,,,,,,,,,,,,,,,19,,,,,,,,,,0.04,1,1.507,0,3,3,3,1,Taking time to learn new crochet stitches or make something,Fishing with my family,0.04,0.04,3.3,,
,,63d432e27555fb4b5785cfcd,2024-04-13_08h54.22.699,WTP_SM_Choice,2022.2.1,Win32,60.24096386,,,,,,,,,,,,,,,,,,20,,,,,,,,,,0.05,1,1.5472,0,4,4,4,1,Playing fetch with the dogs or playing in the dirt in our backyard,Taking a day off work and heading downtown to spend a day with my husband,0.05,0.04,1.1,,
,,63d432e27555fb4b5785cfcd,2024-04-13_08h54.22.699,WTP_SM_Choice,2022.2.1,Win32,60.24096386,,,,,,,NAN,,NAN,0.62,5.38,,0,19,19,19,1,20,Alex,Rej,Participant_Images/63d432e27555fb4b5785cfcd/63d432e27555fb4b5785cfcd_Images/63d432e27555fb4b5785cfcd_Image_23.jpeg,did not like,3.195382774,,,,,,,,,,,,,,,,,,,
,,63d432e27555fb4b5785cfcd,2024-04-13_08h54.22.699,WTP_SM_Choice,2022.2.1,Win32,60.24096386,,,,,space,0.5003,NAN,,NAN,0.62,5.38,,0,20,20,20,1,21,Alex,Rej,Participant_Images/63d432e27555fb4b5785cfcd/63d432e27555fb4b5785cfcd_Images/63d432e27555fb4b5785cfcd_Image_4.jpeg,liked,1.779333479,,,,,,,,,,,,,,,,,,,
,,63d432e27555fb4b5785cfcd,2024-04-13_08h54.22.699,WTP_SM_Choice,2022.2.1,Win32,60.24096386,,,,,space,0.3231,NAN,,NAN,0.62,5.38,,0,21,21,21,1,22,Alex,Rej,Participant_Images/63d432e27555fb4b5785cfcd/63d432e27555fb4b5785cfcd_Images/63d432e27555fb4b5785cfcd_Image_9.jpeg,did not like,4.312468682,,,,,,,,,,,,,,,,,,,
,,63d432e27555fb4b5785cfcd,2024-04-13_08h54.22.699,WTP_SM_Choice,2022.2.1,Win32,60.24096386,,,,,space,0.6757,NAN,,NAN,0.62,5.38,,0,22,22,22,1,23,Alex,Rej,Participant_Images/63d432e27555fb4b5785cfcd/63d432e27555fb4b5785cfcd_Images/63d432e27555fb4b5785cfcd_Image_2.jpeg,did not like,4.940433059,,,,,,,,,,,,,,,,,,,
,,63d432e27555fb4b5785cfcd,2024-04-13_08h54.22.699,WTP_SM_Choice,2022.2.1,Win32,60.24096386,,,,,space,0.3188,NAN,,NAN,0.62,5.38,,0,23,23,23,1,24,Alex,Rej,Participant_Images/63d432e27555fb4b5785cfcd/63d432e27555fb4b5785cfcd_Images/63d432e27555fb4b5785cfcd_Image_12.jpeg,liked,2.7105123,,,,,,,,,,,,,,,,,,,
,,63d432e27555fb4b5785cfcd,2024-04-13_08h54.22.699,WTP_SM_Choice,2022.2.1,Win32,60.24096386,,,,,,,,,,,,,,,,,,21,,,,,,space,0.6077,space,0.7668,0.05,2,1.9636,0,0,0,0,1,Going to  my favorite farmer's market in my favorite town on summer saturday morning,Taking the dogs for a walk with my husband,0.01,0.05,8.8,,
,,63d432e27555fb4b5785cfcd,2024-04-13_08h54.22.699,WTP_SM_Choice,2022.2.1,Win32,60.24096386,,,,,,,,,,,,,,,,,,22,,,,,,,,,,0.02,1,3.0016,0,1,1,1,1,Trying new coffee places around town and see what the atmosphere is like,Looking through the MLS at houses for fun with my husband,0.02,0.05,4.4,,
,,63d432e27555fb4b5785cfcd,2024-04-13_08h54.22.699,WTP_SM_Choice,2022.2.1,Win32,60.24096386,,,,,,,,,,,,,,,,,,23,,,,,,,,,,0.05,2,2.2183,0,2,2,2,1,Lounging around and reading a good book on the beach,Looking through the MLS at houses for fun with my husband,0.03,0.05,1.1,,
,,63d432e27555fb4b5785cfcd,2024-04-13_08h54.22.699,WTP_SM_Choice,2022.2.1,Win32,60.24096386,,,,,,,,,,,,,,,,,,24,,,,,,,,,,0.04,1,2.232,0,3,3,3,1,Trying new coffee places around town and see what the atmosphere is like,Getting tattoos with others such as my husband or my besties,0.04,0.05,4.4,,
,,63d432e27555fb4b5785cfcd,2024-04-13_08h54.22.699,WTP_SM_Choice,2022.2.1,Win32,60.24096386,,,,,,,,,,,,,,,,,,25,,,,,,,,,,0.05,1,1.3108,0,4,4,4,1,Sitting on the couch and watching every single dateline episode,Snuggling up with my husband kiddo and dogs and watching movies,0.05,0.05,3.3,,
,,63d432e27555fb4b5785cfcd,2024-04-13_08h54.22.699,WTP_SM_Choice,2022.2.1,Win32,60.24096386,,,,,,,1,,8,0.83,5.17,,0,24,24,24,1,25,Alex,Rej,Participant_Images/63d432e27555fb4b5785cfcd/63d432e27555fb4b5785cfcd_Images/63d432e27555fb4b5785cfcd_Image_5.jpeg,did not like,3.602308302,,,,,,,,,,,,,,,,,,space,533.5065
,,63d432e27555fb4b5785cfcd,2024-04-13_08h54.22.699,WTP_SM_Choice,2022.2.1,Win32,60.24096386,,,space,1.977,space,0.7055,NAN,,NAN,0.83,5.17,,0,25,25,25,1,26,Charlie,Acc,Participant_Images/63d432e27555fb4b5785cfcd/63d432e27555fb4b5785cfcd_Images/63d432e27555fb4b5785cfcd_Image_23.jpeg,liked,4.106391878,,,,,,,,,,,,,,,,,,,
,,63d432e27555fb4b5785cfcd,2024-04-13_08h54.22.699,WTP_SM_Choice,2022.2.1,Win32,60.24096386,,,,,space,0.5896,NAN,,NAN,0.83,5.17,,0,26,26,26,1,27,Charlie,Acc,Participant_Images/63d432e27555fb4b5785cfcd/63d432e27555fb4b5785cfcd_Images/63d432e27555fb4b5785cfcd_Image_17.jpeg,liked,3.799433026,,,,,,,,,,,,,,,,,,,
,,63d432e27555fb4b5785cfcd,2024-04-13_08h54.22.699,WTP_SM_Choice,2022.2.1,Win32,60.24096386,,,,,space,0.981,NAN,,NAN,0.83,5.17,,0,27,27,27,1,28,Charlie,Acc,Participant_Images/63d432e27555fb4b5785cfcd/63d432e27555fb4b5785cfcd_Images/63d432e27555fb4b5785cfcd_Image_6.jpeg,did not like,5.246980764,,,,,,,,,,,,,,,,,,,
,,63d432e27555fb4b5785cfcd,2024-04-13_08h54.22.699,WTP_SM_Choice,2022.2.1,Win32,60.24096386,,,,,space,2.5353,NAN,,NAN,0.83,5.17,,0,28,28,28,1,29,Charlie,Acc,Participant_Images/63d432e27555fb4b5785cfcd/63d432e27555fb4b5785cfcd_Images/63d432e27555fb4b5785cfcd_Image_10.jpeg,liked,3.30081769,,,,,,,,,,,,,,,,,,,
,,63d432e27555fb4b5785cfcd,2024-04-13_08h54.22.699,WTP_SM_Choice,2022.2.1,Win32,60.24096386,,,,,,,,,,,,,,,,,,26,,,,,,space,1.195,space,1.1345,0.01,2,2.7616,0,0,0,0,1,Taking time to learn new crochet stitches or make something,Taking the dogs for a walk with my husband,0.01,0.01,4.4,,
,,63d432e27555fb4b5785cfcd,2024-04-13_08h54.22.699,WTP_SM_Choice,2022.2.1,Win32,60.24096386,,,,,,,,,,,,,,,,,,27,,,,,,,,,,0.02,1,2.4675,0,1,1,1,1,Playing fetch with the dogs or playing in the dirt in our backyard,Looking through the MLS at houses for fun with my husband,0.02,0.01,3.3,,
,,63d432e27555fb4b5785cfcd,2024-04-13_08h54.22.699,WTP_SM_Choice,2022.2.1,Win32,60.24096386,,,,,,,,,,,,,,,,,,28,,,,,,,,,,0.03,1,1.0954,0,2,2,2,1,Trying new coffee places around town and see what the atmosphere is like,Snuggling up with my husband kiddo and dogs and watching movies,0.03,0.01,3.3,,
,,63d432e27555fb4b5785cfcd,2024-04-13_08h54.22.699,WTP_SM_Choice,2022.2.1,Win32,60.24096386,,,,,,,,,,,,,,,,,,29,,,,,,,,,,0.04,1,2.0184,0,3,3,3,1,Staying away at night and enjoying the quiet,Going to my sister's house and spending time with my niece,0.04,0.01,4.4,,
,,63d432e27555fb4b5785cfcd,2024-04-13_08h54.22.699,WTP_SM_Choice,2022.2.1,Win32,60.24096386,,,,,,,,,,,,,,,,,,30,,,,,,,,,,0.05,1,4.3549,0,4,4,4,1,Listening to storms by a window,Looking through the MLS at houses for fun with my husband,0.05,0.01,8.8,,
,,63d432e27555fb4b5785cfcd,2024-04-13_08h54.22.699,WTP_SM_Choice,2022.2.1,Win32,60.24096386,,,,,,,NAN,,NAN,0.98,5.02,,0,29,29,29,1,30,Charlie,Acc,Participant_Images/63d432e27555fb4b5785cfcd/63d432e27555fb4b5785cfcd_Images/63d432e27555fb4b5785cfcd_Image_24.jpeg,liked,1.661473164,,,,,,,,,,,,,,,,,,,
,,63d432e27555fb4b5785cfcd,2024-04-13_08h54.22.699,WTP_SM_Choice,2022.2.1,Win32,60.24096386,,,,,space,0.8375,NAN,,NAN,0.98,5.02,,0,30,30,30,1,31,Charlie,Acc,Participant_Images/63d432e27555fb4b5785cfcd/63d432e27555fb4b5785cfcd_Images/63d432e27555fb4b5785cfcd_Image_9.jpeg,liked,3.613205605,,,,,,,,,,,,,,,,,,,
,,63d432e27555fb4b5785cfcd,2024-04-13_08h54.22.699,WTP_SM_Choice,2022.2.1,Win32,60.24096386,,,,,space,0.6522,NAN,,NAN,0.98,5.02,,0,31,31,31,1,32,Charlie,Acc,Participant_Images/63d432e27555fb4b5785cfcd/63d432e27555fb4b5785cfcd_Images/63d432e27555fb4b5785cfcd_Image_19.jpeg,liked,4.988446431,,,,,,,,,,,,,,,,,,,
,,63d432e27555fb4b5785cfcd,2024-04-13_08h54.22.699,WTP_SM_Choice,2022.2.1,Win32,60.24096386,,,,,space,2.3045,NAN,,NAN,0.98,5.02,,0,32,32,32,1,33,Charlie,Acc,Participant_Images/63d432e27555fb4b5785cfcd/63d432e27555fb4b5785cfcd_Images/63d432e27555fb4b5785cfcd_Image_21.jpeg,liked,3.470791822,,,,,,,,,,,,,,,,,,,
,,63d432e27555fb4b5785cfcd,2024-04-13_08h54.22.699,WTP_SM_Choice,2022.2.1,Win32,60.24096386,,,,,space,1.0159,NAN,,NAN,0.98,5.02,,0,33,33,33,1,34,Charlie,Acc,Participant_Images/63d432e27555fb4b5785cfcd/63d432e27555fb4b5785cfcd_Images/63d432e27555fb4b5785cfcd_Image_13.jpeg,liked,3.820572462,,,,,,,,,,,,,,,,,,,
,,63d432e27555fb4b5785cfcd,2024-04-13_08h54.22.699,WTP_SM_Choice,2022.2.1,Win32,60.24096386,,,,,,,,,,,,,,,,,,31,,,,,,space,2.223,space,0.8841,0.02,2,2.5494,0,0,0,0,1,Playing fetch with the dogs or playing in the dirt in our backyard,Taking the dogs for a walk with my husband,0.01,0.02,8.8,,
,,63d432e27555fb4b5785cfcd,2024-04-13_08h54.22.699,WTP_SM_Choice,2022.2.1,Win32,60.24096386,,,,,,,,,,,,,,,,,,32,,,,,,,,,,0.02,1,1.5875,0,1,1,1,1,Taking time to learn new crochet stitches or make something,Snuggling up with my husband kiddo and dogs and watching movies,0.02,0.02,1.1,,
,,63d432e27555fb4b5785cfcd,2024-04-13_08h54.22.699,WTP_SM_Choice,2022.2.1,Win32,60.24096386,,,,,,,,,,,,,,,,,,33,,,,,,,,,,0.03,1,1.3155,0,2,2,2,1,Going to  my favorite farmer's market in my favorite town on summer saturday morning,Going to the beach with my family,0.03,0.02,4.4,,
,,63d432e27555fb4b5785cfcd,2024-04-13_08h54.22.699,WTP_SM_Choice,2022.2.1,Win32,60.24096386,,,,,,,,,,,,,,,,,,34,,,,,,,,,,0.04,1,2.1996,0,3,3,3,1,Staying away at night and enjoying the quiet,Looking through the MLS at houses for fun with my husband,0.04,0.02,3.3,,
,,63d432e27555fb4b5785cfcd,2024-04-13_08h54.22.699,WTP_SM_Choice,2022.2.1,Win32,60.24096386,,,,,,,,,,,,,,,,,,35,,,,,,,,,,0.05,1,1.8259,0,4,4,4,1,Sitting on the couch and watching every single dateline episode,Taking the dogs for a walk with my husband,0.05,0.02,1.1,,
,,63d432e27555fb4b5785cfcd,2024-04-13_08h54.22.699,WTP_SM_Choice,2022.2.1,Win32,60.24096386,,,,,,,NAN,,NAN,1.14,4.86,,0,34,34,34,1,35,Charlie,Acc,Participant_Images/63d432e27555fb4b5785cfcd/63d432e27555fb4b5785cfcd_Images/63d432e27555fb4b5785cfcd_Image_3.jpeg,liked,2.455989137,,,,,,,,,,,,,,,,,,,
,,63d432e27555fb4b5785cfcd,2024-04-13_08h54.22.699,WTP_SM_Choice,2022.2.1,Win32,60.24096386,,,,,space,0.8349,NAN,,NAN,1.14,4.86,,0,35,35,35,1,36,Charlie,Acc,Participant_Images/63d432e27555fb4b5785cfcd/63d432e27555fb4b5785cfcd_Images/63d432e27555fb4b5785cfcd_Image_15.jpeg,did not like,3.79605092,,,,,,,,,,,,,,,,,,,
,,63d432e27555fb4b5785cfcd,2024-04-13_08h54.22.699,WTP_SM_Choice,2022.2.1,Win32,60.24096386,,,,,space,0.6137,NAN,,NAN,1.14,4.86,,0,36,36,36,1,37,Charlie,Acc,Participant_Images/63d432e27555fb4b5785cfcd/63d432e27555fb4b5785cfcd_Images/63d432e27555fb4b5785cfcd_Image_22.jpeg,did not like,3.562416326,,,,,,,,,,,,,,,,,,,
,,63d432e27555fb4b5785cfcd,2024-04-13_08h54.22.699,WTP_SM_Choice,2022.2.1,Win32,60.24096386,,,,,space,0.4398,NAN,,NAN,1.14,4.86,,0,37,37,37,1,38,Charlie,Acc,Participant_Images/63d432e27555fb4b5785cfcd/63d432e27555fb4b5785cfcd_Images/63d432e27555fb4b5785cfcd_Image_12.jpeg,liked,2.843822497,,,,,,,,,,,,,,,,,,,
,,63d432e27555fb4b5785cfcd,2024-04-13_08h54.22.699,WTP_SM_Choice,2022.2.1,Win32,60.24096386,,,,,space,0.6622,NAN,,NAN,1.14,4.86,,0,38,38,38,1,39,Charlie,Acc,Participant_Images/63d432e27555fb4b5785cfcd/63d432e27555fb4b5785cfcd_Images/63d432e27555fb4b5785cfcd_Image_18.jpeg,liked,3.546495948,,,,,,,,,,,,,,,,,,,
,,63d432e27555fb4b5785cfcd,2024-04-13_08h54.22.699,WTP_SM_Choice,2022.2.1,Win32,60.24096386,,,,,,,,,,,,,,,,,,36,,,,,,space,0.8529,space,0.5837,0.03,2,2.4721,0,0,0,0,1,Sitting on the couch and watching every single dateline episode,Getting tattoos with others such as my husband or my besties,0.01,0.03,3.3,,
,,63d432e27555fb4b5785cfcd,2024-04-13_08h54.22.699,WTP_SM_Choice,2022.2.1,Win32,60.24096386,,,,,,,,,,,,,,,,,,37,,,,,,,,,,0.02,1,0.998,0,1,1,1,1,Listening to storms by a window,Snuggling up with my husband kiddo and dogs and watching movies,0.02,0.03,1.1,,
,,63d432e27555fb4b5785cfcd,2024-04-13_08h54.22.699,WTP_SM_Choice,2022.2.1,Win32,60.24096386,,,,,,,,,,,,,,,,,,38,,,,,,,,,,0.03,2,2.6764,0,2,2,2,1,Combing through the rocks and shells on the beach for hours,Getting tattoos with others such as my husband or my besties,0.03,0.03,1.1,,
,,63d432e27555fb4b5785cfcd,2024-04-13_08h54.22.699,WTP_SM_Choice,2022.2.1,Win32,60.24096386,,,,,,,,,,,,,,,,,,39,,,,,,,,,,0.04,1,1.1457,0,3,3,3,1,Sitting on the couch and watching every single dateline episode,Going to the zoo with my toddler and watching the animals,0.04,0.03,3.3,,
,,63d432e27555fb4b5785cfcd,2024-04-13_08h54.22.699,WTP_SM_Choice,2022.2.1,Win32,60.24096386,,,,,,,,,,,,,,,,,,40,,,,,,,,,,0.05,1,3.5446,0,4,4,4,1,Having mini concerts and singing as loud as i can on solo trips in the car,Getting tattoos with others such as my husband or my besties,0.05,0.03,4.4,,
,,63d432e27555fb4b5785cfcd,2024-04-13_08h54.22.699,WTP_SM_Choice,2022.2.1,Win32,60.24096386,,,,,,,NAN,,NAN,1.31,4.69,,0,39,39,39,1,40,Charlie,Acc,Participant_Images/63d432e27555fb4b5785cfcd/63d432e27555fb4b5785cfcd_Images/63d432e27555fb4b5785cfcd_Image_20.jpeg,did not like,1.672012706,,,,,,,,,,,,,,,,,,,
,,63d432e27555fb4b5785cfcd,2024-04-13_08h54.22.699,WTP_SM_Choice,2022.2.1,Win32,60.24096386,,,,,space,0.7386,NAN,,NAN,1.31,4.69,,0,40,40,40,1,41,Charlie,Acc,Participant_Images/63d432e27555fb4b5785cfcd/63d432e27555fb4b5785cfcd_Images/63d432e27555fb4b5785cfcd_Image_4.jpeg,liked,4.942172136,,,,,,,,,,,,,,,,,,,
,,63d432e27555fb4b5785cfcd,2024-04-13_08h54.22.699,WTP_SM_Choice,2022.2.1,Win32,60.24096386,,,,,space,1.0178,NAN,,NAN,1.31,4.69,,0,41,41,41,1,42,Charlie,Acc,Participant_Images/63d432e27555fb4b5785cfcd/63d432e27555fb4b5785cfcd_Images/63d432e27555fb4b5785cfcd_Image_2.jpeg,liked,2.50187214,,,,,,,,,,,,,,,,,,,
,,63d432e27555fb4b5785cfcd,2024-04-13_08h54.22.699,WTP_SM_Choice,2022.2.1,Win32,60.24096386,,,,,space,0.607,NAN,,NAN,1.31,4.69,,0,42,42,42,1,43,Charlie,Acc,Participant_Images/63d432e27555fb4b5785cfcd/63d432e27555fb4b5785cfcd_Images/63d432e27555fb4b5785cfcd_Image_14.jpeg,liked,2.071164779,,,,,,,,,,,,,,,,,,,
,,63d432e27555fb4b5785cfcd,2024-04-13_08h54.22.699,WTP_SM_Choice,2022.2.1,Win32,60.24096386,,,,,space,0.7509,NAN,,NAN,1.31,4.69,,0,43,43,43,1,44,Charlie,Acc,Participant_Images/63d432e27555fb4b5785cfcd/63d432e27555fb4b5785cfcd_Images/63d432e27555fb4b5785cfcd_Image_25.jpeg,liked,5.336503566,,,,,,,,,,,,,,,,,,,
,,63d432e27555fb4b5785cfcd,2024-04-13_08h54.22.699,WTP_SM_Choice,2022.2.1,Win32,60.24096386,,,,,,,,,,,,,,,,,,41,,,,,,space,0.7251,space,14.0271,0.04,2,2.145,0,0,0,0,1,Listening to storms by a window,Taking the dogs for a walk with my husband,0.01,0.04,1.1,,
,,63d432e27555fb4b5785cfcd,2024-04-13_08h54.22.699,WTP_SM_Choice,2022.2.1,Win32,60.24096386,,,,,,,,,,,,,,,,,,42,,,,,,,,,,0.02,1,1.6595,0,1,1,1,1,Lounging around and reading a good book on the beach,Going to the zoo with my toddler and watching the animals,0.02,0.04,3.3,,
,,63d432e27555fb4b5785cfcd,2024-04-13_08h54.22.699,WTP_SM_Choice,2022.2.1,Win32,60.24096386,,,,,,,,,,,,,,,,,,43,,,,,,,,,,0.03,1,2.1315,0,2,2,2,1,Combing through the rocks and shells on the beach for hours,Taking a day off work and heading downtown to spend a day with my husband,0.03,0.04,1.1,,
,,63d432e27555fb4b5785cfcd,2024-04-13_08h54.22.699,WTP_SM_Choice,2022.2.1,Win32,60.24096386,,,,,,,,,,,,,,,,,,44,,,,,,,,,,0.04,1,1.6368,0,3,3,3,1,Having mini concerts and singing as loud as i can on solo trips in the car,Snuggling up with my husband kiddo and dogs and watching movies,0.04,0.04,1.1,,
,,63d432e27555fb4b5785cfcd,2024-04-13_08h54.22.699,WTP_SM_Choice,2022.2.1,Win32,60.24096386,,,,,,,,,,,,,,,,,,45,,,,,,,,,,0.04,2,2.2848,0,4,4,4,1,Combing through the rocks and shells on the beach for hours,Going to my sister's house and spending time with my niece,0.05,0.04,4.4,,
,,63d432e27555fb4b5785cfcd,2024-04-13_08h54.22.699,WTP_SM_Choice,2022.2.1,Win32,60.24096386,,,,,,,NAN,,NAN,1.48,4.52,,0,44,44,44,1,45,Charlie,Acc,Participant_Images/63d432e27555fb4b5785cfcd/63d432e27555fb4b5785cfcd_Images/63d432e27555fb4b5785cfcd_Image_5.jpeg,did not like,2.642157193,,,,,,,,,,,,,,,,,,,
,,63d432e27555fb4b5785cfcd,2024-04-13_08h54.22.699,WTP_SM_Choice,2022.2.1,Win32,60.24096386,,,,,space,2.5173,NAN,,NAN,1.48,4.52,,0,45,45,45,1,46,Charlie,Acc,Participant_Images/63d432e27555fb4b5785cfcd/63d432e27555fb4b5785cfcd_Images/63d432e27555fb4b5785cfcd_Image_7.jpeg,liked,4.456234322,,,,,,,,,,,,,,,,,,,
,,63d432e27555fb4b5785cfcd,2024-04-13_08h54.22.699,WTP_SM_Choice,2022.2.1,Win32,60.24096386,,,,,space,0.9834,NAN,,NAN,1.48,4.52,,0,46,46,46,1,47,Charlie,Acc,Participant_Images/63d432e27555fb4b5785cfcd/63d432e27555fb4b5785cfcd_Images/63d432e27555fb4b5785cfcd_Image_1.jpeg,liked,4.438512181,,,,,,,,,,,,,,,,,,,
,,63d432e27555fb4b5785cfcd,2024-04-13_08h54.22.699,WTP_SM_Choice,2022.2.1,Win32,60.24096386,,,,,space,3.0332,NAN,,NAN,1.48,4.52,,0,47,47,47,1,48,Charlie,Acc,Participant_Images/63d432e27555fb4b5785cfcd/63d432e27555fb4b5785cfcd_Images/63d432e27555fb4b5785cfcd_Image_8.jpeg,liked,2.682944783,,,,,,,,,,,,,,,,,,,
,,63d432e27555fb4b5785cfcd,2024-04-13_08h54.22.699,WTP_SM_Choice,2022.2.1,Win32,60.24096386,,,,,space,7.1977,NAN,,NAN,1.48,4.52,,0,48,48,48,1,49,Charlie,Acc,Participant_Images/63d432e27555fb4b5785cfcd/63d432e27555fb4b5785cfcd_Images/63d432e27555fb4b5785cfcd_Image_11.jpeg,did not like,4.51984296,,,,,,,,,,,,,,,,,,,
,,63d432e27555fb4b5785cfcd,2024-04-13_08h54.22.699,WTP_SM_Choice,2022.2.1,Win32,60.24096386,,,,,,,,,,,,,,,,,,46,,,,,,space,1.4027,space,0.5196,0.01,1,1.075,0,0,0,0,1,Playing fetch with the dogs or playing in the dirt in our backyard,Going to the beach with my family,0.01,0.05,8.8,,
,,63d432e27555fb4b5785cfcd,2024-04-13_08h54.22.699,WTP_SM_Choice,2022.2.1,Win32,60.24096386,,,,,,,,,,,,,,,,,,47,,,,,,,,,,0.02,1,2.8674,0,1,1,1,1,Taking time to learn new crochet stitches or make something,Going to the beach with my family,0.02,0.05,1.1,,
,,63d432e27555fb4b5785cfcd,2024-04-13_08h54.22.699,WTP_SM_Choice,2022.2.1,Win32,60.24096386,,,,,,,,,,,,,,,,,,48,,,,,,,,,,0.03,1,1.0113,0,2,2,2,1,Staying away at night and enjoying the quiet,Monthly lunches with my best friends,0.03,0.05,4.4,,
,,63d432e27555fb4b5785cfcd,2024-04-13_08h54.22.699,WTP_SM_Choice,2022.2.1,Win32,60.24096386,,,,,,,,,,,,,,,,,,49,,,,,,,,,,0.04,1,2.5797,0,3,3,3,1,Having mini concerts and singing as loud as i can on solo trips in the car,Looking through the MLS at houses for fun with my husband,0.04,0.05,3.3,,
,,63d432e27555fb4b5785cfcd,2024-04-13_08h54.22.699,WTP_SM_Choice,2022.2.1,Win32,60.24096386,,,,,,,,,,,,,,,,,,50,,,,,,,,,,0.05,1,2.4164,0,4,4,4,1,Playing fetch with the dogs or playing in the dirt in our backyard,Monthly lunches with my best friends,0.05,0.05,1.1,,
,,63d432e27555fb4b5785cfcd,2024-04-13_08h54.22.699,WTP_SM_Choice,2022.2.1,Win32,60.24096386,,,,,,,2,,7,1.63,4.37,,0,49,49,49,1,50,Charlie,Acc,Participant_Images/63d432e27555fb4b5785cfcd/63d432e27555fb4b5785cfcd_Images/63d432e27555fb4b5785cfcd_Image_16.jpeg,did not like,3.195382774,,,,,,,,,,,,,,,,,,space,30.3936
,,63d432e27555fb4b5785cfcd,2024-04-13_08h54.22.699,WTP_SM_Choice,2022.2.1,Win32,60.24096386,,,space,0.9988,space,3.6676,NAN,,NAN,1.63,4.37,,0,50,50,50,1,51,Riley,Rej,Participant_Images/63d432e27555fb4b5785cfcd/63d432e27555fb4b5785cfcd_Images/63d432e27555fb4b5785cfcd_Image_5.jpeg,did not like,1.779333479,,,,,,,,,,,,,,,,,,,
,,63d432e27555fb4b5785cfcd,2024-04-13_08h54.22.699,WTP_SM_Choice,2022.2.1,Win32,60.24096386,,,,,space,0.7831,NAN,,NAN,1.63,4.37,,0,51,51,51,1,52,Riley,Rej,Participant_Images/63d432e27555fb4b5785cfcd/63d432e27555fb4b5785cfcd_Images/63d432e27555fb4b5785cfcd_Image_16.jpeg,liked,4.312468682,,,,,,,,,,,,,,,,,,,
,,63d432e27555fb4b5785cfcd,2024-04-13_08h54.22.699,WTP_SM_Choice,2022.2.1,Win32,60.24096386,,,,,space,1.0334,NAN,,NAN,1.63,4.37,,0,52,52,52,1,53,Riley,Rej,Participant_Images/63d432e27555fb4b5785cfcd/63d432e27555fb4b5785cfcd_Images/63d432e27555fb4b5785cfcd_Image_1.jpeg,liked,4.940433059,,,,,,,,,,,,,,,,,,,
,,63d432e27555fb4b5785cfcd,2024-04-13_08h54.22.699,WTP_SM_Choice,2022.2.1,Win32,60.24096386,,,,,space,5.132,NAN,,NAN,1.63,4.37,,0,53,53,53,1,54,Riley,Rej,Participant_Images/63d432e27555fb4b5785cfcd/63d432e27555fb4b5785cfcd_Images/63d432e27555fb4b5785cfcd_Image_25.jpeg,did not like,2.7105123,,,,,,,,,,,,,,,,,,,
,,63d432e27555fb4b5785cfcd,2024-04-13_08h54.22.699,WTP_SM_Choice,2022.2.1,Win32,60.24096386,,,,,,,,,,,,,,,,,,51,,,,,,space,0.8677,space,0.5018,0.01,2,2.2281,0,0,0,0,1,Lounging around and reading a good book on the beach,Taking the dogs for a walk with my husband,0.01,0.01,1.1,,
,,63d432e27555fb4b5785cfcd,2024-04-13_08h54.22.699,WTP_SM_Choice,2022.2.1,Win32,60.24096386,,,,,,,,,,,,,,,,,,52,,,,,,,,,,0.02,1,0.9413,0,1,1,1,1,Staying away at night and enjoying the quiet,Fishing with my family,0.02,0.01,3.3,,
,,63d432e27555fb4b5785cfcd,2024-04-13_08h54.22.699,WTP_SM_Choice,2022.2.1,Win32,60.24096386,,,,,,,,,,,,,,,,,,53,,,,,,,,,,0.03,1,2.2474,0,2,2,2,1,Having mini concerts and singing as loud as i can on solo trips in the car,Taking a day off work and heading downtown to spend a day with my husband,0.03,0.01,1.1,,
,,63d432e27555fb4b5785cfcd,2024-04-13_08h54.22.699,WTP_SM_Choice,2022.2.1,Win32,60.24096386,,,,,,,,,,,,,,,,,,54,,,,,,,,,,0.04,1,3.1353,0,3,3,3,1,Having mini concerts and singing as loud as i can on solo trips in the car,Going to my sister's house and spending time with my niece,0.04,0.01,4.4,,
,,63d432e27555fb4b5785cfcd,2024-04-13_08h54.22.699,WTP_SM_Choice,2022.2.1,Win32,60.24096386,,,,,,,,,,,,,,,,,,55,,,,,,,,,,0.05,1,3.1608,0,4,4,4,1,Listening to storms by a window,Getting tattoos with others such as my husband or my besties,0.05,0.01,1.1,,
,,63d432e27555fb4b5785cfcd,2024-04-13_08h54.22.699,WTP_SM_Choice,2022.2.1,Win32,60.24096386,,,,,,,NAN,,NAN,1.78,4.22,,0,54,54,54,1,55,Riley,Rej,Participant_Images/63d432e27555fb4b5785cfcd/63d432e27555fb4b5785cfcd_Images/63d432e27555fb4b5785cfcd_Image_19.jpeg,liked,3.602308302,,,,,,,,,,,,,,,,,,,
,,63d432e27555fb4b5785cfcd,2024-04-13_08h54.22.699,WTP_SM_Choice,2022.2.1,Win32,60.24096386,,,,,space,0.571,NAN,,NAN,1.78,4.22,,0,55,55,55,1,56,Riley,Rej,Participant_Images/63d432e27555fb4b5785cfcd/63d432e27555fb4b5785cfcd_Images/63d432e27555fb4b5785cfcd_Image_2.jpeg,did not like,4.106391878,,,,,,,,,,,,,,,,,,,
,,63d432e27555fb4b5785cfcd,2024-04-13_08h54.22.699,WTP_SM_Choice,2022.2.1,Win32,60.24096386,,,,,space,0.4539,NAN,,NAN,1.78,4.22,,0,56,56,56,1,57,Riley,Rej,Participant_Images/63d432e27555fb4b5785cfcd/63d432e27555fb4b5785cfcd_Images/63d432e27555fb4b5785cfcd_Image_23.jpeg,liked,3.799433026,,,,,,,,,,,,,,,,,,,
,,63d432e27555fb4b5785cfcd,2024-04-13_08h54.22.699,WTP_SM_Choice,2022.2.1,Win32,60.24096386,,,,,space,3.5395,NAN,,NAN,1.78,4.22,,0,57,57,57,1,58,Riley,Rej,Participant_Images/63d432e27555fb4b5785cfcd/63d432e27555fb4b5785cfcd_Images/63d432e27555fb4b5785cfcd_Image_13.jpeg,did not like,5.246980764,,,,,,,,,,,,,,,,,,,
,,63d432e27555fb4b5785cfcd,2024-04-13_08h54.22.699,WTP_SM_Choice,2022.2.1,Win32,60.24096386,,,,,space,1.5067,NAN,,NAN,1.78,4.22,,0,58,58,58,1,59,Riley,Rej,Participant_Images/63d432e27555fb4b5785cfcd/63d432e27555fb4b5785cfcd_Images/63d432e27555fb4b5785cfcd_Image_12.jpeg,did not like,3.30081769,,,,,,,,,,,,,,,,,,,
,,63d432e27555fb4b5785cfcd,2024-04-13_08h54.22.699,WTP_SM_Choice,2022.2.1,Win32,60.24096386,,,,,,,,,,,,,,,,,,56,,,,,,space,1.1315,space,0.4874,0.01,1,3.5293,0,0,0,0,1,Trying new coffee places around town and see what the atmosphere is like,Going to the zoo with my toddler and watching the animals,0.01,0.02,8.8,,
,,63d432e27555fb4b5785cfcd,2024-04-13_08h54.22.699,WTP_SM_Choice,2022.2.1,Win32,60.24096386,,,,,,,,,,,,,,,,,,57,,,,,,,,,,0.02,1,2.4171,0,1,1,1,1,Staying away at night and enjoying the quiet,Snuggling up with my husband kiddo and dogs and watching movies,0.02,0.02,4.4,,
,,63d432e27555fb4b5785cfcd,2024-04-13_08h54.22.699,WTP_SM_Choice,2022.2.1,Win32,60.24096386,,,,,,,,,,,,,,,,,,58,,,,,,,,,,0.03,1,1.1177,0,2,2,2,1,Sitting on the couch and watching every single dateline episode,Going to the beach with my family,0.03,0.02,4.4,,
,,63d432e27555fb4b5785cfcd,2024-04-13_08h54.22.699,WTP_SM_Choice,2022.2.1,Win32,60.24096386,,,,,,,,,,,,,,,,,,59,,,,,,,,,,0.04,1,0.6269,0,3,3,3,1,Listening to storms by a window,Taking a day off work and heading downtown to spend a day with my husband,0.04,0.02,4.4,,
,,63d432e27555fb4b5785cfcd,2024-04-13_08h54.22.699,WTP_SM_Choice,2022.2.1,Win32,60.24096386,,,,,,,,,,,,,,,,,,60,,,,,,,,,,0.02,2,2.2636,0,4,4,4,1,Going to  my favorite farmer's market in my favorite town on summer saturday morning,Looking through the MLS at houses for fun with my husband,0.05,0.02,1.1,,
,,63d432e27555fb4b5785cfcd,2024-04-13_08h54.22.699,WTP_SM_Choice,2022.2.1,Win32,60.24096386,,,,,,,NAN,,NAN,1.9,4.1,,0,59,59,59,1,60,Riley,Rej,Participant_Images/63d432e27555fb4b5785cfcd/63d432e27555fb4b5785cfcd_Images/63d432e27555fb4b5785cfcd_Image_6.jpeg,did not like,1.661473164,,,,,,,,,,,,,,,,,,,
,,63d432e27555fb4b5785cfcd,2024-04-13_08h54.22.699,WTP_SM_Choice,2022.2.1,Win32,60.24096386,,,,,space,1.0283,NAN,,NAN,1.9,4.1,,0,60,60,60,1,61,Riley,Rej,Participant_Images/63d432e27555fb4b5785cfcd/63d432e27555fb4b5785cfcd_Images/63d432e27555fb4b5785cfcd_Image_3.jpeg,liked,3.613205605,,,,,,,,,,,,,,,,,,,
,,63d432e27555fb4b5785cfcd,2024-04-13_08h54.22.699,WTP_SM_Choice,2022.2.1,Win32,60.24096386,,,,,space,0.8009,NAN,,NAN,1.9,4.1,,0,61,61,61,1,62,Riley,Rej,Participant_Images/63d432e27555fb4b5785cfcd/63d432e27555fb4b5785cfcd_Images/63d432e27555fb4b5785cfcd_Image_20.jpeg,did not like,4.988446431,,,,,,,,,,,,,,,,,,,
,,63d432e27555fb4b5785cfcd,2024-04-13_08h54.22.699,WTP_SM_Choice,2022.2.1,Win32,60.24096386,,,,,space,0.6523,NAN,,NAN,1.9,4.1,,0,62,62,62,1,63,Riley,Rej,Participant_Images/63d432e27555fb4b5785cfcd/63d432e27555fb4b5785cfcd_Images/63d432e27555fb4b5785cfcd_Image_7.jpeg,liked,3.470791822,,,,,,,,,,,,,,,,,,,
,,63d432e27555fb4b5785cfcd,2024-04-13_08h54.22.699,WTP_SM_Choice,2022.2.1,Win32,60.24096386,,,,,space,0.7211,NAN,,NAN,1.9,4.1,,0,63,63,63,1,64,Riley,Rej,Participant_Images/63d432e27555fb4b5785cfcd/63d432e27555fb4b5785cfcd_Images/63d432e27555fb4b5785cfcd_Image_22.jpeg,did not like,3.820572462,,,,,,,,,,,,,,,,,,,
,,63d432e27555fb4b5785cfcd,2024-04-13_08h54.22.699,WTP_SM_Choice,2022.2.1,Win32,60.24096386,,,,,,,,,,,,,,,,,,61,,,,,,space,0.9235,space,0.4334,0.01,1,1.3024,0,0,0,0,1,Trying new coffee places around town and see what the atmosphere is like,Taking a day off work and heading downtown to spend a day with my husband,0.01,0.03,3.3,,
,,63d432e27555fb4b5785cfcd,2024-04-13_08h54.22.699,WTP_SM_Choice,2022.2.1,Win32,60.24096386,,,,,,,,,,,,,,,,,,62,,,,,,,,,,0.02,1,0.8999,0,1,1,1,1,Having mini concerts and singing as loud as i can on solo trips in the car,Going to the beach with my family,0.02,0.03,3.3,,
,,63d432e27555fb4b5785cfcd,2024-04-13_08h54.22.699,WTP_SM_Choice,2022.2.1,Win32,60.24096386,,,,,,,,,,,,,,,,,,63,,,,,,,,,,0.03,1,1.5638,0,2,2,2,1,Playing fetch with the dogs or playing in the dirt in our backyard,Getting tattoos with others such as my husband or my besties,0.03,0.03,3.3,,
,,63d432e27555fb4b5785cfcd,2024-04-13_08h54.22.699,WTP_SM_Choice,2022.2.1,Win32,60.24096386,,,,,,,,,,,,,,,,,,64,,,,,,,,,,0.04,1,0.571,0,3,3,3,1,Sitting on the couch and watching every single dateline episode,Fishing with my family,0.04,0.03,1.1,,
,,63d432e27555fb4b5785cfcd,2024-04-13_08h54.22.699,WTP_SM_Choice,2022.2.1,Win32,60.24096386,,,,,,,,,,,,,,,,,,65,,,,,,,,,,0.05,1,0.7187,0,4,4,4,1,Trying new coffee places around town and see what the atmosphere is like,Going to the beach with my family,0.05,0.03,1.1,,
,,63d432e27555fb4b5785cfcd,2024-04-13_08h54.22.699,WTP_SM_Choice,2022.2.1,Win32,60.24096386,,,,,,,NAN,,NAN,2.05,3.95,,0,64,64,64,1,65,Riley,Rej,Participant_Images/63d432e27555fb4b5785cfcd/63d432e27555fb4b5785cfcd_Images/63d432e27555fb4b5785cfcd_Image_21.jpeg,did not like,2.455989137,,,,,,,,,,,,,,,,,,,
,,63d432e27555fb4b5785cfcd,2024-04-13_08h54.22.699,WTP_SM_Choice,2022.2.1,Win32,60.24096386,,,,,space,0.5859,NAN,,NAN,2.05,3.95,,0,65,65,65,1,66,Riley,Rej,Participant_Images/63d432e27555fb4b5785cfcd/63d432e27555fb4b5785cfcd_Images/63d432e27555fb4b5785cfcd_Image_24.jpeg,did not like,3.79605092,,,,,,,,,,,,,,,,,,,
,,63d432e27555fb4b5785cfcd,2024-04-13_08h54.22.699,WTP_SM_Choice,2022.2.1,Win32,60.24096386,,,,,space,0.4861,NAN,,NAN,2.05,3.95,,0,66,66,66,1,67,Riley,Rej,Participant_Images/63d432e27555fb4b5785cfcd/63d432e27555fb4b5785cfcd_Images/63d432e27555fb4b5785cfcd_Image_15.jpeg,liked,3.562416326,,,,,,,,,,,,,,,,,,,
,,63d432e27555fb4b5785cfcd,2024-04-13_08h54.22.699,WTP_SM_Choice,2022.2.1,Win32,60.24096386,,,,,space,0.6428,NAN,,NAN,2.05,3.95,,0,67,67,67,1,68,Riley,Rej,Participant_Images/63d432e27555fb4b5785cfcd/63d432e27555fb4b5785cfcd_Images/63d432e27555fb4b5785cfcd_Image_8.jpeg,did not like,2.843822497,,,,,,,,,,,,,,,,,,,
,,63d432e27555fb4b5785cfcd,2024-04-13_08h54.22.699,WTP_SM_Choice,2022.2.1,Win32,60.24096386,,,,,space,0.0559,NAN,,NAN,2.05,3.95,,0,68,68,68,1,69,Riley,Rej,Participant_Images/63d432e27555fb4b5785cfcd/63d432e27555fb4b5785cfcd_Images/63d432e27555fb4b5785cfcd_Image_4.jpeg,did not like,3.546495948,,,,,,,,,,,,,,,,,,,
,,63d432e27555fb4b5785cfcd,2024-04-13_08h54.22.699,WTP_SM_Choice,2022.2.1,Win32,60.24096386,,,,,,,,,,,,,,,,,,66,,,,,,space,0.6986,space,0.5711,0.04,2,2.0426,0,0,0,0,1,Taking time to learn new crochet stitches or make something,Looking through the MLS at houses for fun with my husband,0.01,0.04,1.1,,
,,63d432e27555fb4b5785cfcd,2024-04-13_08h54.22.699,WTP_SM_Choice,2022.2.1,Win32,60.24096386,,,,,,,,,,,,,,,,,,67,,,,,,,,,,0.02,1,0.8427,0,1,1,1,1,Going to  my favorite farmer's market in my favorite town on summer saturday morning,Snuggling up with my husband kiddo and dogs and watching movies,0.02,0.04,8.8,,
,,63d432e27555fb4b5785cfcd,2024-04-13_08h54.22.699,WTP_SM_Choice,2022.2.1,Win32,60.24096386,,,,,,,,,,,,,,,,,,68,,,,,,,,,,0.03,1,3.063,0,2,2,2,1,Staying away at night and enjoying the quiet,Taking the dogs for a walk with my husband,0.03,0.04,4.4,,
,,63d432e27555fb4b5785cfcd,2024-04-13_08h54.22.699,WTP_SM_Choice,2022.2.1,Win32,60.24096386,,,,,,,,,,,,,,,,,,69,,,,,,,,,,0.04,1,0.603,0,3,3,3,1,Staying away at night and enjoying the quiet,Going to the zoo with my toddler and watching the animals,0.04,0.04,1.1,,
,,63d432e27555fb4b5785cfcd,2024-04-13_08h54.22.699,WTP_SM_Choice,2022.2.1,Win32,60.24096386,,,,,,,,,,,,,,,,,,70,,,,,,,,,,0.05,1,0.5362,0,4,4,4,1,Going to  my favorite farmer's market in my favorite town on summer saturday morning,Getting tattoos with others such as my husband or my besties,0.05,0.04,1.1,,
,,63d432e27555fb4b5785cfcd,2024-04-13_08h54.22.699,WTP_SM_Choice,2022.2.1,Win32,60.24096386,,,,,,,NAN,,NAN,2.23,3.77,,0,69,69,69,1,70,Riley,Rej,Participant_Images/63d432e27555fb4b5785cfcd/63d432e27555fb4b5785cfcd_Images/63d432e27555fb4b5785cfcd_Image_17.jpeg,did not like,1.672012706,,,,,,,,,,,,,,,,,,,
,,63d432e27555fb4b5785cfcd,2024-04-13_08h54.22.699,WTP_SM_Choice,2022.2.1,Win32,60.24096386,,,,,space,1.1075,NAN,,NAN,2.23,3.77,,0,70,70,70,1,71,Riley,Rej,Participant_Images/63d432e27555fb4b5785cfcd/63d432e27555fb4b5785cfcd_Images/63d432e27555fb4b5785cfcd_Image_11.jpeg,did not like,4.942172136,,,,,,,,,,,,,,,,,,,
,,63d432e27555fb4b5785cfcd,2024-04-13_08h54.22.699,WTP_SM_Choice,2022.2.1,Win32,60.24096386,,,,,space,2.8186,NAN,,NAN,2.23,3.77,,0,71,71,71,1,72,Riley,Rej,Participant_Images/63d432e27555fb4b5785cfcd/63d432e27555fb4b5785cfcd_Images/63d432e27555fb4b5785cfcd_Image_18.jpeg,did not like,2.50187214,,,,,,,,,,,,,,,,,,,
,,63d432e27555fb4b5785cfcd,2024-04-13_08h54.22.699,WTP_SM_Choice,2022.2.1,Win32,60.24096386,,,,,space,0.5664,NAN,,NAN,2.23,3.77,,0,72,72,72,1,73,Riley,Rej,Participant_Images/63d432e27555fb4b5785cfcd/63d432e27555fb4b5785cfcd_Images/63d432e27555fb4b5785cfcd_Image_10.jpeg,did not like,2.071164779,,,,,,,,,,,,,,,,,,,
,,63d432e27555fb4b5785cfcd,2024-04-13_08h54.22.699,WTP_SM_Choice,2022.2.1,Win32,60.24096386,,,,,space,0.6165,NAN,,NAN,2.23,3.77,,0,73,73,73,1,74,Riley,Rej,Participant_Images/63d432e27555fb4b5785cfcd/63d432e27555fb4b5785cfcd_Images/63d432e27555fb4b5785cfcd_Image_14.jpeg,did not like,5.336503566,,,,,,,,,,,,,,,,,,,
,,63d432e27555fb4b5785cfcd,2024-04-13_08h54.22.699,WTP_SM_Choice,2022.2.1,Win32,60.24096386,,,,,,,,,,,,,,,,,,71,,,,,,space,1.009,space,0.4189,0.01,1,1.6319,0,0,0,0,1,Having mini concerts and singing as loud as i can on solo trips in the car,Fishing with my family,0.01,0.05,3.3,,
,,63d432e27555fb4b5785cfcd,2024-04-13_08h54.22.699,WTP_SM_Choice,2022.2.1,Win32,60.24096386,,,,,,,,,,,,,,,,,,72,,,,,,,,,,0.02,1,0.662,0,1,1,1,1,Taking time to learn new crochet stitches or make something,Going to my sister's house and spending time with my niece,0.02,0.05,8.8,,
,,63d432e27555fb4b5785cfcd,2024-04-13_08h54.22.699,WTP_SM_Choice,2022.2.1,Win32,60.24096386,,,,,,,,,,,,,,,,,,73,,,,,,,,,,0.03,1,1.2016,0,2,2,2,1,Sitting on the couch and watching every single dateline episode,Going to my sister's house and spending time with my niece,0.03,0.05,3.3,,
,,63d432e27555fb4b5785cfcd,2024-04-13_08h54.22.699,WTP_SM_Choice,2022.2.1,Win32,60.24096386,,,,,,,,,,,,,,,,,,74,,,,,,,,,,0.04,1,0.8583,0,3,3,3,1,Combing through the rocks and shells on the beach for hours,Going to the zoo with my toddler and watching the animals,0.04,0.05,4.4,,
,,63d432e27555fb4b5785cfcd,2024-04-13_08h54.22.699,WTP_SM_Choice,2022.2.1,Win32,60.24096386,,,,,,,,,,,,,,,,,,75,,,,,,,,,,0.05,1,0.8708,0,4,4,4,1,Trying new coffee places around town and see what the atmosphere is like,Fishing with my family,0.05,0.05,3.3,,
,,63d432e27555fb4b5785cfcd,2024-04-13_08h54.22.699,WTP_SM_Choice,2022.2.1,Win32,60.24096386,,,,,,,1,,8,2.38,3.62,,0,74,74,74,1,75,Riley,Rej,Participant_Images/63d432e27555fb4b5785cfcd/63d432e27555fb4b5785cfcd_Images/63d432e27555fb4b5785cfcd_Image_9.jpeg,did not like,2.642157193,,,,,,,,,,,,,,,,,,space,0.9347
,,63d432e27555fb4b5785cfcd,2024-04-13_08h54.22.699,WTP_SM_Choice,2022.2.1,Win32,60.24096386,,,space,0.9514,space,0.7017,NAN,,NAN,2.38,3.62,,0,75,75,75,1,76,Sam,Acc,Participant_Images/63d432e27555fb4b5785cfcd/63d432e27555fb4b5785cfcd_Images/63d432e27555fb4b5785cfcd_Image_19.jpeg,liked,4.456234322,,,,,,,,,,,,,,,,,,,
,,63d432e27555fb4b5785cfcd,2024-04-13_08h54.22.699,WTP_SM_Choice,2022.2.1,Win32,60.24096386,,,,,space,0.8226,NAN,,NAN,2.38,3.62,,0,76,76,76,1,77,Sam,Acc,Participant_Images/63d432e27555fb4b5785cfcd/63d432e27555fb4b5785cfcd_Images/63d432e27555fb4b5785cfcd_Image_23.jpeg,did not like,4.438512181,,,,,,,,,,,,,,,,,,,
,,63d432e27555fb4b5785cfcd,2024-04-13_08h54.22.699,WTP_SM_Choice,2022.2.1,Win32,60.24096386,,,,,space,1.0759,NAN,,NAN,2.38,3.62,,0,77,77,77,1,78,Sam,Acc,Participant_Images/63d432e27555fb4b5785cfcd/63d432e27555fb4b5785cfcd_Images/63d432e27555fb4b5785cfcd_Image_11.jpeg,liked,2.682944783,,,,,,,,,,,,,,,,,,,
,,63d432e27555fb4b5785cfcd,2024-04-13_08h54.22.699,WTP_SM_Choice,2022.2.1,Win32,60.24096386,,,,,space,0.5838,NAN,,NAN,2.38,3.62,,0,78,78,78,1,79,Sam,Acc,Participant_Images/63d432e27555fb4b5785cfcd/63d432e27555fb4b5785cfcd_Images/63d432e27555fb4b5785cfcd_Image_16.jpeg,did not like,4.51984296,,,,,,,,,,,,,,,,,,,
,,63d432e27555fb4b5785cfcd,2024-04-13_08h54.22.699,WTP_SM_Choice,2022.2.1,Win32,60.24096386,,,,,,,,,,,,,,,,,,76,,,,,,space,1.5385,space,0.8699,0.01,1,1.1678,0,0,0,0,1,Combing through the rocks and shells on the beach for hours,Snuggling up with my husband kiddo and dogs and watching movies,0.01,0.01,1.1,,
,,63d432e27555fb4b5785cfcd,2024-04-13_08h54.22.699,WTP_SM_Choice,2022.2.1,Win32,60.24096386,,,,,,,,,,,,,,,,,,77,,,,,,,,,,0.02,1,0.715,0,1,1,1,1,Combing through the rocks and shells on the beach for hours,Taking the dogs for a walk with my husband,0.02,0.01,8.8,,
,,63d432e27555fb4b5785cfcd,2024-04-13_08h54.22.699,WTP_SM_Choice,2022.2.1,Win32,60.24096386,,,,,,,,,,,,,,,,,,78,,,,,,,,,,0.01,2,2.5948,0,2,2,2,1,Combing through the rocks and shells on the beach for hours,Looking through the MLS at houses for fun with my husband,0.03,0.01,1.1,,
,,63d432e27555fb4b5785cfcd,2024-04-13_08h54.22.699,WTP_SM_Choice,2022.2.1,Win32,60.24096386,,,,,,,,,,,,,,,,,,79,,,,,,,,,,0.04,1,1.9279,0,3,3,3,1,Listening to storms by a window,Going to the beach with my family,0.04,0.01,1.1,,
,,63d432e27555fb4b5785cfcd,2024-04-13_08h54.22.699,WTP_SM_Choice,2022.2.1,Win32,60.24096386,,,,,,,,,,,,,,,,,,80,,,,,,,,,,0.01,2,3.1876,0,4,4,4,1,Trying new coffee places around town and see what the atmosphere is like,Going to my sister's house and spending time with my niece,0.05,0.01,4.4,,
,,63d432e27555fb4b5785cfcd,2024-04-13_08h54.22.699,WTP_SM_Choice,2022.2.1,Win32,60.24096386,,,,,,,NAN,,NAN,2.47,3.53,,0,79,79,79,1,80,Sam,Acc,Participant_Images/63d432e27555fb4b5785cfcd/63d432e27555fb4b5785cfcd_Images/63d432e27555fb4b5785cfcd_Image_8.jpeg,liked,3.195382774,,,,,,,,,,,,,,,,,,,
,,63d432e27555fb4b5785cfcd,2024-04-13_08h54.22.699,WTP_SM_Choice,2022.2.1,Win32,60.24096386,,,,,space,1.1987,NAN,,NAN,2.47,3.53,,0,80,80,80,1,81,Sam,Acc,Participant_Images/63d432e27555fb4b5785cfcd/63d432e27555fb4b5785cfcd_Images/63d432e27555fb4b5785cfcd_Image_3.jpeg,liked,1.779333479,,,,,,,,,,,,,,,,,,,
,,63d432e27555fb4b5785cfcd,2024-04-13_08h54.22.699,WTP_SM_Choice,2022.2.1,Win32,60.24096386,,,,,space,1.2266,NAN,,NAN,2.47,3.53,,0,81,81,81,1,82,Sam,Acc,Participant_Images/63d432e27555fb4b5785cfcd/63d432e27555fb4b5785cfcd_Images/63d432e27555fb4b5785cfcd_Image_9.jpeg,liked,4.312468682,,,,,,,,,,,,,,,,,,,
,,63d432e27555fb4b5785cfcd,2024-04-13_08h54.22.699,WTP_SM_Choice,2022.2.1,Win32,60.24096386,,,,,space,0.4364,NAN,,NAN,2.47,3.53,,0,82,82,82,1,83,Sam,Acc,Participant_Images/63d432e27555fb4b5785cfcd/63d432e27555fb4b5785cfcd_Images/63d432e27555fb4b5785cfcd_Image_18.jpeg,liked,4.940433059,,,,,,,,,,,,,,,,,,,
,,63d432e27555fb4b5785cfcd,2024-04-13_08h54.22.699,WTP_SM_Choice,2022.2.1,Win32,60.24096386,,,,,space,0.6008,NAN,,NAN,2.47,3.53,,0,83,83,83,1,84,Sam,Acc,Participant_Images/63d432e27555fb4b5785cfcd/63d432e27555fb4b5785cfcd_Images/63d432e27555fb4b5785cfcd_Image_21.jpeg,did not like,2.7105123,,,,,,,,,,,,,,,,,,,
,,63d432e27555fb4b5785cfcd,2024-04-13_08h54.22.699,WTP_SM_Choice,2022.2.1,Win32,60.24096386,,,,,,,,,,,,,,,,,,81,,,,,,space,0.964,space,0.8138,0.02,2,1.9825,0,0,0,0,1,Sitting on the couch and watching every single dateline episode,Looking through the MLS at houses for fun with my husband,0.01,0.02,3.3,,
,,63d432e27555fb4b5785cfcd,2024-04-13_08h54.22.699,WTP_SM_Choice,2022.2.1,Win32,60.24096386,,,,,,,,,,,,,,,,,,82,,,,,,,,,,0.02,1,1.618,0,1,1,1,1,Listening to storms by a window,Monthly lunches with my best friends,0.02,0.02,4.4,,
,,63d432e27555fb4b5785cfcd,2024-04-13_08h54.22.699,WTP_SM_Choice,2022.2.1,Win32,60.24096386,,,,,,,,,,,,,,,,,,83,,,,,,,,,,,,,0,2,2,2,1,Sitting on the couch and watching every single dateline episode,Monthly lunches with my best friends,0.03,0.02,1.1,,
,,63d432e27555fb4b5785cfcd,2024-04-13_08h54.22.699,WTP_SM_Choice,2022.2.1,Win32,60.24096386,,,,,,,,,,,,,,,,,,84,,,,,,,,,,0.04,1,1.5353,0,3,3,3,1,Playing fetch with the dogs or playing in the dirt in our backyard,Snuggling up with my husband kiddo and dogs and watching movies,0.04,0.02,3.3,,
,,63d432e27555fb4b5785cfcd,2024-04-13_08h54.22.699,WTP_SM_Choice,2022.2.1,Win32,60.24096386,,,,,,,,,,,,,,,,,,85,,,,,,,,,,0.05,1,1.1176,0,4,4,4,1,Having mini concerts and singing as loud as i can on solo trips in the car,Going to the zoo with my toddler and watching the animals,0.05,0.02,3.3,,
,,63d432e27555fb4b5785cfcd,2024-04-13_08h54.22.699,WTP_SM_Choice,2022.2.1,Win32,60.24096386,,,,,,,NAN,,NAN,2.6,3.4,,0,84,84,84,1,85,Sam,Acc,Participant_Images/63d432e27555fb4b5785cfcd/63d432e27555fb4b5785cfcd_Images/63d432e27555fb4b5785cfcd_Image_10.jpeg,liked,3.602308302,,,,,,,,,,,,,,,,,,,
,,63d432e27555fb4b5785cfcd,2024-04-13_08h54.22.699,WTP_SM_Choice,2022.2.1,Win32,60.24096386,,,,,space,0.8853,NAN,,NAN,2.6,3.4,,0,85,85,85,1,86,Sam,Acc,Participant_Images/63d432e27555fb4b5785cfcd/63d432e27555fb4b5785cfcd_Images/63d432e27555fb4b5785cfcd_Image_2.jpeg,did not like,4.106391878,,,,,,,,,,,,,,,,,,,
,,63d432e27555fb4b5785cfcd,2024-04-13_08h54.22.699,WTP_SM_Choice,2022.2.1,Win32,60.24096386,,,,,space,0.8941,NAN,,NAN,2.6,3.4,,0,86,86,86,1,87,Sam,Acc,Participant_Images/63d432e27555fb4b5785cfcd/63d432e27555fb4b5785cfcd_Images/63d432e27555fb4b5785cfcd_Image_1.jpeg,did not like,3.799433026,,,,,,,,,,,,,,,,,,,
,,63d432e27555fb4b5785cfcd,2024-04-13_08h54.22.699,WTP_SM_Choice,2022.2.1,Win32,60.24096386,,,,,space,0.6352,NAN,,NAN,2.6,3.4,,0,87,87,87,1,88,Sam,Acc,Participant_Images/63d432e27555fb4b5785cfcd/63d432e27555fb4b5785cfcd_Images/63d432e27555fb4b5785cfcd_Image_5.jpeg,liked,5.246980764,,,,,,,,,,,,,,,,,,,
,,63d432e27555fb4b5785cfcd,2024-04-13_08h54.22.699,WTP_SM_Choice,2022.2.1,Win32,60.24096386,,,,,space,0.9831,NAN,,NAN,2.6,3.4,,0,88,88,88,1,89,Sam,Acc,Participant_Images/63d432e27555fb4b5785cfcd/63d432e27555fb4b5785cfcd_Images/63d432e27555fb4b5785cfcd_Image_12.jpeg,liked,3.30081769,,,,,,,,,,,,,,,,,,,
,,63d432e27555fb4b5785cfcd,2024-04-13_08h54.22.699,WTP_SM_Choice,2022.2.1,Win32,60.24096386,,,,,,,,,,,,,,,,,,86,,,,,,space,1.1684,space,0.5166,0.01,1,1.2335,0,0,0,0,1,Going to  my favorite farmer's market in my favorite town on summer saturday morning,Going to the zoo with my toddler and watching the animals,0.01,0.03,1.1,,
,,63d432e27555fb4b5785cfcd,2024-04-13_08h54.22.699,WTP_SM_Choice,2022.2.1,Win32,60.24096386,,,,,,,,,,,,,,,,,,87,,,,,,,,,,0.02,1,0.9566,0,1,1,1,1,Sitting on the couch and watching every single dateline episode,Taking a day off work and heading downtown to spend a day with my husband,0.02,0.03,4.4,,
,,63d432e27555fb4b5785cfcd,2024-04-13_08h54.22.699,WTP_SM_Choice,2022.2.1,Win32,60.24096386,,,,,,,,,,,,,,,,,,88,,,,,,,,,,0.03,1,0.6184,0,2,2,2,1,Combing through the rocks and shells on the beach for hours,Monthly lunches with my best friends,0.03,0.03,1.1,,
,,63d432e27555fb4b5785cfcd,2024-04-13_08h54.22.699,WTP_SM_Choice,2022.2.1,Win32,60.24096386,,,,,,,,,,,,,,,,,,89,,,,,,,,,,0.04,1,0.7814,0,3,3,3,1,Having mini concerts and singing as loud as i can on solo trips in the car,Monthly lunches with my best friends,0.04,0.03,3.3,,
,,63d432e27555fb4b5785cfcd,2024-04-13_08h54.22.699,WTP_SM_Choice,2022.2.1,Win32,60.24096386,,,,,,,,,,,,,,,,,,90,,,,,,,,,,0.05,1,0.7318,0,4,4,4,1,Taking time to learn new crochet stitches or make something,Getting tattoos with others such as my husband or my besties,0.05,0.03,8.8,,
,,63d432e27555fb4b5785cfcd,2024-04-13_08h54.22.699,WTP_SM_Choice,2022.2.1,Win32,60.24096386,,,,,,,NAN,,NAN,2.75,3.25,,0,89,89,89,1,90,Sam,Acc,Participant_Images/63d432e27555fb4b5785cfcd/63d432e27555fb4b5785cfcd_Images/63d432e27555fb4b5785cfcd_Image_20.jpeg,liked,1.661473164,,,,,,,,,,,,,,,,,,,
,,63d432e27555fb4b5785cfcd,2024-04-13_08h54.22.699,WTP_SM_Choice,2022.2.1,Win32,60.24096386,,,,,space,1.259,NAN,,NAN,2.75,3.25,,0,90,90,90,1,91,Sam,Acc,Participant_Images/63d432e27555fb4b5785cfcd/63d432e27555fb4b5785cfcd_Images/63d432e27555fb4b5785cfcd_Image_4.jpeg,liked,3.613205605,,,,,,,,,,,,,,,,,,,
,,63d432e27555fb4b5785cfcd,2024-04-13_08h54.22.699,WTP_SM_Choice,2022.2.1,Win32,60.24096386,,,,,space,1.1495,NAN,,NAN,2.75,3.25,,0,91,91,91,1,92,Sam,Acc,Participant_Images/63d432e27555fb4b5785cfcd/63d432e27555fb4b5785cfcd_Images/63d432e27555fb4b5785cfcd_Image_25.jpeg,liked,4.988446431,,,,,,,,,,,,,,,,,,,
,,63d432e27555fb4b5785cfcd,2024-04-13_08h54.22.699,WTP_SM_Choice,2022.2.1,Win32,60.24096386,,,,,space,0.8668,NAN,,NAN,2.75,3.25,,0,92,92,92,1,93,Sam,Acc,Participant_Images/63d432e27555fb4b5785cfcd/63d432e27555fb4b5785cfcd_Images/63d432e27555fb4b5785cfcd_Image_24.jpeg,liked,3.470791822,,,,,,,,,,,,,,,,,,,
,,63d432e27555fb4b5785cfcd,2024-04-13_08h54.22.699,WTP_SM_Choice,2022.2.1,Win32,60.24096386,,,,,space,2.5491,NAN,,NAN,2.75,3.25,,0,93,93,93,1,94,Sam,Acc,Participant_Images/63d432e27555fb4b5785cfcd/63d432e27555fb4b5785cfcd_Images/63d432e27555fb4b5785cfcd_Image_6.jpeg,liked,3.820572462,,,,,,,,,,,,,,,,,,,
,,63d432e27555fb4b5785cfcd,2024-04-13_08h54.22.699,WTP_SM_Choice,2022.2.1,Win32,60.24096386,,,,,,,,,,,,,,,,,,91,,,,,,space,0.9142,space,0.657,0.04,2,2.0654,0,0,0,0,1,Taking time to learn new crochet stitches or make something,Monthly lunches with my best friends,0.01,0.04,3.3,,
,,63d432e27555fb4b5785cfcd,2024-04-13_08h54.22.699,WTP_SM_Choice,2022.2.1,Win32,60.24096386,,,,,,,,,,,,,,,,,,92,,,,,,,,,,0.02,1,1.3364,0,1,1,1,1,Lounging around and reading a good book on the beach,Fishing with my family,0.02,0.04,8.8,,
,,63d432e27555fb4b5785cfcd,2024-04-13_08h54.22.699,WTP_SM_Choice,2022.2.1,Win32,60.24096386,,,,,,,,,,,,,,,,,,93,,,,,,,,,,0.03,1,0.6683,0,2,2,2,1,Listening to storms by a window,Going to the zoo with my toddler and watching the animals,0.03,0.04,1.1,,
,,63d432e27555fb4b5785cfcd,2024-04-13_08h54.22.699,WTP_SM_Choice,2022.2.1,Win32,60.24096386,,,,,,,,,,,,,,,,,,94,,,,,,,,,,0.04,2,2.0567,0,3,3,3,1,Having mini concerts and singing as loud as i can on solo trips in the car,Taking the dogs for a walk with my husband,0.04,0.04,4.4,,
,,63d432e27555fb4b5785cfcd,2024-04-13_08h54.22.699,WTP_SM_Choice,2022.2.1,Win32,60.24096386,,,,,,,,,,,,,,,,,,95,,,,,,,,,,0.05,1,1.7021,0,4,4,4,1,Trying new coffee places around town and see what the atmosphere is like,Monthly lunches with my best friends,0.05,0.04,4.4,,
,,63d432e27555fb4b5785cfcd,2024-04-13_08h54.22.699,WTP_SM_Choice,2022.2.1,Win32,60.24096386,,,,,,,NAN,,NAN,2.93,3.07,,0,94,94,94,1,95,Sam,Acc,Participant_Images/63d432e27555fb4b5785cfcd/63d432e27555fb4b5785cfcd_Images/63d432e27555fb4b5785cfcd_Image_17.jpeg,did not like,2.455989137,,,,,,,,,,,,,,,,,,,
,,63d432e27555fb4b5785cfcd,2024-04-13_08h54.22.699,WTP_SM_Choice,2022.2.1,Win32,60.24096386,,,,,space,0.6499,NAN,,NAN,2.93,3.07,,0,95,95,95,1,96,Sam,Acc,Participant_Images/63d432e27555fb4b5785cfcd/63d432e27555fb4b5785cfcd_Images/63d432e27555fb4b5785cfcd_Image_13.jpeg,liked,3.79605092,,,,,,,,,,,,,,,,,,,
,,63d432e27555fb4b5785cfcd,2024-04-13_08h54.22.699,WTP_SM_Choice,2022.2.1,Win32,60.24096386,,,,,space,1.0106,NAN,,NAN,2.93,3.07,,0,96,96,96,1,97,Sam,Acc,Participant_Images/63d432e27555fb4b5785cfcd/63d432e27555fb4b5785cfcd_Images/63d432e27555fb4b5785cfcd_Image_22.jpeg,liked,3.562416326,,,,,,,,,,,,,,,,,,,
,,63d432e27555fb4b5785cfcd,2024-04-13_08h54.22.699,WTP_SM_Choice,2022.2.1,Win32,60.24096386,,,,,space,0.8812,NAN,,NAN,2.93,3.07,,0,97,97,97,1,98,Sam,Acc,Participant_Images/63d432e27555fb4b5785cfcd/63d432e27555fb4b5785cfcd_Images/63d432e27555fb4b5785cfcd_Image_15.jpeg,liked,2.843822497,,,,,,,,,,,,,,,,,,,
,,63d432e27555fb4b5785cfcd,2024-04-13_08h54.22.699,WTP_SM_Choice,2022.2.1,Win32,60.24096386,,,,,space,0.6708,NAN,,NAN,2.93,3.07,,0,98,98,98,1,99,Sam,Acc,Participant_Images/63d432e27555fb4b5785cfcd/63d432e27555fb4b5785cfcd_Images/63d432e27555fb4b5785cfcd_Image_7.jpeg,liked,3.546495948,,,,,,,,,,,,,,,,,,,
,,63d432e27555fb4b5785cfcd,2024-04-13_08h54.22.699,WTP_SM_Choice,2022.2.1,Win32,60.24096386,,,,,,,,,,,,,,,,,,96,,,,,,space,0.9226,space,0.5506,0.01,1,0.3379,0,0,0,0,1,Staying away at night and enjoying the quiet,Taking a day off work and heading downtown to spend a day with my husband,0.01,0.05,3.3,,
,,63d432e27555fb4b5785cfcd,2024-04-13_08h54.22.699,WTP_SM_Choice,2022.2.1,Win32,60.24096386,,,,,,,,,,,,,,,,,,97,,,,,,,,,,0.02,1,2.7368,0,1,1,1,1,Lounging around and reading a good book on the beach,Going to my sister's house and spending time with my niece,0.02,0.05,1.1,,
,,63d432e27555fb4b5785cfcd,2024-04-13_08h54.22.699,WTP_SM_Choice,2022.2.1,Win32,60.24096386,,,,,,,,,,,,,,,,,,98,,,,,,,,,,0.03,1,1.1938,0,2,2,2,1,Playing fetch with the dogs or playing in the dirt in our backyard,Going to my sister's house and spending time with my niece,0.03,0.05,1.1,,
,,63d432e27555fb4b5785cfcd,2024-04-13_08h54.22.699,WTP_SM_Choice,2022.2.1,Win32,60.24096386,,,,,,,,,,,,,,,,,,99,,,,,,,,,,0.04,1,2.5022,0,3,3,3,1,Going to  my favorite farmer's market in my favorite town on summer saturday morning,Taking a day off work and heading downtown to spend a day with my husband,0.04,0.05,3.3,,
,,63d432e27555fb4b5785cfcd,2024-04-13_08h54.22.699,WTP_SM_Choice,2022.2.1,Win32,60.24096386,,,,,,,,,,,,,,,,,,100,,,,,,,,,,0.05,1,0.8479,0,4,4,4,1,Lounging around and reading a good book on the beach,Taking a day off work and heading downtown to spend a day with my husband,0.05,0.05,4.4,,
,,63d432e27555fb4b5785cfcd,2024-04-13_08h54.22.699,WTP_SM_Choice,2022.2.1,Win32,60.24096386,,,,,,,2,,8,3.08,2.92,,0,99,99,99,1,100,Sam,Acc,Participant_Images/63d432e27555fb4b5785cfcd/63d432e27555fb4b5785cfcd_Images/63d432e27555fb4b5785cfcd_Image_14.jpeg,did not like,1.672012706,,,,,,,,,,,,,,,,,,space,0.9018
