endwelcomescreen_keys.keys,endwelcomescreen_keys.rt,participant,date,expName,psychopyVersion,OS,frameRate,endinstructionscreen_keys.keys,endinstructionscreen_keys.rt,endpartnermatch_keys.keys,endpartnermatch_keys.rt,sharenextphoto_key.keys,sharenextphoto_key.rt,salience_rating,key_resp.keys,stress_level,subtract_bonus,TOTAL_TASK_BONUS,stresslevel_keypress.keys,entiretaskloop.thisRepN,entiretaskloop.thisTrialN,entiretaskloop.thisN,entiretaskloop.thisIndex,entiretaskloop.ran,TrialNumber,Partner,Condition,Photos,Feedback,FeedbackWait,WTP_ins_keys1.keys,WTP_ins_keys1.rt,WTP_ins_keys2.keys,WTP_ins_keys2.rt,decision_price,responses.keys,responses.rt,WTPTaskLoop.thisRepN,WTPTaskLoop.thisTrialN,WTPTaskLoop.thisN,WTPTaskLoop.thisIndex,WTPTaskLoop.ran,right,left,leftmoney,rightmoney,WTP_ITI,Resume_keys.keys,Resume_keys.rt,key_resp.rt,end_screen_keys.keys,end_screen_keys.rt,social_left
space,95.9728,64c0a2d8031339ab6ec5e54a,2024-07-02_22h33.58.222,WTP_SM_Choice,2022.2.1,Win32,238.0952381,,,,,,,,,,,,,,,,,,,,,,,,,,,,,,,,,,,,,,,,,,,,,,
,,64c0a2d8031339ab6ec5e54a,2024-07-02_22h33.58.222,WTP_SM_Choice,2022.2.1,Win32,238.0952381,space,12.4875,,,,,,,,,,,,,,,,,,,,,,,,,,,,,,,,,,,,,,,,,,,,
,,64c0a2d8031339ab6ec5e54a,2024-07-02_22h33.58.222,WTP_SM_Choice,2022.2.1,Win32,238.0952381,,,space,2.7585,space,2.4188,NAN,,NAN,0,6,,0,0,0,0,1,1,Charlie,Acc,Participant_Images/64c0a2d8031339ab6ec5e54a/64c0a2d8031339ab6ec5e54a_Images/64c0a2d8031339ab6ec5e54a_Image_8.jpeg,liked,3.613205605,,,,,,,,,,,,,,,,,,,,,,,
,,64c0a2d8031339ab6ec5e54a,2024-07-02_22h33.58.222,WTP_SM_Choice,2022.2.1,Win32,238.0952381,,,,,space,2.8869,NAN,,NAN,0,6,,0,1,1,1,1,2,Charlie,Acc,Participant_Images/64c0a2d8031339ab6ec5e54a/64c0a2d8031339ab6ec5e54a_Images/64c0a2d8031339ab6ec5e54a_Image_25.jpeg,did not like,4.988446431,,,,,,,,,,,,,,,,,,,,,,,
,,64c0a2d8031339ab6ec5e54a,2024-07-02_22h33.58.222,WTP_SM_Choice,2022.2.1,Win32,238.0952381,,,,,space,1.0973,NAN,,NAN,0,6,,0,2,2,2,1,3,Charlie,Acc,Participant_Images/64c0a2d8031339ab6ec5e54a/64c0a2d8031339ab6ec5e54a_Images/64c0a2d8031339ab6ec5e54a_Image_10.jpeg,liked,3.470791822,,,,,,,,,,,,,,,,,,,,,,,
,,64c0a2d8031339ab6ec5e54a,2024-07-02_22h33.58.222,WTP_SM_Choice,2022.2.1,Win32,238.0952381,,,,,space,0.6641,NAN,,NAN,0,6,,0,3,3,3,1,4,Charlie,Acc,Participant_Images/64c0a2d8031339ab6ec5e54a/64c0a2d8031339ab6ec5e54a_Images/64c0a2d8031339ab6ec5e54a_Image_17.jpeg,liked,3.820572462,,,,,,,,,,,,,,,,,,,,,,,
,,64c0a2d8031339ab6ec5e54a,2024-07-02_22h33.58.222,WTP_SM_Choice,2022.2.1,Win32,238.0952381,,,,,,,,,,,,,,,,,,1,,,,,,space,219.1965,space,4.0735,0.01,2,3.6299,0,0,0,0,1,Play video games by myself,Call my friend and talk about nothing for hours,0.01,0.01,4.4,,,,,,1
,,64c0a2d8031339ab6ec5e54a,2024-07-02_22h33.58.222,WTP_SM_Choice,2022.2.1,Win32,238.0952381,,,,,,,,,,,,,,,,,,2,,,,,,,,,,0.02,1,5.0064,0,1,1,1,1,Play video games by myself,Walk around town and beyond for the entire da  talking about anything and eating anything with friends,0.02,0.01,8.8,,,,,,1
,,64c0a2d8031339ab6ec5e54a,2024-07-02_22h33.58.222,WTP_SM_Choice,2022.2.1,Win32,238.0952381,,,,,,,,,,,,,,,,,,3,,,,,,,,,,0.03,1,3.7777,0,2,2,2,1,Play video games by myself,Joyride with my friends on electric scooters,0.03,0.01,3.3,,,,,,1
,,64c0a2d8031339ab6ec5e54a,2024-07-02_22h33.58.222,WTP_SM_Choice,2022.2.1,Win32,238.0952381,,,,,,,,,,,,,,,,,,4,,,,,,,,,,0.04,1,4.1717,0,3,3,3,1,Ride an electric scooter by myself and listening to music,Talk to each other about future business ventures and moves for the rest of the day.,0.04,0.01,1.1,,,,,,1
,,64c0a2d8031339ab6ec5e54a,2024-07-02_22h33.58.222,WTP_SM_Choice,2022.2.1,Win32,238.0952381,,,,,,,,,,,,,,,,,,5,,,,,,,,,,0.01,2,5.2082,0,4,4,4,1,Edit videos using Premiere Pro,Play basketball with this one friend on Fridays,0.05,0.01,1.1,,,,,,1
,,64c0a2d8031339ab6ec5e54a,2024-07-02_22h33.58.222,WTP_SM_Choice,2022.2.1,Win32,238.0952381,,,,,,,NAN,,NAN,0.11,5.89,,0,4,4,4,1,5,Charlie,Acc,Participant_Images/64c0a2d8031339ab6ec5e54a/64c0a2d8031339ab6ec5e54a_Images/64c0a2d8031339ab6ec5e54a_Image_5.jpeg,liked,2.455989137,,,,,,,,,,,,,,,,,,,,,,,
,,64c0a2d8031339ab6ec5e54a,2024-07-02_22h33.58.222,WTP_SM_Choice,2022.2.1,Win32,238.0952381,,,,,space,4.0613,NAN,,NAN,0.11,5.89,,0,5,5,5,1,6,Charlie,Acc,Participant_Images/64c0a2d8031339ab6ec5e54a/64c0a2d8031339ab6ec5e54a_Images/64c0a2d8031339ab6ec5e54a_Image_21.jpeg,liked,3.79605092,,,,,,,,,,,,,,,,,,,,,,,
,,64c0a2d8031339ab6ec5e54a,2024-07-02_22h33.58.222,WTP_SM_Choice,2022.2.1,Win32,238.0952381,,,,,space,2.8086,NAN,,NAN,0.11,5.89,,0,6,6,6,1,7,Charlie,Acc,Participant_Images/64c0a2d8031339ab6ec5e54a/64c0a2d8031339ab6ec5e54a_Images/64c0a2d8031339ab6ec5e54a_Image_9.jpeg,liked,3.562416326,,,,,,,,,,,,,,,,,,,,,,,
,,64c0a2d8031339ab6ec5e54a,2024-07-02_22h33.58.222,WTP_SM_Choice,2022.2.1,Win32,238.0952381,,,,,space,1.1497,NAN,,NAN,0.11,5.89,,0,7,7,7,1,8,Charlie,Acc,Participant_Images/64c0a2d8031339ab6ec5e54a/64c0a2d8031339ab6ec5e54a_Images/64c0a2d8031339ab6ec5e54a_Image_23.jpeg,liked,2.843822497,,,,,,,,,,,,,,,,,,,,,,,
,,64c0a2d8031339ab6ec5e54a,2024-07-02_22h33.58.222,WTP_SM_Choice,2022.2.1,Win32,238.0952381,,,,,space,9.107,NAN,,NAN,0.11,5.89,,0,8,8,8,1,9,Charlie,Acc,Participant_Images/64c0a2d8031339ab6ec5e54a/64c0a2d8031339ab6ec5e54a_Images/64c0a2d8031339ab6ec5e54a_Image_16.jpeg,did not like,3.546495948,,,,,,,,,,,,,,,,,,,,,,,
,,64c0a2d8031339ab6ec5e54a,2024-07-02_22h33.58.222,WTP_SM_Choice,2022.2.1,Win32,238.0952381,,,,,,,,,,,,,,,,,,6,,,,,,space,30.1659,space,1.7955,0.01,1,3.7959,0,0,0,0,1,Read twitter threads and arguments,Talk to each other about future business ventures and moves for the rest of the day.,0.01,0.02,3.3,,,,,,1
,,64c0a2d8031339ab6ec5e54a,2024-07-02_22h33.58.222,WTP_SM_Choice,2022.2.1,Win32,238.0952381,,,,,,,,,,,,,,,,,,7,,,,,,,,,,0.02,1,3.0091,0,1,1,1,1,Ride an electric scooter by myself and listening to music,Watch hockey with my friend,0.02,0.02,1.1,,,,,,1
,,64c0a2d8031339ab6ec5e54a,2024-07-02_22h33.58.222,WTP_SM_Choice,2022.2.1,Win32,238.0952381,,,,,,,,,,,,,,,,,,8,,,,,,,,,,0.02,2,3.8989,0,2,2,2,1,Ride an electric scooter by myself and listening to music,Send memes to start a conversation,0.03,0.02,1.1,,,,,,1
,,64c0a2d8031339ab6ec5e54a,2024-07-02_22h33.58.222,WTP_SM_Choice,2022.2.1,Win32,238.0952381,,,,,,,,,,,,,,,,,,9,,,,,,,,,,0.04,1,3.7329,0,3,3,3,1,ride on my skateboard if my electric scooter is not available,Joyride with my friends on electric scooters,0.04,0.02,4.4,,,,,,1
,,64c0a2d8031339ab6ec5e54a,2024-07-02_22h33.58.222,WTP_SM_Choice,2022.2.1,Win32,238.0952381,,,,,,,,,,,,,,,,,,10,,,,,,,,,,0.02,2,2.1615,0,4,4,4,1,Edit videos using Premiere Pro,Go to the movies biweekly ,0.05,0.02,1.1,,,,,,1
,,64c0a2d8031339ab6ec5e54a,2024-07-02_22h33.58.222,WTP_SM_Choice,2022.2.1,Win32,238.0952381,,,,,,,NAN,,NAN,0.22,5.78,,0,9,9,9,1,10,Charlie,Acc,Participant_Images/64c0a2d8031339ab6ec5e54a/64c0a2d8031339ab6ec5e54a_Images/64c0a2d8031339ab6ec5e54a_Image_14.jpeg,did not like,1.672012706,,,,,,,,,,,,,,,,,,,,,,,
,,64c0a2d8031339ab6ec5e54a,2024-07-02_22h33.58.222,WTP_SM_Choice,2022.2.1,Win32,238.0952381,,,,,space,1.9834,NAN,,NAN,0.22,5.78,,0,10,10,10,1,11,Charlie,Acc,Participant_Images/64c0a2d8031339ab6ec5e54a/64c0a2d8031339ab6ec5e54a_Images/64c0a2d8031339ab6ec5e54a_Image_12.jpeg,liked,4.942172136,,,,,,,,,,,,,,,,,,,,,,,
,,64c0a2d8031339ab6ec5e54a,2024-07-02_22h33.58.222,WTP_SM_Choice,2022.2.1,Win32,238.0952381,,,,,space,14.0234,NAN,,NAN,0.22,5.78,,0,11,11,11,1,12,Charlie,Acc,Participant_Images/64c0a2d8031339ab6ec5e54a/64c0a2d8031339ab6ec5e54a_Images/64c0a2d8031339ab6ec5e54a_Image_6.jpeg,liked,2.50187214,,,,,,,,,,,,,,,,,,,,,,,
,,64c0a2d8031339ab6ec5e54a,2024-07-02_22h33.58.222,WTP_SM_Choice,2022.2.1,Win32,238.0952381,,,,,space,1.8686,NAN,,NAN,0.22,5.78,,0,12,12,12,1,13,Charlie,Acc,Participant_Images/64c0a2d8031339ab6ec5e54a/64c0a2d8031339ab6ec5e54a_Images/64c0a2d8031339ab6ec5e54a_Image_4.jpeg,liked,2.071164779,,,,,,,,,,,,,,,,,,,,,,,
,,64c0a2d8031339ab6ec5e54a,2024-07-02_22h33.58.222,WTP_SM_Choice,2022.2.1,Win32,238.0952381,,,,,space,9.9823,NAN,,NAN,0.22,5.78,,0,13,13,13,1,14,Charlie,Acc,Participant_Images/64c0a2d8031339ab6ec5e54a/64c0a2d8031339ab6ec5e54a_Images/64c0a2d8031339ab6ec5e54a_Image_20.jpeg,liked,5.336503566,,,,,,,,,,,,,,,,,,,,,,,
,,64c0a2d8031339ab6ec5e54a,2024-07-02_22h33.58.222,WTP_SM_Choice,2022.2.1,Win32,238.0952381,,,,,,,,,,,,,,,,,,11,,,,,,space,12.3884,space,8.7867,0.01,1,2.548,0,0,0,0,1,Listen to any type of music out there,Play video games with my friends,0.01,0.03,3.3,,,,,,1
,,64c0a2d8031339ab6ec5e54a,2024-07-02_22h33.58.222,WTP_SM_Choice,2022.2.1,Win32,238.0952381,,,,,,,,,,,,,,,,,,12,,,,,,,,,,0.02,1,3.2955,0,1,1,1,1,Boot up Twitch and watch of my followed channels,Play basketball with this one friend on Fridays,0.02,0.03,4.4,,,,,,1
,,64c0a2d8031339ab6ec5e54a,2024-07-02_22h33.58.222,WTP_SM_Choice,2022.2.1,Win32,238.0952381,,,,,,,,,,,,,,,,,,13,,,,,,,,,,0.03,1,2.4924,0,2,2,2,1,Play video games by myself,Go to the movies biweekly ,0.03,0.03,1.1,,,,,,1
,,64c0a2d8031339ab6ec5e54a,2024-07-02_22h33.58.222,WTP_SM_Choice,2022.2.1,Win32,238.0952381,,,,,,,,,,,,,,,,,,14,,,,,,,,,,0.03,2,2.5373,0,3,3,3,1,ride on my skateboard if my electric scooter is not available,Play basketball with this one friend on Fridays,0.04,0.03,3.3,,,,,,1
,,64c0a2d8031339ab6ec5e54a,2024-07-02_22h33.58.222,WTP_SM_Choice,2022.2.1,Win32,238.0952381,,,,,,,,,,,,,,,,,,15,,,,,,,,,,0.05,1,3.0897,0,4,4,4,1,ride on my skateboard if my electric scooter is not available,Watch hockey with my friend,0.05,0.03,4.4,,,,,,1
,,64c0a2d8031339ab6ec5e54a,2024-07-02_22h33.58.222,WTP_SM_Choice,2022.2.1,Win32,238.0952381,,,,,,,NAN,,NAN,0.36,5.64,,0,14,14,14,1,15,Charlie,Acc,Participant_Images/64c0a2d8031339ab6ec5e54a/64c0a2d8031339ab6ec5e54a_Images/64c0a2d8031339ab6ec5e54a_Image_22.jpeg,did not like,2.642157193,,,,,,,,,,,,,,,,,,,,,,,
,,64c0a2d8031339ab6ec5e54a,2024-07-02_22h33.58.222,WTP_SM_Choice,2022.2.1,Win32,238.0952381,,,,,space,7.0107,NAN,,NAN,0.36,5.64,,0,15,15,15,1,16,Charlie,Acc,Participant_Images/64c0a2d8031339ab6ec5e54a/64c0a2d8031339ab6ec5e54a_Images/64c0a2d8031339ab6ec5e54a_Image_19.jpeg,liked,4.456234322,,,,,,,,,,,,,,,,,,,,,,,
,,64c0a2d8031339ab6ec5e54a,2024-07-02_22h33.58.222,WTP_SM_Choice,2022.2.1,Win32,238.0952381,,,,,space,4.7253,NAN,,NAN,0.36,5.64,,0,16,16,16,1,17,Charlie,Acc,Participant_Images/64c0a2d8031339ab6ec5e54a/64c0a2d8031339ab6ec5e54a_Images/64c0a2d8031339ab6ec5e54a_Image_2.jpeg,liked,4.438512181,,,,,,,,,,,,,,,,,,,,,,,
,,64c0a2d8031339ab6ec5e54a,2024-07-02_22h33.58.222,WTP_SM_Choice,2022.2.1,Win32,238.0952381,,,,,space,0.4309,NAN,,NAN,0.36,5.64,,0,17,17,17,1,18,Charlie,Acc,Participant_Images/64c0a2d8031339ab6ec5e54a/64c0a2d8031339ab6ec5e54a_Images/64c0a2d8031339ab6ec5e54a_Image_1.jpeg,liked,2.682944783,,,,,,,,,,,,,,,,,,,,,,,
,,64c0a2d8031339ab6ec5e54a,2024-07-02_22h33.58.222,WTP_SM_Choice,2022.2.1,Win32,238.0952381,,,,,space,10.5112,NAN,,NAN,0.36,5.64,,0,18,18,18,1,19,Charlie,Acc,Participant_Images/64c0a2d8031339ab6ec5e54a/64c0a2d8031339ab6ec5e54a_Images/64c0a2d8031339ab6ec5e54a_Image_7.jpeg,did not like,4.51984296,,,,,,,,,,,,,,,,,,,,,,,
,,64c0a2d8031339ab6ec5e54a,2024-07-02_22h33.58.222,WTP_SM_Choice,2022.2.1,Win32,238.0952381,,,,,,,,,,,,,,,,,,16,,,,,,space,14.6847,space,2.2341,0.01,1,3.4238,0,0,0,0,1,Boot up Twitch and watch of my followed channels,Go to the movies biweekly ,0.01,0.04,1.1,,,,,,1
,,64c0a2d8031339ab6ec5e54a,2024-07-02_22h33.58.222,WTP_SM_Choice,2022.2.1,Win32,238.0952381,,,,,,,,,,,,,,,,,,17,,,,,,,,,,0.04,2,3.2166,0,1,1,1,1,Ride an electric scooter by myself and listening to music,Call my friend and talk about nothing for hours,0.02,0.04,8.8,,,,,,1
,,64c0a2d8031339ab6ec5e54a,2024-07-02_22h33.58.222,WTP_SM_Choice,2022.2.1,Win32,238.0952381,,,,,,,,,,,,,,,,,,18,,,,,,,,,,0.03,1,4.2929,0,2,2,2,1,Edit videos using Premiere Pro,Edit with my partner and best friend,0.03,0.04,3.3,,,,,,1
,,64c0a2d8031339ab6ec5e54a,2024-07-02_22h33.58.222,WTP_SM_Choice,2022.2.1,Win32,238.0952381,,,,,,,,,,,,,,,,,,19,,,,,,,,,,0.04,1,6.6786,0,3,3,3,1,ride on my skateboard if my electric scooter is not available,Go to the movies biweekly ,0.04,0.04,3.3,,,,,,1
,,64c0a2d8031339ab6ec5e54a,2024-07-02_22h33.58.222,WTP_SM_Choice,2022.2.1,Win32,238.0952381,,,,,,,,,,,,,,,,,,20,,,,,,,,,,0.05,1,5.1177,0,4,4,4,1,Use ChatGPT and enhance my workflow while making me learn something new,Walk around town and beyond for the entire da  talking about anything and eating anything with friends,0.05,0.04,1.1,,,,,,1
,,64c0a2d8031339ab6ec5e54a,2024-07-02_22h33.58.222,WTP_SM_Choice,2022.2.1,Win32,238.0952381,,,,,,,NAN,,NAN,0.53,5.47,,0,19,19,19,1,20,Charlie,Acc,Participant_Images/64c0a2d8031339ab6ec5e54a/64c0a2d8031339ab6ec5e54a_Images/64c0a2d8031339ab6ec5e54a_Image_11.jpeg,liked,3.195382774,,,,,,,,,,,,,,,,,,,,,,,
,,64c0a2d8031339ab6ec5e54a,2024-07-02_22h33.58.222,WTP_SM_Choice,2022.2.1,Win32,238.0952381,,,,,space,13.9059,NAN,,NAN,0.53,5.47,,0,20,20,20,1,21,Charlie,Acc,Participant_Images/64c0a2d8031339ab6ec5e54a/64c0a2d8031339ab6ec5e54a_Images/64c0a2d8031339ab6ec5e54a_Image_3.jpeg,did not like,1.779333479,,,,,,,,,,,,,,,,,,,,,,,
,,64c0a2d8031339ab6ec5e54a,2024-07-02_22h33.58.222,WTP_SM_Choice,2022.2.1,Win32,238.0952381,,,,,space,17.9041,NAN,,NAN,0.53,5.47,,0,21,21,21,1,22,Charlie,Acc,Participant_Images/64c0a2d8031339ab6ec5e54a/64c0a2d8031339ab6ec5e54a_Images/64c0a2d8031339ab6ec5e54a_Image_15.jpeg,liked,4.312468682,,,,,,,,,,,,,,,,,,,,,,,
,,64c0a2d8031339ab6ec5e54a,2024-07-02_22h33.58.222,WTP_SM_Choice,2022.2.1,Win32,238.0952381,,,,,space,8.2393,NAN,,NAN,0.53,5.47,,0,22,22,22,1,23,Charlie,Acc,Participant_Images/64c0a2d8031339ab6ec5e54a/64c0a2d8031339ab6ec5e54a_Images/64c0a2d8031339ab6ec5e54a_Image_24.jpeg,liked,4.940433059,,,,,,,,,,,,,,,,,,,,,,,
,,64c0a2d8031339ab6ec5e54a,2024-07-02_22h33.58.222,WTP_SM_Choice,2022.2.1,Win32,238.0952381,,,,,space,7.1445,NAN,,NAN,0.53,5.47,,0,23,23,23,1,24,Charlie,Acc,Participant_Images/64c0a2d8031339ab6ec5e54a/64c0a2d8031339ab6ec5e54a_Images/64c0a2d8031339ab6ec5e54a_Image_18.jpeg,liked,2.7105123,,,,,,,,,,,,,,,,,,,,,,,
,,64c0a2d8031339ab6ec5e54a,2024-07-02_22h33.58.222,WTP_SM_Choice,2022.2.1,Win32,238.0952381,,,,,,,,,,,,,,,,,,21,,,,,,space,20.4557,space,1.3773,0.01,1,3.4743,0,0,0,0,1,look at art especially manga/anime art,Play video games with my friends,0.01,0.05,8.8,,,,,,1
,,64c0a2d8031339ab6ec5e54a,2024-07-02_22h33.58.222,WTP_SM_Choice,2022.2.1,Win32,238.0952381,,,,,,,,,,,,,,,,,,22,,,,,,,,,,0.05,2,2.0975,0,1,1,1,1,look at art especially manga/anime art,Joyride with my friends on electric scooters,0.02,0.05,4.4,,,,,,1
,,64c0a2d8031339ab6ec5e54a,2024-07-02_22h33.58.222,WTP_SM_Choice,2022.2.1,Win32,238.0952381,,,,,,,,,,,,,,,,,,23,,,,,,,,,,0.05,2,4.909,0,2,2,2,1,look at art especially manga/anime art,Edit with my partner and best friend,0.03,0.05,1.1,,,,,,1
,,64c0a2d8031339ab6ec5e54a,2024-07-02_22h33.58.222,WTP_SM_Choice,2022.2.1,Win32,238.0952381,,,,,,,,,,,,,,,,,,24,,,,,,,,,,0.04,1,4.8347,0,3,3,3,1,ride on my skateboard if my electric scooter is not available,Walk around town and beyond for the entire da  talking about anything and eating anything with friends,0.04,0.05,4.4,,,,,,1
,,64c0a2d8031339ab6ec5e54a,2024-07-02_22h33.58.222,WTP_SM_Choice,2022.2.1,Win32,238.0952381,,,,,,,,,,,,,,,,,,25,,,,,,,,,,0.05,1,6.7022,0,4,4,4,1,Listen to any type of music out there,Talk to each other about future business ventures and moves for the rest of the day.,0.05,0.05,3.3,,,,,,1
,,64c0a2d8031339ab6ec5e54a,2024-07-02_22h33.58.222,WTP_SM_Choice,2022.2.1,Win32,238.0952381,,,,,,,3,space,9,0.73,5.27,,0,24,24,24,1,25,Charlie,Acc,Participant_Images/64c0a2d8031339ab6ec5e54a/64c0a2d8031339ab6ec5e54a_Images/64c0a2d8031339ab6ec5e54a_Image_13.jpeg,did not like,3.602308302,,,,,,,,,,,,,,,,,,space,17.8396,10.8756,,,
,,64c0a2d8031339ab6ec5e54a,2024-07-02_22h33.58.222,WTP_SM_Choice,2022.2.1,Win32,238.0952381,,,space,7.818,space,11.6124,NAN,,NAN,0.73,5.27,,0,25,25,25,1,26,Alex,Rej,Participant_Images/64c0a2d8031339ab6ec5e54a/64c0a2d8031339ab6ec5e54a_Images/64c0a2d8031339ab6ec5e54a_Image_17.jpeg,did not like,4.106391878,,,,,,,,,,,,,,,,,,,,,,,
,,64c0a2d8031339ab6ec5e54a,2024-07-02_22h33.58.222,WTP_SM_Choice,2022.2.1,Win32,238.0952381,,,,,space,8.0422,NAN,,NAN,0.73,5.27,,0,26,26,26,1,27,Alex,Rej,Participant_Images/64c0a2d8031339ab6ec5e54a/64c0a2d8031339ab6ec5e54a_Images/64c0a2d8031339ab6ec5e54a_Image_13.jpeg,did not like,3.799433026,,,,,,,,,,,,,,,,,,,,,,,
,,64c0a2d8031339ab6ec5e54a,2024-07-02_22h33.58.222,WTP_SM_Choice,2022.2.1,Win32,238.0952381,,,,,space,3.2336,NAN,,NAN,0.73,5.27,,0,27,27,27,1,28,Alex,Rej,Participant_Images/64c0a2d8031339ab6ec5e54a/64c0a2d8031339ab6ec5e54a_Images/64c0a2d8031339ab6ec5e54a_Image_24.jpeg,did not like,5.246980764,,,,,,,,,,,,,,,,,,,,,,,
,,64c0a2d8031339ab6ec5e54a,2024-07-02_22h33.58.222,WTP_SM_Choice,2022.2.1,Win32,238.0952381,,,,,space,0.7025,NAN,,NAN,0.73,5.27,,0,28,28,28,1,29,Alex,Rej,Participant_Images/64c0a2d8031339ab6ec5e54a/64c0a2d8031339ab6ec5e54a_Images/64c0a2d8031339ab6ec5e54a_Image_8.jpeg,did not like,3.30081769,,,,,,,,,,,,,,,,,,,,,,,
,,64c0a2d8031339ab6ec5e54a,2024-07-02_22h33.58.222,WTP_SM_Choice,2022.2.1,Win32,238.0952381,,,,,,,,,,,,,,,,,,26,,,,,,space,8.2675,space,0.6667,0.01,2,2.4667,0,0,0,0,1,Draw,Talk to each other about future business ventures and moves for the rest of the day.,0.01,0.01,4.4,,,,,,1
,,64c0a2d8031339ab6ec5e54a,2024-07-02_22h33.58.222,WTP_SM_Choice,2022.2.1,Win32,238.0952381,,,,,,,,,,,,,,,,,,27,,,,,,,,,,0.01,2,4.9658,0,1,1,1,1,Read twitter threads and arguments,Send memes to start a conversation,0.02,0.01,3.3,,,,,,1
,,64c0a2d8031339ab6ec5e54a,2024-07-02_22h33.58.222,WTP_SM_Choice,2022.2.1,Win32,238.0952381,,,,,,,,,,,,,,,,,,28,,,,,,,,,,0.01,2,7.3197,0,2,2,2,1,Listen to any type of music out there,Go to the movies biweekly ,0.03,0.01,3.3,,,,,,1
,,64c0a2d8031339ab6ec5e54a,2024-07-02_22h33.58.222,WTP_SM_Choice,2022.2.1,Win32,238.0952381,,,,,,,,,,,,,,,,,,29,,,,,,,,,,0.01,2,5.8414,0,3,3,3,1,look at art especially manga/anime art,Go to the movies biweekly ,0.04,0.01,4.4,,,,,,1
,,64c0a2d8031339ab6ec5e54a,2024-07-02_22h33.58.222,WTP_SM_Choice,2022.2.1,Win32,238.0952381,,,,,,,,,,,,,,,,,,30,,,,,,,,,,0.05,1,3.0482,0,4,4,4,1,Boot up Twitch and watch of my followed channels,Joyride with my friends on electric scooters,0.05,0.01,8.8,,,,,,1
,,64c0a2d8031339ab6ec5e54a,2024-07-02_22h33.58.222,WTP_SM_Choice,2022.2.1,Win32,238.0952381,,,,,,,NAN,,NAN,0.82,5.18,,0,29,29,29,1,30,Alex,Rej,Participant_Images/64c0a2d8031339ab6ec5e54a/64c0a2d8031339ab6ec5e54a_Images/64c0a2d8031339ab6ec5e54a_Image_12.jpeg,liked,1.661473164,,,,,,,,,,,,,,,,,,,,,,,
,,64c0a2d8031339ab6ec5e54a,2024-07-02_22h33.58.222,WTP_SM_Choice,2022.2.1,Win32,238.0952381,,,,,space,4.8004,NAN,,NAN,0.82,5.18,,0,30,30,30,1,31,Alex,Rej,Participant_Images/64c0a2d8031339ab6ec5e54a/64c0a2d8031339ab6ec5e54a_Images/64c0a2d8031339ab6ec5e54a_Image_2.jpeg,liked,3.613205605,,,,,,,,,,,,,,,,,,,,,,,
,,64c0a2d8031339ab6ec5e54a,2024-07-02_22h33.58.222,WTP_SM_Choice,2022.2.1,Win32,238.0952381,,,,,space,1.6921,NAN,,NAN,0.82,5.18,,0,31,31,31,1,32,Alex,Rej,Participant_Images/64c0a2d8031339ab6ec5e54a/64c0a2d8031339ab6ec5e54a_Images/64c0a2d8031339ab6ec5e54a_Image_3.jpeg,did not like,4.988446431,,,,,,,,,,,,,,,,,,,,,,,
,,64c0a2d8031339ab6ec5e54a,2024-07-02_22h33.58.222,WTP_SM_Choice,2022.2.1,Win32,238.0952381,,,,,space,1.8332,NAN,,NAN,0.82,5.18,,0,32,32,32,1,33,Alex,Rej,Participant_Images/64c0a2d8031339ab6ec5e54a/64c0a2d8031339ab6ec5e54a_Images/64c0a2d8031339ab6ec5e54a_Image_7.jpeg,did not like,3.470791822,,,,,,,,,,,,,,,,,,,,,,,
,,64c0a2d8031339ab6ec5e54a,2024-07-02_22h33.58.222,WTP_SM_Choice,2022.2.1,Win32,238.0952381,,,,,space,9.4941,NAN,,NAN,0.82,5.18,,0,33,33,33,1,34,Alex,Rej,Participant_Images/64c0a2d8031339ab6ec5e54a/64c0a2d8031339ab6ec5e54a_Images/64c0a2d8031339ab6ec5e54a_Image_6.jpeg,did not like,3.820572462,,,,,,,,,,,,,,,,,,,,,,,
,,64c0a2d8031339ab6ec5e54a,2024-07-02_22h33.58.222,WTP_SM_Choice,2022.2.1,Win32,238.0952381,,,,,,,,,,,,,,,,,,31,,,,,,space,4.3894,space,0.847,0.01,1,2.8406,0,0,0,0,1,Use ChatGPT and enhance my workflow while making me learn something new,Send memes to start a conversation,0.01,0.02,8.8,,,,,,1
,,64c0a2d8031339ab6ec5e54a,2024-07-02_22h33.58.222,WTP_SM_Choice,2022.2.1,Win32,238.0952381,,,,,,,,,,,,,,,,,,32,,,,,,,,,,0.02,2,5.5705,0,1,1,1,1,Draw,Watch hockey with my friend,0.02,0.02,1.1,,,,,,1
,,64c0a2d8031339ab6ec5e54a,2024-07-02_22h33.58.222,WTP_SM_Choice,2022.2.1,Win32,238.0952381,,,,,,,,,,,,,,,,,,33,,,,,,,,,,0.03,1,9.9019,0,2,2,2,1,Use ChatGPT and enhance my workflow while making me learn something new,Joyride with my friends on electric scooters,0.03,0.02,4.4,,,,,,1
,,64c0a2d8031339ab6ec5e54a,2024-07-02_22h33.58.222,WTP_SM_Choice,2022.2.1,Win32,238.0952381,,,,,,,,,,,,,,,,,,34,,,,,,,,,,0.02,2,5.171,0,3,3,3,1,Draw,Walk around town and beyond for the entire da  talking about anything and eating anything with friends,0.04,0.02,3.3,,,,,,1
,,64c0a2d8031339ab6ec5e54a,2024-07-02_22h33.58.222,WTP_SM_Choice,2022.2.1,Win32,238.0952381,,,,,,,,,,,,,,,,,,35,,,,,,,,,,0.05,1,4.6667,0,4,4,4,1,Play video games by myself,Watch hockey with my friend,0.05,0.02,1.1,,,,,,1
,,64c0a2d8031339ab6ec5e54a,2024-07-02_22h33.58.222,WTP_SM_Choice,2022.2.1,Win32,238.0952381,,,,,,,NAN,,NAN,0.95,5.05,,0,34,34,34,1,35,Alex,Rej,Participant_Images/64c0a2d8031339ab6ec5e54a/64c0a2d8031339ab6ec5e54a_Images/64c0a2d8031339ab6ec5e54a_Image_19.jpeg,did not like,2.455989137,,,,,,,,,,,,,,,,,,,,,,,
,,64c0a2d8031339ab6ec5e54a,2024-07-02_22h33.58.222,WTP_SM_Choice,2022.2.1,Win32,238.0952381,,,,,space,1.1969,NAN,,NAN,0.95,5.05,,0,35,35,35,1,36,Alex,Rej,Participant_Images/64c0a2d8031339ab6ec5e54a/64c0a2d8031339ab6ec5e54a_Images/64c0a2d8031339ab6ec5e54a_Image_4.jpeg,did not like,3.79605092,,,,,,,,,,,,,,,,,,,,,,,
,,64c0a2d8031339ab6ec5e54a,2024-07-02_22h33.58.222,WTP_SM_Choice,2022.2.1,Win32,238.0952381,,,,,space,1.0918,NAN,,NAN,0.95,5.05,,0,36,36,36,1,37,Alex,Rej,Participant_Images/64c0a2d8031339ab6ec5e54a/64c0a2d8031339ab6ec5e54a_Images/64c0a2d8031339ab6ec5e54a_Image_16.jpeg,did not like,3.562416326,,,,,,,,,,,,,,,,,,,,,,,
,,64c0a2d8031339ab6ec5e54a,2024-07-02_22h33.58.222,WTP_SM_Choice,2022.2.1,Win32,238.0952381,,,,,space,0.549,NAN,,NAN,0.95,5.05,,0,37,37,37,1,38,Alex,Rej,Participant_Images/64c0a2d8031339ab6ec5e54a/64c0a2d8031339ab6ec5e54a_Images/64c0a2d8031339ab6ec5e54a_Image_11.jpeg,did not like,2.843822497,,,,,,,,,,,,,,,,,,,,,,,
,,64c0a2d8031339ab6ec5e54a,2024-07-02_22h33.58.222,WTP_SM_Choice,2022.2.1,Win32,238.0952381,,,,,space,9.3439,NAN,,NAN,0.95,5.05,,0,38,38,38,1,39,Alex,Rej,Participant_Images/64c0a2d8031339ab6ec5e54a/64c0a2d8031339ab6ec5e54a_Images/64c0a2d8031339ab6ec5e54a_Image_9.jpeg,liked,3.546495948,,,,,,,,,,,,,,,,,,,,,,,
,,64c0a2d8031339ab6ec5e54a,2024-07-02_22h33.58.222,WTP_SM_Choice,2022.2.1,Win32,238.0952381,,,,,,,,,,,,,,,,,,36,,,,,,space,2.6232,space,0.4832,0.01,1,3.1264,0,0,0,0,1,Listen to any type of music out there,Walk around town and beyond for the entire da  talking about anything and eating anything with friends,0.01,0.03,3.3,,,,,,1
,,64c0a2d8031339ab6ec5e54a,2024-07-02_22h33.58.222,WTP_SM_Choice,2022.2.1,Win32,238.0952381,,,,,,,,,,,,,,,,,,37,,,,,,,,,,0.03,2,3.2791,0,1,1,1,1,Play video games by myself,Send memes to start a conversation,0.02,0.03,1.1,,,,,,1
,,64c0a2d8031339ab6ec5e54a,2024-07-02_22h33.58.222,WTP_SM_Choice,2022.2.1,Win32,238.0952381,,,,,,,,,,,,,,,,,,38,,,,,,,,,,0.03,2,4.4725,0,2,2,2,1,Draw,Joyride with my friends on electric scooters,0.03,0.03,1.1,,,,,,1
,,64c0a2d8031339ab6ec5e54a,2024-07-02_22h33.58.222,WTP_SM_Choice,2022.2.1,Win32,238.0952381,,,,,,,,,,,,,,,,,,39,,,,,,,,,,0.03,2,3.3789,0,3,3,3,1,Play video games by myself,Play basketball with this one friend on Fridays,0.04,0.03,3.3,,,,,,1
,,64c0a2d8031339ab6ec5e54a,2024-07-02_22h33.58.222,WTP_SM_Choice,2022.2.1,Win32,238.0952381,,,,,,,,,,,,,,,,,,40,,,,,,,,,,0.05,1,5.5235,0,4,4,4,1,Use ChatGPT and enhance my workflow while making me learn something new,Play video games with my friends,0.05,0.03,4.4,,,,,,1
,,64c0a2d8031339ab6ec5e54a,2024-07-02_22h33.58.222,WTP_SM_Choice,2022.2.1,Win32,238.0952381,,,,,,,NAN,,NAN,1.1,4.9,,0,39,39,39,1,40,Alex,Rej,Participant_Images/64c0a2d8031339ab6ec5e54a/64c0a2d8031339ab6ec5e54a_Images/64c0a2d8031339ab6ec5e54a_Image_15.jpeg,did not like,1.672012706,,,,,,,,,,,,,,,,,,,,,,,
,,64c0a2d8031339ab6ec5e54a,2024-07-02_22h33.58.222,WTP_SM_Choice,2022.2.1,Win32,238.0952381,,,,,space,1.6575,NAN,,NAN,1.1,4.9,,0,40,40,40,1,41,Alex,Rej,Participant_Images/64c0a2d8031339ab6ec5e54a/64c0a2d8031339ab6ec5e54a_Images/64c0a2d8031339ab6ec5e54a_Image_22.jpeg,liked,4.942172136,,,,,,,,,,,,,,,,,,,,,,,
,,64c0a2d8031339ab6ec5e54a,2024-07-02_22h33.58.222,WTP_SM_Choice,2022.2.1,Win32,238.0952381,,,,,space,8.4418,NAN,,NAN,1.1,4.9,,0,41,41,41,1,42,Alex,Rej,Participant_Images/64c0a2d8031339ab6ec5e54a/64c0a2d8031339ab6ec5e54a_Images/64c0a2d8031339ab6ec5e54a_Image_14.jpeg,liked,2.50187214,,,,,,,,,,,,,,,,,,,,,,,
,,64c0a2d8031339ab6ec5e54a,2024-07-02_22h33.58.222,WTP_SM_Choice,2022.2.1,Win32,238.0952381,,,,,space,0.7426,NAN,,NAN,1.1,4.9,,0,42,42,42,1,43,Alex,Rej,Participant_Images/64c0a2d8031339ab6ec5e54a/64c0a2d8031339ab6ec5e54a_Images/64c0a2d8031339ab6ec5e54a_Image_1.jpeg,did not like,2.071164779,,,,,,,,,,,,,,,,,,,,,,,
,,64c0a2d8031339ab6ec5e54a,2024-07-02_22h33.58.222,WTP_SM_Choice,2022.2.1,Win32,238.0952381,,,,,space,1.1191,NAN,,NAN,1.1,4.9,,0,43,43,43,1,44,Alex,Rej,Participant_Images/64c0a2d8031339ab6ec5e54a/64c0a2d8031339ab6ec5e54a_Images/64c0a2d8031339ab6ec5e54a_Image_23.jpeg,did not like,5.336503566,,,,,,,,,,,,,,,,,,,,,,,
,,64c0a2d8031339ab6ec5e54a,2024-07-02_22h33.58.222,WTP_SM_Choice,2022.2.1,Win32,238.0952381,,,,,,,,,,,,,,,,,,41,,,,,,space,2.0948,space,3.3484,0.01,1,4.8861,0,0,0,0,1,Play video games by myself,Talk to each other about future business ventures and moves for the rest of the day.,0.01,0.04,1.1,,,,,,1
,,64c0a2d8031339ab6ec5e54a,2024-07-02_22h33.58.222,WTP_SM_Choice,2022.2.1,Win32,238.0952381,,,,,,,,,,,,,,,,,,42,,,,,,,,,,0.04,2,1.8695,0,1,1,1,1,Draw,Play video games with my friends,0.02,0.04,3.3,,,,,,1
,,64c0a2d8031339ab6ec5e54a,2024-07-02_22h33.58.222,WTP_SM_Choice,2022.2.1,Win32,238.0952381,,,,,,,,,,,,,,,,,,43,,,,,,,,,,0.03,1,6.282,0,2,2,2,1,Use ChatGPT and enhance my workflow while making me learn something new,Go to the movies biweekly ,0.03,0.04,1.1,,,,,,1
,,64c0a2d8031339ab6ec5e54a,2024-07-02_22h33.58.222,WTP_SM_Choice,2022.2.1,Win32,238.0952381,,,,,,,,,,,,,,,,,,44,,,,,,,,,,0.04,1,2.8435,0,3,3,3,1,Use ChatGPT and enhance my workflow while making me learn something new,Call my friend and talk about nothing for hours,0.04,0.04,1.1,,,,,,1
,,64c0a2d8031339ab6ec5e54a,2024-07-02_22h33.58.222,WTP_SM_Choice,2022.2.1,Win32,238.0952381,,,,,,,,,,,,,,,,,,45,,,,,,,,,,0.04,2,5.7073,0,4,4,4,1,Ride an electric scooter by myself and listening to music,Edit with my partner and best friend,0.05,0.04,4.4,,,,,,1
,,64c0a2d8031339ab6ec5e54a,2024-07-02_22h33.58.222,WTP_SM_Choice,2022.2.1,Win32,238.0952381,,,,,,,NAN,,NAN,1.26,4.74,,0,44,44,44,1,45,Alex,Rej,Participant_Images/64c0a2d8031339ab6ec5e54a/64c0a2d8031339ab6ec5e54a_Images/64c0a2d8031339ab6ec5e54a_Image_21.jpeg,liked,2.642157193,,,,,,,,,,,,,,,,,,,,,,,
,,64c0a2d8031339ab6ec5e54a,2024-07-02_22h33.58.222,WTP_SM_Choice,2022.2.1,Win32,238.0952381,,,,,space,1.1773,NAN,,NAN,1.26,4.74,,0,45,45,45,1,46,Alex,Rej,Participant_Images/64c0a2d8031339ab6ec5e54a/64c0a2d8031339ab6ec5e54a_Images/64c0a2d8031339ab6ec5e54a_Image_25.jpeg,did not like,4.456234322,,,,,,,,,,,,,,,,,,,,,,,
,,64c0a2d8031339ab6ec5e54a,2024-07-02_22h33.58.222,WTP_SM_Choice,2022.2.1,Win32,238.0952381,,,,,space,0.7,NAN,,NAN,1.26,4.74,,0,46,46,46,1,47,Alex,Rej,Participant_Images/64c0a2d8031339ab6ec5e54a/64c0a2d8031339ab6ec5e54a_Images/64c0a2d8031339ab6ec5e54a_Image_18.jpeg,did not like,4.438512181,,,,,,,,,,,,,,,,,,,,,,,
,,64c0a2d8031339ab6ec5e54a,2024-07-02_22h33.58.222,WTP_SM_Choice,2022.2.1,Win32,238.0952381,,,,,space,0.7885,NAN,,NAN,1.26,4.74,,0,47,47,47,1,48,Alex,Rej,Participant_Images/64c0a2d8031339ab6ec5e54a/64c0a2d8031339ab6ec5e54a_Images/64c0a2d8031339ab6ec5e54a_Image_5.jpeg,did not like,2.682944783,,,,,,,,,,,,,,,,,,,,,,,
,,64c0a2d8031339ab6ec5e54a,2024-07-02_22h33.58.222,WTP_SM_Choice,2022.2.1,Win32,238.0952381,,,,,space,7.639,NAN,,NAN,1.26,4.74,,0,48,48,48,1,49,Alex,Rej,Participant_Images/64c0a2d8031339ab6ec5e54a/64c0a2d8031339ab6ec5e54a_Images/64c0a2d8031339ab6ec5e54a_Image_20.jpeg,did not like,4.51984296,,,,,,,,,,,,,,,,,,,,,,,
,,64c0a2d8031339ab6ec5e54a,2024-07-02_22h33.58.222,WTP_SM_Choice,2022.2.1,Win32,238.0952381,,,,,,,,,,,,,,,,,,46,,,,,,space,4.232,space,3.0515,0.05,2,2.8336,0,0,0,0,1,Draw,Send memes to start a conversation,0.01,0.05,8.8,,,,,,1
,,64c0a2d8031339ab6ec5e54a,2024-07-02_22h33.58.222,WTP_SM_Choice,2022.2.1,Win32,238.0952381,,,,,,,,,,,,,,,,,,47,,,,,,,,,,0.05,2,4.392,0,1,1,1,1,Read twitter threads and arguments,Play video games with my friends,0.02,0.05,1.1,,,,,,1
,,64c0a2d8031339ab6ec5e54a,2024-07-02_22h33.58.222,WTP_SM_Choice,2022.2.1,Win32,238.0952381,,,,,,,,,,,,,,,,,,48,,,,,,,,,,0.05,2,2.1119,0,2,2,2,1,Draw,Play basketball with this one friend on Fridays,0.03,0.05,4.4,,,,,,1
,,64c0a2d8031339ab6ec5e54a,2024-07-02_22h33.58.222,WTP_SM_Choice,2022.2.1,Win32,238.0952381,,,,,,,,,,,,,,,,,,49,,,,,,,,,,0.05,2,3.9109,0,3,3,3,1,look at art especially manga/anime art,Play basketball with this one friend on Fridays,0.04,0.05,3.3,,,,,,1
,,64c0a2d8031339ab6ec5e54a,2024-07-02_22h33.58.222,WTP_SM_Choice,2022.2.1,Win32,238.0952381,,,,,,,,,,,,,,,,,,50,,,,,,,,,,0.05,2,4.549,0,4,4,4,1,Listen to any type of music out there,Joyride with my friends on electric scooters,0.05,0.05,1.1,,,,,,1
,,64c0a2d8031339ab6ec5e54a,2024-07-02_22h33.58.222,WTP_SM_Choice,2022.2.1,Win32,238.0952381,,,,,,,2,,8,1.51,4.49,,0,49,49,49,1,50,Alex,Rej,Participant_Images/64c0a2d8031339ab6ec5e54a/64c0a2d8031339ab6ec5e54a_Images/64c0a2d8031339ab6ec5e54a_Image_10.jpeg,liked,3.195382774,,,,,,,,,,,,,,,,,,space,2.4882,,,,
,,64c0a2d8031339ab6ec5e54a,2024-07-02_22h33.58.222,WTP_SM_Choice,2022.2.1,Win32,238.0952381,,,space,15.4541,space,1.0705,NAN,,NAN,1.51,4.49,,0,50,50,50,1,51,Sam,Rej,Participant_Images/64c0a2d8031339ab6ec5e54a/64c0a2d8031339ab6ec5e54a_Images/64c0a2d8031339ab6ec5e54a_Image_7.jpeg,liked,1.779333479,,,,,,,,,,,,,,,,,,,,,,,
,,64c0a2d8031339ab6ec5e54a,2024-07-02_22h33.58.222,WTP_SM_Choice,2022.2.1,Win32,238.0952381,,,,,space,1.1545,NAN,,NAN,1.51,4.49,,0,51,51,51,1,52,Sam,Rej,Participant_Images/64c0a2d8031339ab6ec5e54a/64c0a2d8031339ab6ec5e54a_Images/64c0a2d8031339ab6ec5e54a_Image_3.jpeg,liked,4.312468682,,,,,,,,,,,,,,,,,,,,,,,
,,64c0a2d8031339ab6ec5e54a,2024-07-02_22h33.58.222,WTP_SM_Choice,2022.2.1,Win32,238.0952381,,,,,space,3.9525,NAN,,NAN,1.51,4.49,,0,52,52,52,1,53,Sam,Rej,Participant_Images/64c0a2d8031339ab6ec5e54a/64c0a2d8031339ab6ec5e54a_Images/64c0a2d8031339ab6ec5e54a_Image_9.jpeg,did not like,4.940433059,,,,,,,,,,,,,,,,,,,,,,,
,,64c0a2d8031339ab6ec5e54a,2024-07-02_22h33.58.222,WTP_SM_Choice,2022.2.1,Win32,238.0952381,,,,,space,4.312,NAN,,NAN,1.51,4.49,,0,53,53,53,1,54,Sam,Rej,Participant_Images/64c0a2d8031339ab6ec5e54a/64c0a2d8031339ab6ec5e54a_Images/64c0a2d8031339ab6ec5e54a_Image_22.jpeg,did not like,2.7105123,,,,,,,,,,,,,,,,,,,,,,,
,,64c0a2d8031339ab6ec5e54a,2024-07-02_22h33.58.222,WTP_SM_Choice,2022.2.1,Win32,238.0952381,,,,,,,,,,,,,,,,,,51,,,,,,space,5.2498,space,1.0669,0.01,1,5.2487,0,0,0,0,1,Use ChatGPT and enhance my workflow while making me learn something new,Play basketball with this one friend on Fridays,0.01,0.01,1.1,,,,,,1
,,64c0a2d8031339ab6ec5e54a,2024-07-02_22h33.58.222,WTP_SM_Choice,2022.2.1,Win32,238.0952381,,,,,,,,,,,,,,,,,,52,,,,,,,,,,0.01,2,8.2654,0,1,1,1,1,Draw,Edit with my partner and best friend,0.02,0.01,3.3,,,,,,1
,,64c0a2d8031339ab6ec5e54a,2024-07-02_22h33.58.222,WTP_SM_Choice,2022.2.1,Win32,238.0952381,,,,,,,,,,,,,,,,,,53,,,,,,,,,,0.03,1,3.8477,0,2,2,2,1,Read twitter threads and arguments,Joyride with my friends on electric scooters,0.03,0.01,1.1,,,,,,1
,,64c0a2d8031339ab6ec5e54a,2024-07-02_22h33.58.222,WTP_SM_Choice,2022.2.1,Win32,238.0952381,,,,,,,,,,,,,,,,,,54,,,,,,,,,,0.04,1,3.1678,0,3,3,3,1,ride on my skateboard if my electric scooter is not available,Play video games with my friends,0.04,0.01,4.4,,,,,,1
,,64c0a2d8031339ab6ec5e54a,2024-07-02_22h33.58.222,WTP_SM_Choice,2022.2.1,Win32,238.0952381,,,,,,,,,,,,,,,,,,55,,,,,,,,,,0.01,2,4.9139,0,4,4,4,1,Boot up Twitch and watch of my followed channels,Call my friend and talk about nothing for hours,0.05,0.01,1.1,,,,,,1
,,64c0a2d8031339ab6ec5e54a,2024-07-02_22h33.58.222,WTP_SM_Choice,2022.2.1,Win32,238.0952381,,,,,,,NAN,,NAN,1.61,4.39,,0,54,54,54,1,55,Sam,Rej,Participant_Images/64c0a2d8031339ab6ec5e54a/64c0a2d8031339ab6ec5e54a_Images/64c0a2d8031339ab6ec5e54a_Image_1.jpeg,did not like,3.602308302,,,,,,,,,,,,,,,,,,,,,,,
,,64c0a2d8031339ab6ec5e54a,2024-07-02_22h33.58.222,WTP_SM_Choice,2022.2.1,Win32,238.0952381,,,,,space,170.5255,NAN,,NAN,1.61,4.39,,0,55,55,55,1,56,Sam,Rej,Participant_Images/64c0a2d8031339ab6ec5e54a/64c0a2d8031339ab6ec5e54a_Images/64c0a2d8031339ab6ec5e54a_Image_10.jpeg,liked,4.106391878,,,,,,,,,,,,,,,,,,,,,,,
,,64c0a2d8031339ab6ec5e54a,2024-07-02_22h33.58.222,WTP_SM_Choice,2022.2.1,Win32,238.0952381,,,,,space,1.0522,NAN,,NAN,1.61,4.39,,0,56,56,56,1,57,Sam,Rej,Participant_Images/64c0a2d8031339ab6ec5e54a/64c0a2d8031339ab6ec5e54a_Images/64c0a2d8031339ab6ec5e54a_Image_15.jpeg,liked,3.799433026,,,,,,,,,,,,,,,,,,,,,,,
,,64c0a2d8031339ab6ec5e54a,2024-07-02_22h33.58.222,WTP_SM_Choice,2022.2.1,Win32,238.0952381,,,,,space,1.1946,NAN,,NAN,1.61,4.39,,0,57,57,57,1,58,Sam,Rej,Participant_Images/64c0a2d8031339ab6ec5e54a/64c0a2d8031339ab6ec5e54a_Images/64c0a2d8031339ab6ec5e54a_Image_18.jpeg,did not like,5.246980764,,,,,,,,,,,,,,,,,,,,,,,
,,64c0a2d8031339ab6ec5e54a,2024-07-02_22h33.58.222,WTP_SM_Choice,2022.2.1,Win32,238.0952381,,,,,space,0.7357,NAN,,NAN,1.61,4.39,,0,58,58,58,1,59,Sam,Rej,Participant_Images/64c0a2d8031339ab6ec5e54a/64c0a2d8031339ab6ec5e54a_Images/64c0a2d8031339ab6ec5e54a_Image_23.jpeg,liked,3.30081769,,,,,,,,,,,,,,,,,,,,,,,
,,64c0a2d8031339ab6ec5e54a,2024-07-02_22h33.58.222,WTP_SM_Choice,2022.2.1,Win32,238.0952381,,,,,,,,,,,,,,,,,,56,,,,,,space,13.1866,space,2.4168,,,,0,0,0,0,1,Boot up Twitch and watch of my followed channels,Talk to each other about future business ventures and moves for the rest of the day.,0.01,0.02,8.8,,,,,,1
,,64c0a2d8031339ab6ec5e54a,2024-07-02_22h33.58.222,WTP_SM_Choice,2022.2.1,Win32,238.0952381,,,,,,,,,,,,,,,,,,57,,,,,,,,,,0.02,2,2.7873,0,1,1,1,1,Listen to any type of music out there,Call my friend and talk about nothing for hours,0.02,0.02,4.4,,,,,,1
,,64c0a2d8031339ab6ec5e54a,2024-07-02_22h33.58.222,WTP_SM_Choice,2022.2.1,Win32,238.0952381,,,,,,,,,,,,,,,,,,58,,,,,,,,,,0.02,2,3.7217,0,2,2,2,1,look at art especially manga/anime art,Send memes to start a conversation,0.03,0.02,4.4,,,,,,1
,,64c0a2d8031339ab6ec5e54a,2024-07-02_22h33.58.222,WTP_SM_Choice,2022.2.1,Win32,238.0952381,,,,,,,,,,,,,,,,,,59,,,,,,,,,,0.02,2,6.1208,0,3,3,3,1,Read twitter threads and arguments,Play basketball with this one friend on Fridays,0.04,0.02,4.4,,,,,,1
,,64c0a2d8031339ab6ec5e54a,2024-07-02_22h33.58.222,WTP_SM_Choice,2022.2.1,Win32,238.0952381,,,,,,,,,,,,,,,,,,60,,,,,,,,,,0.05,1,1.9894,0,4,4,4,1,Use ChatGPT and enhance my workflow while making me learn something new,Watch hockey with my friend,0.05,0.02,1.1,,,,,,1
,,64c0a2d8031339ab6ec5e54a,2024-07-02_22h33.58.222,WTP_SM_Choice,2022.2.1,Win32,238.0952381,,,,,,,NAN,,NAN,1.72,4.28,,0,59,59,59,1,60,Sam,Rej,Participant_Images/64c0a2d8031339ab6ec5e54a/64c0a2d8031339ab6ec5e54a_Images/64c0a2d8031339ab6ec5e54a_Image_12.jpeg,liked,1.661473164,,,,,,,,,,,,,,,,,,,,,,,
,,64c0a2d8031339ab6ec5e54a,2024-07-02_22h33.58.222,WTP_SM_Choice,2022.2.1,Win32,238.0952381,,,,,space,1.5931,NAN,,NAN,1.72,4.28,,0,60,60,60,1,61,Sam,Rej,Participant_Images/64c0a2d8031339ab6ec5e54a/64c0a2d8031339ab6ec5e54a_Images/64c0a2d8031339ab6ec5e54a_Image_13.jpeg,did not like,3.613205605,,,,,,,,,,,,,,,,,,,,,,,
,,64c0a2d8031339ab6ec5e54a,2024-07-02_22h33.58.222,WTP_SM_Choice,2022.2.1,Win32,238.0952381,,,,,space,1.4819,NAN,,NAN,1.72,4.28,,0,61,61,61,1,62,Sam,Rej,Participant_Images/64c0a2d8031339ab6ec5e54a/64c0a2d8031339ab6ec5e54a_Images/64c0a2d8031339ab6ec5e54a_Image_25.jpeg,did not like,4.988446431,,,,,,,,,,,,,,,,,,,,,,,
,,64c0a2d8031339ab6ec5e54a,2024-07-02_22h33.58.222,WTP_SM_Choice,2022.2.1,Win32,238.0952381,,,,,space,0.795,NAN,,NAN,1.72,4.28,,0,62,62,62,1,63,Sam,Rej,Participant_Images/64c0a2d8031339ab6ec5e54a/64c0a2d8031339ab6ec5e54a_Images/64c0a2d8031339ab6ec5e54a_Image_8.jpeg,did not like,3.470791822,,,,,,,,,,,,,,,,,,,,,,,
,,64c0a2d8031339ab6ec5e54a,2024-07-02_22h33.58.222,WTP_SM_Choice,2022.2.1,Win32,238.0952381,,,,,space,0.4932,NAN,,NAN,1.72,4.28,,0,63,63,63,1,64,Sam,Rej,Participant_Images/64c0a2d8031339ab6ec5e54a/64c0a2d8031339ab6ec5e54a_Images/64c0a2d8031339ab6ec5e54a_Image_16.jpeg,did not like,3.820572462,,,,,,,,,,,,,,,,,,,,,,,
,,64c0a2d8031339ab6ec5e54a,2024-07-02_22h33.58.222,WTP_SM_Choice,2022.2.1,Win32,238.0952381,,,,,,,,,,,,,,,,,,61,,,,,,space,1.0584,space,0.5473,0.03,2,5.605,0,0,0,0,1,Edit videos using Premiere Pro,Send memes to start a conversation,0.01,0.03,3.3,,,,,,1
,,64c0a2d8031339ab6ec5e54a,2024-07-02_22h33.58.222,WTP_SM_Choice,2022.2.1,Win32,238.0952381,,,,,,,,,,,,,,,,,,62,,,,,,,,,,0.03,2,4.2282,0,1,1,1,1,Listen to any type of music out there,Play basketball with this one friend on Fridays,0.02,0.03,3.3,,,,,,1
,,64c0a2d8031339ab6ec5e54a,2024-07-02_22h33.58.222,WTP_SM_Choice,2022.2.1,Win32,238.0952381,,,,,,,,,,,,,,,,,,63,,,,,,,,,,0.03,2,4.0266,0,2,2,2,1,Edit videos using Premiere Pro,Joyride with my friends on electric scooters,0.03,0.03,3.3,,,,,,1
,,64c0a2d8031339ab6ec5e54a,2024-07-02_22h33.58.222,WTP_SM_Choice,2022.2.1,Win32,238.0952381,,,,,,,,,,,,,,,,,,64,,,,,,,,,,0.03,2,9.8849,0,3,3,3,1,look at art especially manga/anime art,Walk around town and beyond for the entire da  talking about anything and eating anything with friends,0.04,0.03,1.1,,,,,,1
,,64c0a2d8031339ab6ec5e54a,2024-07-02_22h33.58.222,WTP_SM_Choice,2022.2.1,Win32,238.0952381,,,,,,,,,,,,,,,,,,65,,,,,,,,,,0.05,1,6.1907,0,4,4,4,1,Ride an electric scooter by myself and listening to music,Go to the movies biweekly ,0.05,0.03,1.1,,,,,,1
,,64c0a2d8031339ab6ec5e54a,2024-07-02_22h33.58.222,WTP_SM_Choice,2022.2.1,Win32,238.0952381,,,,,,,NAN,,NAN,1.89,4.11,,0,64,64,64,1,65,Sam,Rej,Participant_Images/64c0a2d8031339ab6ec5e54a/64c0a2d8031339ab6ec5e54a_Images/64c0a2d8031339ab6ec5e54a_Image_11.jpeg,did not like,2.455989137,,,,,,,,,,,,,,,,,,,,,,,
,,64c0a2d8031339ab6ec5e54a,2024-07-02_22h33.58.222,WTP_SM_Choice,2022.2.1,Win32,238.0952381,,,,,space,0.7863,NAN,,NAN,1.89,4.11,,0,65,65,65,1,66,Sam,Rej,Participant_Images/64c0a2d8031339ab6ec5e54a/64c0a2d8031339ab6ec5e54a_Images/64c0a2d8031339ab6ec5e54a_Image_2.jpeg,did not like,3.79605092,,,,,,,,,,,,,,,,,,,,,,,
,,64c0a2d8031339ab6ec5e54a,2024-07-02_22h33.58.222,WTP_SM_Choice,2022.2.1,Win32,238.0952381,,,,,space,0.9921,NAN,,NAN,1.89,4.11,,0,66,66,66,1,67,Sam,Rej,Participant_Images/64c0a2d8031339ab6ec5e54a/64c0a2d8031339ab6ec5e54a_Images/64c0a2d8031339ab6ec5e54a_Image_17.jpeg,did not like,3.562416326,,,,,,,,,,,,,,,,,,,,,,,
,,64c0a2d8031339ab6ec5e54a,2024-07-02_22h33.58.222,WTP_SM_Choice,2022.2.1,Win32,238.0952381,,,,,space,0.6361,NAN,,NAN,1.89,4.11,,0,67,67,67,1,68,Sam,Rej,Participant_Images/64c0a2d8031339ab6ec5e54a/64c0a2d8031339ab6ec5e54a_Images/64c0a2d8031339ab6ec5e54a_Image_6.jpeg,did not like,2.843822497,,,,,,,,,,,,,,,,,,,,,,,
,,64c0a2d8031339ab6ec5e54a,2024-07-02_22h33.58.222,WTP_SM_Choice,2022.2.1,Win32,238.0952381,,,,,space,0.7641,NAN,,NAN,1.89,4.11,,0,68,68,68,1,69,Sam,Rej,Participant_Images/64c0a2d8031339ab6ec5e54a/64c0a2d8031339ab6ec5e54a_Images/64c0a2d8031339ab6ec5e54a_Image_14.jpeg,liked,3.546495948,,,,,,,,,,,,,,,,,,,,,,,
,,64c0a2d8031339ab6ec5e54a,2024-07-02_22h33.58.222,WTP_SM_Choice,2022.2.1,Win32,238.0952381,,,,,,,,,,,,,,,,,,66,,,,,,space,1.5087,space,0.4769,0.04,2,3.271,0,0,0,0,1,Ride an electric scooter by myself and listening to music,Play basketball with this one friend on Fridays,0.01,0.04,1.1,,,,,,1
,,64c0a2d8031339ab6ec5e54a,2024-07-02_22h33.58.222,WTP_SM_Choice,2022.2.1,Win32,238.0952381,,,,,,,,,,,,,,,,,,67,,,,,,,,,,0.04,2,4.0279,0,1,1,1,1,Edit videos using Premiere Pro,Walk around town and beyond for the entire da  talking about anything and eating anything with friends,0.02,0.04,8.8,,,,,,1
,,64c0a2d8031339ab6ec5e54a,2024-07-02_22h33.58.222,WTP_SM_Choice,2022.2.1,Win32,238.0952381,,,,,,,,,,,,,,,,,,68,,,,,,,,,,0.04,2,2.3921,0,2,2,2,1,Edit videos using Premiere Pro,Watch hockey with my friend,0.03,0.04,4.4,,,,,,1
,,64c0a2d8031339ab6ec5e54a,2024-07-02_22h33.58.222,WTP_SM_Choice,2022.2.1,Win32,238.0952381,,,,,,,,,,,,,,,,,,69,,,,,,,,,,0.04,2,4.1864,0,3,3,3,1,Edit videos using Premiere Pro,Talk to each other about future business ventures and moves for the rest of the day.,0.04,0.04,1.1,,,,,,1
,,64c0a2d8031339ab6ec5e54a,2024-07-02_22h33.58.222,WTP_SM_Choice,2022.2.1,Win32,238.0952381,,,,,,,,,,,,,,,,,,70,,,,,,,,,,0.05,1,4.8074,0,4,4,4,1,Listen to any type of music out there,Watch hockey with my friend,0.05,0.04,1.1,,,,,,1
,,64c0a2d8031339ab6ec5e54a,2024-07-02_22h33.58.222,WTP_SM_Choice,2022.2.1,Win32,238.0952381,,,,,,,NAN,,NAN,2.1,3.9,,0,69,69,69,1,70,Sam,Rej,Participant_Images/64c0a2d8031339ab6ec5e54a/64c0a2d8031339ab6ec5e54a_Images/64c0a2d8031339ab6ec5e54a_Image_19.jpeg,did not like,1.672012706,,,,,,,,,,,,,,,,,,,,,,,
,,64c0a2d8031339ab6ec5e54a,2024-07-02_22h33.58.222,WTP_SM_Choice,2022.2.1,Win32,238.0952381,,,,,space,0.6954,NAN,,NAN,2.1,3.9,,0,70,70,70,1,71,Sam,Rej,Participant_Images/64c0a2d8031339ab6ec5e54a/64c0a2d8031339ab6ec5e54a_Images/64c0a2d8031339ab6ec5e54a_Image_20.jpeg,did not like,4.942172136,,,,,,,,,,,,,,,,,,,,,,,
,,64c0a2d8031339ab6ec5e54a,2024-07-02_22h33.58.222,WTP_SM_Choice,2022.2.1,Win32,238.0952381,,,,,space,0.635,NAN,,NAN,2.1,3.9,,0,71,71,71,1,72,Sam,Rej,Participant_Images/64c0a2d8031339ab6ec5e54a/64c0a2d8031339ab6ec5e54a_Images/64c0a2d8031339ab6ec5e54a_Image_5.jpeg,did not like,2.50187214,,,,,,,,,,,,,,,,,,,,,,,
,,64c0a2d8031339ab6ec5e54a,2024-07-02_22h33.58.222,WTP_SM_Choice,2022.2.1,Win32,238.0952381,,,,,space,0.3053,NAN,,NAN,2.1,3.9,,0,72,72,72,1,73,Sam,Rej,Participant_Images/64c0a2d8031339ab6ec5e54a/64c0a2d8031339ab6ec5e54a_Images/64c0a2d8031339ab6ec5e54a_Image_21.jpeg,did not like,2.071164779,,,,,,,,,,,,,,,,,,,,,,,
,,64c0a2d8031339ab6ec5e54a,2024-07-02_22h33.58.222,WTP_SM_Choice,2022.2.1,Win32,238.0952381,,,,,space,0.7169,NAN,,NAN,2.1,3.9,,0,73,73,73,1,74,Sam,Rej,Participant_Images/64c0a2d8031339ab6ec5e54a/64c0a2d8031339ab6ec5e54a_Images/64c0a2d8031339ab6ec5e54a_Image_24.jpeg,did not like,5.336503566,,,,,,,,,,,,,,,,,,,,,,,
,,64c0a2d8031339ab6ec5e54a,2024-07-02_22h33.58.222,WTP_SM_Choice,2022.2.1,Win32,238.0952381,,,,,,,,,,,,,,,,,,71,,,,,,space,1.1867,space,0.4358,0.05,2,1.2019,0,0,0,0,1,Draw,Go to the movies biweekly ,0.01,0.05,3.3,,,,,,1
,,64c0a2d8031339ab6ec5e54a,2024-07-02_22h33.58.222,WTP_SM_Choice,2022.2.1,Win32,238.0952381,,,,,,,,,,,,,,,,,,72,,,,,,,,,,0.02,1,4.995,0,1,1,1,1,Ride an electric scooter by myself and listening to music,Play video games with my friends,0.02,0.05,8.8,,,,,,1
,,64c0a2d8031339ab6ec5e54a,2024-07-02_22h33.58.222,WTP_SM_Choice,2022.2.1,Win32,238.0952381,,,,,,,,,,,,,,,,,,73,,,,,,,,,,0.05,2,2.432,0,2,2,2,1,Listen to any type of music out there,Send memes to start a conversation,0.03,0.05,3.3,,,,,,1
,,64c0a2d8031339ab6ec5e54a,2024-07-02_22h33.58.222,WTP_SM_Choice,2022.2.1,Win32,238.0952381,,,,,,,,,,,,,,,,,,74,,,,,,,,,,0.04,1,4.807,0,3,3,3,1,ride on my skateboard if my electric scooter is not available,Talk to each other about future business ventures and moves for the rest of the day.,0.04,0.05,4.4,,,,,,1
,,64c0a2d8031339ab6ec5e54a,2024-07-02_22h33.58.222,WTP_SM_Choice,2022.2.1,Win32,238.0952381,,,,,,,,,,,,,,,,,,75,,,,,,,,,,0.05,1,5.5698,0,4,4,4,1,ride on my skateboard if my electric scooter is not available,Call my friend and talk about nothing for hours,0.05,0.05,3.3,,,,,,1
,,64c0a2d8031339ab6ec5e54a,2024-07-02_22h33.58.222,WTP_SM_Choice,2022.2.1,Win32,238.0952381,,,,,,,2,space,8,2.31,3.69,,0,74,74,74,1,75,Sam,Rej,Participant_Images/64c0a2d8031339ab6ec5e54a/64c0a2d8031339ab6ec5e54a_Images/64c0a2d8031339ab6ec5e54a_Image_4.jpeg,did not like,2.642157193,,,,,,,,,,,,,,,,,,space,0.502,5.2918,,,
,,64c0a2d8031339ab6ec5e54a,2024-07-02_22h33.58.222,WTP_SM_Choice,2022.2.1,Win32,238.0952381,,,space,13.6912,space,1.8767,NAN,,NAN,2.31,3.69,,0,75,75,75,1,76,Riley,Acc,Participant_Images/64c0a2d8031339ab6ec5e54a/64c0a2d8031339ab6ec5e54a_Images/64c0a2d8031339ab6ec5e54a_Image_25.jpeg,liked,4.456234322,,,,,,,,,,,,,,,,,,,,,,,
,,64c0a2d8031339ab6ec5e54a,2024-07-02_22h33.58.222,WTP_SM_Choice,2022.2.1,Win32,238.0952381,,,,,space,0.9105,NAN,,NAN,2.31,3.69,,0,76,76,76,1,77,Riley,Acc,Participant_Images/64c0a2d8031339ab6ec5e54a/64c0a2d8031339ab6ec5e54a_Images/64c0a2d8031339ab6ec5e54a_Image_16.jpeg,did not like,4.438512181,,,,,,,,,,,,,,,,,,,,,,,
,,64c0a2d8031339ab6ec5e54a,2024-07-02_22h33.58.222,WTP_SM_Choice,2022.2.1,Win32,238.0952381,,,,,space,1.1926,NAN,,NAN,2.31,3.69,,0,77,77,77,1,78,Riley,Acc,Participant_Images/64c0a2d8031339ab6ec5e54a/64c0a2d8031339ab6ec5e54a_Images/64c0a2d8031339ab6ec5e54a_Image_6.jpeg,liked,2.682944783,,,,,,,,,,,,,,,,,,,,,,,
,,64c0a2d8031339ab6ec5e54a,2024-07-02_22h33.58.222,WTP_SM_Choice,2022.2.1,Win32,238.0952381,,,,,space,3.6067,NAN,,NAN,2.31,3.69,,0,78,78,78,1,79,Riley,Acc,Participant_Images/64c0a2d8031339ab6ec5e54a/64c0a2d8031339ab6ec5e54a_Images/64c0a2d8031339ab6ec5e54a_Image_8.jpeg,did not like,4.51984296,,,,,,,,,,,,,,,,,,,,,,,
,,64c0a2d8031339ab6ec5e54a,2024-07-02_22h33.58.222,WTP_SM_Choice,2022.2.1,Win32,238.0952381,,,,,,,,,,,,,,,,,,76,,,,,,space,0.8142,space,0.8126,0.01,1,3.0197,0,0,0,0,1,Read twitter threads and arguments,Edit with my partner and best friend,0.01,0.01,1.1,,,,,,1
,,64c0a2d8031339ab6ec5e54a,2024-07-02_22h33.58.222,WTP_SM_Choice,2022.2.1,Win32,238.0952381,,,,,,,,,,,,,,,,,,77,,,,,,,,,,,,,0,1,1,1,1,Read twitter threads and arguments,Walk around town and beyond for the entire da  talking about anything and eating anything with friends,0.02,0.01,8.8,,,,,,1
,,64c0a2d8031339ab6ec5e54a,2024-07-02_22h33.58.222,WTP_SM_Choice,2022.2.1,Win32,238.0952381,,,,,,,,,,,,,,,,,,78,,,,,,,,,,0.01,2,3.7933,0,2,2,2,1,Boot up Twitch and watch of my followed channels,Send memes to start a conversation,0.03,0.01,1.1,,,,,,1
,,64c0a2d8031339ab6ec5e54a,2024-07-02_22h33.58.222,WTP_SM_Choice,2022.2.1,Win32,238.0952381,,,,,,,,,,,,,,,,,,79,,,,,,,,,,0.01,2,5.5209,0,3,3,3,1,Edit videos using Premiere Pro,Call my friend and talk about nothing for hours,0.04,0.01,1.1,,,,,,1
,,64c0a2d8031339ab6ec5e54a,2024-07-02_22h33.58.222,WTP_SM_Choice,2022.2.1,Win32,238.0952381,,,,,,,,,,,,,,,,,,80,,,,,,,,,,0.01,2,8.2787,0,4,4,4,1,Edit videos using Premiere Pro,Play video games with my friends,0.05,0.01,4.4,,,,,,1
,,64c0a2d8031339ab6ec5e54a,2024-07-02_22h33.58.222,WTP_SM_Choice,2022.2.1,Win32,238.0952381,,,,,,,NAN,,NAN,2.35,3.65,,0,79,79,79,1,80,Riley,Acc,Participant_Images/64c0a2d8031339ab6ec5e54a/64c0a2d8031339ab6ec5e54a_Images/64c0a2d8031339ab6ec5e54a_Image_20.jpeg,did not like,3.195382774,,,,,,,,,,,,,,,,,,,,,,,
,,64c0a2d8031339ab6ec5e54a,2024-07-02_22h33.58.222,WTP_SM_Choice,2022.2.1,Win32,238.0952381,,,,,space,6.6658,NAN,,NAN,2.35,3.65,,0,80,80,80,1,81,Riley,Acc,Participant_Images/64c0a2d8031339ab6ec5e54a/64c0a2d8031339ab6ec5e54a_Images/64c0a2d8031339ab6ec5e54a_Image_1.jpeg,did not like,1.779333479,,,,,,,,,,,,,,,,,,,,,,,
,,64c0a2d8031339ab6ec5e54a,2024-07-02_22h33.58.222,WTP_SM_Choice,2022.2.1,Win32,238.0952381,,,,,space,3.374,NAN,,NAN,2.35,3.65,,0,81,81,81,1,82,Riley,Acc,Participant_Images/64c0a2d8031339ab6ec5e54a/64c0a2d8031339ab6ec5e54a_Images/64c0a2d8031339ab6ec5e54a_Image_24.jpeg,liked,4.312468682,,,,,,,,,,,,,,,,,,,,,,,
,,64c0a2d8031339ab6ec5e54a,2024-07-02_22h33.58.222,WTP_SM_Choice,2022.2.1,Win32,238.0952381,,,,,space,6.2324,NAN,,NAN,2.35,3.65,,0,82,82,82,1,83,Riley,Acc,Participant_Images/64c0a2d8031339ab6ec5e54a/64c0a2d8031339ab6ec5e54a_Images/64c0a2d8031339ab6ec5e54a_Image_23.jpeg,liked,4.940433059,,,,,,,,,,,,,,,,,,,,,,,
,,64c0a2d8031339ab6ec5e54a,2024-07-02_22h33.58.222,WTP_SM_Choice,2022.2.1,Win32,238.0952381,,,,,space,1.6775,NAN,,NAN,2.35,3.65,,0,83,83,83,1,84,Riley,Acc,Participant_Images/64c0a2d8031339ab6ec5e54a/64c0a2d8031339ab6ec5e54a_Images/64c0a2d8031339ab6ec5e54a_Image_7.jpeg,liked,2.7105123,,,,,,,,,,,,,,,,,,,,,,,
,,64c0a2d8031339ab6ec5e54a,2024-07-02_22h33.58.222,WTP_SM_Choice,2022.2.1,Win32,238.0952381,,,,,,,,,,,,,,,,,,81,,,,,,space,17.3865,space,12.7564,0.01,1,2.2792,0,0,0,0,1,Listen to any type of music out there,Edit with my partner and best friend,0.01,0.02,3.3,,,,,,1
,,64c0a2d8031339ab6ec5e54a,2024-07-02_22h33.58.222,WTP_SM_Choice,2022.2.1,Win32,238.0952381,,,,,,,,,,,,,,,,,,82,,,,,,,,,,0.02,2,1.6228,0,1,1,1,1,look at art especially manga/anime art,Talk to each other about future business ventures and moves for the rest of the day.,0.02,0.02,4.4,,,,,,1
,,64c0a2d8031339ab6ec5e54a,2024-07-02_22h33.58.222,WTP_SM_Choice,2022.2.1,Win32,238.0952381,,,,,,,,,,,,,,,,,,83,,,,,,,,,,0.02,2,2.6049,0,2,2,2,1,look at art especially manga/anime art,Call my friend and talk about nothing for hours,0.03,0.02,1.1,,,,,,1
,,64c0a2d8031339ab6ec5e54a,2024-07-02_22h33.58.222,WTP_SM_Choice,2022.2.1,Win32,238.0952381,,,,,,,,,,,,,,,,,,84,,,,,,,,,,0.04,1,3.1879,0,3,3,3,1,Boot up Twitch and watch of my followed channels,Play video games with my friends,0.04,0.02,3.3,,,,,,1
,,64c0a2d8031339ab6ec5e54a,2024-07-02_22h33.58.222,WTP_SM_Choice,2022.2.1,Win32,238.0952381,,,,,,,,,,,,,,,,,,85,,,,,,,,,,0.05,1,4.0739,0,4,4,4,1,Boot up Twitch and watch of my followed channels,Watch hockey with my friend,0.05,0.02,3.3,,,,,,1
,,64c0a2d8031339ab6ec5e54a,2024-07-02_22h33.58.222,WTP_SM_Choice,2022.2.1,Win32,238.0952381,,,,,,,NAN,,NAN,2.49,3.51,,0,84,84,84,1,85,Riley,Acc,Participant_Images/64c0a2d8031339ab6ec5e54a/64c0a2d8031339ab6ec5e54a_Images/64c0a2d8031339ab6ec5e54a_Image_4.jpeg,liked,3.602308302,,,,,,,,,,,,,,,,,,,,,,,
,,64c0a2d8031339ab6ec5e54a,2024-07-02_22h33.58.222,WTP_SM_Choice,2022.2.1,Win32,238.0952381,,,,,space,1.5869,NAN,,NAN,2.49,3.51,,0,85,85,85,1,86,Riley,Acc,Participant_Images/64c0a2d8031339ab6ec5e54a/64c0a2d8031339ab6ec5e54a_Images/64c0a2d8031339ab6ec5e54a_Image_3.jpeg,liked,4.106391878,,,,,,,,,,,,,,,,,,,,,,,
,,64c0a2d8031339ab6ec5e54a,2024-07-02_22h33.58.222,WTP_SM_Choice,2022.2.1,Win32,238.0952381,,,,,space,1.0201,NAN,,NAN,2.49,3.51,,0,86,86,86,1,87,Riley,Acc,Participant_Images/64c0a2d8031339ab6ec5e54a/64c0a2d8031339ab6ec5e54a_Images/64c0a2d8031339ab6ec5e54a_Image_15.jpeg,liked,3.799433026,,,,,,,,,,,,,,,,,,,,,,,
,,64c0a2d8031339ab6ec5e54a,2024-07-02_22h33.58.222,WTP_SM_Choice,2022.2.1,Win32,238.0952381,,,,,space,0.9587,NAN,,NAN,2.49,3.51,,0,87,87,87,1,88,Riley,Acc,Participant_Images/64c0a2d8031339ab6ec5e54a/64c0a2d8031339ab6ec5e54a_Images/64c0a2d8031339ab6ec5e54a_Image_2.jpeg,did not like,5.246980764,,,,,,,,,,,,,,,,,,,,,,,
,,64c0a2d8031339ab6ec5e54a,2024-07-02_22h33.58.222,WTP_SM_Choice,2022.2.1,Win32,238.0952381,,,,,space,0.4214,NAN,,NAN,2.49,3.51,,0,88,88,88,1,89,Riley,Acc,Participant_Images/64c0a2d8031339ab6ec5e54a/64c0a2d8031339ab6ec5e54a_Images/64c0a2d8031339ab6ec5e54a_Image_21.jpeg,did not like,3.30081769,,,,,,,,,,,,,,,,,,,,,,,
,,64c0a2d8031339ab6ec5e54a,2024-07-02_22h33.58.222,WTP_SM_Choice,2022.2.1,Win32,238.0952381,,,,,,,,,,,,,,,,,,86,,,,,,space,5.1367,space,4.4818,0.03,2,1.1553,0,0,0,0,1,Draw,Call my friend and talk about nothing for hours,0.01,0.03,1.1,,,,,,1
,,64c0a2d8031339ab6ec5e54a,2024-07-02_22h33.58.222,WTP_SM_Choice,2022.2.1,Win32,238.0952381,,,,,,,,,,,,,,,,,,87,,,,,,,,,,0.02,1,4.4427,0,1,1,1,1,ride on my skateboard if my electric scooter is not available,Edit with my partner and best friend,0.02,0.03,4.4,,,,,,1
,,64c0a2d8031339ab6ec5e54a,2024-07-02_22h33.58.222,WTP_SM_Choice,2022.2.1,Win32,238.0952381,,,,,,,,,,,,,,,,,,88,,,,,,,,,,0.03,1,3.7981,0,2,2,2,1,Use ChatGPT and enhance my workflow while making me learn something new,Talk to each other about future business ventures and moves for the rest of the day.,0.03,0.03,1.1,,,,,,1
,,64c0a2d8031339ab6ec5e54a,2024-07-02_22h33.58.222,WTP_SM_Choice,2022.2.1,Win32,238.0952381,,,,,,,,,,,,,,,,,,89,,,,,,,,,,0.04,1,3.2451,0,3,3,3,1,Boot up Twitch and watch of my followed channels,Walk around town and beyond for the entire da  talking about anything and eating anything with friends,0.04,0.03,3.3,,,,,,1
,,64c0a2d8031339ab6ec5e54a,2024-07-02_22h33.58.222,WTP_SM_Choice,2022.2.1,Win32,238.0952381,,,,,,,,,,,,,,,,,,90,,,,,,,,,,0.05,1,4.1453,0,4,4,4,1,Play video games by myself,Edit with my partner and best friend,0.05,0.03,8.8,,,,,,1
,,64c0a2d8031339ab6ec5e54a,2024-07-02_22h33.58.222,WTP_SM_Choice,2022.2.1,Win32,238.0952381,,,,,,,NAN,,NAN,2.66,3.34,,0,89,89,89,1,90,Riley,Acc,Participant_Images/64c0a2d8031339ab6ec5e54a/64c0a2d8031339ab6ec5e54a_Images/64c0a2d8031339ab6ec5e54a_Image_5.jpeg,liked,1.661473164,,,,,,,,,,,,,,,,,,,,,,,
,,64c0a2d8031339ab6ec5e54a,2024-07-02_22h33.58.222,WTP_SM_Choice,2022.2.1,Win32,238.0952381,,,,,space,1.3994,NAN,,NAN,2.66,3.34,,0,90,90,90,1,91,Riley,Acc,Participant_Images/64c0a2d8031339ab6ec5e54a/64c0a2d8031339ab6ec5e54a_Images/64c0a2d8031339ab6ec5e54a_Image_18.jpeg,liked,3.613205605,,,,,,,,,,,,,,,,,,,,,,,
,,64c0a2d8031339ab6ec5e54a,2024-07-02_22h33.58.222,WTP_SM_Choice,2022.2.1,Win32,238.0952381,,,,,space,3.7996,NAN,,NAN,2.66,3.34,,0,91,91,91,1,92,Riley,Acc,Participant_Images/64c0a2d8031339ab6ec5e54a/64c0a2d8031339ab6ec5e54a_Images/64c0a2d8031339ab6ec5e54a_Image_17.jpeg,did not like,4.988446431,,,,,,,,,,,,,,,,,,,,,,,
,,64c0a2d8031339ab6ec5e54a,2024-07-02_22h33.58.222,WTP_SM_Choice,2022.2.1,Win32,238.0952381,,,,,space,2.8852,NAN,,NAN,2.66,3.34,,0,92,92,92,1,93,Riley,Acc,Participant_Images/64c0a2d8031339ab6ec5e54a/64c0a2d8031339ab6ec5e54a_Images/64c0a2d8031339ab6ec5e54a_Image_11.jpeg,liked,3.470791822,,,,,,,,,,,,,,,,,,,,,,,
,,64c0a2d8031339ab6ec5e54a,2024-07-02_22h33.58.222,WTP_SM_Choice,2022.2.1,Win32,238.0952381,,,,,space,0.8005,NAN,,NAN,2.66,3.34,,0,93,93,93,1,94,Riley,Acc,Participant_Images/64c0a2d8031339ab6ec5e54a/64c0a2d8031339ab6ec5e54a_Images/64c0a2d8031339ab6ec5e54a_Image_9.jpeg,liked,3.820572462,,,,,,,,,,,,,,,,,,,,,,,
,,64c0a2d8031339ab6ec5e54a,2024-07-02_22h33.58.222,WTP_SM_Choice,2022.2.1,Win32,238.0952381,,,,,,,,,,,,,,,,,,91,,,,,,space,0.7999,space,0.4338,0.01,1,2.9138,0,0,0,0,1,Ride an electric scooter by myself and listening to music,Walk around town and beyond for the entire da  talking about anything and eating anything with friends,0.01,0.04,3.3,,,,,,1
,,64c0a2d8031339ab6ec5e54a,2024-07-02_22h33.58.222,WTP_SM_Choice,2022.2.1,Win32,238.0952381,,,,,,,,,,,,,,,,,,92,,,,,,,,,,0.04,2,2.3211,0,1,1,1,1,Read twitter threads and arguments,Call my friend and talk about nothing for hours,0.02,0.04,8.8,,,,,,1
,,64c0a2d8031339ab6ec5e54a,2024-07-02_22h33.58.222,WTP_SM_Choice,2022.2.1,Win32,238.0952381,,,,,,,,,,,,,,,,,,93,,,,,,,,,,0.03,1,3.2517,0,2,2,2,1,Ride an electric scooter by myself and listening to music,Joyride with my friends on electric scooters,0.03,0.04,1.1,,,,,,1
,,64c0a2d8031339ab6ec5e54a,2024-07-02_22h33.58.222,WTP_SM_Choice,2022.2.1,Win32,238.0952381,,,,,,,,,,,,,,,,,,94,,,,,,,,,,0.04,2,4.0165,0,3,3,3,1,ride on my skateboard if my electric scooter is not available,Send memes to start a conversation,0.04,0.04,4.4,,,,,,1
,,64c0a2d8031339ab6ec5e54a,2024-07-02_22h33.58.222,WTP_SM_Choice,2022.2.1,Win32,238.0952381,,,,,,,,,,,,,,,,,,95,,,,,,,,,,0.05,1,7.376,0,4,4,4,1,Read twitter threads and arguments,Go to the movies biweekly ,0.05,0.04,4.4,,,,,,1
,,64c0a2d8031339ab6ec5e54a,2024-07-02_22h33.58.222,WTP_SM_Choice,2022.2.1,Win32,238.0952381,,,,,,,NAN,,NAN,2.83,3.17,,0,94,94,94,1,95,Riley,Acc,Participant_Images/64c0a2d8031339ab6ec5e54a/64c0a2d8031339ab6ec5e54a_Images/64c0a2d8031339ab6ec5e54a_Image_10.jpeg,liked,2.455989137,,,,,,,,,,,,,,,,,,,,,,,
,,64c0a2d8031339ab6ec5e54a,2024-07-02_22h33.58.222,WTP_SM_Choice,2022.2.1,Win32,238.0952381,,,,,space,2.7244,NAN,,NAN,2.83,3.17,,0,95,95,95,1,96,Riley,Acc,Participant_Images/64c0a2d8031339ab6ec5e54a/64c0a2d8031339ab6ec5e54a_Images/64c0a2d8031339ab6ec5e54a_Image_19.jpeg,liked,3.79605092,,,,,,,,,,,,,,,,,,,,,,,
,,64c0a2d8031339ab6ec5e54a,2024-07-02_22h33.58.222,WTP_SM_Choice,2022.2.1,Win32,238.0952381,,,,,space,19.883,NAN,,NAN,2.83,3.17,,0,96,96,96,1,97,Riley,Acc,Participant_Images/64c0a2d8031339ab6ec5e54a/64c0a2d8031339ab6ec5e54a_Images/64c0a2d8031339ab6ec5e54a_Image_13.jpeg,liked,3.562416326,,,,,,,,,,,,,,,,,,,,,,,
,,64c0a2d8031339ab6ec5e54a,2024-07-02_22h33.58.222,WTP_SM_Choice,2022.2.1,Win32,238.0952381,,,,,space,2.412,NAN,,NAN,2.83,3.17,,0,97,97,97,1,98,Riley,Acc,Participant_Images/64c0a2d8031339ab6ec5e54a/64c0a2d8031339ab6ec5e54a_Images/64c0a2d8031339ab6ec5e54a_Image_12.jpeg,liked,2.843822497,,,,,,,,,,,,,,,,,,,,,,,
,,64c0a2d8031339ab6ec5e54a,2024-07-02_22h33.58.222,WTP_SM_Choice,2022.2.1,Win32,238.0952381,,,,,space,2.3145,NAN,,NAN,2.83,3.17,,0,98,98,98,1,99,Riley,Acc,Participant_Images/64c0a2d8031339ab6ec5e54a/64c0a2d8031339ab6ec5e54a_Images/64c0a2d8031339ab6ec5e54a_Image_14.jpeg,liked,3.546495948,,,,,,,,,,,,,,,,,,,,,,,
,,64c0a2d8031339ab6ec5e54a,2024-07-02_22h33.58.222,WTP_SM_Choice,2022.2.1,Win32,238.0952381,,,,,,,,,,,,,,,,,,96,,,,,,space,12.0662,space,11.3562,0.01,1,5.599,0,0,0,0,1,Boot up Twitch and watch of my followed channels,Edit with my partner and best friend,0.01,0.05,3.3,,,,,,1
,,64c0a2d8031339ab6ec5e54a,2024-07-02_22h33.58.222,WTP_SM_Choice,2022.2.1,Win32,238.0952381,,,,,,,,,,,,,,,,,,97,,,,,,,,,,0.05,2,6.4256,0,1,1,1,1,look at art especially manga/anime art,Watch hockey with my friend,0.02,0.05,1.1,,,,,,1
,,64c0a2d8031339ab6ec5e54a,2024-07-02_22h33.58.222,WTP_SM_Choice,2022.2.1,Win32,238.0952381,,,,,,,,,,,,,,,,,,98,,,,,,,,,,0.03,1,5.2477,0,2,2,2,1,Use ChatGPT and enhance my workflow while making me learn something new,Edit with my partner and best friend,0.03,0.05,1.1,,,,,,1
,,64c0a2d8031339ab6ec5e54a,2024-07-02_22h33.58.222,WTP_SM_Choice,2022.2.1,Win32,238.0952381,,,,,,,,,,,,,,,,,,99,,,,,,,,,,0.04,1,7.1558,0,3,3,3,1,Play video games by myself,Play video games with my friends,0.04,0.05,3.3,,,,,,1
,,64c0a2d8031339ab6ec5e54a,2024-07-02_22h33.58.222,WTP_SM_Choice,2022.2.1,Win32,238.0952381,,,,,,,,,,,,,,,,,,100,,,,,,,,,,0.05,1,6.8206,0,4,4,4,1,Read twitter threads and arguments,Watch hockey with my friend,0.05,0.05,4.4,,,,,,1
,,64c0a2d8031339ab6ec5e54a,2024-07-02_22h33.58.222,WTP_SM_Choice,2022.2.1,Win32,238.0952381,,,,,,,3,,9,3.01,2.99,,0,99,99,99,1,100,Riley,Acc,Participant_Images/64c0a2d8031339ab6ec5e54a/64c0a2d8031339ab6ec5e54a_Images/64c0a2d8031339ab6ec5e54a_Image_22.jpeg,liked,1.672012706,,,,,,,,,,,,,,,,,,space,0.6084,,,,
,,64c0a2d8031339ab6ec5e54a,2024-07-02_22h33.58.222,WTP_SM_Choice,2022.2.1,Win32,238.0952381,,,,,,,,,,,,,,,,,,,,,,,,,,,,,,,,,,,,,,,,,,,,space,2.6863,