endwelcomescreen_keys.keys,endwelcomescreen_keys.rt,participant,date,expName,psychopyVersion,OS,frameRate,endinstructionscreen_keys.keys,endinstructionscreen_keys.rt,endpartnermatch_keys.keys,endpartnermatch_keys.rt,sharenextphoto_key.keys,sharenextphoto_key.rt,salience_rating,key_resp.keys,stress_level,subtract_bonus,TOTAL_TASK_BONUS,stresslevel_keypress.keys,entiretaskloop.thisRepN,entiretaskloop.thisTrialN,entiretaskloop.thisN,entiretaskloop.thisIndex,entiretaskloop.ran,TrialNumber,Partner,Condition,Photos,Feedback,FeedbackWait,WTP_ins_keys1.keys,WTP_ins_keys1.rt,WTP_ins_keys2.keys,WTP_ins_keys2.rt,decision_price,responses.keys,responses.rt,WTPTaskLoop.thisRepN,WTPTaskLoop.thisTrialN,WTPTaskLoop.thisN,WTPTaskLoop.thisIndex,WTPTaskLoop.ran,right,left,leftmoney,rightmoney,WTP_ITI,Resume_keys.keys,Resume_keys.rt,end_screen_keys.keys,end_screen_keys.rt
space,0.966,65412ca42e0e2fbb27b8a7b2,2024-07-05_10h42.04.662,WTP_SM_Choice,2022.2.1,Win32,58.82352941,,,,,,,,,,,,,,,,,,,,,,,,,,,,,,,,,,,,,,,,,,,,
,,65412ca42e0e2fbb27b8a7b2,2024-07-05_10h42.04.662,WTP_SM_Choice,2022.2.1,Win32,58.82352941,space,3.11,,,,,,,,,,,,,,,,,,,,,,,,,,,,,,,,,,,,,,,,,,
,,65412ca42e0e2fbb27b8a7b2,2024-07-05_10h42.04.662,WTP_SM_Choice,2022.2.1,Win32,58.82352941,,,space,221.987,space,2.117,NAN,,NAN,0,6,,0,0,0,0,1,1,Sam,Acc,Participant_Images/65412ca42e0e2fbb27b8a7b2/65412ca42e0e2fbb27b8a7b2_Images/65412ca42e0e2fbb27b8a7b2_Image_22.jpeg,liked,3.613205605,,,,,,,,,,,,,,,,,,,,,
,,65412ca42e0e2fbb27b8a7b2,2024-07-05_10h42.04.662,WTP_SM_Choice,2022.2.1,Win32,58.82352941,,,,,space,6.22,NAN,,NAN,0,6,,0,1,1,1,1,2,Sam,Acc,Participant_Images/65412ca42e0e2fbb27b8a7b2/65412ca42e0e2fbb27b8a7b2_Images/65412ca42e0e2fbb27b8a7b2_Image_24.jpeg,did not like,4.988446431,,,,,,,,,,,,,,,,,,,,,
,,65412ca42e0e2fbb27b8a7b2,2024-07-05_10h42.04.662,WTP_SM_Choice,2022.2.1,Win32,58.82352941,,,,,space,5.737,NAN,,NAN,0,6,,0,2,2,2,1,3,Sam,Acc,Participant_Images/65412ca42e0e2fbb27b8a7b2/65412ca42e0e2fbb27b8a7b2_Images/65412ca42e0e2fbb27b8a7b2_Image_15.jpeg,did not like,3.470791822,,,,,,,,,,,,,,,,,,,,,
,,65412ca42e0e2fbb27b8a7b2,2024-07-05_10h42.04.662,WTP_SM_Choice,2022.2.1,Win32,58.82352941,,,,,space,0.569,NAN,,NAN,0,6,,0,3,3,3,1,4,Sam,Acc,Participant_Images/65412ca42e0e2fbb27b8a7b2/65412ca42e0e2fbb27b8a7b2_Images/65412ca42e0e2fbb27b8a7b2_Image_5.jpeg,did not like,3.820572462,,,,,,,,,,,,,,,,,,,,,
,,65412ca42e0e2fbb27b8a7b2,2024-07-05_10h42.04.662,WTP_SM_Choice,2022.2.1,Win32,58.82352941,,,,,,,,,,,,,,,,,,1,,,,,,space,2.233,space,0.682,0.01,1,3.224,0,0,0,0,1,invest in clothes,play with my little brothers,0.01,0.01,4.4,,,,
,,65412ca42e0e2fbb27b8a7b2,2024-07-05_10h42.04.662,WTP_SM_Choice,2022.2.1,Win32,58.82352941,,,,,,,,,,,,,,,,,,2,,,,,,,,,,0.02,1,1.658,0,1,1,1,1,invest in clothes,play basketball with othersq,0.02,0.01,8.8,,,,
,,65412ca42e0e2fbb27b8a7b2,2024-07-05_10h42.04.662,WTP_SM_Choice,2022.2.1,Win32,58.82352941,,,,,,,,,,,,,,,,,,3,,,,,,,,,,0.03,1,2.24,0,2,2,2,1,participate in a fantasy league of football,play basketball with othersq,0.03,0.01,3.3,,,,
,,65412ca42e0e2fbb27b8a7b2,2024-07-05_10h42.04.662,WTP_SM_Choice,2022.2.1,Win32,58.82352941,,,,,,,,,,,,,,,,,,4,,,,,,,,,,0.01,2,2.406,0,3,3,3,1,watch basketball,discuss business ideas with others,0.04,0.01,1.1,,,,
,,65412ca42e0e2fbb27b8a7b2,2024-07-05_10h42.04.662,WTP_SM_Choice,2022.2.1,Win32,58.82352941,,,,,,,,,,,,,,,,,,5,,,,,,,,,,0.01,2,2.493,0,4,4,4,1,watch basketball,watch videos with others,0.05,0.01,1.1,,,,
,,65412ca42e0e2fbb27b8a7b2,2024-07-05_10h42.04.662,WTP_SM_Choice,2022.2.1,Win32,58.82352941,,,,,,,NAN,,NAN,0.08,5.92,,0,4,4,4,1,5,Sam,Acc,Participant_Images/65412ca42e0e2fbb27b8a7b2/65412ca42e0e2fbb27b8a7b2_Images/65412ca42e0e2fbb27b8a7b2_Image_21.jpeg,liked,2.455989137,,,,,,,,,,,,,,,,,,,,,
,,65412ca42e0e2fbb27b8a7b2,2024-07-05_10h42.04.662,WTP_SM_Choice,2022.2.1,Win32,58.82352941,,,,,space,3.535,NAN,,NAN,0.08,5.92,,0,5,5,5,1,6,Sam,Acc,Participant_Images/65412ca42e0e2fbb27b8a7b2/65412ca42e0e2fbb27b8a7b2_Images/65412ca42e0e2fbb27b8a7b2_Image_20.jpeg,liked,3.79605092,,,,,,,,,,,,,,,,,,,,,
,,65412ca42e0e2fbb27b8a7b2,2024-07-05_10h42.04.662,WTP_SM_Choice,2022.2.1,Win32,58.82352941,,,,,space,1.639,NAN,,NAN,0.08,5.92,,0,6,6,6,1,7,Sam,Acc,Participant_Images/65412ca42e0e2fbb27b8a7b2/65412ca42e0e2fbb27b8a7b2_Images/65412ca42e0e2fbb27b8a7b2_Image_12.jpeg,liked,3.562416326,,,,,,,,,,,,,,,,,,,,,
,,65412ca42e0e2fbb27b8a7b2,2024-07-05_10h42.04.662,WTP_SM_Choice,2022.2.1,Win32,58.82352941,,,,,space,2.334,NAN,,NAN,0.08,5.92,,0,7,7,7,1,8,Sam,Acc,Participant_Images/65412ca42e0e2fbb27b8a7b2/65412ca42e0e2fbb27b8a7b2_Images/65412ca42e0e2fbb27b8a7b2_Image_16.jpeg,did not like,2.843822497,,,,,,,,,,,,,,,,,,,,,
,,65412ca42e0e2fbb27b8a7b2,2024-07-05_10h42.04.662,WTP_SM_Choice,2022.2.1,Win32,58.82352941,,,,,space,2.406,NAN,,NAN,0.08,5.92,,0,8,8,8,1,9,Sam,Acc,Participant_Images/65412ca42e0e2fbb27b8a7b2/65412ca42e0e2fbb27b8a7b2_Images/65412ca42e0e2fbb27b8a7b2_Image_11.jpeg,liked,3.546495948,,,,,,,,,,,,,,,,,,,,,
,,65412ca42e0e2fbb27b8a7b2,2024-07-05_10h42.04.662,WTP_SM_Choice,2022.2.1,Win32,58.82352941,,,,,,,,,,,,,,,,,,6,,,,,,space,7.018,space,0.615,0.02,2,4.435,0,0,0,0,1,practice basketball,discuss business ideas with others,0.01,0.02,3.3,,,,
,,65412ca42e0e2fbb27b8a7b2,2024-07-05_10h42.04.662,WTP_SM_Choice,2022.2.1,Win32,58.82352941,,,,,,,,,,,,,,,,,,7,,,,,,,,,,0.02,1,3.186,0,1,1,1,1,scroll on social media by myself,watch videos with others,0.02,0.02,1.1,,,,
,,65412ca42e0e2fbb27b8a7b2,2024-07-05_10h42.04.662,WTP_SM_Choice,2022.2.1,Win32,58.82352941,,,,,,,,,,,,,,,,,,8,,,,,,,,,,0.03,1,5.774,0,2,2,2,1,scroll on social media by myself,discuss current events with others,0.03,0.02,1.1,,,,
,,65412ca42e0e2fbb27b8a7b2,2024-07-05_10h42.04.662,WTP_SM_Choice,2022.2.1,Win32,58.82352941,,,,,,,,,,,,,,,,,,9,,,,,,,,,,0.02,2,6.167,0,3,3,3,1,participate in a fantasy league of football,discuss current events with others,0.04,0.02,4.4,,,,
,,65412ca42e0e2fbb27b8a7b2,2024-07-05_10h42.04.662,WTP_SM_Choice,2022.2.1,Win32,58.82352941,,,,,,,,,,,,,,,,,,10,,,,,,,,,,0.05,1,4.303,0,4,4,4,1,scroll on social media by myself,run with others,0.05,0.02,1.1,,,,
,,65412ca42e0e2fbb27b8a7b2,2024-07-05_10h42.04.662,WTP_SM_Choice,2022.2.1,Win32,58.82352941,,,,,,,NAN,,NAN,0.22,5.78,,0,9,9,9,1,10,Sam,Acc,Participant_Images/65412ca42e0e2fbb27b8a7b2/65412ca42e0e2fbb27b8a7b2_Images/65412ca42e0e2fbb27b8a7b2_Image_18.jpeg,liked,1.672012706,,,,,,,,,,,,,,,,,,,,,
,,65412ca42e0e2fbb27b8a7b2,2024-07-05_10h42.04.662,WTP_SM_Choice,2022.2.1,Win32,58.82352941,,,,,space,3.371,NAN,,NAN,0.22,5.78,,0,10,10,10,1,11,Sam,Acc,Participant_Images/65412ca42e0e2fbb27b8a7b2/65412ca42e0e2fbb27b8a7b2_Images/65412ca42e0e2fbb27b8a7b2_Image_10.jpeg,liked,4.942172136,,,,,,,,,,,,,,,,,,,,,
,,65412ca42e0e2fbb27b8a7b2,2024-07-05_10h42.04.662,WTP_SM_Choice,2022.2.1,Win32,58.82352941,,,,,space,1,NAN,,NAN,0.22,5.78,,0,11,11,11,1,12,Sam,Acc,Participant_Images/65412ca42e0e2fbb27b8a7b2/65412ca42e0e2fbb27b8a7b2_Images/65412ca42e0e2fbb27b8a7b2_Image_23.jpeg,did not like,2.50187214,,,,,,,,,,,,,,,,,,,,,
,,65412ca42e0e2fbb27b8a7b2,2024-07-05_10h42.04.662,WTP_SM_Choice,2022.2.1,Win32,58.82352941,,,,,space,2.16,NAN,,NAN,0.22,5.78,,0,12,12,12,1,13,Sam,Acc,Participant_Images/65412ca42e0e2fbb27b8a7b2/65412ca42e0e2fbb27b8a7b2_Images/65412ca42e0e2fbb27b8a7b2_Image_19.jpeg,liked,2.071164779,,,,,,,,,,,,,,,,,,,,,
,,65412ca42e0e2fbb27b8a7b2,2024-07-05_10h42.04.662,WTP_SM_Choice,2022.2.1,Win32,58.82352941,,,,,space,2.091,NAN,,NAN,0.22,5.78,,0,13,13,13,1,14,Sam,Acc,Participant_Images/65412ca42e0e2fbb27b8a7b2/65412ca42e0e2fbb27b8a7b2_Images/65412ca42e0e2fbb27b8a7b2_Image_7.jpeg,liked,5.336503566,,,,,,,,,,,,,,,,,,,,,
,,65412ca42e0e2fbb27b8a7b2,2024-07-05_10h42.04.662,WTP_SM_Choice,2022.2.1,Win32,58.82352941,,,,,,,,,,,,,,,,,,11,,,,,,space,5.782,space,0.893,0.01,1,2.151,0,0,0,0,1,trade stocks and crypto,eat with others,0.01,0.03,3.3,,,,
,,65412ca42e0e2fbb27b8a7b2,2024-07-05_10h42.04.662,WTP_SM_Choice,2022.2.1,Win32,58.82352941,,,,,,,,,,,,,,,,,,12,,,,,,,,,,0.02,1,1.089,0,1,1,1,1,scroll on social media by myself,wrestle with others,0.02,0.03,4.4,,,,
,,65412ca42e0e2fbb27b8a7b2,2024-07-05_10h42.04.662,WTP_SM_Choice,2022.2.1,Win32,58.82352941,,,,,,,,,,,,,,,,,,13,,,,,,,,,,0.03,1,2.292,0,2,2,2,1,read online,discuss business ideas with others,0.03,0.03,1.1,,,,
,,65412ca42e0e2fbb27b8a7b2,2024-07-05_10h42.04.662,WTP_SM_Choice,2022.2.1,Win32,58.82352941,,,,,,,,,,,,,,,,,,14,,,,,,,,,,0.03,2,3.388,0,3,3,3,1,practice basketball,talk with others,0.04,0.03,3.3,,,,
,,65412ca42e0e2fbb27b8a7b2,2024-07-05_10h42.04.662,WTP_SM_Choice,2022.2.1,Win32,58.82352941,,,,,,,,,,,,,,,,,,15,,,,,,,,,,0.03,2,1.72,0,4,4,4,1,invest in clothes,discuss current events with others,0.05,0.03,4.4,,,,
,,65412ca42e0e2fbb27b8a7b2,2024-07-05_10h42.04.662,WTP_SM_Choice,2022.2.1,Win32,58.82352941,,,,,,,NAN,,NAN,0.34,5.66,,0,14,14,14,1,15,Sam,Acc,Participant_Images/65412ca42e0e2fbb27b8a7b2/65412ca42e0e2fbb27b8a7b2_Images/65412ca42e0e2fbb27b8a7b2_Image_17.jpeg,liked,2.642157193,,,,,,,,,,,,,,,,,,,,,
,,65412ca42e0e2fbb27b8a7b2,2024-07-05_10h42.04.662,WTP_SM_Choice,2022.2.1,Win32,58.82352941,,,,,space,3.179,NAN,,NAN,0.34,5.66,,0,15,15,15,1,16,Sam,Acc,Participant_Images/65412ca42e0e2fbb27b8a7b2/65412ca42e0e2fbb27b8a7b2_Images/65412ca42e0e2fbb27b8a7b2_Image_13.jpeg,liked,4.456234322,,,,,,,,,,,,,,,,,,,,,
,,65412ca42e0e2fbb27b8a7b2,2024-07-05_10h42.04.662,WTP_SM_Choice,2022.2.1,Win32,58.82352941,,,,,space,3.774,NAN,,NAN,0.34,5.66,,0,16,16,16,1,17,Sam,Acc,Participant_Images/65412ca42e0e2fbb27b8a7b2/65412ca42e0e2fbb27b8a7b2_Images/65412ca42e0e2fbb27b8a7b2_Image_25.jpeg,liked,4.438512181,,,,,,,,,,,,,,,,,,,,,
,,65412ca42e0e2fbb27b8a7b2,2024-07-05_10h42.04.662,WTP_SM_Choice,2022.2.1,Win32,58.82352941,,,,,space,2.551,NAN,,NAN,0.34,5.66,,0,17,17,17,1,18,Sam,Acc,Participant_Images/65412ca42e0e2fbb27b8a7b2/65412ca42e0e2fbb27b8a7b2_Images/65412ca42e0e2fbb27b8a7b2_Image_3.jpeg,did not like,2.682944783,,,,,,,,,,,,,,,,,,,,,
,,65412ca42e0e2fbb27b8a7b2,2024-07-05_10h42.04.662,WTP_SM_Choice,2022.2.1,Win32,58.82352941,,,,,space,6.74,NAN,,NAN,0.34,5.66,,0,18,18,18,1,19,Sam,Acc,Participant_Images/65412ca42e0e2fbb27b8a7b2/65412ca42e0e2fbb27b8a7b2_Images/65412ca42e0e2fbb27b8a7b2_Image_6.jpeg,liked,4.51984296,,,,,,,,,,,,,,,,,,,,,
,,65412ca42e0e2fbb27b8a7b2,2024-07-05_10h42.04.662,WTP_SM_Choice,2022.2.1,Win32,58.82352941,,,,,,,,,,,,,,,,,,16,,,,,,space,5.175,space,1.992,0.01,1,2.233,0,0,0,0,1,practice basketball,watch videos with others,0.01,0.04,1.1,,,,
,,65412ca42e0e2fbb27b8a7b2,2024-07-05_10h42.04.662,WTP_SM_Choice,2022.2.1,Win32,58.82352941,,,,,,,,,,,,,,,,,,17,,,,,,,,,,0.02,1,1.992,0,1,1,1,1,participate in a fantasy league of basketball,watch basketball with others,0.02,0.04,8.8,,,,
,,65412ca42e0e2fbb27b8a7b2,2024-07-05_10h42.04.662,WTP_SM_Choice,2022.2.1,Win32,58.82352941,,,,,,,,,,,,,,,,,,18,,,,,,,,,,0.03,1,1.757,0,2,2,2,1,invest in clothes,run with others,0.03,0.04,3.3,,,,
,,65412ca42e0e2fbb27b8a7b2,2024-07-05_10h42.04.662,WTP_SM_Choice,2022.2.1,Win32,58.82352941,,,,,,,,,,,,,,,,,,19,,,,,,,,,,0.04,2,7.495,0,3,3,3,1,read online,watch videos with others,0.04,0.04,3.3,,,,
,,65412ca42e0e2fbb27b8a7b2,2024-07-05_10h42.04.662,WTP_SM_Choice,2022.2.1,Win32,58.82352941,,,,,,,,,,,,,,,,,,20,,,,,,,,,,0.04,2,2.221,0,4,4,4,1,play video games by myself,play basketball with othersq,0.05,0.04,1.1,,,,
,,65412ca42e0e2fbb27b8a7b2,2024-07-05_10h42.04.662,WTP_SM_Choice,2022.2.1,Win32,58.82352941,,,,,,,NAN,,NAN,0.48,5.52,,0,19,19,19,1,20,Sam,Acc,Participant_Images/65412ca42e0e2fbb27b8a7b2/65412ca42e0e2fbb27b8a7b2_Images/65412ca42e0e2fbb27b8a7b2_Image_9.jpeg,liked,3.195382774,,,,,,,,,,,,,,,,,,,,,
,,65412ca42e0e2fbb27b8a7b2,2024-07-05_10h42.04.662,WTP_SM_Choice,2022.2.1,Win32,58.82352941,,,,,space,1.739,NAN,,NAN,0.48,5.52,,0,20,20,20,1,21,Sam,Acc,Participant_Images/65412ca42e0e2fbb27b8a7b2/65412ca42e0e2fbb27b8a7b2_Images/65412ca42e0e2fbb27b8a7b2_Image_2.jpeg,did not like,1.779333479,,,,,,,,,,,,,,,,,,,,,
,,65412ca42e0e2fbb27b8a7b2,2024-07-05_10h42.04.662,WTP_SM_Choice,2022.2.1,Win32,58.82352941,,,,,space,1.12,NAN,,NAN,0.48,5.52,,0,21,21,21,1,22,Sam,Acc,Participant_Images/65412ca42e0e2fbb27b8a7b2/65412ca42e0e2fbb27b8a7b2_Images/65412ca42e0e2fbb27b8a7b2_Image_4.jpeg,liked,4.312468682,,,,,,,,,,,,,,,,,,,,,
,,65412ca42e0e2fbb27b8a7b2,2024-07-05_10h42.04.662,WTP_SM_Choice,2022.2.1,Win32,58.82352941,,,,,space,5.92,NAN,,NAN,0.48,5.52,,0,22,22,22,1,23,Sam,Acc,Participant_Images/65412ca42e0e2fbb27b8a7b2/65412ca42e0e2fbb27b8a7b2_Images/65412ca42e0e2fbb27b8a7b2_Image_8.jpeg,liked,4.940433059,,,,,,,,,,,,,,,,,,,,,
,,65412ca42e0e2fbb27b8a7b2,2024-07-05_10h42.04.662,WTP_SM_Choice,2022.2.1,Win32,58.82352941,,,,,space,4.253,NAN,,NAN,0.48,5.52,,0,23,23,23,1,24,Sam,Acc,Participant_Images/65412ca42e0e2fbb27b8a7b2/65412ca42e0e2fbb27b8a7b2_Images/65412ca42e0e2fbb27b8a7b2_Image_14.jpeg,liked,2.7105123,,,,,,,,,,,,,,,,,,,,,
,,65412ca42e0e2fbb27b8a7b2,2024-07-05_10h42.04.662,WTP_SM_Choice,2022.2.1,Win32,58.82352941,,,,,,,,,,,,,,,,,,21,,,,,,space,4.117,space,0.901,0.01,1,1.988,0,0,0,0,1,read online,wrestle with others,0.01,0.05,8.8,,,,
,,65412ca42e0e2fbb27b8a7b2,2024-07-05_10h42.04.662,WTP_SM_Choice,2022.2.1,Win32,58.82352941,,,,,,,,,,,,,,,,,,22,,,,,,,,,,0.02,1,1.082,0,1,1,1,1,trade stocks and crypto,discuss current events with others,0.02,0.05,4.4,,,,
,,65412ca42e0e2fbb27b8a7b2,2024-07-05_10h42.04.662,WTP_SM_Choice,2022.2.1,Win32,58.82352941,,,,,,,,,,,,,,,,,,23,,,,,,,,,,0.03,1,1.541,0,2,2,2,1,participate in a fantasy league of basketball,discuss business ideas with others,0.03,0.05,1.1,,,,
,,65412ca42e0e2fbb27b8a7b2,2024-07-05_10h42.04.662,WTP_SM_Choice,2022.2.1,Win32,58.82352941,,,,,,,,,,,,,,,,,,24,,,,,,,,,,0.04,1,2.631,0,3,3,3,1,participate in a fantasy league of basketball,run with others,0.04,0.05,4.4,,,,
,,65412ca42e0e2fbb27b8a7b2,2024-07-05_10h42.04.662,WTP_SM_Choice,2022.2.1,Win32,58.82352941,,,,,,,,,,,,,,,,,,25,,,,,,,,,,0.05,1,3.043,0,4,4,4,1,trade stocks and crypto,run with others,0.05,0.05,3.3,,,,
,,65412ca42e0e2fbb27b8a7b2,2024-07-05_10h42.04.662,WTP_SM_Choice,2022.2.1,Win32,58.82352941,,,,,,,3,,9,0.63,5.37,,0,24,24,24,1,25,Sam,Acc,Participant_Images/65412ca42e0e2fbb27b8a7b2/65412ca42e0e2fbb27b8a7b2_Images/65412ca42e0e2fbb27b8a7b2_Image_1.jpeg,liked,3.602308302,,,,,,,,,,,,,,,,,,space,2.68,,
,,65412ca42e0e2fbb27b8a7b2,2024-07-05_10h42.04.662,WTP_SM_Choice,2022.2.1,Win32,58.82352941,,,space,1.114,space,3.202,NAN,,NAN,0.63,5.37,,0,25,25,25,1,26,Riley,Acc,Participant_Images/65412ca42e0e2fbb27b8a7b2/65412ca42e0e2fbb27b8a7b2_Images/65412ca42e0e2fbb27b8a7b2_Image_10.jpeg,liked,4.106391878,,,,,,,,,,,,,,,,,,,,,
,,65412ca42e0e2fbb27b8a7b2,2024-07-05_10h42.04.662,WTP_SM_Choice,2022.2.1,Win32,58.82352941,,,,,space,0.655,NAN,,NAN,0.63,5.37,,0,26,26,26,1,27,Riley,Acc,Participant_Images/65412ca42e0e2fbb27b8a7b2/65412ca42e0e2fbb27b8a7b2_Images/65412ca42e0e2fbb27b8a7b2_Image_23.jpeg,did not like,3.799433026,,,,,,,,,,,,,,,,,,,,,
,,65412ca42e0e2fbb27b8a7b2,2024-07-05_10h42.04.662,WTP_SM_Choice,2022.2.1,Win32,58.82352941,,,,,space,2.567,NAN,,NAN,0.63,5.37,,0,27,27,27,1,28,Riley,Acc,Participant_Images/65412ca42e0e2fbb27b8a7b2/65412ca42e0e2fbb27b8a7b2_Images/65412ca42e0e2fbb27b8a7b2_Image_25.jpeg,liked,5.246980764,,,,,,,,,,,,,,,,,,,,,
,,65412ca42e0e2fbb27b8a7b2,2024-07-05_10h42.04.662,WTP_SM_Choice,2022.2.1,Win32,58.82352941,,,,,space,2.962,NAN,,NAN,0.63,5.37,,0,28,28,28,1,29,Riley,Acc,Participant_Images/65412ca42e0e2fbb27b8a7b2/65412ca42e0e2fbb27b8a7b2_Images/65412ca42e0e2fbb27b8a7b2_Image_9.jpeg,did not like,3.30081769,,,,,,,,,,,,,,,,,,,,,
,,65412ca42e0e2fbb27b8a7b2,2024-07-05_10h42.04.662,WTP_SM_Choice,2022.2.1,Win32,58.82352941,,,,,,,,,,,,,,,,,,26,,,,,,space,1.335,space,0.623,0.01,1,1.991,0,0,0,0,1,play video games by myself,play with my little brothers,0.01,0.01,4.4,,,,
,,65412ca42e0e2fbb27b8a7b2,2024-07-05_10h42.04.662,WTP_SM_Choice,2022.2.1,Win32,58.82352941,,,,,,,,,,,,,,,,,,27,,,,,,,,,,0.01,2,1.625,0,1,1,1,1,watch basketball,discuss current events with others,0.02,0.01,3.3,,,,
,,65412ca42e0e2fbb27b8a7b2,2024-07-05_10h42.04.662,WTP_SM_Choice,2022.2.1,Win32,58.82352941,,,,,,,,,,,,,,,,,,28,,,,,,,,,,0.01,2,1.48,0,2,2,2,1,read online,eat with others,0.03,0.01,3.3,,,,
,,65412ca42e0e2fbb27b8a7b2,2024-07-05_10h42.04.662,WTP_SM_Choice,2022.2.1,Win32,58.82352941,,,,,,,,,,,,,,,,,,29,,,,,,,,,,0.01,2,1.362,0,3,3,3,1,participate in a fantasy league of basketball,play basketball with othersq,0.04,0.01,4.4,,,,
,,65412ca42e0e2fbb27b8a7b2,2024-07-05_10h42.04.662,WTP_SM_Choice,2022.2.1,Win32,58.82352941,,,,,,,,,,,,,,,,,,30,,,,,,,,,,0.01,2,1.792,0,4,4,4,1,participate in a fantasy league of football,eat with others,0.05,0.01,8.8,,,,
,,65412ca42e0e2fbb27b8a7b2,2024-07-05_10h42.04.662,WTP_SM_Choice,2022.2.1,Win32,58.82352941,,,,,,,NAN,,NAN,0.68,5.32,,0,29,29,29,1,30,Riley,Acc,Participant_Images/65412ca42e0e2fbb27b8a7b2/65412ca42e0e2fbb27b8a7b2_Images/65412ca42e0e2fbb27b8a7b2_Image_18.jpeg,liked,1.661473164,,,,,,,,,,,,,,,,,,,,,
,,65412ca42e0e2fbb27b8a7b2,2024-07-05_10h42.04.662,WTP_SM_Choice,2022.2.1,Win32,58.82352941,,,,,space,1.422,NAN,,NAN,0.68,5.32,,0,30,30,30,1,31,Riley,Acc,Participant_Images/65412ca42e0e2fbb27b8a7b2/65412ca42e0e2fbb27b8a7b2_Images/65412ca42e0e2fbb27b8a7b2_Image_17.jpeg,liked,3.613205605,,,,,,,,,,,,,,,,,,,,,
,,65412ca42e0e2fbb27b8a7b2,2024-07-05_10h42.04.662,WTP_SM_Choice,2022.2.1,Win32,58.82352941,,,,,space,8.886,NAN,,NAN,0.68,5.32,,0,31,31,31,1,32,Riley,Acc,Participant_Images/65412ca42e0e2fbb27b8a7b2/65412ca42e0e2fbb27b8a7b2_Images/65412ca42e0e2fbb27b8a7b2_Image_12.jpeg,did not like,4.988446431,,,,,,,,,,,,,,,,,,,,,
,,65412ca42e0e2fbb27b8a7b2,2024-07-05_10h42.04.662,WTP_SM_Choice,2022.2.1,Win32,58.82352941,,,,,space,2.828,NAN,,NAN,0.68,5.32,,0,32,32,32,1,33,Riley,Acc,Participant_Images/65412ca42e0e2fbb27b8a7b2/65412ca42e0e2fbb27b8a7b2_Images/65412ca42e0e2fbb27b8a7b2_Image_21.jpeg,liked,3.470791822,,,,,,,,,,,,,,,,,,,,,
,,65412ca42e0e2fbb27b8a7b2,2024-07-05_10h42.04.662,WTP_SM_Choice,2022.2.1,Win32,58.82352941,,,,,space,4.224,NAN,,NAN,0.68,5.32,,0,33,33,33,1,34,Riley,Acc,Participant_Images/65412ca42e0e2fbb27b8a7b2/65412ca42e0e2fbb27b8a7b2_Images/65412ca42e0e2fbb27b8a7b2_Image_4.jpeg,liked,3.820572462,,,,,,,,,,,,,,,,,,,,,
,,65412ca42e0e2fbb27b8a7b2,2024-07-05_10h42.04.662,WTP_SM_Choice,2022.2.1,Win32,58.82352941,,,,,,,,,,,,,,,,,,31,,,,,,space,1.719,space,0.481,0.01,1,1.131,0,0,0,0,1,scroll on social media by myself,watch basketball with others,0.01,0.02,8.8,,,,
,,65412ca42e0e2fbb27b8a7b2,2024-07-05_10h42.04.662,WTP_SM_Choice,2022.2.1,Win32,58.82352941,,,,,,,,,,,,,,,,,,32,,,,,,,,,,0.02,1,3.522,0,1,1,1,1,play video games by myself,watch basketball with others,0.02,0.02,1.1,,,,
,,65412ca42e0e2fbb27b8a7b2,2024-07-05_10h42.04.662,WTP_SM_Choice,2022.2.1,Win32,58.82352941,,,,,,,,,,,,,,,,,,33,,,,,,,,,,0.02,2,2.261,0,2,2,2,1,invest in clothes,discuss business ideas with others,0.03,0.02,4.4,,,,
,,65412ca42e0e2fbb27b8a7b2,2024-07-05_10h42.04.662,WTP_SM_Choice,2022.2.1,Win32,58.82352941,,,,,,,,,,,,,,,,,,34,,,,,,,,,,0.02,2,1.709,0,3,3,3,1,participate in a fantasy league of football,talk with others,0.04,0.02,3.3,,,,
,,65412ca42e0e2fbb27b8a7b2,2024-07-05_10h42.04.662,WTP_SM_Choice,2022.2.1,Win32,58.82352941,,,,,,,,,,,,,,,,,,35,,,,,,,,,,0.02,2,3.844,0,4,4,4,1,read online,play basketball with othersq,0.05,0.02,1.1,,,,
,,65412ca42e0e2fbb27b8a7b2,2024-07-05_10h42.04.662,WTP_SM_Choice,2022.2.1,Win32,58.82352941,,,,,,,NAN,,NAN,0.77,5.23,,0,34,34,34,1,35,Riley,Acc,Participant_Images/65412ca42e0e2fbb27b8a7b2/65412ca42e0e2fbb27b8a7b2_Images/65412ca42e0e2fbb27b8a7b2_Image_19.jpeg,did not like,2.455989137,,,,,,,,,,,,,,,,,,,,,
,,65412ca42e0e2fbb27b8a7b2,2024-07-05_10h42.04.662,WTP_SM_Choice,2022.2.1,Win32,58.82352941,,,,,space,5.241,NAN,,NAN,0.77,5.23,,0,35,35,35,1,36,Riley,Acc,Participant_Images/65412ca42e0e2fbb27b8a7b2/65412ca42e0e2fbb27b8a7b2_Images/65412ca42e0e2fbb27b8a7b2_Image_3.jpeg,liked,3.79605092,,,,,,,,,,,,,,,,,,,,,
,,65412ca42e0e2fbb27b8a7b2,2024-07-05_10h42.04.662,WTP_SM_Choice,2022.2.1,Win32,58.82352941,,,,,space,3.407,NAN,,NAN,0.77,5.23,,0,36,36,36,1,37,Riley,Acc,Participant_Images/65412ca42e0e2fbb27b8a7b2/65412ca42e0e2fbb27b8a7b2_Images/65412ca42e0e2fbb27b8a7b2_Image_5.jpeg,liked,3.562416326,,,,,,,,,,,,,,,,,,,,,
,,65412ca42e0e2fbb27b8a7b2,2024-07-05_10h42.04.662,WTP_SM_Choice,2022.2.1,Win32,58.82352941,,,,,space,5.792,NAN,,NAN,0.77,5.23,,0,37,37,37,1,38,Riley,Acc,Participant_Images/65412ca42e0e2fbb27b8a7b2/65412ca42e0e2fbb27b8a7b2_Images/65412ca42e0e2fbb27b8a7b2_Image_11.jpeg,liked,2.843822497,,,,,,,,,,,,,,,,,,,,,
,,65412ca42e0e2fbb27b8a7b2,2024-07-05_10h42.04.662,WTP_SM_Choice,2022.2.1,Win32,58.82352941,,,,,space,1.99,NAN,,NAN,0.77,5.23,,0,38,38,38,1,39,Riley,Acc,Participant_Images/65412ca42e0e2fbb27b8a7b2/65412ca42e0e2fbb27b8a7b2_Images/65412ca42e0e2fbb27b8a7b2_Image_1.jpeg,liked,3.546495948,,,,,,,,,,,,,,,,,,,,,
,,65412ca42e0e2fbb27b8a7b2,2024-07-05_10h42.04.662,WTP_SM_Choice,2022.2.1,Win32,58.82352941,,,,,,,,,,,,,,,,,,36,,,,,,space,0.644,space,0.466,0.01,1,4.551,0,0,0,0,1,practice basketball,watch basketball with others,0.01,0.03,3.3,,,,
,,65412ca42e0e2fbb27b8a7b2,2024-07-05_10h42.04.662,WTP_SM_Choice,2022.2.1,Win32,58.82352941,,,,,,,,,,,,,,,,,,37,,,,,,,,,,0.02,1,2.437,0,1,1,1,1,invest in clothes,eat with others,0.02,0.03,1.1,,,,
,,65412ca42e0e2fbb27b8a7b2,2024-07-05_10h42.04.662,WTP_SM_Choice,2022.2.1,Win32,58.82352941,,,,,,,,,,,,,,,,,,38,,,,,,,,,,0.03,1,5.19,0,2,2,2,1,read online,discuss current events with others,0.03,0.03,1.1,,,,
,,65412ca42e0e2fbb27b8a7b2,2024-07-05_10h42.04.662,WTP_SM_Choice,2022.2.1,Win32,58.82352941,,,,,,,,,,,,,,,,,,39,,,,,,,,,,0.03,2,2.973,0,3,3,3,1,trade stocks and crypto,watch videos with others,0.04,0.03,3.3,,,,
,,65412ca42e0e2fbb27b8a7b2,2024-07-05_10h42.04.662,WTP_SM_Choice,2022.2.1,Win32,58.82352941,,,,,,,,,,,,,,,,,,40,,,,,,,,,,0.03,2,2.092,0,4,4,4,1,watch basketball,play with my little brothers,0.05,0.03,4.4,,,,
,,65412ca42e0e2fbb27b8a7b2,2024-07-05_10h42.04.662,WTP_SM_Choice,2022.2.1,Win32,58.82352941,,,,,,,NAN,,NAN,0.89,5.11,,0,39,39,39,1,40,Riley,Acc,Participant_Images/65412ca42e0e2fbb27b8a7b2/65412ca42e0e2fbb27b8a7b2_Images/65412ca42e0e2fbb27b8a7b2_Image_2.jpeg,liked,1.672012706,,,,,,,,,,,,,,,,,,,,,
,,65412ca42e0e2fbb27b8a7b2,2024-07-05_10h42.04.662,WTP_SM_Choice,2022.2.1,Win32,58.82352941,,,,,space,1.158,NAN,,NAN,0.89,5.11,,0,40,40,40,1,41,Riley,Acc,Participant_Images/65412ca42e0e2fbb27b8a7b2/65412ca42e0e2fbb27b8a7b2_Images/65412ca42e0e2fbb27b8a7b2_Image_24.jpeg,liked,4.942172136,,,,,,,,,,,,,,,,,,,,,
,,65412ca42e0e2fbb27b8a7b2,2024-07-05_10h42.04.662,WTP_SM_Choice,2022.2.1,Win32,58.82352941,,,,,space,6.76,NAN,,NAN,0.89,5.11,,0,41,41,41,1,42,Riley,Acc,Participant_Images/65412ca42e0e2fbb27b8a7b2/65412ca42e0e2fbb27b8a7b2_Images/65412ca42e0e2fbb27b8a7b2_Image_14.jpeg,liked,2.50187214,,,,,,,,,,,,,,,,,,,,,
,,65412ca42e0e2fbb27b8a7b2,2024-07-05_10h42.04.662,WTP_SM_Choice,2022.2.1,Win32,58.82352941,,,,,space,3.02,NAN,,NAN,0.89,5.11,,0,42,42,42,1,43,Riley,Acc,Participant_Images/65412ca42e0e2fbb27b8a7b2/65412ca42e0e2fbb27b8a7b2_Images/65412ca42e0e2fbb27b8a7b2_Image_15.jpeg,did not like,2.071164779,,,,,,,,,,,,,,,,,,,,,
,,65412ca42e0e2fbb27b8a7b2,2024-07-05_10h42.04.662,WTP_SM_Choice,2022.2.1,Win32,58.82352941,,,,,space,0.44,NAN,,NAN,0.89,5.11,,0,43,43,43,1,44,Riley,Acc,Participant_Images/65412ca42e0e2fbb27b8a7b2/65412ca42e0e2fbb27b8a7b2_Images/65412ca42e0e2fbb27b8a7b2_Image_13.jpeg,did not like,5.336503566,,,,,,,,,,,,,,,,,,,,,
,,65412ca42e0e2fbb27b8a7b2,2024-07-05_10h42.04.662,WTP_SM_Choice,2022.2.1,Win32,58.82352941,,,,,,,,,,,,,,,,,,41,,,,,,space,0.615,space,0.798,0.01,1,2.368,0,0,0,0,1,trade stocks and crypto,talk with others,0.01,0.04,1.1,,,,
,,65412ca42e0e2fbb27b8a7b2,2024-07-05_10h42.04.662,WTP_SM_Choice,2022.2.1,Win32,58.82352941,,,,,,,,,,,,,,,,,,42,,,,,,,,,,0.02,1,1.507,0,1,1,1,1,play video games by myself,run with others,0.02,0.04,3.3,,,,
,,65412ca42e0e2fbb27b8a7b2,2024-07-05_10h42.04.662,WTP_SM_Choice,2022.2.1,Win32,58.82352941,,,,,,,,,,,,,,,,,,43,,,,,,,,,,0.03,1,1.039,0,2,2,2,1,scroll on social media by myself,discuss business ideas with others,0.03,0.04,1.1,,,,
,,65412ca42e0e2fbb27b8a7b2,2024-07-05_10h42.04.662,WTP_SM_Choice,2022.2.1,Win32,58.82352941,,,,,,,,,,,,,,,,,,44,,,,,,,,,,0.04,1,1.637,0,3,3,3,1,practice basketball,play basketball with othersq,0.04,0.04,1.1,,,,
,,65412ca42e0e2fbb27b8a7b2,2024-07-05_10h42.04.662,WTP_SM_Choice,2022.2.1,Win32,58.82352941,,,,,,,,,,,,,,,,,,45,,,,,,,,,,0.04,2,2.328,0,4,4,4,1,watch basketball,play basketball with othersq,0.05,0.04,4.4,,,,
,,65412ca42e0e2fbb27b8a7b2,2024-07-05_10h42.04.662,WTP_SM_Choice,2022.2.1,Win32,58.82352941,,,,,,,NAN,,NAN,1.03,4.97,,0,44,44,44,1,45,Riley,Acc,Participant_Images/65412ca42e0e2fbb27b8a7b2/65412ca42e0e2fbb27b8a7b2_Images/65412ca42e0e2fbb27b8a7b2_Image_6.jpeg,liked,2.642157193,,,,,,,,,,,,,,,,,,,,,
,,65412ca42e0e2fbb27b8a7b2,2024-07-05_10h42.04.662,WTP_SM_Choice,2022.2.1,Win32,58.82352941,,,,,space,0.968,NAN,,NAN,1.03,4.97,,0,45,45,45,1,46,Riley,Acc,Participant_Images/65412ca42e0e2fbb27b8a7b2/65412ca42e0e2fbb27b8a7b2_Images/65412ca42e0e2fbb27b8a7b2_Image_7.jpeg,did not like,4.456234322,,,,,,,,,,,,,,,,,,,,,
,,65412ca42e0e2fbb27b8a7b2,2024-07-05_10h42.04.662,WTP_SM_Choice,2022.2.1,Win32,58.82352941,,,,,space,1.303,NAN,,NAN,1.03,4.97,,0,46,46,46,1,47,Riley,Acc,Participant_Images/65412ca42e0e2fbb27b8a7b2/65412ca42e0e2fbb27b8a7b2_Images/65412ca42e0e2fbb27b8a7b2_Image_8.jpeg,liked,4.438512181,,,,,,,,,,,,,,,,,,,,,
,,65412ca42e0e2fbb27b8a7b2,2024-07-05_10h42.04.662,WTP_SM_Choice,2022.2.1,Win32,58.82352941,,,,,space,0.971,NAN,,NAN,1.03,4.97,,0,47,47,47,1,48,Riley,Acc,Participant_Images/65412ca42e0e2fbb27b8a7b2/65412ca42e0e2fbb27b8a7b2_Images/65412ca42e0e2fbb27b8a7b2_Image_20.jpeg,liked,2.682944783,,,,,,,,,,,,,,,,,,,,,
,,65412ca42e0e2fbb27b8a7b2,2024-07-05_10h42.04.662,WTP_SM_Choice,2022.2.1,Win32,58.82352941,,,,,space,3.977,NAN,,NAN,1.03,4.97,,0,48,48,48,1,49,Riley,Acc,Participant_Images/65412ca42e0e2fbb27b8a7b2/65412ca42e0e2fbb27b8a7b2_Images/65412ca42e0e2fbb27b8a7b2_Image_16.jpeg,liked,4.51984296,,,,,,,,,,,,,,,,,,,,,
,,65412ca42e0e2fbb27b8a7b2,2024-07-05_10h42.04.662,WTP_SM_Choice,2022.2.1,Win32,58.82352941,,,,,,,,,,,,,,,,,,46,,,,,,space,2.394,space,0.911,0.01,1,2.411,0,0,0,0,1,scroll on social media by myself,talk with others,0.01,0.05,8.8,,,,
,,65412ca42e0e2fbb27b8a7b2,2024-07-05_10h42.04.662,WTP_SM_Choice,2022.2.1,Win32,58.82352941,,,,,,,,,,,,,,,,,,47,,,,,,,,,,0.02,1,2.169,0,1,1,1,1,practice basketball,run with others,0.02,0.05,1.1,,,,
,,65412ca42e0e2fbb27b8a7b2,2024-07-05_10h42.04.662,WTP_SM_Choice,2022.2.1,Win32,58.82352941,,,,,,,,,,,,,,,,,,48,,,,,,,,,,0.03,1,1.95,0,2,2,2,1,read online,play with my little brothers,0.03,0.05,4.4,,,,
,,65412ca42e0e2fbb27b8a7b2,2024-07-05_10h42.04.662,WTP_SM_Choice,2022.2.1,Win32,58.82352941,,,,,,,,,,,,,,,,,,49,,,,,,,,,,0.04,1,2.429,0,3,3,3,1,participate in a fantasy league of basketball,wrestle with others,0.04,0.05,3.3,,,,
,,65412ca42e0e2fbb27b8a7b2,2024-07-05_10h42.04.662,WTP_SM_Choice,2022.2.1,Win32,58.82352941,,,,,,,,,,,,,,,,,,50,,,,,,,,,,0.05,1,4.495,0,4,4,4,1,participate in a fantasy league of basketball,watch videos with others,0.05,0.05,1.1,,,,
,,65412ca42e0e2fbb27b8a7b2,2024-07-05_10h42.04.662,WTP_SM_Choice,2022.2.1,Win32,58.82352941,,,,,,,1,,9,1.18,4.82,,0,49,49,49,1,50,Riley,Acc,Participant_Images/65412ca42e0e2fbb27b8a7b2/65412ca42e0e2fbb27b8a7b2_Images/65412ca42e0e2fbb27b8a7b2_Image_22.jpeg,liked,3.195382774,,,,,,,,,,,,,,,,,,space,1.197,,
,,65412ca42e0e2fbb27b8a7b2,2024-07-05_10h42.04.662,WTP_SM_Choice,2022.2.1,Win32,58.82352941,,,space,3.959,space,1.132,NAN,,NAN,1.18,4.82,,0,50,50,50,1,51,Alex,Rej,Participant_Images/65412ca42e0e2fbb27b8a7b2/65412ca42e0e2fbb27b8a7b2_Images/65412ca42e0e2fbb27b8a7b2_Image_18.jpeg,did not like,1.779333479,,,,,,,,,,,,,,,,,,,,,
,,65412ca42e0e2fbb27b8a7b2,2024-07-05_10h42.04.662,WTP_SM_Choice,2022.2.1,Win32,58.82352941,,,,,space,0.834,NAN,,NAN,1.18,4.82,,0,51,51,51,1,52,Alex,Rej,Participant_Images/65412ca42e0e2fbb27b8a7b2/65412ca42e0e2fbb27b8a7b2_Images/65412ca42e0e2fbb27b8a7b2_Image_3.jpeg,liked,4.312468682,,,,,,,,,,,,,,,,,,,,,
,,65412ca42e0e2fbb27b8a7b2,2024-07-05_10h42.04.662,WTP_SM_Choice,2022.2.1,Win32,58.82352941,,,,,space,1.539,NAN,,NAN,1.18,4.82,,0,52,52,52,1,53,Alex,Rej,Participant_Images/65412ca42e0e2fbb27b8a7b2/65412ca42e0e2fbb27b8a7b2_Images/65412ca42e0e2fbb27b8a7b2_Image_22.jpeg,liked,4.940433059,,,,,,,,,,,,,,,,,,,,,
,,65412ca42e0e2fbb27b8a7b2,2024-07-05_10h42.04.662,WTP_SM_Choice,2022.2.1,Win32,58.82352941,,,,,space,1.591,NAN,,NAN,1.18,4.82,,0,53,53,53,1,54,Alex,Rej,Participant_Images/65412ca42e0e2fbb27b8a7b2/65412ca42e0e2fbb27b8a7b2_Images/65412ca42e0e2fbb27b8a7b2_Image_20.jpeg,did not like,2.7105123,,,,,,,,,,,,,,,,,,,,,
,,65412ca42e0e2fbb27b8a7b2,2024-07-05_10h42.04.662,WTP_SM_Choice,2022.2.1,Win32,58.82352941,,,,,,,,,,,,,,,,,,51,,,,,,space,2.292,space,1.442,0.01,2,2.369,0,0,0,0,1,watch basketball,wrestle with others,0.01,0.01,1.1,,,,
,,65412ca42e0e2fbb27b8a7b2,2024-07-05_10h42.04.662,WTP_SM_Choice,2022.2.1,Win32,58.82352941,,,,,,,,,,,,,,,,,,52,,,,,,,,,,0.01,2,3.59,0,1,1,1,1,read online,watch basketball with others,0.02,0.01,3.3,,,,
,,65412ca42e0e2fbb27b8a7b2,2024-07-05_10h42.04.662,WTP_SM_Choice,2022.2.1,Win32,58.82352941,,,,,,,,,,,,,,,,,,53,,,,,,,,,,0.01,2,2.371,0,2,2,2,1,watch basketball,talk with others,0.03,0.01,1.1,,,,
,,65412ca42e0e2fbb27b8a7b2,2024-07-05_10h42.04.662,WTP_SM_Choice,2022.2.1,Win32,58.82352941,,,,,,,,,,,,,,,,,,54,,,,,,,,,,0.01,2,1.876,0,3,3,3,1,scroll on social media by myself,play with my little brothers,0.04,0.01,4.4,,,,
,,65412ca42e0e2fbb27b8a7b2,2024-07-05_10h42.04.662,WTP_SM_Choice,2022.2.1,Win32,58.82352941,,,,,,,,,,,,,,,,,,55,,,,,,,,,,0.01,2,2.01,0,4,4,4,1,play video games by myself,eat with others,0.05,0.01,1.1,,,,
,,65412ca42e0e2fbb27b8a7b2,2024-07-05_10h42.04.662,WTP_SM_Choice,2022.2.1,Win32,58.82352941,,,,,,,NAN,,NAN,1.23,4.77,,0,54,54,54,1,55,Alex,Rej,Participant_Images/65412ca42e0e2fbb27b8a7b2/65412ca42e0e2fbb27b8a7b2_Images/65412ca42e0e2fbb27b8a7b2_Image_14.jpeg,did not like,3.602308302,,,,,,,,,,,,,,,,,,,,,
,,65412ca42e0e2fbb27b8a7b2,2024-07-05_10h42.04.662,WTP_SM_Choice,2022.2.1,Win32,58.82352941,,,,,space,1.372,NAN,,NAN,1.23,4.77,,0,55,55,55,1,56,Alex,Rej,Participant_Images/65412ca42e0e2fbb27b8a7b2/65412ca42e0e2fbb27b8a7b2_Images/65412ca42e0e2fbb27b8a7b2_Image_12.jpeg,did not like,4.106391878,,,,,,,,,,,,,,,,,,,,,
,,65412ca42e0e2fbb27b8a7b2,2024-07-05_10h42.04.662,WTP_SM_Choice,2022.2.1,Win32,58.82352941,,,,,space,4.223,NAN,,NAN,1.23,4.77,,0,56,56,56,1,57,Alex,Rej,Participant_Images/65412ca42e0e2fbb27b8a7b2/65412ca42e0e2fbb27b8a7b2_Images/65412ca42e0e2fbb27b8a7b2_Image_4.jpeg,did not like,3.799433026,,,,,,,,,,,,,,,,,,,,,
,,65412ca42e0e2fbb27b8a7b2,2024-07-05_10h42.04.662,WTP_SM_Choice,2022.2.1,Win32,58.82352941,,,,,space,0.15,NAN,,NAN,1.23,4.77,,0,57,57,57,1,58,Alex,Rej,Participant_Images/65412ca42e0e2fbb27b8a7b2/65412ca42e0e2fbb27b8a7b2_Images/65412ca42e0e2fbb27b8a7b2_Image_13.jpeg,did not like,5.246980764,,,,,,,,,,,,,,,,,,,,,
,,65412ca42e0e2fbb27b8a7b2,2024-07-05_10h42.04.662,WTP_SM_Choice,2022.2.1,Win32,58.82352941,,,,,space,0.751,NAN,,NAN,1.23,4.77,,0,58,58,58,1,59,Alex,Rej,Participant_Images/65412ca42e0e2fbb27b8a7b2/65412ca42e0e2fbb27b8a7b2_Images/65412ca42e0e2fbb27b8a7b2_Image_17.jpeg,did not like,3.30081769,,,,,,,,,,,,,,,,,,,,,
,,65412ca42e0e2fbb27b8a7b2,2024-07-05_10h42.04.662,WTP_SM_Choice,2022.2.1,Win32,58.82352941,,,,,,,,,,,,,,,,,,56,,,,,,space,1.472,space,1.875,0.01,1,1.869,0,0,0,0,1,participate in a fantasy league of football,run with others,0.01,0.02,8.8,,,,
,,65412ca42e0e2fbb27b8a7b2,2024-07-05_10h42.04.662,WTP_SM_Choice,2022.2.1,Win32,58.82352941,,,,,,,,,,,,,,,,,,57,,,,,,,,,,0.02,1,2.891,0,1,1,1,1,participate in a fantasy league of football,discuss business ideas with others,0.02,0.02,4.4,,,,
,,65412ca42e0e2fbb27b8a7b2,2024-07-05_10h42.04.662,WTP_SM_Choice,2022.2.1,Win32,58.82352941,,,,,,,,,,,,,,,,,,58,,,,,,,,,,0.02,2,3.444,0,2,2,2,1,earn money,discuss business ideas with others,0.03,0.02,4.4,,,,
,,65412ca42e0e2fbb27b8a7b2,2024-07-05_10h42.04.662,WTP_SM_Choice,2022.2.1,Win32,58.82352941,,,,,,,,,,,,,,,,,,59,,,,,,,,,,0.02,2,5.409,0,3,3,3,1,play video games by myself,talk with others,0.04,0.02,4.4,,,,
,,65412ca42e0e2fbb27b8a7b2,2024-07-05_10h42.04.662,WTP_SM_Choice,2022.2.1,Win32,58.82352941,,,,,,,,,,,,,,,,,,60,,,,,,,,,,0.02,2,2.027,0,4,4,4,1,earn money,play basketball with othersq,0.05,0.02,1.1,,,,
,,65412ca42e0e2fbb27b8a7b2,2024-07-05_10h42.04.662,WTP_SM_Choice,2022.2.1,Win32,58.82352941,,,,,,,NAN,,NAN,1.32,4.68,,0,59,59,59,1,60,Alex,Rej,Participant_Images/65412ca42e0e2fbb27b8a7b2/65412ca42e0e2fbb27b8a7b2_Images/65412ca42e0e2fbb27b8a7b2_Image_2.jpeg,liked,1.661473164,,,,,,,,,,,,,,,,,,,,,
,,65412ca42e0e2fbb27b8a7b2,2024-07-05_10h42.04.662,WTP_SM_Choice,2022.2.1,Win32,58.82352941,,,,,space,2.821,NAN,,NAN,1.32,4.68,,0,60,60,60,1,61,Alex,Rej,Participant_Images/65412ca42e0e2fbb27b8a7b2/65412ca42e0e2fbb27b8a7b2_Images/65412ca42e0e2fbb27b8a7b2_Image_16.jpeg,did not like,3.613205605,,,,,,,,,,,,,,,,,,,,,
,,65412ca42e0e2fbb27b8a7b2,2024-07-05_10h42.04.662,WTP_SM_Choice,2022.2.1,Win32,58.82352941,,,,,space,3.803,NAN,,NAN,1.32,4.68,,0,61,61,61,1,62,Alex,Rej,Participant_Images/65412ca42e0e2fbb27b8a7b2/65412ca42e0e2fbb27b8a7b2_Images/65412ca42e0e2fbb27b8a7b2_Image_15.jpeg,did not like,4.988446431,,,,,,,,,,,,,,,,,,,,,
,,65412ca42e0e2fbb27b8a7b2,2024-07-05_10h42.04.662,WTP_SM_Choice,2022.2.1,Win32,58.82352941,,,,,space,3.203,NAN,,NAN,1.32,4.68,,0,62,62,62,1,63,Alex,Rej,Participant_Images/65412ca42e0e2fbb27b8a7b2/65412ca42e0e2fbb27b8a7b2_Images/65412ca42e0e2fbb27b8a7b2_Image_25.jpeg,liked,3.470791822,,,,,,,,,,,,,,,,,,,,,
,,65412ca42e0e2fbb27b8a7b2,2024-07-05_10h42.04.662,WTP_SM_Choice,2022.2.1,Win32,58.82352941,,,,,space,2.368,NAN,,NAN,1.32,4.68,,0,63,63,63,1,64,Alex,Rej,Participant_Images/65412ca42e0e2fbb27b8a7b2/65412ca42e0e2fbb27b8a7b2_Images/65412ca42e0e2fbb27b8a7b2_Image_24.jpeg,liked,3.820572462,,,,,,,,,,,,,,,,,,,,,
,,65412ca42e0e2fbb27b8a7b2,2024-07-05_10h42.04.662,WTP_SM_Choice,2022.2.1,Win32,58.82352941,,,,,,,,,,,,,,,,,,61,,,,,,space,1.032,space,0.783,0.01,1,1.77,0,0,0,0,1,invest in clothes,watch videos with others,0.01,0.03,3.3,,,,
,,65412ca42e0e2fbb27b8a7b2,2024-07-05_10h42.04.662,WTP_SM_Choice,2022.2.1,Win32,58.82352941,,,,,,,,,,,,,,,,,,62,,,,,,,,,,0.02,1,1.621,0,1,1,1,1,participate in a fantasy league of football,wrestle with others,0.02,0.03,3.3,,,,
,,65412ca42e0e2fbb27b8a7b2,2024-07-05_10h42.04.662,WTP_SM_Choice,2022.2.1,Win32,58.82352941,,,,,,,,,,,,,,,,,,63,,,,,,,,,,0.03,2,4.741,0,2,2,2,1,practice basketball,play with my little brothers,0.03,0.03,3.3,,,,
,,65412ca42e0e2fbb27b8a7b2,2024-07-05_10h42.04.662,WTP_SM_Choice,2022.2.1,Win32,58.82352941,,,,,,,,,,,,,,,,,,64,,,,,,,,,,0.03,2,4.716,0,3,3,3,1,trade stocks and crypto,wrestle with others,0.04,0.03,1.1,,,,
,,65412ca42e0e2fbb27b8a7b2,2024-07-05_10h42.04.662,WTP_SM_Choice,2022.2.1,Win32,58.82352941,,,,,,,,,,,,,,,,,,65,,,,,,,,,,0.03,2,3.111,0,4,4,4,1,play video games by myself,discuss current events with others,0.05,0.03,1.1,,,,
,,65412ca42e0e2fbb27b8a7b2,2024-07-05_10h42.04.662,WTP_SM_Choice,2022.2.1,Win32,58.82352941,,,,,,,NAN,,NAN,1.44,4.56,,0,64,64,64,1,65,Alex,Rej,Participant_Images/65412ca42e0e2fbb27b8a7b2/65412ca42e0e2fbb27b8a7b2_Images/65412ca42e0e2fbb27b8a7b2_Image_10.jpeg,liked,2.455989137,,,,,,,,,,,,,,,,,,,,,
,,65412ca42e0e2fbb27b8a7b2,2024-07-05_10h42.04.662,WTP_SM_Choice,2022.2.1,Win32,58.82352941,,,,,space,1.303,NAN,,NAN,1.44,4.56,,0,65,65,65,1,66,Alex,Rej,Participant_Images/65412ca42e0e2fbb27b8a7b2/65412ca42e0e2fbb27b8a7b2_Images/65412ca42e0e2fbb27b8a7b2_Image_23.jpeg,liked,3.79605092,,,,,,,,,,,,,,,,,,,,,
,,65412ca42e0e2fbb27b8a7b2,2024-07-05_10h42.04.662,WTP_SM_Choice,2022.2.1,Win32,58.82352941,,,,,space,3.851,NAN,,NAN,1.44,4.56,,0,66,66,66,1,67,Alex,Rej,Participant_Images/65412ca42e0e2fbb27b8a7b2/65412ca42e0e2fbb27b8a7b2_Images/65412ca42e0e2fbb27b8a7b2_Image_6.jpeg,did not like,3.562416326,,,,,,,,,,,,,,,,,,,,,
,,65412ca42e0e2fbb27b8a7b2,2024-07-05_10h42.04.662,WTP_SM_Choice,2022.2.1,Win32,58.82352941,,,,,space,5.387,NAN,,NAN,1.44,4.56,,0,67,67,67,1,68,Alex,Rej,Participant_Images/65412ca42e0e2fbb27b8a7b2/65412ca42e0e2fbb27b8a7b2_Images/65412ca42e0e2fbb27b8a7b2_Image_21.jpeg,did not like,2.843822497,,,,,,,,,,,,,,,,,,,,,
,,65412ca42e0e2fbb27b8a7b2,2024-07-05_10h42.04.662,WTP_SM_Choice,2022.2.1,Win32,58.82352941,,,,,space,6.269,NAN,,NAN,1.44,4.56,,0,68,68,68,1,69,Alex,Rej,Participant_Images/65412ca42e0e2fbb27b8a7b2/65412ca42e0e2fbb27b8a7b2_Images/65412ca42e0e2fbb27b8a7b2_Image_5.jpeg,did not like,3.546495948,,,,,,,,,,,,,,,,,,,,,
,,65412ca42e0e2fbb27b8a7b2,2024-07-05_10h42.04.662,WTP_SM_Choice,2022.2.1,Win32,58.82352941,,,,,,,,,,,,,,,,,,66,,,,,,space,6.9,space,0.502,0.01,1,1.374,0,0,0,0,1,play video games by myself,discuss business ideas with others,0.01,0.04,1.1,,,,
,,65412ca42e0e2fbb27b8a7b2,2024-07-05_10h42.04.662,WTP_SM_Choice,2022.2.1,Win32,58.82352941,,,,,,,,,,,,,,,,,,67,,,,,,,,,,0.02,1,2.329,0,1,1,1,1,scroll on social media by myself,play basketball with othersq,0.02,0.04,8.8,,,,
,,65412ca42e0e2fbb27b8a7b2,2024-07-05_10h42.04.662,WTP_SM_Choice,2022.2.1,Win32,58.82352941,,,,,,,,,,,,,,,,,,68,,,,,,,,,,0.03,1,3.709,0,2,2,2,1,trade stocks and crypto,play basketball with othersq,0.03,0.04,4.4,,,,
,,65412ca42e0e2fbb27b8a7b2,2024-07-05_10h42.04.662,WTP_SM_Choice,2022.2.1,Win32,58.82352941,,,,,,,,,,,,,,,,,,69,,,,,,,,,,0.04,2,2.696,0,3,3,3,1,practice basketball,discuss current events with others,0.04,0.04,1.1,,,,
,,65412ca42e0e2fbb27b8a7b2,2024-07-05_10h42.04.662,WTP_SM_Choice,2022.2.1,Win32,58.82352941,,,,,,,,,,,,,,,,,,70,,,,,,,,,,0.04,2,4.242,0,4,4,4,1,earn money,wrestle with others,0.05,0.04,1.1,,,,
,,65412ca42e0e2fbb27b8a7b2,2024-07-05_10h42.04.662,WTP_SM_Choice,2022.2.1,Win32,58.82352941,,,,,,,NAN,,NAN,1.58,4.42,,0,69,69,69,1,70,Alex,Rej,Participant_Images/65412ca42e0e2fbb27b8a7b2/65412ca42e0e2fbb27b8a7b2_Images/65412ca42e0e2fbb27b8a7b2_Image_19.jpeg,did not like,1.672012706,,,,,,,,,,,,,,,,,,,,,
,,65412ca42e0e2fbb27b8a7b2,2024-07-05_10h42.04.662,WTP_SM_Choice,2022.2.1,Win32,58.82352941,,,,,space,5.493,NAN,,NAN,1.58,4.42,,0,70,70,70,1,71,Alex,Rej,Participant_Images/65412ca42e0e2fbb27b8a7b2/65412ca42e0e2fbb27b8a7b2_Images/65412ca42e0e2fbb27b8a7b2_Image_7.jpeg,did not like,4.942172136,,,,,,,,,,,,,,,,,,,,,
,,65412ca42e0e2fbb27b8a7b2,2024-07-05_10h42.04.662,WTP_SM_Choice,2022.2.1,Win32,58.82352941,,,,,space,4.584,NAN,,NAN,1.58,4.42,,0,71,71,71,1,72,Alex,Rej,Participant_Images/65412ca42e0e2fbb27b8a7b2/65412ca42e0e2fbb27b8a7b2_Images/65412ca42e0e2fbb27b8a7b2_Image_8.jpeg,did not like,2.50187214,,,,,,,,,,,,,,,,,,,,,
,,65412ca42e0e2fbb27b8a7b2,2024-07-05_10h42.04.662,WTP_SM_Choice,2022.2.1,Win32,58.82352941,,,,,space,2.494,NAN,,NAN,1.58,4.42,,0,72,72,72,1,73,Alex,Rej,Participant_Images/65412ca42e0e2fbb27b8a7b2/65412ca42e0e2fbb27b8a7b2_Images/65412ca42e0e2fbb27b8a7b2_Image_1.jpeg,did not like,2.071164779,,,,,,,,,,,,,,,,,,,,,
,,65412ca42e0e2fbb27b8a7b2,2024-07-05_10h42.04.662,WTP_SM_Choice,2022.2.1,Win32,58.82352941,,,,,space,14.111,NAN,,NAN,1.58,4.42,,0,73,73,73,1,74,Alex,Rej,Participant_Images/65412ca42e0e2fbb27b8a7b2/65412ca42e0e2fbb27b8a7b2_Images/65412ca42e0e2fbb27b8a7b2_Image_9.jpeg,did not like,5.336503566,,,,,,,,,,,,,,,,,,,,,
,,65412ca42e0e2fbb27b8a7b2,2024-07-05_10h42.04.662,WTP_SM_Choice,2022.2.1,Win32,58.82352941,,,,,,,,,,,,,,,,,,71,,,,,,space,10.039,space,2.803,0.01,1,1.161,0,0,0,0,1,trade stocks and crypto,discuss business ideas with others,0.01,0.05,3.3,,,,
,,65412ca42e0e2fbb27b8a7b2,2024-07-05_10h42.04.662,WTP_SM_Choice,2022.2.1,Win32,58.82352941,,,,,,,,,,,,,,,,,,72,,,,,,,,,,0.02,1,1.434,0,1,1,1,1,participate in a fantasy league of basketball,discuss current events with others,0.02,0.05,8.8,,,,
,,65412ca42e0e2fbb27b8a7b2,2024-07-05_10h42.04.662,WTP_SM_Choice,2022.2.1,Win32,58.82352941,,,,,,,,,,,,,,,,,,73,,,,,,,,,,0.03,1,2.042,0,2,2,2,1,scroll on social media by myself,eat with others,0.03,0.05,3.3,,,,
,,65412ca42e0e2fbb27b8a7b2,2024-07-05_10h42.04.662,WTP_SM_Choice,2022.2.1,Win32,58.82352941,,,,,,,,,,,,,,,,,,74,,,,,,,,,,0.04,1,3.192,0,3,3,3,1,practice basketball,wrestle with others,0.04,0.05,4.4,,,,
,,65412ca42e0e2fbb27b8a7b2,2024-07-05_10h42.04.662,WTP_SM_Choice,2022.2.1,Win32,58.82352941,,,,,,,,,,,,,,,,,,75,,,,,,,,,,,,,0,4,4,4,1,trade stocks and crypto,play with my little brothers,0.05,0.05,3.3,,,,
,,65412ca42e0e2fbb27b8a7b2,2024-07-05_10h42.04.662,WTP_SM_Choice,2022.2.1,Win32,58.82352941,,,,,,,3,,9,1.68,4.32,,0,74,74,74,1,75,Alex,Rej,Participant_Images/65412ca42e0e2fbb27b8a7b2/65412ca42e0e2fbb27b8a7b2_Images/65412ca42e0e2fbb27b8a7b2_Image_11.jpeg,did not like,2.642157193,,,,,,,,,,,,,,,,,,space,4.206,,
,,65412ca42e0e2fbb27b8a7b2,2024-07-05_10h42.04.662,WTP_SM_Choice,2022.2.1,Win32,58.82352941,,,space,4.034,space,2.454,NAN,,NAN,1.68,4.32,,0,75,75,75,1,76,Charlie,Rej,Participant_Images/65412ca42e0e2fbb27b8a7b2/65412ca42e0e2fbb27b8a7b2_Images/65412ca42e0e2fbb27b8a7b2_Image_24.jpeg,did not like,4.456234322,,,,,,,,,,,,,,,,,,,,,
,,65412ca42e0e2fbb27b8a7b2,2024-07-05_10h42.04.662,WTP_SM_Choice,2022.2.1,Win32,58.82352941,,,,,space,4.738,NAN,,NAN,1.68,4.32,,0,76,76,76,1,77,Charlie,Rej,Participant_Images/65412ca42e0e2fbb27b8a7b2/65412ca42e0e2fbb27b8a7b2_Images/65412ca42e0e2fbb27b8a7b2_Image_15.jpeg,did not like,4.438512181,,,,,,,,,,,,,,,,,,,,,
,,65412ca42e0e2fbb27b8a7b2,2024-07-05_10h42.04.662,WTP_SM_Choice,2022.2.1,Win32,58.82352941,,,,,space,5.441,NAN,,NAN,1.68,4.32,,0,77,77,77,1,78,Charlie,Rej,Participant_Images/65412ca42e0e2fbb27b8a7b2/65412ca42e0e2fbb27b8a7b2_Images/65412ca42e0e2fbb27b8a7b2_Image_1.jpeg,did not like,2.682944783,,,,,,,,,,,,,,,,,,,,,
,,65412ca42e0e2fbb27b8a7b2,2024-07-05_10h42.04.662,WTP_SM_Choice,2022.2.1,Win32,58.82352941,,,,,space,1.105,NAN,,NAN,1.68,4.32,,0,78,78,78,1,79,Charlie,Rej,Participant_Images/65412ca42e0e2fbb27b8a7b2/65412ca42e0e2fbb27b8a7b2_Images/65412ca42e0e2fbb27b8a7b2_Image_6.jpeg,did not like,4.51984296,,,,,,,,,,,,,,,,,,,,,
,,65412ca42e0e2fbb27b8a7b2,2024-07-05_10h42.04.662,WTP_SM_Choice,2022.2.1,Win32,58.82352941,,,,,,,,,,,,,,,,,,76,,,,,,space,4.403,space,4.968,0.01,1,2.742,0,0,0,0,1,invest in clothes,talk with others,0.01,0.01,1.1,,,,
,,65412ca42e0e2fbb27b8a7b2,2024-07-05_10h42.04.662,WTP_SM_Choice,2022.2.1,Win32,58.82352941,,,,,,,,,,,,,,,,,,77,,,,,,,,,,0.01,2,1.255,0,1,1,1,1,participate in a fantasy league of basketball,talk with others,0.02,0.01,8.8,,,,
,,65412ca42e0e2fbb27b8a7b2,2024-07-05_10h42.04.662,WTP_SM_Choice,2022.2.1,Win32,58.82352941,,,,,,,,,,,,,,,,,,78,,,,,,,,,,0.01,2,0.903,0,2,2,2,1,invest in clothes,watch basketball with others,0.03,0.01,1.1,,,,
,,65412ca42e0e2fbb27b8a7b2,2024-07-05_10h42.04.662,WTP_SM_Choice,2022.2.1,Win32,58.82352941,,,,,,,,,,,,,,,,,,79,,,,,,,,,,0.01,2,1.002,0,3,3,3,1,earn money,play with my little brothers,0.04,0.01,1.1,,,,
,,65412ca42e0e2fbb27b8a7b2,2024-07-05_10h42.04.662,WTP_SM_Choice,2022.2.1,Win32,58.82352941,,,,,,,,,,,,,,,,,,80,,,,,,,,,,0.01,2,3.704,0,4,4,4,1,invest in clothes,wrestle with others,0.05,0.01,4.4,,,,
,,65412ca42e0e2fbb27b8a7b2,2024-07-05_10h42.04.662,WTP_SM_Choice,2022.2.1,Win32,58.82352941,,,,,,,NAN,,NAN,1.73,4.27,,0,79,79,79,1,80,Charlie,Rej,Participant_Images/65412ca42e0e2fbb27b8a7b2/65412ca42e0e2fbb27b8a7b2_Images/65412ca42e0e2fbb27b8a7b2_Image_3.jpeg,liked,3.195382774,,,,,,,,,,,,,,,,,,,,,
,,65412ca42e0e2fbb27b8a7b2,2024-07-05_10h42.04.662,WTP_SM_Choice,2022.2.1,Win32,58.82352941,,,,,space,2.916,NAN,,NAN,1.73,4.27,,0,80,80,80,1,81,Charlie,Rej,Participant_Images/65412ca42e0e2fbb27b8a7b2/65412ca42e0e2fbb27b8a7b2_Images/65412ca42e0e2fbb27b8a7b2_Image_8.jpeg,liked,1.779333479,,,,,,,,,,,,,,,,,,,,,
,,65412ca42e0e2fbb27b8a7b2,2024-07-05_10h42.04.662,WTP_SM_Choice,2022.2.1,Win32,58.82352941,,,,,space,0.733,NAN,,NAN,1.73,4.27,,0,81,81,81,1,82,Charlie,Rej,Participant_Images/65412ca42e0e2fbb27b8a7b2/65412ca42e0e2fbb27b8a7b2_Images/65412ca42e0e2fbb27b8a7b2_Image_4.jpeg,did not like,4.312468682,,,,,,,,,,,,,,,,,,,,,
,,65412ca42e0e2fbb27b8a7b2,2024-07-05_10h42.04.662,WTP_SM_Choice,2022.2.1,Win32,58.82352941,,,,,space,2.309,NAN,,NAN,1.73,4.27,,0,82,82,82,1,83,Charlie,Rej,Participant_Images/65412ca42e0e2fbb27b8a7b2/65412ca42e0e2fbb27b8a7b2_Images/65412ca42e0e2fbb27b8a7b2_Image_17.jpeg,liked,4.940433059,,,,,,,,,,,,,,,,,,,,,
,,65412ca42e0e2fbb27b8a7b2,2024-07-05_10h42.04.662,WTP_SM_Choice,2022.2.1,Win32,58.82352941,,,,,space,0.496,NAN,,NAN,1.73,4.27,,0,83,83,83,1,84,Charlie,Rej,Participant_Images/65412ca42e0e2fbb27b8a7b2/65412ca42e0e2fbb27b8a7b2_Images/65412ca42e0e2fbb27b8a7b2_Image_9.jpeg,liked,2.7105123,,,,,,,,,,,,,,,,,,,,,
,,65412ca42e0e2fbb27b8a7b2,2024-07-05_10h42.04.662,WTP_SM_Choice,2022.2.1,Win32,58.82352941,,,,,,,,,,,,,,,,,,81,,,,,,space,0.985,space,1.291,0.01,1,1.43,0,0,0,0,1,play video games by myself,watch videos with others,0.01,0.02,3.3,,,,
,,65412ca42e0e2fbb27b8a7b2,2024-07-05_10h42.04.662,WTP_SM_Choice,2022.2.1,Win32,58.82352941,,,,,,,,,,,,,,,,,,82,,,,,,,,,,0.02,1,1.29,0,1,1,1,1,earn money,eat with others,0.02,0.02,4.4,,,,
,,65412ca42e0e2fbb27b8a7b2,2024-07-05_10h42.04.662,WTP_SM_Choice,2022.2.1,Win32,58.82352941,,,,,,,,,,,,,,,,,,83,,,,,,,,,,0.02,2,1.395,0,2,2,2,1,earn money,run with others,0.03,0.02,1.1,,,,
,,65412ca42e0e2fbb27b8a7b2,2024-07-05_10h42.04.662,WTP_SM_Choice,2022.2.1,Win32,58.82352941,,,,,,,,,,,,,,,,,,84,,,,,,,,,,0.02,2,1.34,0,3,3,3,1,earn money,discuss current events with others,0.04,0.02,3.3,,,,
,,65412ca42e0e2fbb27b8a7b2,2024-07-05_10h42.04.662,WTP_SM_Choice,2022.2.1,Win32,58.82352941,,,,,,,,,,,,,,,,,,85,,,,,,,,,,0.02,2,2.078,0,4,4,4,1,trade stocks and crypto,watch basketball with others,0.05,0.02,3.3,,,,
,,65412ca42e0e2fbb27b8a7b2,2024-07-05_10h42.04.662,WTP_SM_Choice,2022.2.1,Win32,58.82352941,,,,,,,NAN,,NAN,1.82,4.18,,0,84,84,84,1,85,Charlie,Rej,Participant_Images/65412ca42e0e2fbb27b8a7b2/65412ca42e0e2fbb27b8a7b2_Images/65412ca42e0e2fbb27b8a7b2_Image_12.jpeg,did not like,3.602308302,,,,,,,,,,,,,,,,,,,,,
,,65412ca42e0e2fbb27b8a7b2,2024-07-05_10h42.04.662,WTP_SM_Choice,2022.2.1,Win32,58.82352941,,,,,space,0.725,NAN,,NAN,1.82,4.18,,0,85,85,85,1,86,Charlie,Rej,Participant_Images/65412ca42e0e2fbb27b8a7b2/65412ca42e0e2fbb27b8a7b2_Images/65412ca42e0e2fbb27b8a7b2_Image_10.jpeg,liked,4.106391878,,,,,,,,,,,,,,,,,,,,,
,,65412ca42e0e2fbb27b8a7b2,2024-07-05_10h42.04.662,WTP_SM_Choice,2022.2.1,Win32,58.82352941,,,,,space,2.229,NAN,,NAN,1.82,4.18,,0,86,86,86,1,87,Charlie,Rej,Participant_Images/65412ca42e0e2fbb27b8a7b2/65412ca42e0e2fbb27b8a7b2_Images/65412ca42e0e2fbb27b8a7b2_Image_13.jpeg,did not like,3.799433026,,,,,,,,,,,,,,,,,,,,,
,,65412ca42e0e2fbb27b8a7b2,2024-07-05_10h42.04.662,WTP_SM_Choice,2022.2.1,Win32,58.82352941,,,,,space,1.186,NAN,,NAN,1.82,4.18,,0,87,87,87,1,88,Charlie,Rej,Participant_Images/65412ca42e0e2fbb27b8a7b2/65412ca42e0e2fbb27b8a7b2_Images/65412ca42e0e2fbb27b8a7b2_Image_25.jpeg,did not like,5.246980764,,,,,,,,,,,,,,,,,,,,,
,,65412ca42e0e2fbb27b8a7b2,2024-07-05_10h42.04.662,WTP_SM_Choice,2022.2.1,Win32,58.82352941,,,,,space,3.492,NAN,,NAN,1.82,4.18,,0,88,88,88,1,89,Charlie,Rej,Participant_Images/65412ca42e0e2fbb27b8a7b2/65412ca42e0e2fbb27b8a7b2_Images/65412ca42e0e2fbb27b8a7b2_Image_22.jpeg,did not like,3.30081769,,,,,,,,,,,,,,,,,,,,,
,,65412ca42e0e2fbb27b8a7b2,2024-07-05_10h42.04.662,WTP_SM_Choice,2022.2.1,Win32,58.82352941,,,,,,,,,,,,,,,,,,86,,,,,,space,1.099,space,1.576,0.01,1,1.4,0,0,0,0,1,participate in a fantasy league of football,watch videos with others,0.01,0.03,1.1,,,,
,,65412ca42e0e2fbb27b8a7b2,2024-07-05_10h42.04.662,WTP_SM_Choice,2022.2.1,Win32,58.82352941,,,,,,,,,,,,,,,,,,87,,,,,,,,,,0.02,1,1.212,0,1,1,1,1,watch basketball,watch basketball with others,0.02,0.03,4.4,,,,
,,65412ca42e0e2fbb27b8a7b2,2024-07-05_10h42.04.662,WTP_SM_Choice,2022.2.1,Win32,58.82352941,,,,,,,,,,,,,,,,,,88,,,,,,,,,,0.03,2,4.749,0,2,2,2,1,watch basketball,run with others,0.03,0.03,1.1,,,,
,,65412ca42e0e2fbb27b8a7b2,2024-07-05_10h42.04.662,WTP_SM_Choice,2022.2.1,Win32,58.82352941,,,,,,,,,,,,,,,,,,89,,,,,,,,,,0.03,2,4.261,0,3,3,3,1,earn money,watch videos with others,0.04,0.03,3.3,,,,
,,65412ca42e0e2fbb27b8a7b2,2024-07-05_10h42.04.662,WTP_SM_Choice,2022.2.1,Win32,58.82352941,,,,,,,,,,,,,,,,,,90,,,,,,,,,,0.03,2,9.076,0,4,4,4,1,read online,run with others,0.05,0.03,8.8,,,,
,,65412ca42e0e2fbb27b8a7b2,2024-07-05_10h42.04.662,WTP_SM_Choice,2022.2.1,Win32,58.82352941,,,,,,,NAN,,NAN,1.94,4.06,,0,89,89,89,1,90,Charlie,Rej,Participant_Images/65412ca42e0e2fbb27b8a7b2/65412ca42e0e2fbb27b8a7b2_Images/65412ca42e0e2fbb27b8a7b2_Image_14.jpeg,did not like,1.661473164,,,,,,,,,,,,,,,,,,,,,
,,65412ca42e0e2fbb27b8a7b2,2024-07-05_10h42.04.662,WTP_SM_Choice,2022.2.1,Win32,58.82352941,,,,,space,0.921,NAN,,NAN,1.94,4.06,,0,90,90,90,1,91,Charlie,Rej,Participant_Images/65412ca42e0e2fbb27b8a7b2/65412ca42e0e2fbb27b8a7b2_Images/65412ca42e0e2fbb27b8a7b2_Image_23.jpeg,did not like,3.613205605,,,,,,,,,,,,,,,,,,,,,
,,65412ca42e0e2fbb27b8a7b2,2024-07-05_10h42.04.662,WTP_SM_Choice,2022.2.1,Win32,58.82352941,,,,,space,0.377,NAN,,NAN,1.94,4.06,,0,91,91,91,1,92,Charlie,Rej,Participant_Images/65412ca42e0e2fbb27b8a7b2/65412ca42e0e2fbb27b8a7b2_Images/65412ca42e0e2fbb27b8a7b2_Image_2.jpeg,liked,4.988446431,,,,,,,,,,,,,,,,,,,,,
,,65412ca42e0e2fbb27b8a7b2,2024-07-05_10h42.04.662,WTP_SM_Choice,2022.2.1,Win32,58.82352941,,,,,space,0.407,NAN,,NAN,1.94,4.06,,0,92,92,92,1,93,Charlie,Rej,Participant_Images/65412ca42e0e2fbb27b8a7b2/65412ca42e0e2fbb27b8a7b2_Images/65412ca42e0e2fbb27b8a7b2_Image_21.jpeg,liked,3.470791822,,,,,,,,,,,,,,,,,,,,,
,,65412ca42e0e2fbb27b8a7b2,2024-07-05_10h42.04.662,WTP_SM_Choice,2022.2.1,Win32,58.82352941,,,,,space,1.754,NAN,,NAN,1.94,4.06,,0,93,93,93,1,94,Charlie,Rej,Participant_Images/65412ca42e0e2fbb27b8a7b2/65412ca42e0e2fbb27b8a7b2_Images/65412ca42e0e2fbb27b8a7b2_Image_7.jpeg,did not like,3.820572462,,,,,,,,,,,,,,,,,,,,,
,,65412ca42e0e2fbb27b8a7b2,2024-07-05_10h42.04.662,WTP_SM_Choice,2022.2.1,Win32,58.82352941,,,,,,,,,,,,,,,,,,91,,,,,,space,3.134,space,2.218,0.01,1,1.152,0,0,0,0,1,participate in a fantasy league of basketball,eat with others,0.01,0.04,3.3,,,,
,,65412ca42e0e2fbb27b8a7b2,2024-07-05_10h42.04.662,WTP_SM_Choice,2022.2.1,Win32,58.82352941,,,,,,,,,,,,,,,,,,92,,,,,,,,,,0.04,2,1.141,0,1,1,1,1,participate in a fantasy league of basketball,play with my little brothers,0.02,0.04,8.8,,,,
,,65412ca42e0e2fbb27b8a7b2,2024-07-05_10h42.04.662,WTP_SM_Choice,2022.2.1,Win32,58.82352941,,,,,,,,,,,,,,,,,,93,,,,,,,,,,0.03,1,2.49,0,2,2,2,1,earn money,watch basketball with others,0.03,0.04,1.1,,,,
,,65412ca42e0e2fbb27b8a7b2,2024-07-05_10h42.04.662,WTP_SM_Choice,2022.2.1,Win32,58.82352941,,,,,,,,,,,,,,,,,,94,,,,,,,,,,0.04,1,4.627,0,3,3,3,1,earn money,talk with others,0.04,0.04,4.4,,,,
,,65412ca42e0e2fbb27b8a7b2,2024-07-05_10h42.04.662,WTP_SM_Choice,2022.2.1,Win32,58.82352941,,,,,,,,,,,,,,,,,,95,,,,,,,,,,0.04,2,1.844,0,4,4,4,1,participate in a fantasy league of football,watch basketball with others,0.05,0.04,4.4,,,,
,,65412ca42e0e2fbb27b8a7b2,2024-07-05_10h42.04.662,WTP_SM_Choice,2022.2.1,Win32,58.82352941,,,,,,,NAN,,NAN,2.1,3.9,,0,94,94,94,1,95,Charlie,Rej,Participant_Images/65412ca42e0e2fbb27b8a7b2/65412ca42e0e2fbb27b8a7b2_Images/65412ca42e0e2fbb27b8a7b2_Image_5.jpeg,did not like,2.455989137,,,,,,,,,,,,,,,,,,,,,
,,65412ca42e0e2fbb27b8a7b2,2024-07-05_10h42.04.662,WTP_SM_Choice,2022.2.1,Win32,58.82352941,,,,,space,3.905,NAN,,NAN,2.1,3.9,,0,95,95,95,1,96,Charlie,Rej,Participant_Images/65412ca42e0e2fbb27b8a7b2/65412ca42e0e2fbb27b8a7b2_Images/65412ca42e0e2fbb27b8a7b2_Image_11.jpeg,did not like,3.79605092,,,,,,,,,,,,,,,,,,,,,
,,65412ca42e0e2fbb27b8a7b2,2024-07-05_10h42.04.662,WTP_SM_Choice,2022.2.1,Win32,58.82352941,,,,,space,4.101,NAN,,NAN,2.1,3.9,,0,96,96,96,1,97,Charlie,Rej,Participant_Images/65412ca42e0e2fbb27b8a7b2/65412ca42e0e2fbb27b8a7b2_Images/65412ca42e0e2fbb27b8a7b2_Image_18.jpeg,did not like,3.562416326,,,,,,,,,,,,,,,,,,,,,
,,65412ca42e0e2fbb27b8a7b2,2024-07-05_10h42.04.662,WTP_SM_Choice,2022.2.1,Win32,58.82352941,,,,,space,3.021,NAN,,NAN,2.1,3.9,,0,97,97,97,1,98,Charlie,Rej,Participant_Images/65412ca42e0e2fbb27b8a7b2/65412ca42e0e2fbb27b8a7b2_Images/65412ca42e0e2fbb27b8a7b2_Image_20.jpeg,did not like,2.843822497,,,,,,,,,,,,,,,,,,,,,
,,65412ca42e0e2fbb27b8a7b2,2024-07-05_10h42.04.662,WTP_SM_Choice,2022.2.1,Win32,58.82352941,,,,,space,1.837,NAN,,NAN,2.1,3.9,,0,98,98,98,1,99,Charlie,Rej,Participant_Images/65412ca42e0e2fbb27b8a7b2/65412ca42e0e2fbb27b8a7b2_Images/65412ca42e0e2fbb27b8a7b2_Image_16.jpeg,did not like,3.546495948,,,,,,,,,,,,,,,,,,,,,
,,65412ca42e0e2fbb27b8a7b2,2024-07-05_10h42.04.662,WTP_SM_Choice,2022.2.1,Win32,58.82352941,,,,,,,,,,,,,,,,,,96,,,,,,space,2.96,space,0.352,0.05,2,0.868,0,0,0,0,1,watch basketball,eat with others,0.01,0.05,3.3,,,,
,,65412ca42e0e2fbb27b8a7b2,2024-07-05_10h42.04.662,WTP_SM_Choice,2022.2.1,Win32,58.82352941,,,,,,,,,,,,,,,,,,97,,,,,,,,,,0.02,1,1.823,0,1,1,1,1,participate in a fantasy league of football,play with my little brothers,0.02,0.05,1.1,,,,
,,65412ca42e0e2fbb27b8a7b2,2024-07-05_10h42.04.662,WTP_SM_Choice,2022.2.1,Win32,58.82352941,,,,,,,,,,,,,,,,,,98,,,,,,,,,,0.03,1,1.009,0,2,2,2,1,read online,talk with others,0.03,0.05,1.1,,,,
,,65412ca42e0e2fbb27b8a7b2,2024-07-05_10h42.04.662,WTP_SM_Choice,2022.2.1,Win32,58.82352941,,,,,,,,,,,,,,,,,,99,,,,,,,,,,0.04,1,0.856,0,3,3,3,1,practice basketball,eat with others,0.04,0.05,3.3,,,,
,,65412ca42e0e2fbb27b8a7b2,2024-07-05_10h42.04.662,WTP_SM_Choice,2022.2.1,Win32,58.82352941,,,,,,,,,,,,,,,,,,100,,,,,,,,,,0.05,1,1.963,0,4,4,4,1,play video games by myself,wrestle with others,0.05,0.05,4.4,,,,
,,65412ca42e0e2fbb27b8a7b2,2024-07-05_10h42.04.662,WTP_SM_Choice,2022.2.1,Win32,58.82352941,,,,,,,2,,9,2.29,3.71,,0,99,99,99,1,100,Charlie,Rej,Participant_Images/65412ca42e0e2fbb27b8a7b2/65412ca42e0e2fbb27b8a7b2_Images/65412ca42e0e2fbb27b8a7b2_Image_19.jpeg,did not like,1.672012706,,,,,,,,,,,,,,,,,,space,0.802,,
,,65412ca42e0e2fbb27b8a7b2,2024-07-05_10h42.04.662,WTP_SM_Choice,2022.2.1,Win32,58.82352941,,,,,,,,,,,,,,,,,,,,,,,,,,,,,,,,,,,,,,,,,,,space,1.088
