endwelcomescreen_keys.keys,endwelcomescreen_keys.rt,participant,date,expName,psychopyVersion,OS,frameRate,endinstructionscreen_keys.keys,endinstructionscreen_keys.rt,endpartnermatch_keys.keys,endpartnermatch_keys.rt,sharenextphoto_key.keys,sharenextphoto_key.rt,salience_rating,key_resp.keys,stress_level,subtract_bonus,TOTAL_TASK_BONUS,stresslevel_keypress.keys,entiretaskloop.thisRepN,entiretaskloop.thisTrialN,entiretaskloop.thisN,entiretaskloop.thisIndex,entiretaskloop.ran,TrialNumber,Partner,Condition,Photos,Feedback,FeedbackWait,WTP_ins_keys1.keys,WTP_ins_keys1.rt,WTP_ins_keys2.keys,WTP_ins_keys2.rt,decision_price,responses.keys,responses.rt,WTPTaskLoop.thisRepN,WTPTaskLoop.thisTrialN,WTPTaskLoop.thisN,WTPTaskLoop.thisIndex,WTPTaskLoop.ran,right,left,leftmoney,rightmoney,WTP_ITI,social_left,Resume_keys.keys,Resume_keys.rt,end_screen_keys.keys,end_screen_keys.rt
space,6.8704,655e0b698915e40faa8002f2,2024-10-06_15h54.31.885,WTP_SM_Choice,2022.2.1,Win32,30.12048193,,,,,,,,,,,,,,,,,,,,,,,,,,,,,,,,,,,,,,,,,,,,,
,,655e0b698915e40faa8002f2,2024-10-06_15h54.31.885,WTP_SM_Choice,2022.2.1,Win32,30.12048193,space,15.2194,,,,,,,,,,,,,,,,,,,,,,,,,,,,,,,,,,,,,,,,,,,
,,655e0b698915e40faa8002f2,2024-10-06_15h54.31.885,WTP_SM_Choice,2022.2.1,Win32,30.12048193,,,space,14.9668,space,1.9007,NAN,,NAN,0,6,,0,0,0,0,1,1,Charlie,Rej,Participant_Images/655e0b698915e40faa8002f2/655e0b698915e40faa8002f2_Images/655e0b698915e40faa8002f2_Image_4.jpeg,liked,3.613205605,,,,,,,,,,,,,,,,,,,,,,
,,655e0b698915e40faa8002f2,2024-10-06_15h54.31.885,WTP_SM_Choice,2022.2.1,Win32,30.12048193,,,,,space,56.7731,NAN,,NAN,0,6,,0,1,1,1,1,2,Charlie,Rej,Participant_Images/655e0b698915e40faa8002f2/655e0b698915e40faa8002f2_Images/655e0b698915e40faa8002f2_Image_13.jpeg,did not like,4.988446431,,,,,,,,,,,,,,,,,,,,,,
,,655e0b698915e40faa8002f2,2024-10-06_15h54.31.885,WTP_SM_Choice,2022.2.1,Win32,30.12048193,,,,,space,0.6178,NAN,,NAN,0,6,,0,2,2,2,1,3,Charlie,Rej,Participant_Images/655e0b698915e40faa8002f2/655e0b698915e40faa8002f2_Images/655e0b698915e40faa8002f2_Image_6.jpeg,liked,3.470791822,,,,,,,,,,,,,,,,,,,,,,
,,655e0b698915e40faa8002f2,2024-10-06_15h54.31.885,WTP_SM_Choice,2022.2.1,Win32,30.12048193,,,,,space,628.2186,NAN,,NAN,0,6,,0,3,3,3,1,4,Charlie,Rej,Participant_Images/655e0b698915e40faa8002f2/655e0b698915e40faa8002f2_Images/655e0b698915e40faa8002f2_Image_8.jpeg,did not like,3.820572462,,,,,,,,,,,,,,,,,,,,,,
,,655e0b698915e40faa8002f2,2024-10-06_15h54.31.885,WTP_SM_Choice,2022.2.1,Win32,30.12048193,,,,,,,,,,,,,,,,,,1,,,,,,space,52.4241,space,6.2268,0.01,1,5.185,0,0,0,0,1,Cook a big meal together with my significant other in the kitchen on a weekend evening,listening to jackie hill  and preston perrys podcasts,0.01,0.01,4.4,0,,,,
,,655e0b698915e40faa8002f2,2024-10-06_15h54.31.885,WTP_SM_Choice,2022.2.1,Win32,30.12048193,,,,,,,,,,,,,,,,,,2,,,,,,,,,,0.01,2,5.3443,0,1,1,1,1,Play board games with friends in a cozy living room on a rainy saturday afternoon,watch netflix on the couch,0.02,0.01,8.8,0,,,,
,,655e0b698915e40faa8002f2,2024-10-06_15h54.31.885,WTP_SM_Choice,2022.2.1,Win32,30.12048193,,,,,,,,,,,,,,,,,,3,,,,,,,,,,0.03,1,4.1366,0,2,2,2,1,Attend a study session with classmates at a coffee shop on a wednesday evening,eat snacks in the bed ,0.03,0.01,3.3,0,,,,
,,655e0b698915e40faa8002f2,2024-10-06_15h54.31.885,WTP_SM_Choice,2022.2.1,Win32,30.12048193,,,,,,,,,,,,,,,,,,4,,,,,,,,,,0.04,1,3.7983,0,3,3,3,1,sit on my patio in the hot afternoon,Explore a local farmers market with my family on a sunny weekend morning,0.04,0.01,1.1,1,,,,
,,655e0b698915e40faa8002f2,2024-10-06_15h54.31.885,WTP_SM_Choice,2022.2.1,Win32,30.12048193,,,,,,,,,,,,,,,,,,5,,,,,,,,,,0.05,1,3.7822,0,4,4,4,1,eat snacks in the bed ,Explore a local farmers market with my family on a sunny weekend morning,0.05,0.01,1.1,1,,,,
,,655e0b698915e40faa8002f2,2024-10-06_15h54.31.885,WTP_SM_Choice,2022.2.1,Win32,30.12048193,,,,,,,NAN,,NAN,0.14,5.86,,0,4,4,4,1,5,Charlie,Rej,Participant_Images/655e0b698915e40faa8002f2/655e0b698915e40faa8002f2_Images/655e0b698915e40faa8002f2_Image_20.jpeg,did not like,2.455989137,,,,,,,,,,,,,,,,,,,,,,
,,655e0b698915e40faa8002f2,2024-10-06_15h54.31.885,WTP_SM_Choice,2022.2.1,Win32,30.12048193,,,,,space,9.9521,NAN,,NAN,0.14,5.86,,0,5,5,5,1,6,Charlie,Rej,Participant_Images/655e0b698915e40faa8002f2/655e0b698915e40faa8002f2_Images/655e0b698915e40faa8002f2_Image_24.jpeg,did not like,3.79605092,,,,,,,,,,,,,,,,,,,,,,
,,655e0b698915e40faa8002f2,2024-10-06_15h54.31.885,WTP_SM_Choice,2022.2.1,Win32,30.12048193,,,,,space,1.4905,NAN,,NAN,0.14,5.86,,0,6,6,6,1,7,Charlie,Rej,Participant_Images/655e0b698915e40faa8002f2/655e0b698915e40faa8002f2_Images/655e0b698915e40faa8002f2_Image_21.jpeg,did not like,3.562416326,,,,,,,,,,,,,,,,,,,,,,
,,655e0b698915e40faa8002f2,2024-10-06_15h54.31.885,WTP_SM_Choice,2022.2.1,Win32,30.12048193,,,,,space,2.4326,NAN,,NAN,0.14,5.86,,0,7,7,7,1,8,Charlie,Rej,Participant_Images/655e0b698915e40faa8002f2/655e0b698915e40faa8002f2_Images/655e0b698915e40faa8002f2_Image_15.jpeg,did not like,2.843822497,,,,,,,,,,,,,,,,,,,,,,
,,655e0b698915e40faa8002f2,2024-10-06_15h54.31.885,WTP_SM_Choice,2022.2.1,Win32,30.12048193,,,,,space,6.7959,NAN,,NAN,0.14,5.86,,0,8,8,8,1,9,Charlie,Rej,Participant_Images/655e0b698915e40faa8002f2/655e0b698915e40faa8002f2_Images/655e0b698915e40faa8002f2_Image_12.jpeg,did not like,3.546495948,,,,,,,,,,,,,,,,,,,,,,
,,655e0b698915e40faa8002f2,2024-10-06_15h54.31.885,WTP_SM_Choice,2022.2.1,Win32,30.12048193,,,,,,,,,,,,,,,,,,6,,,,,,space,223.7987,space,360.3375,0.01,1,1.8148,0,0,0,0,1,watch netflix on the couch,Attend a study session with classmates at a coffee shop on a wednesday evening,0.01,0.02,3.3,1,,,,
,,655e0b698915e40faa8002f2,2024-10-06_15h54.31.885,WTP_SM_Choice,2022.2.1,Win32,30.12048193,,,,,,,,,,,,,,,,,,7,,,,,,,,,,0.02,2,3.3086,0,1,1,1,1,laugh at my favorite comedy specials on netflix,Have deep conversations with close friends around a campfire on a chilly night,0.02,0.02,1.1,1,,,,
,,655e0b698915e40faa8002f2,2024-10-06_15h54.31.885,WTP_SM_Choice,2022.2.1,Win32,30.12048193,,,,,,,,,,,,,,,,,,8,,,,,,,,,,0.02,2,3.3743,0,2,2,2,1,Attend live music concerts with friends on a summer evening,listening to jackie hill  and preston perrys podcasts,0.03,0.02,1.1,0,,,,
,,655e0b698915e40faa8002f2,2024-10-06_15h54.31.885,WTP_SM_Choice,2022.2.1,Win32,30.12048193,,,,,,,,,,,,,,,,,,9,,,,,,,,,,0.02,2,4.1304,0,3,3,3,1,listen to music in my kids room,Watch a movie with my kids on a summer night in our backyard,0.04,0.02,4.4,1,,,,
,,655e0b698915e40faa8002f2,2024-10-06_15h54.31.885,WTP_SM_Choice,2022.2.1,Win32,30.12048193,,,,,,,,,,,,,,,,,,10,,,,,,,,,,0.02,2,2.2253,0,4,4,4,1,Walk along the beach with my significant other during sunset,watch netflix on the couch,0.05,0.02,1.1,0,,,,
,,655e0b698915e40faa8002f2,2024-10-06_15h54.31.885,WTP_SM_Choice,2022.2.1,Win32,30.12048193,,,,,,,NAN,,NAN,0.23,5.77,,0,9,9,9,1,10,Charlie,Rej,Participant_Images/655e0b698915e40faa8002f2/655e0b698915e40faa8002f2_Images/655e0b698915e40faa8002f2_Image_11.jpeg,did not like,1.672012706,,,,,,,,,,,,,,,,,,,,,,
,,655e0b698915e40faa8002f2,2024-10-06_15h54.31.885,WTP_SM_Choice,2022.2.1,Win32,30.12048193,,,,,space,1.3988,NAN,,NAN,0.23,5.77,,0,10,10,10,1,11,Charlie,Rej,Participant_Images/655e0b698915e40faa8002f2/655e0b698915e40faa8002f2_Images/655e0b698915e40faa8002f2_Image_23.jpeg,did not like,4.942172136,,,,,,,,,,,,,,,,,,,,,,
,,655e0b698915e40faa8002f2,2024-10-06_15h54.31.885,WTP_SM_Choice,2022.2.1,Win32,30.12048193,,,,,space,3.2531,NAN,,NAN,0.23,5.77,,0,11,11,11,1,12,Charlie,Rej,Participant_Images/655e0b698915e40faa8002f2/655e0b698915e40faa8002f2_Images/655e0b698915e40faa8002f2_Image_2.jpeg,did not like,2.50187214,,,,,,,,,,,,,,,,,,,,,,
,,655e0b698915e40faa8002f2,2024-10-06_15h54.31.885,WTP_SM_Choice,2022.2.1,Win32,30.12048193,,,,,space,1.1749,NAN,,NAN,0.23,5.77,,0,12,12,12,1,13,Charlie,Rej,Participant_Images/655e0b698915e40faa8002f2/655e0b698915e40faa8002f2_Images/655e0b698915e40faa8002f2_Image_10.jpeg,liked,2.071164779,,,,,,,,,,,,,,,,,,,,,,
,,655e0b698915e40faa8002f2,2024-10-06_15h54.31.885,WTP_SM_Choice,2022.2.1,Win32,30.12048193,,,,,space,5.4371,NAN,,NAN,0.23,5.77,,0,13,13,13,1,14,Charlie,Rej,Participant_Images/655e0b698915e40faa8002f2/655e0b698915e40faa8002f2_Images/655e0b698915e40faa8002f2_Image_16.jpeg,did not like,5.336503566,,,,,,,,,,,,,,,,,,,,,,
,,655e0b698915e40faa8002f2,2024-10-06_15h54.31.885,WTP_SM_Choice,2022.2.1,Win32,30.12048193,,,,,,,,,,,,,,,,,,11,,,,,,space,1.9142,space,0.7204,0.01,1,1.6003,0,0,0,0,1,Have deep conversations with close friends around a campfire on a chilly night,run errands on a sunny day,0.01,0.03,3.3,0,,,,
,,655e0b698915e40faa8002f2,2024-10-06_15h54.31.885,WTP_SM_Choice,2022.2.1,Win32,30.12048193,,,,,,,,,,,,,,,,,,12,,,,,,,,,,0.02,1,1.2913,0,1,1,1,1,Watch a movie with my kids on a summer night in our backyard,redecorate my bedroom in the spring time,0.02,0.03,4.4,0,,,,
,,655e0b698915e40faa8002f2,2024-10-06_15h54.31.885,WTP_SM_Choice,2022.2.1,Win32,30.12048193,,,,,,,,,,,,,,,,,,13,,,,,,,,,,,,,0,2,2,2,1,run errands on a sunny day,Walk along the beach with my significant other during sunset,0.03,0.03,1.1,1,,,,
,,655e0b698915e40faa8002f2,2024-10-06_15h54.31.885,WTP_SM_Choice,2022.2.1,Win32,30.12048193,,,,,,,,,,,,,,,,,,14,,,,,,,,,,,,,0,3,3,3,1,Watch a movie with my kids on a summer night in our backyard,eat snacks in the bed ,0.04,0.03,3.3,0,,,,
,,655e0b698915e40faa8002f2,2024-10-06_15h54.31.885,WTP_SM_Choice,2022.2.1,Win32,30.12048193,,,,,,,,,,,,,,,,,,15,,,,,,,,,,,,,0,4,4,4,1,Play board games with friends in a cozy living room on a rainy saturday afternoon,eat snacks in the bed ,0.05,0.03,4.4,0,,,,
,,655e0b698915e40faa8002f2,2024-10-06_15h54.31.885,WTP_SM_Choice,2022.2.1,Win32,30.12048193,,,,,,,NAN,,NAN,0.26,5.74,,0,14,14,14,1,15,Charlie,Rej,Participant_Images/655e0b698915e40faa8002f2/655e0b698915e40faa8002f2_Images/655e0b698915e40faa8002f2_Image_25.jpeg,did not like,2.642157193,,,,,,,,,,,,,,,,,,,,,,
,,655e0b698915e40faa8002f2,2024-10-06_15h54.31.885,WTP_SM_Choice,2022.2.1,Win32,30.12048193,,,,,space,3.2731,NAN,,NAN,0.26,5.74,,0,15,15,15,1,16,Charlie,Rej,Participant_Images/655e0b698915e40faa8002f2/655e0b698915e40faa8002f2_Images/655e0b698915e40faa8002f2_Image_5.jpeg,did not like,4.456234322,,,,,,,,,,,,,,,,,,,,,,
,,655e0b698915e40faa8002f2,2024-10-06_15h54.31.885,WTP_SM_Choice,2022.2.1,Win32,30.12048193,,,,,space,18.9515,NAN,,NAN,0.26,5.74,,0,16,16,16,1,17,Charlie,Rej,Participant_Images/655e0b698915e40faa8002f2/655e0b698915e40faa8002f2_Images/655e0b698915e40faa8002f2_Image_7.jpeg,did not like,4.438512181,,,,,,,,,,,,,,,,,,,,,,
,,655e0b698915e40faa8002f2,2024-10-06_15h54.31.885,WTP_SM_Choice,2022.2.1,Win32,30.12048193,,,,,space,1.8804,NAN,,NAN,0.26,5.74,,0,17,17,17,1,18,Charlie,Rej,Participant_Images/655e0b698915e40faa8002f2/655e0b698915e40faa8002f2_Images/655e0b698915e40faa8002f2_Image_18.jpeg,liked,2.682944783,,,,,,,,,,,,,,,,,,,,,,
,,655e0b698915e40faa8002f2,2024-10-06_15h54.31.885,WTP_SM_Choice,2022.2.1,Win32,30.12048193,,,,,space,4.4158,NAN,,NAN,0.26,5.74,,0,18,18,18,1,19,Charlie,Rej,Participant_Images/655e0b698915e40faa8002f2/655e0b698915e40faa8002f2_Images/655e0b698915e40faa8002f2_Image_14.jpeg,did not like,4.51984296,,,,,,,,,,,,,,,,,,,,,,
,,655e0b698915e40faa8002f2,2024-10-06_15h54.31.885,WTP_SM_Choice,2022.2.1,Win32,30.12048193,,,,,,,,,,,,,,,,,,16,,,,,,space,681.7344,space,72645.9396,0.01,1,1.4925,0,0,0,0,1,eat snacks in the bed ,Attend live music concerts with friends on a summer evening,0.01,0.04,1.1,1,,,,
,,655e0b698915e40faa8002f2,2024-10-06_15h54.31.885,WTP_SM_Choice,2022.2.1,Win32,30.12048193,,,,,,,,,,,,,,,,,,17,,,,,,,,,,0.02,1,0.7436,0,1,1,1,1,listen to music in my kids room,Play board games with friends in a cozy living room on a rainy saturday afternoon,0.02,0.04,8.8,1,,,,
,,655e0b698915e40faa8002f2,2024-10-06_15h54.31.885,WTP_SM_Choice,2022.2.1,Win32,30.12048193,,,,,,,,,,,,,,,,,,18,,,,,,,,,,0.03,1,1.8151,0,2,2,2,1,sit on my patio in the hot afternoon,Attend live music concerts with friends on a summer evening,0.03,0.04,3.3,1,,,,
,,655e0b698915e40faa8002f2,2024-10-06_15h54.31.885,WTP_SM_Choice,2022.2.1,Win32,30.12048193,,,,,,,,,,,,,,,,,,19,,,,,,,,,,0.04,1,1.5614,0,3,3,3,1,Volunteer at a community event with coworkers on a saturday afternoon,eat snacks in the bed ,0.04,0.04,3.3,0,,,,
,,655e0b698915e40faa8002f2,2024-10-06_15h54.31.885,WTP_SM_Choice,2022.2.1,Win32,30.12048193,,,,,,,,,,,,,,,,,,20,,,,,,,,,,0.04,2,1.6549,0,4,4,4,1,run errands on a sunny day,Play board games with friends in a cozy living room on a rainy saturday afternoon,0.05,0.04,1.1,1,,,,
,,655e0b698915e40faa8002f2,2024-10-06_15h54.31.885,WTP_SM_Choice,2022.2.1,Win32,30.12048193,,,,,,,NAN,,NAN,0.4,5.6,,0,19,19,19,1,20,Charlie,Rej,Participant_Images/655e0b698915e40faa8002f2/655e0b698915e40faa8002f2_Images/655e0b698915e40faa8002f2_Image_22.jpeg,did not like,3.195382774,,,,,,,,,,,,,,,,,,,,,,
,,655e0b698915e40faa8002f2,2024-10-06_15h54.31.885,WTP_SM_Choice,2022.2.1,Win32,30.12048193,,,,,space,0.9148,NAN,,NAN,0.4,5.6,,0,20,20,20,1,21,Charlie,Rej,Participant_Images/655e0b698915e40faa8002f2/655e0b698915e40faa8002f2_Images/655e0b698915e40faa8002f2_Image_9.jpeg,liked,1.779333479,,,,,,,,,,,,,,,,,,,,,,
,,655e0b698915e40faa8002f2,2024-10-06_15h54.31.885,WTP_SM_Choice,2022.2.1,Win32,30.12048193,,,,,space,13.1075,NAN,,NAN,0.4,5.6,,0,21,21,21,1,22,Charlie,Rej,Participant_Images/655e0b698915e40faa8002f2/655e0b698915e40faa8002f2_Images/655e0b698915e40faa8002f2_Image_17.jpeg,liked,4.312468682,,,,,,,,,,,,,,,,,,,,,,
,,655e0b698915e40faa8002f2,2024-10-06_15h54.31.885,WTP_SM_Choice,2022.2.1,Win32,30.12048193,,,,,space,5.87,NAN,,NAN,0.4,5.6,,0,22,22,22,1,23,Charlie,Rej,Participant_Images/655e0b698915e40faa8002f2/655e0b698915e40faa8002f2_Images/655e0b698915e40faa8002f2_Image_19.jpeg,did not like,4.940433059,,,,,,,,,,,,,,,,,,,,,,
,,655e0b698915e40faa8002f2,2024-10-06_15h54.31.885,WTP_SM_Choice,2022.2.1,Win32,30.12048193,,,,,space,15.5598,NAN,,NAN,0.4,5.6,,0,23,23,23,1,24,Charlie,Rej,Participant_Images/655e0b698915e40faa8002f2/655e0b698915e40faa8002f2_Images/655e0b698915e40faa8002f2_Image_1.jpeg,liked,2.7105123,,,,,,,,,,,,,,,,,,,,,,
,,655e0b698915e40faa8002f2,2024-10-06_15h54.31.885,WTP_SM_Choice,2022.2.1,Win32,30.12048193,,,,,,,,,,,,,,,,,,21,,,,,,space,6.4221,space,1.0674,0.01,1,1.3452,0,0,0,0,1,listen to music in my kids room,Hike through wooded trails with my family on a cool autumn morning,0.01,0.05,8.8,1,,,,
,,655e0b698915e40faa8002f2,2024-10-06_15h54.31.885,WTP_SM_Choice,2022.2.1,Win32,30.12048193,,,,,,,,,,,,,,,,,,22,,,,,,,,,,0.02,1,1.364,0,1,1,1,1,work out in my living room,Play board games with friends in a cozy living room on a rainy saturday afternoon,0.02,0.05,4.4,1,,,,
,,655e0b698915e40faa8002f2,2024-10-06_15h54.31.885,WTP_SM_Choice,2022.2.1,Win32,30.12048193,,,,,,,,,,,,,,,,,,23,,,,,,,,,,0.03,1,0.928,0,2,2,2,1,run errands on a sunny day,Explore a local farmers market with my family on a sunny weekend morning,0.03,0.05,1.1,1,,,,
,,655e0b698915e40faa8002f2,2024-10-06_15h54.31.885,WTP_SM_Choice,2022.2.1,Win32,30.12048193,,,,,,,,,,,,,,,,,,24,,,,,,,,,,0.04,1,3.5325,0,3,3,3,1,redecorate my bedroom in the spring time,Explore a local farmers market with my family on a sunny weekend morning,0.04,0.05,4.4,1,,,,
,,655e0b698915e40faa8002f2,2024-10-06_15h54.31.885,WTP_SM_Choice,2022.2.1,Win32,30.12048193,,,,,,,,,,,,,,,,,,25,,,,,,,,,,0.05,2,2.6905,0,4,4,4,1,watch netflix on the couch,Volunteer at a community event with coworkers on a saturday afternoon,0.05,0.05,3.3,1,,,,
,,655e0b698915e40faa8002f2,2024-10-06_15h54.31.885,WTP_SM_Choice,2022.2.1,Win32,30.12048193,,,,,,,2,,5,0.55,5.45,,0,24,24,24,1,25,Charlie,Rej,Participant_Images/655e0b698915e40faa8002f2/655e0b698915e40faa8002f2_Images/655e0b698915e40faa8002f2_Image_3.jpeg,did not like,3.602308302,,,,,,,,,,,,,,,,,,,space,5.0821,,
,,655e0b698915e40faa8002f2,2024-10-06_15h54.31.885,WTP_SM_Choice,2022.2.1,Win32,30.12048193,,,space,1.5594,space,1.9643,NAN,,NAN,0.55,5.45,,0,25,25,25,1,26,Sam,Acc,Participant_Images/655e0b698915e40faa8002f2/655e0b698915e40faa8002f2_Images/655e0b698915e40faa8002f2_Image_19.jpeg,liked,4.106391878,,,,,,,,,,,,,,,,,,,,,,
,,655e0b698915e40faa8002f2,2024-10-06_15h54.31.885,WTP_SM_Choice,2022.2.1,Win32,30.12048193,,,,,space,0.8102,NAN,,NAN,0.55,5.45,,0,26,26,26,1,27,Sam,Acc,Participant_Images/655e0b698915e40faa8002f2/655e0b698915e40faa8002f2_Images/655e0b698915e40faa8002f2_Image_11.jpeg,liked,3.799433026,,,,,,,,,,,,,,,,,,,,,,
,,655e0b698915e40faa8002f2,2024-10-06_15h54.31.885,WTP_SM_Choice,2022.2.1,Win32,30.12048193,,,,,space,1.5642,NAN,,NAN,0.55,5.45,,0,27,27,27,1,28,Sam,Acc,Participant_Images/655e0b698915e40faa8002f2/655e0b698915e40faa8002f2_Images/655e0b698915e40faa8002f2_Image_24.jpeg,liked,5.246980764,,,,,,,,,,,,,,,,,,,,,,
,,655e0b698915e40faa8002f2,2024-10-06_15h54.31.885,WTP_SM_Choice,2022.2.1,Win32,30.12048193,,,,,space,0.9218,NAN,,NAN,0.55,5.45,,0,28,28,28,1,29,Sam,Acc,Participant_Images/655e0b698915e40faa8002f2/655e0b698915e40faa8002f2_Images/655e0b698915e40faa8002f2_Image_3.jpeg,did not like,3.30081769,,,,,,,,,,,,,,,,,,,,,,
,,655e0b698915e40faa8002f2,2024-10-06_15h54.31.885,WTP_SM_Choice,2022.2.1,Win32,30.12048193,,,,,,,,,,,,,,,,,,26,,,,,,space,4.5094,space,0.5542,0.01,2,1.7551,0,0,0,0,1,listening to jackie hill  and preston perrys podcasts,Volunteer at a community event with coworkers on a saturday afternoon,0.01,0.01,4.4,1,,,,
,,655e0b698915e40faa8002f2,2024-10-06_15h54.31.885,WTP_SM_Choice,2022.2.1,Win32,30.12048193,,,,,,,,,,,,,,,,,,27,,,,,,,,,,0.01,2,4.231,0,1,1,1,1,eat snacks in the bed ,Hike through wooded trails with my family on a cool autumn morning,0.02,0.01,3.3,1,,,,
,,655e0b698915e40faa8002f2,2024-10-06_15h54.31.885,WTP_SM_Choice,2022.2.1,Win32,30.12048193,,,,,,,,,,,,,,,,,,28,,,,,,,,,,0.01,2,7.5518,0,2,2,2,1,Attend a study session with classmates at a coffee shop on a wednesday evening,sit on my patio in the hot afternoon,0.03,0.01,3.3,0,,,,
,,655e0b698915e40faa8002f2,2024-10-06_15h54.31.885,WTP_SM_Choice,2022.2.1,Win32,30.12048193,,,,,,,,,,,,,,,,,,29,,,,,,,,,,0.01,2,5.249,0,3,3,3,1,Have deep conversations with close friends around a campfire on a chilly night,listening to jackie hill  and preston perrys podcasts,0.04,0.01,4.4,0,,,,
,,655e0b698915e40faa8002f2,2024-10-06_15h54.31.885,WTP_SM_Choice,2022.2.1,Win32,30.12048193,,,,,,,,,,,,,,,,,,30,,,,,,,,,,0.01,2,1.0022,0,4,4,4,1,Have deep conversations with close friends around a campfire on a chilly night,eat snacks in the bed ,0.05,0.01,8.8,0,,,,
,,655e0b698915e40faa8002f2,2024-10-06_15h54.31.885,WTP_SM_Choice,2022.2.1,Win32,30.12048193,,,,,,,NAN,,NAN,0.6,5.4,,0,29,29,29,1,30,Sam,Acc,Participant_Images/655e0b698915e40faa8002f2/655e0b698915e40faa8002f2_Images/655e0b698915e40faa8002f2_Image_17.jpeg,liked,1.661473164,,,,,,,,,,,,,,,,,,,,,,
,,655e0b698915e40faa8002f2,2024-10-06_15h54.31.885,WTP_SM_Choice,2022.2.1,Win32,30.12048193,,,,,space,22.8047,NAN,,NAN,0.6,5.4,,0,30,30,30,1,31,Sam,Acc,Participant_Images/655e0b698915e40faa8002f2/655e0b698915e40faa8002f2_Images/655e0b698915e40faa8002f2_Image_25.jpeg,did not like,3.613205605,,,,,,,,,,,,,,,,,,,,,,
,,655e0b698915e40faa8002f2,2024-10-06_15h54.31.885,WTP_SM_Choice,2022.2.1,Win32,30.12048193,,,,,space,151.3185,NAN,,NAN,0.6,5.4,,0,31,31,31,1,32,Sam,Acc,Participant_Images/655e0b698915e40faa8002f2/655e0b698915e40faa8002f2_Images/655e0b698915e40faa8002f2_Image_2.jpeg,did not like,4.988446431,,,,,,,,,,,,,,,,,,,,,,
,,655e0b698915e40faa8002f2,2024-10-06_15h54.31.885,WTP_SM_Choice,2022.2.1,Win32,30.12048193,,,,,space,59.1406,NAN,,NAN,0.6,5.4,,0,32,32,32,1,33,Sam,Acc,Participant_Images/655e0b698915e40faa8002f2/655e0b698915e40faa8002f2_Images/655e0b698915e40faa8002f2_Image_13.jpeg,liked,3.470791822,,,,,,,,,,,,,,,,,,,,,,
,,655e0b698915e40faa8002f2,2024-10-06_15h54.31.885,WTP_SM_Choice,2022.2.1,Win32,30.12048193,,,,,space,40.3094,NAN,,NAN,0.6,5.4,,0,33,33,33,1,34,Sam,Acc,Participant_Images/655e0b698915e40faa8002f2/655e0b698915e40faa8002f2_Images/655e0b698915e40faa8002f2_Image_9.jpeg,liked,3.820572462,,,,,,,,,,,,,,,,,,,,,,
,,655e0b698915e40faa8002f2,2024-10-06_15h54.31.885,WTP_SM_Choice,2022.2.1,Win32,30.12048193,,,,,,,,,,,,,,,,,,31,,,,,,space,30.275,space,1.5283,0.01,1,1.1,0,0,0,0,1,shop at my favorite department store,Volunteer at a community event with coworkers on a saturday afternoon,0.01,0.02,8.8,1,,,,
,,655e0b698915e40faa8002f2,2024-10-06_15h54.31.885,WTP_SM_Choice,2022.2.1,Win32,30.12048193,,,,,,,,,,,,,,,,,,32,,,,,,,,,,0.02,2,3.4375,0,1,1,1,1,Have deep conversations with close friends around a campfire on a chilly night,redecorate my bedroom in the spring time,0.02,0.02,1.1,0,,,,
,,655e0b698915e40faa8002f2,2024-10-06_15h54.31.885,WTP_SM_Choice,2022.2.1,Win32,30.12048193,,,,,,,,,,,,,,,,,,33,,,,,,,,,,,,,0,2,2,2,1,Watch a movie with my kids on a summer night in our backyard,watch netflix on the couch,0.03,0.02,4.4,0,,,,
,,655e0b698915e40faa8002f2,2024-10-06_15h54.31.885,WTP_SM_Choice,2022.2.1,Win32,30.12048193,,,,,,,,,,,,,,,,,,34,,,,,,,,,,,,,0,3,3,3,1,Play board games with friends in a cozy living room on a rainy saturday afternoon,listening to jackie hill  and preston perrys podcasts,0.04,0.02,3.3,0,,,,
,,655e0b698915e40faa8002f2,2024-10-06_15h54.31.885,WTP_SM_Choice,2022.2.1,Win32,30.12048193,,,,,,,,,,,,,,,,,,35,,,,,,,,,,,,,0,4,4,4,1,Play board games with friends in a cozy living room on a rainy saturday afternoon,shop at my favorite department store,0.05,0.02,1.1,0,,,,
,,655e0b698915e40faa8002f2,2024-10-06_15h54.31.885,WTP_SM_Choice,2022.2.1,Win32,30.12048193,,,,,,,NAN,,NAN,0.63,5.37,,0,34,34,34,1,35,Sam,Acc,Participant_Images/655e0b698915e40faa8002f2/655e0b698915e40faa8002f2_Images/655e0b698915e40faa8002f2_Image_1.jpeg,liked,2.455989137,,,,,,,,,,,,,,,,,,,,,,
,,655e0b698915e40faa8002f2,2024-10-06_15h54.31.885,WTP_SM_Choice,2022.2.1,Win32,30.12048193,,,,,space,22.0698,NAN,,NAN,0.63,5.37,,0,35,35,35,1,36,Sam,Acc,Participant_Images/655e0b698915e40faa8002f2/655e0b698915e40faa8002f2_Images/655e0b698915e40faa8002f2_Image_14.jpeg,liked,3.79605092,,,,,,,,,,,,,,,,,,,,,,
,,655e0b698915e40faa8002f2,2024-10-06_15h54.31.885,WTP_SM_Choice,2022.2.1,Win32,30.12048193,,,,,space,48.5628,NAN,,NAN,0.63,5.37,,0,36,36,36,1,37,Sam,Acc,Participant_Images/655e0b698915e40faa8002f2/655e0b698915e40faa8002f2_Images/655e0b698915e40faa8002f2_Image_10.jpeg,liked,3.562416326,,,,,,,,,,,,,,,,,,,,,,
,,655e0b698915e40faa8002f2,2024-10-06_15h54.31.885,WTP_SM_Choice,2022.2.1,Win32,30.12048193,,,,,space,15.3633,NAN,,NAN,0.63,5.37,,0,37,37,37,1,38,Sam,Acc,Participant_Images/655e0b698915e40faa8002f2/655e0b698915e40faa8002f2_Images/655e0b698915e40faa8002f2_Image_20.jpeg,liked,2.843822497,,,,,,,,,,,,,,,,,,,,,,
,,655e0b698915e40faa8002f2,2024-10-06_15h54.31.885,WTP_SM_Choice,2022.2.1,Win32,30.12048193,,,,,space,38.1762,NAN,,NAN,0.63,5.37,,0,38,38,38,1,39,Sam,Acc,Participant_Images/655e0b698915e40faa8002f2/655e0b698915e40faa8002f2_Images/655e0b698915e40faa8002f2_Image_23.jpeg,liked,3.546495948,,,,,,,,,,,,,,,,,,,,,,
,,655e0b698915e40faa8002f2,2024-10-06_15h54.31.885,WTP_SM_Choice,2022.2.1,Win32,30.12048193,,,,,,,,,,,,,,,,,,36,,,,,,space,27.3638,space,0.6109,0.01,1,1.0539,0,0,0,0,1,Cook a big meal together with my significant other in the kitchen on a weekend evening,work out in my living room,0.01,0.03,3.3,0,,,,
,,655e0b698915e40faa8002f2,2024-10-06_15h54.31.885,WTP_SM_Choice,2022.2.1,Win32,30.12048193,,,,,,,,,,,,,,,,,,37,,,,,,,,,,,,,0,1,1,1,1,listen to music in my kids room,Have deep conversations with close friends around a campfire on a chilly night,0.02,0.03,1.1,1,,,,
,,655e0b698915e40faa8002f2,2024-10-06_15h54.31.885,WTP_SM_Choice,2022.2.1,Win32,30.12048193,,,,,,,,,,,,,,,,,,38,,,,,,,,,,0.03,1,0.5799,0,2,2,2,1,Have deep conversations with close friends around a campfire on a chilly night,sit on my patio in the hot afternoon,0.03,0.03,1.1,0,,,,
,,655e0b698915e40faa8002f2,2024-10-06_15h54.31.885,WTP_SM_Choice,2022.2.1,Win32,30.12048193,,,,,,,,,,,,,,,,,,39,,,,,,,,,,0.03,2,3.2459,0,3,3,3,1,redecorate my bedroom in the spring time,Volunteer at a community event with coworkers on a saturday afternoon,0.04,0.03,3.3,1,,,,
,,655e0b698915e40faa8002f2,2024-10-06_15h54.31.885,WTP_SM_Choice,2022.2.1,Win32,30.12048193,,,,,,,,,,,,,,,,,,40,,,,,,,,,,0.03,2,9.3829,0,4,4,4,1,Hike through wooded trails with my family on a cool autumn morning,listening to jackie hill  and preston perrys podcasts,0.05,0.03,4.4,0,,,,
,,655e0b698915e40faa8002f2,2024-10-06_15h54.31.885,WTP_SM_Choice,2022.2.1,Win32,30.12048193,,,,,,,NAN,,NAN,0.73,5.27,,0,39,39,39,1,40,Sam,Acc,Participant_Images/655e0b698915e40faa8002f2/655e0b698915e40faa8002f2_Images/655e0b698915e40faa8002f2_Image_8.jpeg,liked,1.672012706,,,,,,,,,,,,,,,,,,,,,,
,,655e0b698915e40faa8002f2,2024-10-06_15h54.31.885,WTP_SM_Choice,2022.2.1,Win32,30.12048193,,,,,space,38.2284,NAN,,NAN,0.73,5.27,,0,40,40,40,1,41,Sam,Acc,Participant_Images/655e0b698915e40faa8002f2/655e0b698915e40faa8002f2_Images/655e0b698915e40faa8002f2_Image_16.jpeg,did not like,4.942172136,,,,,,,,,,,,,,,,,,,,,,
,,655e0b698915e40faa8002f2,2024-10-06_15h54.31.885,WTP_SM_Choice,2022.2.1,Win32,30.12048193,,,,,space,68.2124,NAN,,NAN,0.73,5.27,,0,41,41,41,1,42,Sam,Acc,Participant_Images/655e0b698915e40faa8002f2/655e0b698915e40faa8002f2_Images/655e0b698915e40faa8002f2_Image_5.jpeg,liked,2.50187214,,,,,,,,,,,,,,,,,,,,,,
,,655e0b698915e40faa8002f2,2024-10-06_15h54.31.885,WTP_SM_Choice,2022.2.1,Win32,30.12048193,,,,,space,97.5449,NAN,,NAN,0.73,5.27,,0,42,42,42,1,43,Sam,Acc,Participant_Images/655e0b698915e40faa8002f2/655e0b698915e40faa8002f2_Images/655e0b698915e40faa8002f2_Image_4.jpeg,liked,2.071164779,,,,,,,,,,,,,,,,,,,,,,
,,655e0b698915e40faa8002f2,2024-10-06_15h54.31.885,WTP_SM_Choice,2022.2.1,Win32,30.12048193,,,,,space,42.6839,NAN,,NAN,0.73,5.27,,0,43,43,43,1,44,Sam,Acc,Participant_Images/655e0b698915e40faa8002f2/655e0b698915e40faa8002f2_Images/655e0b698915e40faa8002f2_Image_12.jpeg,liked,5.336503566,,,,,,,,,,,,,,,,,,,,,,
,,655e0b698915e40faa8002f2,2024-10-06_15h54.31.885,WTP_SM_Choice,2022.2.1,Win32,30.12048193,,,,,,,,,,,,,,,,,,41,,,,,,space,11.513,space,0.6453,0.01,1,1.5779,0,0,0,0,1,sit on my patio in the hot afternoon,Play board games with friends in a cozy living room on a rainy saturday afternoon,0.01,0.04,1.1,1,,,,
,,655e0b698915e40faa8002f2,2024-10-06_15h54.31.885,WTP_SM_Choice,2022.2.1,Win32,30.12048193,,,,,,,,,,,,,,,,,,42,,,,,,,,,,,,,0,1,1,1,1,work out in my living room,Explore a local farmers market with my family on a sunny weekend morning,0.02,0.04,3.3,1,,,,
,,655e0b698915e40faa8002f2,2024-10-06_15h54.31.885,WTP_SM_Choice,2022.2.1,Win32,30.12048193,,,,,,,,,,,,,,,,,,43,,,,,,,,,,,,,0,2,2,2,1,work out in my living room,Hike through wooded trails with my family on a cool autumn morning,0.03,0.04,1.1,1,,,,
,,655e0b698915e40faa8002f2,2024-10-06_15h54.31.885,WTP_SM_Choice,2022.2.1,Win32,30.12048193,,,,,,,,,,,,,,,,,,44,,,,,,,,,,,,,0,3,3,3,1,Watch a movie with my kids on a summer night in our backyard,sit on my patio in the hot afternoon,0.04,0.04,1.1,0,,,,
,,655e0b698915e40faa8002f2,2024-10-06_15h54.31.885,WTP_SM_Choice,2022.2.1,Win32,30.12048193,,,,,,,,,,,,,,,,,,45,,,,,,,,,,,,,0,4,4,4,1,run errands on a sunny day,Cook a big meal together with my significant other in the kitchen on a weekend evening,0.05,0.04,4.4,1,,,,
,,655e0b698915e40faa8002f2,2024-10-06_15h54.31.885,WTP_SM_Choice,2022.2.1,Win32,30.12048193,,,,,,,NAN,,NAN,0.74,5.26,,0,44,44,44,1,45,Sam,Acc,Participant_Images/655e0b698915e40faa8002f2/655e0b698915e40faa8002f2_Images/655e0b698915e40faa8002f2_Image_22.jpeg,liked,2.642157193,,,,,,,,,,,,,,,,,,,,,,
,,655e0b698915e40faa8002f2,2024-10-06_15h54.31.885,WTP_SM_Choice,2022.2.1,Win32,30.12048193,,,,,space,190.5193,NAN,,NAN,0.74,5.26,,0,45,45,45,1,46,Sam,Acc,Participant_Images/655e0b698915e40faa8002f2/655e0b698915e40faa8002f2_Images/655e0b698915e40faa8002f2_Image_21.jpeg,liked,4.456234322,,,,,,,,,,,,,,,,,,,,,,
,,655e0b698915e40faa8002f2,2024-10-06_15h54.31.885,WTP_SM_Choice,2022.2.1,Win32,30.12048193,,,,,space,8.7657,NAN,,NAN,0.74,5.26,,0,46,46,46,1,47,Sam,Acc,Participant_Images/655e0b698915e40faa8002f2/655e0b698915e40faa8002f2_Images/655e0b698915e40faa8002f2_Image_7.jpeg,did not like,4.438512181,,,,,,,,,,,,,,,,,,,,,,
,,655e0b698915e40faa8002f2,2024-10-06_15h54.31.885,WTP_SM_Choice,2022.2.1,Win32,30.12048193,,,,,space,1.3744,NAN,,NAN,0.74,5.26,,0,47,47,47,1,48,Sam,Acc,Participant_Images/655e0b698915e40faa8002f2/655e0b698915e40faa8002f2_Images/655e0b698915e40faa8002f2_Image_6.jpeg,liked,2.682944783,,,,,,,,,,,,,,,,,,,,,,
,,655e0b698915e40faa8002f2,2024-10-06_15h54.31.885,WTP_SM_Choice,2022.2.1,Win32,30.12048193,,,,,space,43.8573,NAN,,NAN,0.74,5.26,,0,48,48,48,1,49,Sam,Acc,Participant_Images/655e0b698915e40faa8002f2/655e0b698915e40faa8002f2_Images/655e0b698915e40faa8002f2_Image_18.jpeg,did not like,4.51984296,,,,,,,,,,,,,,,,,,,,,,
,,655e0b698915e40faa8002f2,2024-10-06_15h54.31.885,WTP_SM_Choice,2022.2.1,Win32,30.12048193,,,,,,,,,,,,,,,,,,46,,,,,,space,219.4265,space,0.9046,,,,0,0,0,0,1,eat snacks in the bed ,Cook a big meal together with my significant other in the kitchen on a weekend evening,0.01,0.05,8.8,1,,,,
,,655e0b698915e40faa8002f2,2024-10-06_15h54.31.885,WTP_SM_Choice,2022.2.1,Win32,30.12048193,,,,,,,,,,,,,,,,,,47,,,,,,,,,,0.02,1,8.1173,0,1,1,1,1,work out in my living room,Watch a movie with my kids on a summer night in our backyard,0.02,0.05,1.1,1,,,,
,,655e0b698915e40faa8002f2,2024-10-06_15h54.31.885,WTP_SM_Choice,2022.2.1,Win32,30.12048193,,,,,,,,,,,,,,,,,,48,,,,,,,,,,,,,0,2,2,2,1,redecorate my bedroom in the spring time,Walk along the beach with my significant other during sunset,0.03,0.05,4.4,1,,,,
,,655e0b698915e40faa8002f2,2024-10-06_15h54.31.885,WTP_SM_Choice,2022.2.1,Win32,30.12048193,,,,,,,,,,,,,,,,,,49,,,,,,,,,,0.04,1,1.3752,0,3,3,3,1,Volunteer at a community event with coworkers on a saturday afternoon,listen to music in my kids room,0.04,0.05,3.3,0,,,,
,,655e0b698915e40faa8002f2,2024-10-06_15h54.31.885,WTP_SM_Choice,2022.2.1,Win32,30.12048193,,,,,,,,,,,,,,,,,,50,,,,,,,,,,,,,0,4,4,4,1,Cook a big meal together with my significant other in the kitchen on a weekend evening,watch netflix on the couch,0.05,0.05,1.1,0,,,,
,,655e0b698915e40faa8002f2,2024-10-06_15h54.31.885,WTP_SM_Choice,2022.2.1,Win32,30.12048193,,,,,,,3,,5,0.8,5.2,,0,49,49,49,1,50,Sam,Acc,Participant_Images/655e0b698915e40faa8002f2/655e0b698915e40faa8002f2_Images/655e0b698915e40faa8002f2_Image_15.jpeg,did not like,3.195382774,,,,,,,,,,,,,,,,,,,space,27.0217,,
,,655e0b698915e40faa8002f2,2024-10-06_15h54.31.885,WTP_SM_Choice,2022.2.1,Win32,30.12048193,,,space,1.8784,space,1.0488,NAN,,NAN,0.8,5.2,,0,50,50,50,1,51,Alex,Rej,Participant_Images/655e0b698915e40faa8002f2/655e0b698915e40faa8002f2_Images/655e0b698915e40faa8002f2_Image_22.jpeg,did not like,1.779333479,,,,,,,,,,,,,,,,,,,,,,
,,655e0b698915e40faa8002f2,2024-10-06_15h54.31.885,WTP_SM_Choice,2022.2.1,Win32,30.12048193,,,,,space,193.9967,NAN,,NAN,0.8,5.2,,0,51,51,51,1,52,Alex,Rej,Participant_Images/655e0b698915e40faa8002f2/655e0b698915e40faa8002f2_Images/655e0b698915e40faa8002f2_Image_15.jpeg,did not like,4.312468682,,,,,,,,,,,,,,,,,,,,,,
,,655e0b698915e40faa8002f2,2024-10-06_15h54.31.885,WTP_SM_Choice,2022.2.1,Win32,30.12048193,,,,,space,0.8136,NAN,,NAN,0.8,5.2,,0,52,52,52,1,53,Alex,Rej,Participant_Images/655e0b698915e40faa8002f2/655e0b698915e40faa8002f2_Images/655e0b698915e40faa8002f2_Image_16.jpeg,did not like,4.940433059,,,,,,,,,,,,,,,,,,,,,,
,,655e0b698915e40faa8002f2,2024-10-06_15h54.31.885,WTP_SM_Choice,2022.2.1,Win32,30.12048193,,,,,space,24.1534,NAN,,NAN,0.8,5.2,,0,53,53,53,1,54,Alex,Rej,Participant_Images/655e0b698915e40faa8002f2/655e0b698915e40faa8002f2_Images/655e0b698915e40faa8002f2_Image_24.jpeg,did not like,2.7105123,,,,,,,,,,,,,,,,,,,,,,
,,655e0b698915e40faa8002f2,2024-10-06_15h54.31.885,WTP_SM_Choice,2022.2.1,Win32,30.12048193,,,,,,,,,,,,,,,,,,51,,,,,,space,20.9597,space,0.5309,0.01,1,1.4502,0,0,0,0,1,watch netflix on the couch,Have deep conversations with close friends around a campfire on a chilly night,0.01,0.01,1.1,1,,,,
,,655e0b698915e40faa8002f2,2024-10-06_15h54.31.885,WTP_SM_Choice,2022.2.1,Win32,30.12048193,,,,,,,,,,,,,,,,,,52,,,,,,,,,,0.01,2,1.3306,0,1,1,1,1,work out in my living room,Have deep conversations with close friends around a campfire on a chilly night,0.02,0.01,3.3,1,,,,
,,655e0b698915e40faa8002f2,2024-10-06_15h54.31.885,WTP_SM_Choice,2022.2.1,Win32,30.12048193,,,,,,,,,,,,,,,,,,53,,,,,,,,,,,,,0,2,2,2,1,work out in my living room,Volunteer at a community event with coworkers on a saturday afternoon,0.03,0.01,1.1,1,,,,
,,655e0b698915e40faa8002f2,2024-10-06_15h54.31.885,WTP_SM_Choice,2022.2.1,Win32,30.12048193,,,,,,,,,,,,,,,,,,54,,,,,,,,,,,,,0,3,3,3,1,Walk along the beach with my significant other during sunset,eat snacks in the bed ,0.04,0.01,4.4,0,,,,
,,655e0b698915e40faa8002f2,2024-10-06_15h54.31.885,WTP_SM_Choice,2022.2.1,Win32,30.12048193,,,,,,,,,,,,,,,,,,55,,,,,,,,,,0.01,2,6.1747,0,4,4,4,1,laugh at my favorite comedy specials on netflix,Walk along the beach with my significant other during sunset,0.05,0.01,1.1,1,,,,
,,655e0b698915e40faa8002f2,2024-10-06_15h54.31.885,WTP_SM_Choice,2022.2.1,Win32,30.12048193,,,,,,,NAN,,NAN,0.83,5.17,,0,54,54,54,1,55,Alex,Rej,Participant_Images/655e0b698915e40faa8002f2/655e0b698915e40faa8002f2_Images/655e0b698915e40faa8002f2_Image_7.jpeg,did not like,3.602308302,,,,,,,,,,,,,,,,,,,,,,
,,655e0b698915e40faa8002f2,2024-10-06_15h54.31.885,WTP_SM_Choice,2022.2.1,Win32,30.12048193,,,,,space,1.5059,NAN,,NAN,0.83,5.17,,0,55,55,55,1,56,Alex,Rej,Participant_Images/655e0b698915e40faa8002f2/655e0b698915e40faa8002f2_Images/655e0b698915e40faa8002f2_Image_1.jpeg,did not like,4.106391878,,,,,,,,,,,,,,,,,,,,,,
,,655e0b698915e40faa8002f2,2024-10-06_15h54.31.885,WTP_SM_Choice,2022.2.1,Win32,30.12048193,,,,,space,1.5733,NAN,,NAN,0.83,5.17,,0,56,56,56,1,57,Alex,Rej,Participant_Images/655e0b698915e40faa8002f2/655e0b698915e40faa8002f2_Images/655e0b698915e40faa8002f2_Image_21.jpeg,did not like,3.799433026,,,,,,,,,,,,,,,,,,,,,,
,,655e0b698915e40faa8002f2,2024-10-06_15h54.31.885,WTP_SM_Choice,2022.2.1,Win32,30.12048193,,,,,space,1.3593,NAN,,NAN,0.83,5.17,,0,57,57,57,1,58,Alex,Rej,Participant_Images/655e0b698915e40faa8002f2/655e0b698915e40faa8002f2_Images/655e0b698915e40faa8002f2_Image_6.jpeg,did not like,5.246980764,,,,,,,,,,,,,,,,,,,,,,
,,655e0b698915e40faa8002f2,2024-10-06_15h54.31.885,WTP_SM_Choice,2022.2.1,Win32,30.12048193,,,,,space,0.9578,NAN,,NAN,0.83,5.17,,0,58,58,58,1,59,Alex,Rej,Participant_Images/655e0b698915e40faa8002f2/655e0b698915e40faa8002f2_Images/655e0b698915e40faa8002f2_Image_23.jpeg,did not like,3.30081769,,,,,,,,,,,,,,,,,,,,,,
,,655e0b698915e40faa8002f2,2024-10-06_15h54.31.885,WTP_SM_Choice,2022.2.1,Win32,30.12048193,,,,,,,,,,,,,,,,,,56,,,,,,space,18.4852,space,0.7183,0.01,1,1.0343,0,0,0,0,1,Walk along the beach with my significant other during sunset,listen to music in my kids room,0.01,0.02,8.8,0,,,,
,,655e0b698915e40faa8002f2,2024-10-06_15h54.31.885,WTP_SM_Choice,2022.2.1,Win32,30.12048193,,,,,,,,,,,,,,,,,,57,,,,,,,,,,0.02,1,1.0799,0,1,1,1,1,Cook a big meal together with my significant other in the kitchen on a weekend evening,listen to music in my kids room,0.02,0.02,4.4,0,,,,
,,655e0b698915e40faa8002f2,2024-10-06_15h54.31.885,WTP_SM_Choice,2022.2.1,Win32,30.12048193,,,,,,,,,,,,,,,,,,58,,,,,,,,,,0.02,2,1.4133,0,2,2,2,1,Attend a study session with classmates at a coffee shop on a wednesday evening,listening to jackie hill  and preston perrys podcasts,0.03,0.02,4.4,0,,,,
,,655e0b698915e40faa8002f2,2024-10-06_15h54.31.885,WTP_SM_Choice,2022.2.1,Win32,30.12048193,,,,,,,,,,,,,,,,,,59,,,,,,,,,,0.02,2,1.2163,0,3,3,3,1,laugh at my favorite comedy specials on netflix,Attend live music concerts with friends on a summer evening,0.04,0.02,4.4,1,,,,
,,655e0b698915e40faa8002f2,2024-10-06_15h54.31.885,WTP_SM_Choice,2022.2.1,Win32,30.12048193,,,,,,,,,,,,,,,,,,60,,,,,,,,,,0.02,2,1.4299,0,4,4,4,1,run errands on a sunny day,Volunteer at a community event with coworkers on a saturday afternoon,0.05,0.02,1.1,1,,,,
,,655e0b698915e40faa8002f2,2024-10-06_15h54.31.885,WTP_SM_Choice,2022.2.1,Win32,30.12048193,,,,,,,NAN,,NAN,0.92,5.08,,0,59,59,59,1,60,Alex,Rej,Participant_Images/655e0b698915e40faa8002f2/655e0b698915e40faa8002f2_Images/655e0b698915e40faa8002f2_Image_17.jpeg,liked,1.661473164,,,,,,,,,,,,,,,,,,,,,,
,,655e0b698915e40faa8002f2,2024-10-06_15h54.31.885,WTP_SM_Choice,2022.2.1,Win32,30.12048193,,,,,space,25.4404,NAN,,NAN,0.92,5.08,,0,60,60,60,1,61,Alex,Rej,Participant_Images/655e0b698915e40faa8002f2/655e0b698915e40faa8002f2_Images/655e0b698915e40faa8002f2_Image_3.jpeg,liked,3.613205605,,,,,,,,,,,,,,,,,,,,,,
,,655e0b698915e40faa8002f2,2024-10-06_15h54.31.885,WTP_SM_Choice,2022.2.1,Win32,30.12048193,,,,,space,1.6002,NAN,,NAN,0.92,5.08,,0,61,61,61,1,62,Alex,Rej,Participant_Images/655e0b698915e40faa8002f2/655e0b698915e40faa8002f2_Images/655e0b698915e40faa8002f2_Image_8.jpeg,liked,4.988446431,,,,,,,,,,,,,,,,,,,,,,
,,655e0b698915e40faa8002f2,2024-10-06_15h54.31.885,WTP_SM_Choice,2022.2.1,Win32,30.12048193,,,,,space,4.1968,NAN,,NAN,0.92,5.08,,0,62,62,62,1,63,Alex,Rej,Participant_Images/655e0b698915e40faa8002f2/655e0b698915e40faa8002f2_Images/655e0b698915e40faa8002f2_Image_2.jpeg,did not like,3.470791822,,,,,,,,,,,,,,,,,,,,,,
,,655e0b698915e40faa8002f2,2024-10-06_15h54.31.885,WTP_SM_Choice,2022.2.1,Win32,30.12048193,,,,,space,1.8014,NAN,,NAN,0.92,5.08,,0,63,63,63,1,64,Alex,Rej,Participant_Images/655e0b698915e40faa8002f2/655e0b698915e40faa8002f2_Images/655e0b698915e40faa8002f2_Image_19.jpeg,did not like,3.820572462,,,,,,,,,,,,,,,,,,,,,,
,,655e0b698915e40faa8002f2,2024-10-06_15h54.31.885,WTP_SM_Choice,2022.2.1,Win32,30.12048193,,,,,,,,,,,,,,,,,,61,,,,,,space,17.6028,space,0.6914,0.01,1,1.2315,0,0,0,0,1,Play board games with friends in a cozy living room on a rainy saturday afternoon,laugh at my favorite comedy specials on netflix,0.01,0.03,3.3,0,,,,
,,655e0b698915e40faa8002f2,2024-10-06_15h54.31.885,WTP_SM_Choice,2022.2.1,Win32,30.12048193,,,,,,,,,,,,,,,,,,62,,,,,,,,,,,,,0,1,1,1,1,redecorate my bedroom in the spring time,Hike through wooded trails with my family on a cool autumn morning,0.02,0.03,3.3,1,,,,
,,655e0b698915e40faa8002f2,2024-10-06_15h54.31.885,WTP_SM_Choice,2022.2.1,Win32,30.12048193,,,,,,,,,,,,,,,,,,63,,,,,,,,,,,,,0,2,2,2,1,work out in my living room,Attend a study session with classmates at a coffee shop on a wednesday evening,0.03,0.03,3.3,1,,,,
,,655e0b698915e40faa8002f2,2024-10-06_15h54.31.885,WTP_SM_Choice,2022.2.1,Win32,30.12048193,,,,,,,,,,,,,,,,,,64,,,,,,,,,,0.03,2,2.1167,0,3,3,3,1,listening to jackie hill  and preston perrys podcasts,Watch a movie with my kids on a summer night in our backyard,0.04,0.03,1.1,1,,,,
,,655e0b698915e40faa8002f2,2024-10-06_15h54.31.885,WTP_SM_Choice,2022.2.1,Win32,30.12048193,,,,,,,,,,,,,,,,,,65,,,,,,,,,,0.03,2,3.8906,0,4,4,4,1,run errands on a sunny day,Watch a movie with my kids on a summer night in our backyard,0.05,0.03,1.1,1,,,,
,,655e0b698915e40faa8002f2,2024-10-06_15h54.31.885,WTP_SM_Choice,2022.2.1,Win32,30.12048193,,,,,,,NAN,,NAN,0.99,5.01,,0,64,64,64,1,65,Alex,Rej,Participant_Images/655e0b698915e40faa8002f2/655e0b698915e40faa8002f2_Images/655e0b698915e40faa8002f2_Image_5.jpeg,did not like,2.455989137,,,,,,,,,,,,,,,,,,,,,,
,,655e0b698915e40faa8002f2,2024-10-06_15h54.31.885,WTP_SM_Choice,2022.2.1,Win32,30.12048193,,,,,space,58.8106,NAN,,NAN,0.99,5.01,,0,65,65,65,1,66,Alex,Rej,Participant_Images/655e0b698915e40faa8002f2/655e0b698915e40faa8002f2_Images/655e0b698915e40faa8002f2_Image_4.jpeg,liked,3.79605092,,,,,,,,,,,,,,,,,,,,,,
,,655e0b698915e40faa8002f2,2024-10-06_15h54.31.885,WTP_SM_Choice,2022.2.1,Win32,30.12048193,,,,,space,80.8173,NAN,,NAN,0.99,5.01,,0,66,66,66,1,67,Alex,Rej,Participant_Images/655e0b698915e40faa8002f2/655e0b698915e40faa8002f2_Images/655e0b698915e40faa8002f2_Image_10.jpeg,did not like,3.562416326,,,,,,,,,,,,,,,,,,,,,,
,,655e0b698915e40faa8002f2,2024-10-06_15h54.31.885,WTP_SM_Choice,2022.2.1,Win32,30.12048193,,,,,space,1.0984,NAN,,NAN,0.99,5.01,,0,67,67,67,1,68,Alex,Rej,Participant_Images/655e0b698915e40faa8002f2/655e0b698915e40faa8002f2_Images/655e0b698915e40faa8002f2_Image_20.jpeg,did not like,2.843822497,,,,,,,,,,,,,,,,,,,,,,
,,655e0b698915e40faa8002f2,2024-10-06_15h54.31.885,WTP_SM_Choice,2022.2.1,Win32,30.12048193,,,,,space,127.8492,NAN,,NAN,0.99,5.01,,0,68,68,68,1,69,Alex,Rej,Participant_Images/655e0b698915e40faa8002f2/655e0b698915e40faa8002f2_Images/655e0b698915e40faa8002f2_Image_11.jpeg,did not like,3.546495948,,,,,,,,,,,,,,,,,,,,,,
,,655e0b698915e40faa8002f2,2024-10-06_15h54.31.885,WTP_SM_Choice,2022.2.1,Win32,30.12048193,,,,,,,,,,,,,,,,,,66,,,,,,space,94.6433,space,0.5624,0.01,1,1.1639,0,0,0,0,1,listen to music in my kids room,Explore a local farmers market with my family on a sunny weekend morning,0.01,0.04,1.1,1,,,,
,,655e0b698915e40faa8002f2,2024-10-06_15h54.31.885,WTP_SM_Choice,2022.2.1,Win32,30.12048193,,,,,,,,,,,,,,,,,,67,,,,,,,,,,,,,0,1,1,1,1,Cook a big meal together with my significant other in the kitchen on a weekend evening,shop at my favorite department store,0.02,0.04,8.8,0,,,,
,,655e0b698915e40faa8002f2,2024-10-06_15h54.31.885,WTP_SM_Choice,2022.2.1,Win32,30.12048193,,,,,,,,,,,,,,,,,,68,,,,,,,,,,0.03,1,1.4753,0,2,2,2,1,laugh at my favorite comedy specials on netflix,Attend a study session with classmates at a coffee shop on a wednesday evening,0.03,0.04,4.4,1,,,,
,,655e0b698915e40faa8002f2,2024-10-06_15h54.31.885,WTP_SM_Choice,2022.2.1,Win32,30.12048193,,,,,,,,,,,,,,,,,,69,,,,,,,,,,0.04,2,5.0956,0,3,3,3,1,Hike through wooded trails with my family on a cool autumn morning,sit on my patio in the hot afternoon,0.04,0.04,1.1,0,,,,
,,655e0b698915e40faa8002f2,2024-10-06_15h54.31.885,WTP_SM_Choice,2022.2.1,Win32,30.12048193,,,,,,,,,,,,,,,,,,70,,,,,,,,,,0.05,1,3.6673,0,4,4,4,1,Attend live music concerts with friends on a summer evening,shop at my favorite department store,0.05,0.04,1.1,0,,,,
,,655e0b698915e40faa8002f2,2024-10-06_15h54.31.885,WTP_SM_Choice,2022.2.1,Win32,30.12048193,,,,,,,NAN,,NAN,1.12,4.88,,0,69,69,69,1,70,Alex,Rej,Participant_Images/655e0b698915e40faa8002f2/655e0b698915e40faa8002f2_Images/655e0b698915e40faa8002f2_Image_9.jpeg,did not like,1.672012706,,,,,,,,,,,,,,,,,,,,,,
,,655e0b698915e40faa8002f2,2024-10-06_15h54.31.885,WTP_SM_Choice,2022.2.1,Win32,30.12048193,,,,,space,24.1382,NAN,,NAN,1.12,4.88,,0,70,70,70,1,71,Alex,Rej,Participant_Images/655e0b698915e40faa8002f2/655e0b698915e40faa8002f2_Images/655e0b698915e40faa8002f2_Image_25.jpeg,did not like,4.942172136,,,,,,,,,,,,,,,,,,,,,,
,,655e0b698915e40faa8002f2,2024-10-06_15h54.31.885,WTP_SM_Choice,2022.2.1,Win32,30.12048193,,,,,space,2.2038,NAN,,NAN,1.12,4.88,,0,71,71,71,1,72,Alex,Rej,Participant_Images/655e0b698915e40faa8002f2/655e0b698915e40faa8002f2_Images/655e0b698915e40faa8002f2_Image_12.jpeg,liked,2.50187214,,,,,,,,,,,,,,,,,,,,,,
,,655e0b698915e40faa8002f2,2024-10-06_15h54.31.885,WTP_SM_Choice,2022.2.1,Win32,30.12048193,,,,,space,12.5301,NAN,,NAN,1.12,4.88,,0,72,72,72,1,73,Alex,Rej,Participant_Images/655e0b698915e40faa8002f2/655e0b698915e40faa8002f2_Images/655e0b698915e40faa8002f2_Image_18.jpeg,liked,2.071164779,,,,,,,,,,,,,,,,,,,,,,
,,655e0b698915e40faa8002f2,2024-10-06_15h54.31.885,WTP_SM_Choice,2022.2.1,Win32,30.12048193,,,,,space,2.45,NAN,,NAN,1.12,4.88,,0,73,73,73,1,74,Alex,Rej,Participant_Images/655e0b698915e40faa8002f2/655e0b698915e40faa8002f2_Images/655e0b698915e40faa8002f2_Image_14.jpeg,liked,5.336503566,,,,,,,,,,,,,,,,,,,,,,
,,655e0b698915e40faa8002f2,2024-10-06_15h54.31.885,WTP_SM_Choice,2022.2.1,Win32,30.12048193,,,,,,,,,,,,,,,,,,71,,,,,,space,1.4976,space,0.5584,0.01,1,1.0944,0,0,0,0,1,Attend a study session with classmates at a coffee shop on a wednesday evening,run errands on a sunny day,0.01,0.05,3.3,0,,,,
,,655e0b698915e40faa8002f2,2024-10-06_15h54.31.885,WTP_SM_Choice,2022.2.1,Win32,30.12048193,,,,,,,,,,,,,,,,,,72,,,,,,,,,,0.02,1,0.9837,0,1,1,1,1,watch netflix on the couch,Attend live music concerts with friends on a summer evening,0.02,0.05,8.8,1,,,,
,,655e0b698915e40faa8002f2,2024-10-06_15h54.31.885,WTP_SM_Choice,2022.2.1,Win32,30.12048193,,,,,,,,,,,,,,,,,,73,,,,,,,,,,0.03,1,1.6656,0,2,2,2,1,Walk along the beach with my significant other during sunset,shop at my favorite department store,0.03,0.05,3.3,0,,,,
,,655e0b698915e40faa8002f2,2024-10-06_15h54.31.885,WTP_SM_Choice,2022.2.1,Win32,30.12048193,,,,,,,,,,,,,,,,,,74,,,,,,,,,,0.04,1,1.7907,0,3,3,3,1,Attend a study session with classmates at a coffee shop on a wednesday evening,listen to music in my kids room,0.04,0.05,4.4,0,,,,
,,655e0b698915e40faa8002f2,2024-10-06_15h54.31.885,WTP_SM_Choice,2022.2.1,Win32,30.12048193,,,,,,,,,,,,,,,,,,75,,,,,,,,,,0.05,1,1.9454,0,4,4,4,1,Explore a local farmers market with my family on a sunny weekend morning,listening to jackie hill  and preston perrys podcasts,0.05,0.05,3.3,0,,,,
,,655e0b698915e40faa8002f2,2024-10-06_15h54.31.885,WTP_SM_Choice,2022.2.1,Win32,30.12048193,,,,,,,3,,5,1.27,4.73,,0,74,74,74,1,75,Alex,Rej,Participant_Images/655e0b698915e40faa8002f2/655e0b698915e40faa8002f2_Images/655e0b698915e40faa8002f2_Image_13.jpeg,did not like,2.642157193,,,,,,,,,,,,,,,,,,,space,2.0929,,
,,655e0b698915e40faa8002f2,2024-10-06_15h54.31.885,WTP_SM_Choice,2022.2.1,Win32,30.12048193,,,space,4.4488,space,1.5854,NAN,,NAN,1.27,4.73,,0,75,75,75,1,76,Riley,Acc,Participant_Images/655e0b698915e40faa8002f2/655e0b698915e40faa8002f2_Images/655e0b698915e40faa8002f2_Image_8.jpeg,liked,4.456234322,,,,,,,,,,,,,,,,,,,,,,
,,655e0b698915e40faa8002f2,2024-10-06_15h54.31.885,WTP_SM_Choice,2022.2.1,Win32,30.12048193,,,,,space,6.3454,NAN,,NAN,1.27,4.73,,0,76,76,76,1,77,Riley,Acc,Participant_Images/655e0b698915e40faa8002f2/655e0b698915e40faa8002f2_Images/655e0b698915e40faa8002f2_Image_6.jpeg,did not like,4.438512181,,,,,,,,,,,,,,,,,,,,,,
,,655e0b698915e40faa8002f2,2024-10-06_15h54.31.885,WTP_SM_Choice,2022.2.1,Win32,30.12048193,,,,,space,7.7214,NAN,,NAN,1.27,4.73,,0,77,77,77,1,78,Riley,Acc,Participant_Images/655e0b698915e40faa8002f2/655e0b698915e40faa8002f2_Images/655e0b698915e40faa8002f2_Image_14.jpeg,did not like,2.682944783,,,,,,,,,,,,,,,,,,,,,,
,,655e0b698915e40faa8002f2,2024-10-06_15h54.31.885,WTP_SM_Choice,2022.2.1,Win32,30.12048193,,,,,space,21.5485,NAN,,NAN,1.27,4.73,,0,78,78,78,1,79,Riley,Acc,Participant_Images/655e0b698915e40faa8002f2/655e0b698915e40faa8002f2_Images/655e0b698915e40faa8002f2_Image_4.jpeg,did not like,4.51984296,,,,,,,,,,,,,,,,,,,,,,
,,655e0b698915e40faa8002f2,2024-10-06_15h54.31.885,WTP_SM_Choice,2022.2.1,Win32,30.12048193,,,,,,,,,,,,,,,,,,76,,,,,,space,75.8715,space,0.5801,,,,0,0,0,0,1,Watch a movie with my kids on a summer night in our backyard,shop at my favorite department store,0.01,0.01,1.1,0,,,,
,,655e0b698915e40faa8002f2,2024-10-06_15h54.31.885,WTP_SM_Choice,2022.2.1,Win32,30.12048193,,,,,,,,,,,,,,,,,,77,,,,,,,,,,0.01,2,6.5151,0,1,1,1,1,Attend live music concerts with friends on a summer evening,work out in my living room,0.02,0.01,8.8,0,,,,
,,655e0b698915e40faa8002f2,2024-10-06_15h54.31.885,WTP_SM_Choice,2022.2.1,Win32,30.12048193,,,,,,,,,,,,,,,,,,78,,,,,,,,,,0.01,2,2.2927,0,2,2,2,1,laugh at my favorite comedy specials on netflix,Explore a local farmers market with my family on a sunny weekend morning,0.03,0.01,1.1,1,,,,
,,655e0b698915e40faa8002f2,2024-10-06_15h54.31.885,WTP_SM_Choice,2022.2.1,Win32,30.12048193,,,,,,,,,,,,,,,,,,79,,,,,,,,,,0.01,2,1.1889,0,3,3,3,1,Cook a big meal together with my significant other in the kitchen on a weekend evening,sit on my patio in the hot afternoon,0.04,0.01,1.1,0,,,,
,,655e0b698915e40faa8002f2,2024-10-06_15h54.31.885,WTP_SM_Choice,2022.2.1,Win32,30.12048193,,,,,,,,,,,,,,,,,,80,,,,,,,,,,0.01,2,1.0488,0,4,4,4,1,redecorate my bedroom in the spring time,Attend a study session with classmates at a coffee shop on a wednesday evening,0.05,0.01,4.4,1,,,,
,,655e0b698915e40faa8002f2,2024-10-06_15h54.31.885,WTP_SM_Choice,2022.2.1,Win32,30.12048193,,,,,,,NAN,,NAN,1.31,4.69,,0,79,79,79,1,80,Riley,Acc,Participant_Images/655e0b698915e40faa8002f2/655e0b698915e40faa8002f2_Images/655e0b698915e40faa8002f2_Image_15.jpeg,liked,3.195382774,,,,,,,,,,,,,,,,,,,,,,
,,655e0b698915e40faa8002f2,2024-10-06_15h54.31.885,WTP_SM_Choice,2022.2.1,Win32,30.12048193,,,,,space,31.5192,NAN,,NAN,1.31,4.69,,0,80,80,80,1,81,Riley,Acc,Participant_Images/655e0b698915e40faa8002f2/655e0b698915e40faa8002f2_Images/655e0b698915e40faa8002f2_Image_3.jpeg,did not like,1.779333479,,,,,,,,,,,,,,,,,,,,,,
,,655e0b698915e40faa8002f2,2024-10-06_15h54.31.885,WTP_SM_Choice,2022.2.1,Win32,30.12048193,,,,,space,13.5512,NAN,,NAN,1.31,4.69,,0,81,81,81,1,82,Riley,Acc,Participant_Images/655e0b698915e40faa8002f2/655e0b698915e40faa8002f2_Images/655e0b698915e40faa8002f2_Image_5.jpeg,liked,4.312468682,,,,,,,,,,,,,,,,,,,,,,
,,655e0b698915e40faa8002f2,2024-10-06_15h54.31.885,WTP_SM_Choice,2022.2.1,Win32,30.12048193,,,,,space,2.2826,NAN,,NAN,1.31,4.69,,0,82,82,82,1,83,Riley,Acc,Participant_Images/655e0b698915e40faa8002f2/655e0b698915e40faa8002f2_Images/655e0b698915e40faa8002f2_Image_7.jpeg,liked,4.940433059,,,,,,,,,,,,,,,,,,,,,,
,,655e0b698915e40faa8002f2,2024-10-06_15h54.31.885,WTP_SM_Choice,2022.2.1,Win32,30.12048193,,,,,space,14.6626,NAN,,NAN,1.31,4.69,,0,83,83,83,1,84,Riley,Acc,Participant_Images/655e0b698915e40faa8002f2/655e0b698915e40faa8002f2_Images/655e0b698915e40faa8002f2_Image_10.jpeg,liked,2.7105123,,,,,,,,,,,,,,,,,,,,,,
,,655e0b698915e40faa8002f2,2024-10-06_15h54.31.885,WTP_SM_Choice,2022.2.1,Win32,30.12048193,,,,,,,,,,,,,,,,,,81,,,,,,space,22.9159,space,0.5696,0.01,1,1.3899,0,0,0,0,1,Hike through wooded trails with my family on a cool autumn morning,laugh at my favorite comedy specials on netflix,0.01,0.02,3.3,0,,,,
,,655e0b698915e40faa8002f2,2024-10-06_15h54.31.885,WTP_SM_Choice,2022.2.1,Win32,30.12048193,,,,,,,,,,,,,,,,,,82,,,,,,,,,,0.02,1,0.9284,0,1,1,1,1,Play board games with friends in a cozy living room on a rainy saturday afternoon,redecorate my bedroom in the spring time,0.02,0.02,4.4,0,,,,
,,655e0b698915e40faa8002f2,2024-10-06_15h54.31.885,WTP_SM_Choice,2022.2.1,Win32,30.12048193,,,,,,,,,,,,,,,,,,83,,,,,,,,,,0.03,1,1.2289,0,2,2,2,1,Volunteer at a community event with coworkers on a saturday afternoon,sit on my patio in the hot afternoon,0.03,0.02,1.1,0,,,,
,,655e0b698915e40faa8002f2,2024-10-06_15h54.31.885,WTP_SM_Choice,2022.2.1,Win32,30.12048193,,,,,,,,,,,,,,,,,,84,,,,,,,,,,0.04,1,7.706,0,3,3,3,1,Cook a big meal together with my significant other in the kitchen on a weekend evening,laugh at my favorite comedy specials on netflix,0.04,0.02,3.3,0,,,,
,,655e0b698915e40faa8002f2,2024-10-06_15h54.31.885,WTP_SM_Choice,2022.2.1,Win32,30.12048193,,,,,,,,,,,,,,,,,,85,,,,,,,,,,,,,0,4,4,4,1,listening to jackie hill  and preston perrys podcasts,Walk along the beach with my significant other during sunset,0.05,0.02,3.3,1,,,,
,,655e0b698915e40faa8002f2,2024-10-06_15h54.31.885,WTP_SM_Choice,2022.2.1,Win32,30.12048193,,,,,,,NAN,,NAN,1.41,4.59,,0,84,84,84,1,85,Riley,Acc,Participant_Images/655e0b698915e40faa8002f2/655e0b698915e40faa8002f2_Images/655e0b698915e40faa8002f2_Image_17.jpeg,liked,3.602308302,,,,,,,,,,,,,,,,,,,,,,
,,655e0b698915e40faa8002f2,2024-10-06_15h54.31.885,WTP_SM_Choice,2022.2.1,Win32,30.12048193,,,,,space,5.6152,NAN,,NAN,1.41,4.59,,0,85,85,85,1,86,Riley,Acc,Participant_Images/655e0b698915e40faa8002f2/655e0b698915e40faa8002f2_Images/655e0b698915e40faa8002f2_Image_2.jpeg,liked,4.106391878,,,,,,,,,,,,,,,,,,,,,,
,,655e0b698915e40faa8002f2,2024-10-06_15h54.31.885,WTP_SM_Choice,2022.2.1,Win32,30.12048193,,,,,space,7.0174,NAN,,NAN,1.41,4.59,,0,86,86,86,1,87,Riley,Acc,Participant_Images/655e0b698915e40faa8002f2/655e0b698915e40faa8002f2_Images/655e0b698915e40faa8002f2_Image_18.jpeg,liked,3.799433026,,,,,,,,,,,,,,,,,,,,,,
,,655e0b698915e40faa8002f2,2024-10-06_15h54.31.885,WTP_SM_Choice,2022.2.1,Win32,30.12048193,,,,,space,4.3992,NAN,,NAN,1.41,4.59,,0,87,87,87,1,88,Riley,Acc,Participant_Images/655e0b698915e40faa8002f2/655e0b698915e40faa8002f2_Images/655e0b698915e40faa8002f2_Image_1.jpeg,liked,5.246980764,,,,,,,,,,,,,,,,,,,,,,
,,655e0b698915e40faa8002f2,2024-10-06_15h54.31.885,WTP_SM_Choice,2022.2.1,Win32,30.12048193,,,,,space,7.2861,NAN,,NAN,1.41,4.59,,0,88,88,88,1,89,Riley,Acc,Participant_Images/655e0b698915e40faa8002f2/655e0b698915e40faa8002f2_Images/655e0b698915e40faa8002f2_Image_11.jpeg,liked,3.30081769,,,,,,,,,,,,,,,,,,,,,,
,,655e0b698915e40faa8002f2,2024-10-06_15h54.31.885,WTP_SM_Choice,2022.2.1,Win32,30.12048193,,,,,,,,,,,,,,,,,,86,,,,,,space,195.5456,space,0.4883,0.01,1,1.3428,0,0,0,0,1,watch netflix on the couch,Explore a local farmers market with my family on a sunny weekend morning,0.01,0.03,1.1,1,,,,
,,655e0b698915e40faa8002f2,2024-10-06_15h54.31.885,WTP_SM_Choice,2022.2.1,Win32,30.12048193,,,,,,,,,,,,,,,,,,87,,,,,,,,,,0.02,1,0.8158,0,1,1,1,1,Hike through wooded trails with my family on a cool autumn morning,shop at my favorite department store,0.02,0.03,4.4,0,,,,
,,655e0b698915e40faa8002f2,2024-10-06_15h54.31.885,WTP_SM_Choice,2022.2.1,Win32,30.12048193,,,,,,,,,,,,,,,,,,88,,,,,,,,,,0.03,1,1.3022,0,2,2,2,1,run errands on a sunny day,Attend live music concerts with friends on a summer evening,0.03,0.03,1.1,1,,,,
,,655e0b698915e40faa8002f2,2024-10-06_15h54.31.885,WTP_SM_Choice,2022.2.1,Win32,30.12048193,,,,,,,,,,,,,,,,,,89,,,,,,,,,,0.03,2,1.421,0,3,3,3,1,sit on my patio in the hot afternoon,Walk along the beach with my significant other during sunset,0.04,0.03,3.3,1,,,,
,,655e0b698915e40faa8002f2,2024-10-06_15h54.31.885,WTP_SM_Choice,2022.2.1,Win32,30.12048193,,,,,,,,,,,,,,,,,,90,,,,,,,,,,0.03,2,1.4992,0,4,4,4,1,Attend a study session with classmates at a coffee shop on a wednesday evening,shop at my favorite department store,0.05,0.03,8.8,0,,,,
,,655e0b698915e40faa8002f2,2024-10-06_15h54.31.885,WTP_SM_Choice,2022.2.1,Win32,30.12048193,,,,,,,NAN,,NAN,1.53,4.47,,0,89,89,89,1,90,Riley,Acc,Participant_Images/655e0b698915e40faa8002f2/655e0b698915e40faa8002f2_Images/655e0b698915e40faa8002f2_Image_19.jpeg,did not like,1.661473164,,,,,,,,,,,,,,,,,,,,,,
,,655e0b698915e40faa8002f2,2024-10-06_15h54.31.885,WTP_SM_Choice,2022.2.1,Win32,30.12048193,,,,,space,0.6341,NAN,,NAN,1.53,4.47,,0,90,90,90,1,91,Riley,Acc,Participant_Images/655e0b698915e40faa8002f2/655e0b698915e40faa8002f2_Images/655e0b698915e40faa8002f2_Image_22.jpeg,liked,3.613205605,,,,,,,,,,,,,,,,,,,,,,
,,655e0b698915e40faa8002f2,2024-10-06_15h54.31.885,WTP_SM_Choice,2022.2.1,Win32,30.12048193,,,,,space,14.7729,NAN,,NAN,1.53,4.47,,0,91,91,91,1,92,Riley,Acc,Participant_Images/655e0b698915e40faa8002f2/655e0b698915e40faa8002f2_Images/655e0b698915e40faa8002f2_Image_12.jpeg,did not like,4.988446431,,,,,,,,,,,,,,,,,,,,,,
,,655e0b698915e40faa8002f2,2024-10-06_15h54.31.885,WTP_SM_Choice,2022.2.1,Win32,30.12048193,,,,,space,2.2037,NAN,,NAN,1.53,4.47,,0,92,92,92,1,93,Riley,Acc,Participant_Images/655e0b698915e40faa8002f2/655e0b698915e40faa8002f2_Images/655e0b698915e40faa8002f2_Image_23.jpeg,liked,3.470791822,,,,,,,,,,,,,,,,,,,,,,
,,655e0b698915e40faa8002f2,2024-10-06_15h54.31.885,WTP_SM_Choice,2022.2.1,Win32,30.12048193,,,,,space,4.552,NAN,,NAN,1.53,4.47,,0,93,93,93,1,94,Riley,Acc,Participant_Images/655e0b698915e40faa8002f2/655e0b698915e40faa8002f2_Images/655e0b698915e40faa8002f2_Image_13.jpeg,liked,3.820572462,,,,,,,,,,,,,,,,,,,,,,
,,655e0b698915e40faa8002f2,2024-10-06_15h54.31.885,WTP_SM_Choice,2022.2.1,Win32,30.12048193,,,,,,,,,,,,,,,,,,91,,,,,,space,5.4758,space,0.9363,0.01,1,0.7821,0,0,0,0,1,Volunteer at a community event with coworkers on a saturday afternoon,laugh at my favorite comedy specials on netflix,0.01,0.04,3.3,0,,,,
,,655e0b698915e40faa8002f2,2024-10-06_15h54.31.885,WTP_SM_Choice,2022.2.1,Win32,30.12048193,,,,,,,,,,,,,,,,,,92,,,,,,,,,,0.02,1,1.37,0,1,1,1,1,shop at my favorite department store,Have deep conversations with close friends around a campfire on a chilly night,0.02,0.04,8.8,1,,,,
,,655e0b698915e40faa8002f2,2024-10-06_15h54.31.885,WTP_SM_Choice,2022.2.1,Win32,30.12048193,,,,,,,,,,,,,,,,,,93,,,,,,,,,,0.03,1,1.9859,0,2,2,2,1,laugh at my favorite comedy specials on netflix,Watch a movie with my kids on a summer night in our backyard,0.03,0.04,1.1,1,,,,
,,655e0b698915e40faa8002f2,2024-10-06_15h54.31.885,WTP_SM_Choice,2022.2.1,Win32,30.12048193,,,,,,,,,,,,,,,,,,94,,,,,,,,,,0.04,1,3.2207,0,3,3,3,1,Walk along the beach with my significant other during sunset,work out in my living room,0.04,0.04,4.4,0,,,,
,,655e0b698915e40faa8002f2,2024-10-06_15h54.31.885,WTP_SM_Choice,2022.2.1,Win32,30.12048193,,,,,,,,,,,,,,,,,,95,,,,,,,,,,0.04,2,1.6159,0,4,4,4,1,Attend live music concerts with friends on a summer evening,redecorate my bedroom in the spring time,0.05,0.04,4.4,0,,,,
,,655e0b698915e40faa8002f2,2024-10-06_15h54.31.885,WTP_SM_Choice,2022.2.1,Win32,30.12048193,,,,,,,NAN,,NAN,1.67,4.33,,0,94,94,94,1,95,Riley,Acc,Participant_Images/655e0b698915e40faa8002f2/655e0b698915e40faa8002f2_Images/655e0b698915e40faa8002f2_Image_25.jpeg,liked,2.455989137,,,,,,,,,,,,,,,,,,,,,,
,,655e0b698915e40faa8002f2,2024-10-06_15h54.31.885,WTP_SM_Choice,2022.2.1,Win32,30.12048193,,,,,space,1.8712,NAN,,NAN,1.67,4.33,,0,95,95,95,1,96,Riley,Acc,Participant_Images/655e0b698915e40faa8002f2/655e0b698915e40faa8002f2_Images/655e0b698915e40faa8002f2_Image_20.jpeg,liked,3.79605092,,,,,,,,,,,,,,,,,,,,,,
,,655e0b698915e40faa8002f2,2024-10-06_15h54.31.885,WTP_SM_Choice,2022.2.1,Win32,30.12048193,,,,,space,13.6516,NAN,,NAN,1.67,4.33,,0,96,96,96,1,97,Riley,Acc,Participant_Images/655e0b698915e40faa8002f2/655e0b698915e40faa8002f2_Images/655e0b698915e40faa8002f2_Image_21.jpeg,liked,3.562416326,,,,,,,,,,,,,,,,,,,,,,
,,655e0b698915e40faa8002f2,2024-10-06_15h54.31.885,WTP_SM_Choice,2022.2.1,Win32,30.12048193,,,,,space,26.3808,NAN,,NAN,1.67,4.33,,0,97,97,97,1,98,Riley,Acc,Participant_Images/655e0b698915e40faa8002f2/655e0b698915e40faa8002f2_Images/655e0b698915e40faa8002f2_Image_16.jpeg,liked,2.843822497,,,,,,,,,,,,,,,,,,,,,,
,,655e0b698915e40faa8002f2,2024-10-06_15h54.31.885,WTP_SM_Choice,2022.2.1,Win32,30.12048193,,,,,space,57.141,NAN,,NAN,1.67,4.33,,0,98,98,98,1,99,Riley,Acc,Participant_Images/655e0b698915e40faa8002f2/655e0b698915e40faa8002f2_Images/655e0b698915e40faa8002f2_Image_24.jpeg,did not like,3.546495948,,,,,,,,,,,,,,,,,,,,,,
,,655e0b698915e40faa8002f2,2024-10-06_15h54.31.885,WTP_SM_Choice,2022.2.1,Win32,30.12048193,,,,,,,,,,,,,,,,,,96,,,,,,space,38.0401,space,0.5148,0.01,1,1.4872,0,0,0,0,1,Cook a big meal together with my significant other in the kitchen on a weekend evening,redecorate my bedroom in the spring time,0.01,0.05,3.3,0,,,,
,,655e0b698915e40faa8002f2,2024-10-06_15h54.31.885,WTP_SM_Choice,2022.2.1,Win32,30.12048193,,,,,,,,,,,,,,,,,,97,,,,,,,,,,,,,0,1,1,1,1,watch netflix on the couch,Hike through wooded trails with my family on a cool autumn morning,0.02,0.05,1.1,1,,,,
,,655e0b698915e40faa8002f2,2024-10-06_15h54.31.885,WTP_SM_Choice,2022.2.1,Win32,30.12048193,,,,,,,,,,,,,,,,,,98,,,,,,,,,,,,,0,2,2,2,1,Hike through wooded trails with my family on a cool autumn morning,run errands on a sunny day,0.03,0.05,1.1,0,,,,
,,655e0b698915e40faa8002f2,2024-10-06_15h54.31.885,WTP_SM_Choice,2022.2.1,Win32,30.12048193,,,,,,,,,,,,,,,,,,99,,,,,,,,,,0.04,1,9.4986,0,3,3,3,1,listen to music in my kids room,Attend live music concerts with friends on a summer evening,0.04,0.05,3.3,1,,,,
,,655e0b698915e40faa8002f2,2024-10-06_15h54.31.885,WTP_SM_Choice,2022.2.1,Win32,30.12048193,,,,,,,,,,,,,,,,,,100,,,,,,,,,,0.05,2,4.7914,0,4,4,4,1,Explore a local farmers market with my family on a sunny weekend morning,shop at my favorite department store,0.05,0.05,4.4,0,,,,
,,655e0b698915e40faa8002f2,2024-10-06_15h54.31.885,WTP_SM_Choice,2022.2.1,Win32,30.12048193,,,,,,,3,,5,1.77,4.23,,0,99,99,99,1,100,Riley,Acc,Participant_Images/655e0b698915e40faa8002f2/655e0b698915e40faa8002f2_Images/655e0b698915e40faa8002f2_Image_9.jpeg,liked,1.672012706,,,,,,,,,,,,,,,,,,,space,12.1681,,
,,655e0b698915e40faa8002f2,2024-10-06_15h54.31.885,WTP_SM_Choice,2022.2.1,Win32,30.12048193,,,,,,,,,,,,,,,,,,,,,,,,,,,,,,,,,,,,,,,,,,,,space,4.2684
