endwelcomescreen_keys.keys,endwelcomescreen_keys.rt,participant,date,expName,psychopyVersion,OS,frameRate,endinstructionscreen_keys.keys,endinstructionscreen_keys.rt,endpartnermatch_keys.keys,endpartnermatch_keys.rt,sharenextphoto_key.keys,sharenextphoto_key.rt,salience_rating,key_resp.keys,stress_level,subtract_bonus,TOTAL_TASK_BONUS,stresslevel_keypress.keys,entiretaskloop.thisRepN,entiretaskloop.thisTrialN,entiretaskloop.thisN,entiretaskloop.thisIndex,entiretaskloop.ran,TrialNumber,Partner,Condition,Photos,Feedback,FeedbackWait,WTP_ins_keys1.keys,WTP_ins_keys1.rt,WTP_ins_keys2.keys,WTP_ins_keys2.rt,decision_price,responses.keys,responses.rt,WTPTaskLoop.thisRepN,WTPTaskLoop.thisTrialN,WTPTaskLoop.thisN,WTPTaskLoop.thisIndex,WTPTaskLoop.ran,right,left,leftmoney,rightmoney,WTP_ITI,social_left,Resume_keys.keys,Resume_keys.rt,end_screen_keys.keys,end_screen_keys.rt
space,9.3546,6560aa71bf5cc31f1c99ca34,2024-10-03_12h10.33.077,WTP_SM_Choice,2022.2.1,Win32,59.17159763,,,,,,,,,,,,,,,,,,,,,,,,,,,,,,,,,,,,,,,,,,,,,
,,6560aa71bf5cc31f1c99ca34,2024-10-03_12h10.33.077,WTP_SM_Choice,2022.2.1,Win32,59.17159763,space,587.5231,,,,,,,,,,,,,,,,,,,,,,,,,,,,,,,,,,,,,,,,,,,
,,6560aa71bf5cc31f1c99ca34,2024-10-03_12h10.33.077,WTP_SM_Choice,2022.2.1,Win32,59.17159763,,,space,7.1079,space,1.2659,NAN,,NAN,0,6,,0,0,0,0,1,1,Charlie,Acc,Participant_Images/6560aa71bf5cc31f1c99ca34/6560aa71bf5cc31f1c99ca34_Images/6560aa71bf5cc31f1c99ca34_Image_4.jpeg,liked,3.613205605,,,,,,,,,,,,,,,,,,,,,,
,,6560aa71bf5cc31f1c99ca34,2024-10-03_12h10.33.077,WTP_SM_Choice,2022.2.1,Win32,59.17159763,,,,,space,0.7005,NAN,,NAN,0,6,,0,1,1,1,1,2,Charlie,Acc,Participant_Images/6560aa71bf5cc31f1c99ca34/6560aa71bf5cc31f1c99ca34_Images/6560aa71bf5cc31f1c99ca34_Image_18.jpeg,liked,4.988446431,,,,,,,,,,,,,,,,,,,,,,
,,6560aa71bf5cc31f1c99ca34,2024-10-03_12h10.33.077,WTP_SM_Choice,2022.2.1,Win32,59.17159763,,,,,space,1.0482,NAN,,NAN,0,6,,0,2,2,2,1,3,Charlie,Acc,Participant_Images/6560aa71bf5cc31f1c99ca34/6560aa71bf5cc31f1c99ca34_Images/6560aa71bf5cc31f1c99ca34_Image_23.jpeg,liked,3.470791822,,,,,,,,,,,,,,,,,,,,,,
,,6560aa71bf5cc31f1c99ca34,2024-10-03_12h10.33.077,WTP_SM_Choice,2022.2.1,Win32,59.17159763,,,,,space,1.1825,NAN,,NAN,0,6,,0,3,3,3,1,4,Charlie,Acc,Participant_Images/6560aa71bf5cc31f1c99ca34/6560aa71bf5cc31f1c99ca34_Images/6560aa71bf5cc31f1c99ca34_Image_12.jpeg,liked,3.820572462,,,,,,,,,,,,,,,,,,,,,,
,,6560aa71bf5cc31f1c99ca34,2024-10-03_12h10.33.077,WTP_SM_Choice,2022.2.1,Win32,59.17159763,,,,,,,,,,,,,,,,,,1,,,,,,space,9.5072,space,6.0385,0.01,1,3.713,0,0,0,0,1,Hang out with friends or family at the mall on a rainy day,Read books in my room on a cloudy day,0.01,0.01,4.4,0,,,,
,,6560aa71bf5cc31f1c99ca34,2024-10-03_12h10.33.077,WTP_SM_Choice,2022.2.1,Win32,59.17159763,,,,,,,,,,,,,,,,,,2,,,,,,,,,,0.01,2,2.7943,0,1,1,1,1,Watch anime on random days with friends,Make beats on my computer in my room during the sunset,0.02,0.01,8.8,0,,,,
,,6560aa71bf5cc31f1c99ca34,2024-10-03_12h10.33.077,WTP_SM_Choice,2022.2.1,Win32,59.17159763,,,,,,,,,,,,,,,,,,3,,,,,,,,,,0.03,1,3.2742,0,2,2,2,1,Play aracde games at the arcade on the weekends with friends,Take walks in the park on a sunny day,0.03,0.01,3.3,0,,,,
,,6560aa71bf5cc31f1c99ca34,2024-10-03_12h10.33.077,WTP_SM_Choice,2022.2.1,Win32,59.17159763,,,,,,,,,,,,,,,,,,4,,,,,,,,,,0.04,1,3.097,0,3,3,3,1,Draw pictures in my room on a sunny day,Travel out of town with friends on the weekends,0.04,0.01,1.1,1,,,,
,,6560aa71bf5cc31f1c99ca34,2024-10-03_12h10.33.077,WTP_SM_Choice,2022.2.1,Win32,59.17159763,,,,,,,,,,,,,,,,,,5,,,,,,,,,,0.05,1,3.6896,0,4,4,4,1,Make beats on my computer in my room during the sunset,Go to the book store or the library with friends on cloudy afternoons,0.05,0.01,1.1,1,,,,
,,6560aa71bf5cc31f1c99ca34,2024-10-03_12h10.33.077,WTP_SM_Choice,2022.2.1,Win32,59.17159763,,,,,,,NAN,,NAN,0.14,5.86,,0,4,4,4,1,5,Charlie,Acc,Participant_Images/6560aa71bf5cc31f1c99ca34/6560aa71bf5cc31f1c99ca34_Images/6560aa71bf5cc31f1c99ca34_Image_3.jpeg,liked,2.455989137,,,,,,,,,,,,,,,,,,,,,,
,,6560aa71bf5cc31f1c99ca34,2024-10-03_12h10.33.077,WTP_SM_Choice,2022.2.1,Win32,59.17159763,,,,,space,1.0668,NAN,,NAN,0.14,5.86,,0,5,5,5,1,6,Charlie,Acc,Participant_Images/6560aa71bf5cc31f1c99ca34/6560aa71bf5cc31f1c99ca34_Images/6560aa71bf5cc31f1c99ca34_Image_5.jpeg,did not like,3.79605092,,,,,,,,,,,,,,,,,,,,,,
,,6560aa71bf5cc31f1c99ca34,2024-10-03_12h10.33.077,WTP_SM_Choice,2022.2.1,Win32,59.17159763,,,,,space,2.0414,NAN,,NAN,0.14,5.86,,0,6,6,6,1,7,Charlie,Acc,Participant_Images/6560aa71bf5cc31f1c99ca34/6560aa71bf5cc31f1c99ca34_Images/6560aa71bf5cc31f1c99ca34_Image_21.jpeg,liked,3.562416326,,,,,,,,,,,,,,,,,,,,,,
,,6560aa71bf5cc31f1c99ca34,2024-10-03_12h10.33.077,WTP_SM_Choice,2022.2.1,Win32,59.17159763,,,,,space,1.7689,NAN,,NAN,0.14,5.86,,0,7,7,7,1,8,Charlie,Acc,Participant_Images/6560aa71bf5cc31f1c99ca34/6560aa71bf5cc31f1c99ca34_Images/6560aa71bf5cc31f1c99ca34_Image_8.jpeg,liked,2.843822497,,,,,,,,,,,,,,,,,,,,,,
,,6560aa71bf5cc31f1c99ca34,2024-10-03_12h10.33.077,WTP_SM_Choice,2022.2.1,Win32,59.17159763,,,,,space,1.4166,NAN,,NAN,0.14,5.86,,0,8,8,8,1,9,Charlie,Acc,Participant_Images/6560aa71bf5cc31f1c99ca34/6560aa71bf5cc31f1c99ca34_Images/6560aa71bf5cc31f1c99ca34_Image_20.jpeg,did not like,3.546495948,,,,,,,,,,,,,,,,,,,,,,
,,6560aa71bf5cc31f1c99ca34,2024-10-03_12h10.33.077,WTP_SM_Choice,2022.2.1,Win32,59.17159763,,,,,,,,,,,,,,,,,,6,,,,,,space,4.9884,space,4.0003,0.02,2,4.1013,0,0,0,0,1,Take walks in the park on a sunny day,Hikewith friends on sunny mornings,0.01,0.02,3.3,1,,,,
,,6560aa71bf5cc31f1c99ca34,2024-10-03_12h10.33.077,WTP_SM_Choice,2022.2.1,Win32,59.17159763,,,,,,,,,,,,,,,,,,7,,,,,,,,,,0.02,1,2.6289,0,1,1,1,1,Read books in my room on a cloudy day,Travel out of town with friends on the weekends,0.02,0.02,1.1,1,,,,
,,6560aa71bf5cc31f1c99ca34,2024-10-03_12h10.33.077,WTP_SM_Choice,2022.2.1,Win32,59.17159763,,,,,,,,,,,,,,,,,,8,,,,,,,,,,0.03,1,2.9403,0,2,2,2,1,Cook delicious meals in my kitchen on a sunny day,Eat dinner with family on Sunday evenings,0.03,0.02,1.1,1,,,,
,,6560aa71bf5cc31f1c99ca34,2024-10-03_12h10.33.077,WTP_SM_Choice,2022.2.1,Win32,59.17159763,,,,,,,,,,,,,,,,,,9,,,,,,,,,,0.04,1,3.4533,0,3,3,3,1,Hikewith friends on sunny mornings,Make beats on my computer in my room during the sunset,0.04,0.02,4.4,0,,,,
,,6560aa71bf5cc31f1c99ca34,2024-10-03_12h10.33.077,WTP_SM_Choice,2022.2.1,Win32,59.17159763,,,,,,,,,,,,,,,,,,10,,,,,,,,,,0.05,1,1.6762,0,4,4,4,1,Watch tv in my bed alone,Watch tubi movies on random days with friends,0.05,0.02,1.1,1,,,,
,,6560aa71bf5cc31f1c99ca34,2024-10-03_12h10.33.077,WTP_SM_Choice,2022.2.1,Win32,59.17159763,,,,,,,NAN,,NAN,0.3,5.7,,0,9,9,9,1,10,Charlie,Acc,Participant_Images/6560aa71bf5cc31f1c99ca34/6560aa71bf5cc31f1c99ca34_Images/6560aa71bf5cc31f1c99ca34_Image_2.jpeg,liked,1.672012706,,,,,,,,,,,,,,,,,,,,,,
,,6560aa71bf5cc31f1c99ca34,2024-10-03_12h10.33.077,WTP_SM_Choice,2022.2.1,Win32,59.17159763,,,,,space,1.8368,NAN,,NAN,0.3,5.7,,0,10,10,10,1,11,Charlie,Acc,Participant_Images/6560aa71bf5cc31f1c99ca34/6560aa71bf5cc31f1c99ca34_Images/6560aa71bf5cc31f1c99ca34_Image_13.jpeg,liked,4.942172136,,,,,,,,,,,,,,,,,,,,,,
,,6560aa71bf5cc31f1c99ca34,2024-10-03_12h10.33.077,WTP_SM_Choice,2022.2.1,Win32,59.17159763,,,,,space,1.5741,NAN,,NAN,0.3,5.7,,0,11,11,11,1,12,Charlie,Acc,Participant_Images/6560aa71bf5cc31f1c99ca34/6560aa71bf5cc31f1c99ca34_Images/6560aa71bf5cc31f1c99ca34_Image_15.jpeg,liked,2.50187214,,,,,,,,,,,,,,,,,,,,,,
,,6560aa71bf5cc31f1c99ca34,2024-10-03_12h10.33.077,WTP_SM_Choice,2022.2.1,Win32,59.17159763,,,,,space,3.2844,NAN,,NAN,0.3,5.7,,0,12,12,12,1,13,Charlie,Acc,Participant_Images/6560aa71bf5cc31f1c99ca34/6560aa71bf5cc31f1c99ca34_Images/6560aa71bf5cc31f1c99ca34_Image_22.jpeg,did not like,2.071164779,,,,,,,,,,,,,,,,,,,,,,
,,6560aa71bf5cc31f1c99ca34,2024-10-03_12h10.33.077,WTP_SM_Choice,2022.2.1,Win32,59.17159763,,,,,space,1.7055,NAN,,NAN,0.3,5.7,,0,13,13,13,1,14,Charlie,Acc,Participant_Images/6560aa71bf5cc31f1c99ca34/6560aa71bf5cc31f1c99ca34_Images/6560aa71bf5cc31f1c99ca34_Image_10.jpeg,liked,5.336503566,,,,,,,,,,,,,,,,,,,,,,
,,6560aa71bf5cc31f1c99ca34,2024-10-03_12h10.33.077,WTP_SM_Choice,2022.2.1,Win32,59.17159763,,,,,,,,,,,,,,,,,,11,,,,,,space,2.1091,space,2.3795,0.03,2,2.6048,0,0,0,0,1,Watch anime on a rainy day in my room,Make beats or playng instruments with friends,0.01,0.03,3.3,1,,,,
,,6560aa71bf5cc31f1c99ca34,2024-10-03_12h10.33.077,WTP_SM_Choice,2022.2.1,Win32,59.17159763,,,,,,,,,,,,,,,,,,12,,,,,,,,,,0.03,2,2.1246,0,1,1,1,1,Watch anime on a rainy day in my room,Watch anime on random days with friends,0.02,0.03,4.4,1,,,,
,,6560aa71bf5cc31f1c99ca34,2024-10-03_12h10.33.077,WTP_SM_Choice,2022.2.1,Win32,59.17159763,,,,,,,,,,,,,,,,,,13,,,,,,,,,,0.03,2,3.7781,0,2,2,2,1,Try out new restaurants with friends on the weekends,Make beats on my computer in my room during the sunset,0.03,0.03,1.1,0,,,,
,,6560aa71bf5cc31f1c99ca34,2024-10-03_12h10.33.077,WTP_SM_Choice,2022.2.1,Win32,59.17159763,,,,,,,,,,,,,,,,,,14,,,,,,,,,,0.04,1,8.0161,0,3,3,3,1,Draw pictures in my room on a sunny day,Go to the book store or the library with friends on cloudy afternoons,0.04,0.03,3.3,1,,,,
,,6560aa71bf5cc31f1c99ca34,2024-10-03_12h10.33.077,WTP_SM_Choice,2022.2.1,Win32,59.17159763,,,,,,,,,,,,,,,,,,15,,,,,,,,,,0.05,1,3.5408,0,4,4,4,1,Play instruments in my room on a sunny day,Hang out with friends or family at the mall on a rainy day,0.05,0.03,4.4,1,,,,
,,6560aa71bf5cc31f1c99ca34,2024-10-03_12h10.33.077,WTP_SM_Choice,2022.2.1,Win32,59.17159763,,,,,,,NAN,,NAN,0.48,5.52,,0,14,14,14,1,15,Charlie,Acc,Participant_Images/6560aa71bf5cc31f1c99ca34/6560aa71bf5cc31f1c99ca34_Images/6560aa71bf5cc31f1c99ca34_Image_24.jpeg,liked,2.642157193,,,,,,,,,,,,,,,,,,,,,,
,,6560aa71bf5cc31f1c99ca34,2024-10-03_12h10.33.077,WTP_SM_Choice,2022.2.1,Win32,59.17159763,,,,,space,1.3154,NAN,,NAN,0.48,5.52,,0,15,15,15,1,16,Charlie,Acc,Participant_Images/6560aa71bf5cc31f1c99ca34/6560aa71bf5cc31f1c99ca34_Images/6560aa71bf5cc31f1c99ca34_Image_9.jpeg,liked,4.456234322,,,,,,,,,,,,,,,,,,,,,,
,,6560aa71bf5cc31f1c99ca34,2024-10-03_12h10.33.077,WTP_SM_Choice,2022.2.1,Win32,59.17159763,,,,,space,0.5539,NAN,,NAN,0.48,5.52,,0,16,16,16,1,17,Charlie,Acc,Participant_Images/6560aa71bf5cc31f1c99ca34/6560aa71bf5cc31f1c99ca34_Images/6560aa71bf5cc31f1c99ca34_Image_1.jpeg,liked,4.438512181,,,,,,,,,,,,,,,,,,,,,,
,,6560aa71bf5cc31f1c99ca34,2024-10-03_12h10.33.077,WTP_SM_Choice,2022.2.1,Win32,59.17159763,,,,,space,1.3584,NAN,,NAN,0.48,5.52,,0,17,17,17,1,18,Charlie,Acc,Participant_Images/6560aa71bf5cc31f1c99ca34/6560aa71bf5cc31f1c99ca34_Images/6560aa71bf5cc31f1c99ca34_Image_7.jpeg,did not like,2.682944783,,,,,,,,,,,,,,,,,,,,,,
,,6560aa71bf5cc31f1c99ca34,2024-10-03_12h10.33.077,WTP_SM_Choice,2022.2.1,Win32,59.17159763,,,,,space,1.5285,NAN,,NAN,0.48,5.52,,0,18,18,18,1,19,Charlie,Acc,Participant_Images/6560aa71bf5cc31f1c99ca34/6560aa71bf5cc31f1c99ca34_Images/6560aa71bf5cc31f1c99ca34_Image_14.jpeg,did not like,4.51984296,,,,,,,,,,,,,,,,,,,,,,
,,6560aa71bf5cc31f1c99ca34,2024-10-03_12h10.33.077,WTP_SM_Choice,2022.2.1,Win32,59.17159763,,,,,,,,,,,,,,,,,,16,,,,,,space,1.8089,space,1.8476,0.04,2,2.8452,0,0,0,0,1,Watch anime on a rainy day in my room,Play aracde games at the arcade on the weekends with friends,0.01,0.04,1.1,1,,,,
,,6560aa71bf5cc31f1c99ca34,2024-10-03_12h10.33.077,WTP_SM_Choice,2022.2.1,Win32,59.17159763,,,,,,,,,,,,,,,,,,17,,,,,,,,,,0.04,2,2.4466,0,1,1,1,1,Go to the book store or the library with friends on cloudy afternoons,Take walks in the park on a sunny day,0.02,0.04,8.8,0,,,,
,,6560aa71bf5cc31f1c99ca34,2024-10-03_12h10.33.077,WTP_SM_Choice,2022.2.1,Win32,59.17159763,,,,,,,,,,,,,,,,,,18,,,,,,,,,,0.04,2,4.3915,0,2,2,2,1,Read books in my room on a cloudy day,Watch anime on random days with friends,0.03,0.04,3.3,1,,,,
,,6560aa71bf5cc31f1c99ca34,2024-10-03_12h10.33.077,WTP_SM_Choice,2022.2.1,Win32,59.17159763,,,,,,,,,,,,,,,,,,19,,,,,,,,,,0.04,2,3.3988,0,3,3,3,1,Watch anime on a rainy day in my room,Hang out with friends or family at the mall on a rainy day,0.04,0.04,3.3,1,,,,
,,6560aa71bf5cc31f1c99ca34,2024-10-03_12h10.33.077,WTP_SM_Choice,2022.2.1,Win32,59.17159763,,,,,,,,,,,,,,,,,,20,,,,,,,,,,0.05,1,2.2458,0,4,4,4,1,Draw pictures in my room on a sunny day,Try out new restaurants with friends on the weekends,0.05,0.04,1.1,1,,,,
,,6560aa71bf5cc31f1c99ca34,2024-10-03_12h10.33.077,WTP_SM_Choice,2022.2.1,Win32,59.17159763,,,,,,,NAN,,NAN,0.69,5.31,,0,19,19,19,1,20,Charlie,Acc,Participant_Images/6560aa71bf5cc31f1c99ca34/6560aa71bf5cc31f1c99ca34_Images/6560aa71bf5cc31f1c99ca34_Image_16.jpeg,liked,3.195382774,,,,,,,,,,,,,,,,,,,,,,
,,6560aa71bf5cc31f1c99ca34,2024-10-03_12h10.33.077,WTP_SM_Choice,2022.2.1,Win32,59.17159763,,,,,space,1.3171,NAN,,NAN,0.69,5.31,,0,20,20,20,1,21,Charlie,Acc,Participant_Images/6560aa71bf5cc31f1c99ca34/6560aa71bf5cc31f1c99ca34_Images/6560aa71bf5cc31f1c99ca34_Image_17.jpeg,liked,1.779333479,,,,,,,,,,,,,,,,,,,,,,
,,6560aa71bf5cc31f1c99ca34,2024-10-03_12h10.33.077,WTP_SM_Choice,2022.2.1,Win32,59.17159763,,,,,space,1.6519,NAN,,NAN,0.69,5.31,,0,21,21,21,1,22,Charlie,Acc,Participant_Images/6560aa71bf5cc31f1c99ca34/6560aa71bf5cc31f1c99ca34_Images/6560aa71bf5cc31f1c99ca34_Image_25.jpeg,did not like,4.312468682,,,,,,,,,,,,,,,,,,,,,,
,,6560aa71bf5cc31f1c99ca34,2024-10-03_12h10.33.077,WTP_SM_Choice,2022.2.1,Win32,59.17159763,,,,,space,1.507,NAN,,NAN,0.69,5.31,,0,22,22,22,1,23,Charlie,Acc,Participant_Images/6560aa71bf5cc31f1c99ca34/6560aa71bf5cc31f1c99ca34_Images/6560aa71bf5cc31f1c99ca34_Image_11.jpeg,liked,4.940433059,,,,,,,,,,,,,,,,,,,,,,
,,6560aa71bf5cc31f1c99ca34,2024-10-03_12h10.33.077,WTP_SM_Choice,2022.2.1,Win32,59.17159763,,,,,space,1.3007,NAN,,NAN,0.69,5.31,,0,23,23,23,1,24,Charlie,Acc,Participant_Images/6560aa71bf5cc31f1c99ca34/6560aa71bf5cc31f1c99ca34_Images/6560aa71bf5cc31f1c99ca34_Image_19.jpeg,did not like,2.7105123,,,,,,,,,,,,,,,,,,,,,,
,,6560aa71bf5cc31f1c99ca34,2024-10-03_12h10.33.077,WTP_SM_Choice,2022.2.1,Win32,59.17159763,,,,,,,,,,,,,,,,,,21,,,,,,space,1.9034,space,4.7585,0.05,2,2.5666,0,0,0,0,1,Watch anime on random days with friends,Watch tv in my bed alone,0.01,0.05,8.8,0,,,,
,,6560aa71bf5cc31f1c99ca34,2024-10-03_12h10.33.077,WTP_SM_Choice,2022.2.1,Win32,59.17159763,,,,,,,,,,,,,,,,,,22,,,,,,,,,,0.05,2,4.8909,0,1,1,1,1,Watch anime on random days with friends,Take pictures with my camera in the city on a warm sunny day,0.02,0.05,4.4,0,,,,
,,6560aa71bf5cc31f1c99ca34,2024-10-03_12h10.33.077,WTP_SM_Choice,2022.2.1,Win32,59.17159763,,,,,,,,,,,,,,,,,,23,,,,,,,,,,0.05,2,1.3967,0,2,2,2,1,Cook delicious meals in my kitchen on a sunny day,Play aracde games at the arcade on the weekends with friends,0.03,0.05,1.1,1,,,,
,,6560aa71bf5cc31f1c99ca34,2024-10-03_12h10.33.077,WTP_SM_Choice,2022.2.1,Win32,59.17159763,,,,,,,,,,,,,,,,,,24,,,,,,,,,,0.05,2,1.7974,0,3,3,3,1,Take walks in the park on a sunny day,Watch anime on random days with friends,0.04,0.05,4.4,1,,,,
,,6560aa71bf5cc31f1c99ca34,2024-10-03_12h10.33.077,WTP_SM_Choice,2022.2.1,Win32,59.17159763,,,,,,,,,,,,,,,,,,25,,,,,,,,,,0.05,1,3.1676,0,4,4,4,1,Hikewith friends on sunny mornings,Watch anime on a rainy day in my room,0.05,0.05,3.3,0,,,,
,,6560aa71bf5cc31f1c99ca34,2024-10-03_12h10.33.077,WTP_SM_Choice,2022.2.1,Win32,59.17159763,,,,,,,2,,9,0.94,5.06,,0,24,24,24,1,25,Charlie,Acc,Participant_Images/6560aa71bf5cc31f1c99ca34/6560aa71bf5cc31f1c99ca34_Images/6560aa71bf5cc31f1c99ca34_Image_6.jpeg,liked,3.602308302,,,,,,,,,,,,,,,,,,,space,1.3754,,
,,6560aa71bf5cc31f1c99ca34,2024-10-03_12h10.33.077,WTP_SM_Choice,2022.2.1,Win32,59.17159763,,,space,2.2509,space,3.8417,NAN,,NAN,0.94,5.06,,0,25,25,25,1,26,Riley,Rej,Participant_Images/6560aa71bf5cc31f1c99ca34/6560aa71bf5cc31f1c99ca34_Images/6560aa71bf5cc31f1c99ca34_Image_16.jpeg,did not like,4.106391878,,,,,,,,,,,,,,,,,,,,,,
,,6560aa71bf5cc31f1c99ca34,2024-10-03_12h10.33.077,WTP_SM_Choice,2022.2.1,Win32,59.17159763,,,,,space,2.3737,NAN,,NAN,0.94,5.06,,0,26,26,26,1,27,Riley,Rej,Participant_Images/6560aa71bf5cc31f1c99ca34/6560aa71bf5cc31f1c99ca34_Images/6560aa71bf5cc31f1c99ca34_Image_25.jpeg,did not like,3.799433026,,,,,,,,,,,,,,,,,,,,,,
,,6560aa71bf5cc31f1c99ca34,2024-10-03_12h10.33.077,WTP_SM_Choice,2022.2.1,Win32,59.17159763,,,,,space,2.0728,NAN,,NAN,0.94,5.06,,0,27,27,27,1,28,Riley,Rej,Participant_Images/6560aa71bf5cc31f1c99ca34/6560aa71bf5cc31f1c99ca34_Images/6560aa71bf5cc31f1c99ca34_Image_13.jpeg,did not like,5.246980764,,,,,,,,,,,,,,,,,,,,,,
,,6560aa71bf5cc31f1c99ca34,2024-10-03_12h10.33.077,WTP_SM_Choice,2022.2.1,Win32,59.17159763,,,,,space,4.5062,NAN,,NAN,0.94,5.06,,0,28,28,28,1,29,Riley,Rej,Participant_Images/6560aa71bf5cc31f1c99ca34/6560aa71bf5cc31f1c99ca34_Images/6560aa71bf5cc31f1c99ca34_Image_12.jpeg,did not like,3.30081769,,,,,,,,,,,,,,,,,,,,,,
,,6560aa71bf5cc31f1c99ca34,2024-10-03_12h10.33.077,WTP_SM_Choice,2022.2.1,Win32,59.17159763,,,,,,,,,,,,,,,,,,26,,,,,,space,7.4697,space,1.5167,0.01,2,2.4806,0,0,0,0,1,Watch anime on a rainy day in my room,Try out new restaurants with friends on the weekends,0.01,0.01,4.4,1,,,,
,,6560aa71bf5cc31f1c99ca34,2024-10-03_12h10.33.077,WTP_SM_Choice,2022.2.1,Win32,59.17159763,,,,,,,,,,,,,,,,,,27,,,,,,,,,,0.02,1,2.9016,0,1,1,1,1,Watch tubi movies on random days with friends,Cook delicious meals in my kitchen on a sunny day,0.02,0.01,3.3,0,,,,
,,6560aa71bf5cc31f1c99ca34,2024-10-03_12h10.33.077,WTP_SM_Choice,2022.2.1,Win32,59.17159763,,,,,,,,,,,,,,,,,,28,,,,,,,,,,0.03,1,3.7297,0,2,2,2,1,Hikewith friends on sunny mornings,Draw pictures in my room on a sunny day,0.03,0.01,3.3,0,,,,
,,6560aa71bf5cc31f1c99ca34,2024-10-03_12h10.33.077,WTP_SM_Choice,2022.2.1,Win32,59.17159763,,,,,,,,,,,,,,,,,,29,,,,,,,,,,0.04,1,2.2937,0,3,3,3,1,Go to the book store or the library with friends on cloudy afternoons,Watch tv in my bed alone,0.04,0.01,4.4,0,,,,
,,6560aa71bf5cc31f1c99ca34,2024-10-03_12h10.33.077,WTP_SM_Choice,2022.2.1,Win32,59.17159763,,,,,,,,,,,,,,,,,,30,,,,,,,,,,0.05,1,2.4881,0,4,4,4,1,Eat dinner with family on Sunday evenings,Watch anime on a rainy day in my room,0.05,0.01,8.8,0,,,,
,,6560aa71bf5cc31f1c99ca34,2024-10-03_12h10.33.077,WTP_SM_Choice,2022.2.1,Win32,59.17159763,,,,,,,NAN,,NAN,1.09,4.91,,0,29,29,29,1,30,Riley,Rej,Participant_Images/6560aa71bf5cc31f1c99ca34/6560aa71bf5cc31f1c99ca34_Images/6560aa71bf5cc31f1c99ca34_Image_14.jpeg,did not like,1.661473164,,,,,,,,,,,,,,,,,,,,,,
,,6560aa71bf5cc31f1c99ca34,2024-10-03_12h10.33.077,WTP_SM_Choice,2022.2.1,Win32,59.17159763,,,,,space,0.6724,NAN,,NAN,1.09,4.91,,0,30,30,30,1,31,Riley,Rej,Participant_Images/6560aa71bf5cc31f1c99ca34/6560aa71bf5cc31f1c99ca34_Images/6560aa71bf5cc31f1c99ca34_Image_10.jpeg,did not like,3.613205605,,,,,,,,,,,,,,,,,,,,,,
,,6560aa71bf5cc31f1c99ca34,2024-10-03_12h10.33.077,WTP_SM_Choice,2022.2.1,Win32,59.17159763,,,,,space,0.7581,NAN,,NAN,1.09,4.91,,0,31,31,31,1,32,Riley,Rej,Participant_Images/6560aa71bf5cc31f1c99ca34/6560aa71bf5cc31f1c99ca34_Images/6560aa71bf5cc31f1c99ca34_Image_5.jpeg,liked,4.988446431,,,,,,,,,,,,,,,,,,,,,,
,,6560aa71bf5cc31f1c99ca34,2024-10-03_12h10.33.077,WTP_SM_Choice,2022.2.1,Win32,59.17159763,,,,,space,0.9008,NAN,,NAN,1.09,4.91,,0,32,32,32,1,33,Riley,Rej,Participant_Images/6560aa71bf5cc31f1c99ca34/6560aa71bf5cc31f1c99ca34_Images/6560aa71bf5cc31f1c99ca34_Image_19.jpeg,did not like,3.470791822,,,,,,,,,,,,,,,,,,,,,,
,,6560aa71bf5cc31f1c99ca34,2024-10-03_12h10.33.077,WTP_SM_Choice,2022.2.1,Win32,59.17159763,,,,,space,0.9369,NAN,,NAN,1.09,4.91,,0,33,33,33,1,34,Riley,Rej,Participant_Images/6560aa71bf5cc31f1c99ca34/6560aa71bf5cc31f1c99ca34_Images/6560aa71bf5cc31f1c99ca34_Image_22.jpeg,did not like,3.820572462,,,,,,,,,,,,,,,,,,,,,,
,,6560aa71bf5cc31f1c99ca34,2024-10-03_12h10.33.077,WTP_SM_Choice,2022.2.1,Win32,59.17159763,,,,,,,,,,,,,,,,,,31,,,,,,space,1.2402,space,1.3166,0.02,2,2.3562,0,0,0,0,1,Take pictures with my camera in the city on a warm sunny day,Watch tubi movies on random days with friends,0.01,0.02,8.8,1,,,,
,,6560aa71bf5cc31f1c99ca34,2024-10-03_12h10.33.077,WTP_SM_Choice,2022.2.1,Win32,59.17159763,,,,,,,,,,,,,,,,,,32,,,,,,,,,,0.02,2,4.8274,0,1,1,1,1,Cuddle with my stuffed animals in the bed at night,Hang out with friends or family at the mall on a rainy day,0.02,0.02,1.1,1,,,,
,,6560aa71bf5cc31f1c99ca34,2024-10-03_12h10.33.077,WTP_SM_Choice,2022.2.1,Win32,59.17159763,,,,,,,,,,,,,,,,,,33,,,,,,,,,,0.03,1,4.9959,0,2,2,2,1,Try out new restaurants with friends on the weekends,Take pictures with my camera in the city on a warm sunny day,0.03,0.02,4.4,0,,,,
,,6560aa71bf5cc31f1c99ca34,2024-10-03_12h10.33.077,WTP_SM_Choice,2022.2.1,Win32,59.17159763,,,,,,,,,,,,,,,,,,34,,,,,,,,,,0.04,1,1.2652,0,3,3,3,1,Eat dinner with family on Sunday evenings,Read books in my room on a cloudy day,0.04,0.02,3.3,0,,,,
,,6560aa71bf5cc31f1c99ca34,2024-10-03_12h10.33.077,WTP_SM_Choice,2022.2.1,Win32,59.17159763,,,,,,,,,,,,,,,,,,35,,,,,,,,,,0.05,1,3.0944,0,4,4,4,1,Watch tubi movies on random days with friends,Take walks in the park on a sunny day,0.05,0.02,1.1,0,,,,
,,6560aa71bf5cc31f1c99ca34,2024-10-03_12h10.33.077,WTP_SM_Choice,2022.2.1,Win32,59.17159763,,,,,,,NAN,,NAN,1.25,4.75,,0,34,34,34,1,35,Riley,Rej,Participant_Images/6560aa71bf5cc31f1c99ca34/6560aa71bf5cc31f1c99ca34_Images/6560aa71bf5cc31f1c99ca34_Image_15.jpeg,liked,2.455989137,,,,,,,,,,,,,,,,,,,,,,
,,6560aa71bf5cc31f1c99ca34,2024-10-03_12h10.33.077,WTP_SM_Choice,2022.2.1,Win32,59.17159763,,,,,space,0.4174,NAN,,NAN,1.25,4.75,,0,35,35,35,1,36,Riley,Rej,Participant_Images/6560aa71bf5cc31f1c99ca34/6560aa71bf5cc31f1c99ca34_Images/6560aa71bf5cc31f1c99ca34_Image_11.jpeg,did not like,3.79605092,,,,,,,,,,,,,,,,,,,,,,
,,6560aa71bf5cc31f1c99ca34,2024-10-03_12h10.33.077,WTP_SM_Choice,2022.2.1,Win32,59.17159763,,,,,space,2.3056,NAN,,NAN,1.25,4.75,,0,36,36,36,1,37,Riley,Rej,Participant_Images/6560aa71bf5cc31f1c99ca34/6560aa71bf5cc31f1c99ca34_Images/6560aa71bf5cc31f1c99ca34_Image_23.jpeg,did not like,3.562416326,,,,,,,,,,,,,,,,,,,,,,
,,6560aa71bf5cc31f1c99ca34,2024-10-03_12h10.33.077,WTP_SM_Choice,2022.2.1,Win32,59.17159763,,,,,space,2.5013,NAN,,NAN,1.25,4.75,,0,37,37,37,1,38,Riley,Rej,Participant_Images/6560aa71bf5cc31f1c99ca34/6560aa71bf5cc31f1c99ca34_Images/6560aa71bf5cc31f1c99ca34_Image_21.jpeg,did not like,2.843822497,,,,,,,,,,,,,,,,,,,,,,
,,6560aa71bf5cc31f1c99ca34,2024-10-03_12h10.33.077,WTP_SM_Choice,2022.2.1,Win32,59.17159763,,,,,space,2.8826,NAN,,NAN,1.25,4.75,,0,38,38,38,1,39,Riley,Rej,Participant_Images/6560aa71bf5cc31f1c99ca34/6560aa71bf5cc31f1c99ca34_Images/6560aa71bf5cc31f1c99ca34_Image_20.jpeg,did not like,3.546495948,,,,,,,,,,,,,,,,,,,,,,
,,6560aa71bf5cc31f1c99ca34,2024-10-03_12h10.33.077,WTP_SM_Choice,2022.2.1,Win32,59.17159763,,,,,,,,,,,,,,,,,,36,,,,,,space,1.9411,space,2.2171,0.03,2,3.4275,0,0,0,0,1,Play aracde games at the arcade on the weekends with friends,Cuddle with my stuffed animals in the bed at night,0.01,0.03,3.3,0,,,,
,,6560aa71bf5cc31f1c99ca34,2024-10-03_12h10.33.077,WTP_SM_Choice,2022.2.1,Win32,59.17159763,,,,,,,,,,,,,,,,,,37,,,,,,,,,,0.03,2,2.3215,0,1,1,1,1,Make beats on my computer in my room during the sunset,Eat dinner with family on Sunday evenings,0.02,0.03,1.1,1,,,,
,,6560aa71bf5cc31f1c99ca34,2024-10-03_12h10.33.077,WTP_SM_Choice,2022.2.1,Win32,59.17159763,,,,,,,,,,,,,,,,,,38,,,,,,,,,,0.03,2,6.2577,0,2,2,2,1,Make beats or playng instruments with friends,Read books in my room on a cloudy day,0.03,0.03,1.1,0,,,,
,,6560aa71bf5cc31f1c99ca34,2024-10-03_12h10.33.077,WTP_SM_Choice,2022.2.1,Win32,59.17159763,,,,,,,,,,,,,,,,,,39,,,,,,,,,,0.04,1,4.5583,0,3,3,3,1,Play aracde games at the arcade on the weekends with friends,Play instruments in my room on a sunny day,0.04,0.03,3.3,0,,,,
,,6560aa71bf5cc31f1c99ca34,2024-10-03_12h10.33.077,WTP_SM_Choice,2022.2.1,Win32,59.17159763,,,,,,,,,,,,,,,,,,40,,,,,,,,,,0.05,1,1.8203,0,4,4,4,1,Go to the book store or the library with friends on cloudy afternoons,Play instruments in my room on a sunny day,0.05,0.03,4.4,0,,,,
,,6560aa71bf5cc31f1c99ca34,2024-10-03_12h10.33.077,WTP_SM_Choice,2022.2.1,Win32,59.17159763,,,,,,,NAN,,NAN,1.43,4.57,,0,39,39,39,1,40,Riley,Rej,Participant_Images/6560aa71bf5cc31f1c99ca34/6560aa71bf5cc31f1c99ca34_Images/6560aa71bf5cc31f1c99ca34_Image_18.jpeg,did not like,1.672012706,,,,,,,,,,,,,,,,,,,,,,
,,6560aa71bf5cc31f1c99ca34,2024-10-03_12h10.33.077,WTP_SM_Choice,2022.2.1,Win32,59.17159763,,,,,space,3.7425,NAN,,NAN,1.43,4.57,,0,40,40,40,1,41,Riley,Rej,Participant_Images/6560aa71bf5cc31f1c99ca34/6560aa71bf5cc31f1c99ca34_Images/6560aa71bf5cc31f1c99ca34_Image_2.jpeg,liked,4.942172136,,,,,,,,,,,,,,,,,,,,,,
,,6560aa71bf5cc31f1c99ca34,2024-10-03_12h10.33.077,WTP_SM_Choice,2022.2.1,Win32,59.17159763,,,,,space,3.0887,NAN,,NAN,1.43,4.57,,0,41,41,41,1,42,Riley,Rej,Participant_Images/6560aa71bf5cc31f1c99ca34/6560aa71bf5cc31f1c99ca34_Images/6560aa71bf5cc31f1c99ca34_Image_4.jpeg,did not like,2.50187214,,,,,,,,,,,,,,,,,,,,,,
,,6560aa71bf5cc31f1c99ca34,2024-10-03_12h10.33.077,WTP_SM_Choice,2022.2.1,Win32,59.17159763,,,,,space,1.911,NAN,,NAN,1.43,4.57,,0,42,42,42,1,43,Riley,Rej,Participant_Images/6560aa71bf5cc31f1c99ca34/6560aa71bf5cc31f1c99ca34_Images/6560aa71bf5cc31f1c99ca34_Image_9.jpeg,did not like,2.071164779,,,,,,,,,,,,,,,,,,,,,,
,,6560aa71bf5cc31f1c99ca34,2024-10-03_12h10.33.077,WTP_SM_Choice,2022.2.1,Win32,59.17159763,,,,,space,3.8563,NAN,,NAN,1.43,4.57,,0,43,43,43,1,44,Riley,Rej,Participant_Images/6560aa71bf5cc31f1c99ca34/6560aa71bf5cc31f1c99ca34_Images/6560aa71bf5cc31f1c99ca34_Image_3.jpeg,did not like,5.336503566,,,,,,,,,,,,,,,,,,,,,,
,,6560aa71bf5cc31f1c99ca34,2024-10-03_12h10.33.077,WTP_SM_Choice,2022.2.1,Win32,59.17159763,,,,,,,,,,,,,,,,,,41,,,,,,space,1.3634,space,5.4554,0.04,2,1.9219,0,0,0,0,1,Cuddle with my stuffed animals in the bed at night,Make beats or playng instruments with friends,0.01,0.04,1.1,1,,,,
,,6560aa71bf5cc31f1c99ca34,2024-10-03_12h10.33.077,WTP_SM_Choice,2022.2.1,Win32,59.17159763,,,,,,,,,,,,,,,,,,42,,,,,,,,,,0.04,2,1.8887,0,1,1,1,1,Take pictures with my camera in the city on a warm sunny day,Make beats or playng instruments with friends,0.02,0.04,3.3,1,,,,
,,6560aa71bf5cc31f1c99ca34,2024-10-03_12h10.33.077,WTP_SM_Choice,2022.2.1,Win32,59.17159763,,,,,,,,,,,,,,,,,,43,,,,,,,,,,0.04,2,1.3282,0,2,2,2,1,Try out new restaurants with friends on the weekends,Cuddle with my stuffed animals in the bed at night,0.03,0.04,1.1,0,,,,
,,6560aa71bf5cc31f1c99ca34,2024-10-03_12h10.33.077,WTP_SM_Choice,2022.2.1,Win32,59.17159763,,,,,,,,,,,,,,,,,,44,,,,,,,,,,0.04,2,3.921,0,3,3,3,1,Make beats or playng instruments with friends,Take walks in the park on a sunny day,0.04,0.04,1.1,0,,,,
,,6560aa71bf5cc31f1c99ca34,2024-10-03_12h10.33.077,WTP_SM_Choice,2022.2.1,Win32,59.17159763,,,,,,,,,,,,,,,,,,45,,,,,,,,,,0.05,1,2.5895,0,4,4,4,1,Play instruments in my room on a sunny day,Watch anime on random days with friends,0.05,0.04,4.4,1,,,,
,,6560aa71bf5cc31f1c99ca34,2024-10-03_12h10.33.077,WTP_SM_Choice,2022.2.1,Win32,59.17159763,,,,,,,NAN,,NAN,1.64,4.36,,0,44,44,44,1,45,Riley,Rej,Participant_Images/6560aa71bf5cc31f1c99ca34/6560aa71bf5cc31f1c99ca34_Images/6560aa71bf5cc31f1c99ca34_Image_7.jpeg,did not like,2.642157193,,,,,,,,,,,,,,,,,,,,,,
,,6560aa71bf5cc31f1c99ca34,2024-10-03_12h10.33.077,WTP_SM_Choice,2022.2.1,Win32,59.17159763,,,,,space,4.293,NAN,,NAN,1.64,4.36,,0,45,45,45,1,46,Riley,Rej,Participant_Images/6560aa71bf5cc31f1c99ca34/6560aa71bf5cc31f1c99ca34_Images/6560aa71bf5cc31f1c99ca34_Image_6.jpeg,did not like,4.456234322,,,,,,,,,,,,,,,,,,,,,,
,,6560aa71bf5cc31f1c99ca34,2024-10-03_12h10.33.077,WTP_SM_Choice,2022.2.1,Win32,59.17159763,,,,,space,1.3169,NAN,,NAN,1.64,4.36,,0,46,46,46,1,47,Riley,Rej,Participant_Images/6560aa71bf5cc31f1c99ca34/6560aa71bf5cc31f1c99ca34_Images/6560aa71bf5cc31f1c99ca34_Image_8.jpeg,liked,4.438512181,,,,,,,,,,,,,,,,,,,,,,
,,6560aa71bf5cc31f1c99ca34,2024-10-03_12h10.33.077,WTP_SM_Choice,2022.2.1,Win32,59.17159763,,,,,space,4.2005,NAN,,NAN,1.64,4.36,,0,47,47,47,1,48,Riley,Rej,Participant_Images/6560aa71bf5cc31f1c99ca34/6560aa71bf5cc31f1c99ca34_Images/6560aa71bf5cc31f1c99ca34_Image_17.jpeg,liked,2.682944783,,,,,,,,,,,,,,,,,,,,,,
,,6560aa71bf5cc31f1c99ca34,2024-10-03_12h10.33.077,WTP_SM_Choice,2022.2.1,Win32,59.17159763,,,,,space,5.0653,NAN,,NAN,1.64,4.36,,0,48,48,48,1,49,Riley,Rej,Participant_Images/6560aa71bf5cc31f1c99ca34/6560aa71bf5cc31f1c99ca34_Images/6560aa71bf5cc31f1c99ca34_Image_24.jpeg,liked,4.51984296,,,,,,,,,,,,,,,,,,,,,,
,,6560aa71bf5cc31f1c99ca34,2024-10-03_12h10.33.077,WTP_SM_Choice,2022.2.1,Win32,59.17159763,,,,,,,,,,,,,,,,,,46,,,,,,space,1.5321,space,2.1929,0.05,2,3.5027,0,0,0,0,1,Eat dinner with family on Sunday evenings,Take walks in the park on a sunny day,0.01,0.05,8.8,0,,,,
,,6560aa71bf5cc31f1c99ca34,2024-10-03_12h10.33.077,WTP_SM_Choice,2022.2.1,Win32,59.17159763,,,,,,,,,,,,,,,,,,47,,,,,,,,,,0.05,2,2.7498,0,1,1,1,1,Take pictures with my camera in the city on a warm sunny day,Play aracde games at the arcade on the weekends with friends,0.02,0.05,1.1,1,,,,
,,6560aa71bf5cc31f1c99ca34,2024-10-03_12h10.33.077,WTP_SM_Choice,2022.2.1,Win32,59.17159763,,,,,,,,,,,,,,,,,,48,,,,,,,,,,0.05,2,2.9677,0,2,2,2,1,Take pictures with my camera in the city on a warm sunny day,Hikewith friends on sunny mornings,0.03,0.05,4.4,1,,,,
,,6560aa71bf5cc31f1c99ca34,2024-10-03_12h10.33.077,WTP_SM_Choice,2022.2.1,Win32,59.17159763,,,,,,,,,,,,,,,,,,49,,,,,,,,,,0.05,2,4.3232,0,3,3,3,1,Eat dinner with family on Sunday evenings,Draw pictures in my room on a sunny day,0.04,0.05,3.3,0,,,,
,,6560aa71bf5cc31f1c99ca34,2024-10-03_12h10.33.077,WTP_SM_Choice,2022.2.1,Win32,59.17159763,,,,,,,,,,,,,,,,,,50,,,,,,,,,,0.05,1,4.0565,0,4,4,4,1,Play instruments in my room on a sunny day,Travel out of town with friends on the weekends,0.05,0.05,1.1,1,,,,
,,6560aa71bf5cc31f1c99ca34,2024-10-03_12h10.33.077,WTP_SM_Choice,2022.2.1,Win32,59.17159763,,,,,,,1,,9,1.89,4.11,,0,49,49,49,1,50,Riley,Rej,Participant_Images/6560aa71bf5cc31f1c99ca34/6560aa71bf5cc31f1c99ca34_Images/6560aa71bf5cc31f1c99ca34_Image_1.jpeg,liked,3.195382774,,,,,,,,,,,,,,,,,,,space,2.6309,,
,,6560aa71bf5cc31f1c99ca34,2024-10-03_12h10.33.077,WTP_SM_Choice,2022.2.1,Win32,59.17159763,,,space,1.9828,space,8.4833,NAN,,NAN,1.89,4.11,,0,50,50,50,1,51,Sam,Acc,Participant_Images/6560aa71bf5cc31f1c99ca34/6560aa71bf5cc31f1c99ca34_Images/6560aa71bf5cc31f1c99ca34_Image_9.jpeg,did not like,1.779333479,,,,,,,,,,,,,,,,,,,,,,
,,6560aa71bf5cc31f1c99ca34,2024-10-03_12h10.33.077,WTP_SM_Choice,2022.2.1,Win32,59.17159763,,,,,space,0.9392,NAN,,NAN,1.89,4.11,,0,51,51,51,1,52,Sam,Acc,Participant_Images/6560aa71bf5cc31f1c99ca34/6560aa71bf5cc31f1c99ca34_Images/6560aa71bf5cc31f1c99ca34_Image_14.jpeg,liked,4.312468682,,,,,,,,,,,,,,,,,,,,,,
,,6560aa71bf5cc31f1c99ca34,2024-10-03_12h10.33.077,WTP_SM_Choice,2022.2.1,Win32,59.17159763,,,,,space,1.0342,NAN,,NAN,1.89,4.11,,0,52,52,52,1,53,Sam,Acc,Participant_Images/6560aa71bf5cc31f1c99ca34/6560aa71bf5cc31f1c99ca34_Images/6560aa71bf5cc31f1c99ca34_Image_4.jpeg,liked,4.940433059,,,,,,,,,,,,,,,,,,,,,,
,,6560aa71bf5cc31f1c99ca34,2024-10-03_12h10.33.077,WTP_SM_Choice,2022.2.1,Win32,59.17159763,,,,,space,4.0176,NAN,,NAN,1.89,4.11,,0,53,53,53,1,54,Sam,Acc,Participant_Images/6560aa71bf5cc31f1c99ca34/6560aa71bf5cc31f1c99ca34_Images/6560aa71bf5cc31f1c99ca34_Image_18.jpeg,liked,2.7105123,,,,,,,,,,,,,,,,,,,,,,
,,6560aa71bf5cc31f1c99ca34,2024-10-03_12h10.33.077,WTP_SM_Choice,2022.2.1,Win32,59.17159763,,,,,,,,,,,,,,,,,,51,,,,,,space,7.7041,space,1.5231,0.01,1,2.4446,0,0,0,0,1,Hikewith friends on sunny mornings,Cook delicious meals in my kitchen on a sunny day,0.01,0.01,1.1,0,,,,
,,6560aa71bf5cc31f1c99ca34,2024-10-03_12h10.33.077,WTP_SM_Choice,2022.2.1,Win32,59.17159763,,,,,,,,,,,,,,,,,,52,,,,,,,,,,0.02,1,3.0226,0,1,1,1,1,Draw pictures in my room on a sunny day,Watch anime on random days with friends,0.02,0.01,3.3,1,,,,
,,6560aa71bf5cc31f1c99ca34,2024-10-03_12h10.33.077,WTP_SM_Choice,2022.2.1,Win32,59.17159763,,,,,,,,,,,,,,,,,,53,,,,,,,,,,0.01,2,2.8414,0,2,2,2,1,Try out new restaurants with friends on the weekends,Take walks in the park on a sunny day,0.03,0.01,1.1,0,,,,
,,6560aa71bf5cc31f1c99ca34,2024-10-03_12h10.33.077,WTP_SM_Choice,2022.2.1,Win32,59.17159763,,,,,,,,,,,,,,,,,,54,,,,,,,,,,0.04,1,6.737,0,3,3,3,1,Travel out of town with friends on the weekends,Take walks in the park on a sunny day,0.04,0.01,4.4,0,,,,
,,6560aa71bf5cc31f1c99ca34,2024-10-03_12h10.33.077,WTP_SM_Choice,2022.2.1,Win32,59.17159763,,,,,,,,,,,,,,,,,,55,,,,,,,,,,0.05,1,1.6614,0,4,4,4,1,Take pictures with my camera in the city on a warm sunny day,Hang out with friends or family at the mall on a rainy day,0.05,0.01,1.1,1,,,,
,,6560aa71bf5cc31f1c99ca34,2024-10-03_12h10.33.077,WTP_SM_Choice,2022.2.1,Win32,59.17159763,,,,,,,NAN,,NAN,2.02,3.98,,0,54,54,54,1,55,Sam,Acc,Participant_Images/6560aa71bf5cc31f1c99ca34/6560aa71bf5cc31f1c99ca34_Images/6560aa71bf5cc31f1c99ca34_Image_8.jpeg,liked,3.602308302,,,,,,,,,,,,,,,,,,,,,,
,,6560aa71bf5cc31f1c99ca34,2024-10-03_12h10.33.077,WTP_SM_Choice,2022.2.1,Win32,59.17159763,,,,,space,1.7309,NAN,,NAN,2.02,3.98,,0,55,55,55,1,56,Sam,Acc,Participant_Images/6560aa71bf5cc31f1c99ca34/6560aa71bf5cc31f1c99ca34_Images/6560aa71bf5cc31f1c99ca34_Image_24.jpeg,liked,4.106391878,,,,,,,,,,,,,,,,,,,,,,
,,6560aa71bf5cc31f1c99ca34,2024-10-03_12h10.33.077,WTP_SM_Choice,2022.2.1,Win32,59.17159763,,,,,space,1.081,NAN,,NAN,2.02,3.98,,0,56,56,56,1,57,Sam,Acc,Participant_Images/6560aa71bf5cc31f1c99ca34/6560aa71bf5cc31f1c99ca34_Images/6560aa71bf5cc31f1c99ca34_Image_19.jpeg,liked,3.799433026,,,,,,,,,,,,,,,,,,,,,,
,,6560aa71bf5cc31f1c99ca34,2024-10-03_12h10.33.077,WTP_SM_Choice,2022.2.1,Win32,59.17159763,,,,,space,4.7545,NAN,,NAN,2.02,3.98,,0,57,57,57,1,58,Sam,Acc,Participant_Images/6560aa71bf5cc31f1c99ca34/6560aa71bf5cc31f1c99ca34_Images/6560aa71bf5cc31f1c99ca34_Image_20.jpeg,did not like,5.246980764,,,,,,,,,,,,,,,,,,,,,,
,,6560aa71bf5cc31f1c99ca34,2024-10-03_12h10.33.077,WTP_SM_Choice,2022.2.1,Win32,59.17159763,,,,,space,0.8822,NAN,,NAN,2.02,3.98,,0,58,58,58,1,59,Sam,Acc,Participant_Images/6560aa71bf5cc31f1c99ca34/6560aa71bf5cc31f1c99ca34_Images/6560aa71bf5cc31f1c99ca34_Image_3.jpeg,did not like,3.30081769,,,,,,,,,,,,,,,,,,,,,,
,,6560aa71bf5cc31f1c99ca34,2024-10-03_12h10.33.077,WTP_SM_Choice,2022.2.1,Win32,59.17159763,,,,,,,,,,,,,,,,,,56,,,,,,space,1.9804,space,6.8591,0.01,1,3.1795,0,0,0,0,1,Draw pictures in my room on a sunny day,Make beats or playng instruments with friends,0.01,0.02,8.8,1,,,,
,,6560aa71bf5cc31f1c99ca34,2024-10-03_12h10.33.077,WTP_SM_Choice,2022.2.1,Win32,59.17159763,,,,,,,,,,,,,,,,,,57,,,,,,,,,,0.02,1,3.7911,0,1,1,1,1,Read books in my room on a cloudy day,Play aracde games at the arcade on the weekends with friends,0.02,0.02,4.4,1,,,,
,,6560aa71bf5cc31f1c99ca34,2024-10-03_12h10.33.077,WTP_SM_Choice,2022.2.1,Win32,59.17159763,,,,,,,,,,,,,,,,,,58,,,,,,,,,,0.03,1,5.1502,0,2,2,2,1,Make beats or playng instruments with friends,Make beats on my computer in my room during the sunset,0.03,0.02,4.4,0,,,,
,,6560aa71bf5cc31f1c99ca34,2024-10-03_12h10.33.077,WTP_SM_Choice,2022.2.1,Win32,59.17159763,,,,,,,,,,,,,,,,,,59,,,,,,,,,,0.04,1,2.9309,0,3,3,3,1,Play aracde games at the arcade on the weekends with friends,Make beats on my computer in my room during the sunset,0.04,0.02,4.4,0,,,,
,,6560aa71bf5cc31f1c99ca34,2024-10-03_12h10.33.077,WTP_SM_Choice,2022.2.1,Win32,59.17159763,,,,,,,,,,,,,,,,,,60,,,,,,,,,,0.05,1,4.7889,0,4,4,4,1,Hang out with friends or family at the mall on a rainy day,Watch tv in my bed alone,0.05,0.02,1.1,0,,,,
,,6560aa71bf5cc31f1c99ca34,2024-10-03_12h10.33.077,WTP_SM_Choice,2022.2.1,Win32,59.17159763,,,,,,,NAN,,NAN,2.17,3.83,,0,59,59,59,1,60,Sam,Acc,Participant_Images/6560aa71bf5cc31f1c99ca34/6560aa71bf5cc31f1c99ca34_Images/6560aa71bf5cc31f1c99ca34_Image_11.jpeg,liked,1.661473164,,,,,,,,,,,,,,,,,,,,,,
,,6560aa71bf5cc31f1c99ca34,2024-10-03_12h10.33.077,WTP_SM_Choice,2022.2.1,Win32,59.17159763,,,,,space,1.218,NAN,,NAN,2.17,3.83,,0,60,60,60,1,61,Sam,Acc,Participant_Images/6560aa71bf5cc31f1c99ca34/6560aa71bf5cc31f1c99ca34_Images/6560aa71bf5cc31f1c99ca34_Image_23.jpeg,did not like,3.613205605,,,,,,,,,,,,,,,,,,,,,,
,,6560aa71bf5cc31f1c99ca34,2024-10-03_12h10.33.077,WTP_SM_Choice,2022.2.1,Win32,59.17159763,,,,,space,2.1172,NAN,,NAN,2.17,3.83,,0,61,61,61,1,62,Sam,Acc,Participant_Images/6560aa71bf5cc31f1c99ca34/6560aa71bf5cc31f1c99ca34_Images/6560aa71bf5cc31f1c99ca34_Image_21.jpeg,did not like,4.988446431,,,,,,,,,,,,,,,,,,,,,,
,,6560aa71bf5cc31f1c99ca34,2024-10-03_12h10.33.077,WTP_SM_Choice,2022.2.1,Win32,59.17159763,,,,,space,2.4513,NAN,,NAN,2.17,3.83,,0,62,62,62,1,63,Sam,Acc,Participant_Images/6560aa71bf5cc31f1c99ca34/6560aa71bf5cc31f1c99ca34_Images/6560aa71bf5cc31f1c99ca34_Image_15.jpeg,liked,3.470791822,,,,,,,,,,,,,,,,,,,,,,
,,6560aa71bf5cc31f1c99ca34,2024-10-03_12h10.33.077,WTP_SM_Choice,2022.2.1,Win32,59.17159763,,,,,space,8.0984,NAN,,NAN,2.17,3.83,,0,63,63,63,1,64,Sam,Acc,Participant_Images/6560aa71bf5cc31f1c99ca34/6560aa71bf5cc31f1c99ca34_Images/6560aa71bf5cc31f1c99ca34_Image_25.jpeg,liked,3.820572462,,,,,,,,,,,,,,,,,,,,,,
,,6560aa71bf5cc31f1c99ca34,2024-10-03_12h10.33.077,WTP_SM_Choice,2022.2.1,Win32,59.17159763,,,,,,,,,,,,,,,,,,61,,,,,,space,1.8457,space,1.4694,0.03,2,4.2794,0,0,0,0,1,Cuddle with my stuffed animals in the bed at night,Watch anime on random days with friends,0.01,0.03,3.3,1,,,,
,,6560aa71bf5cc31f1c99ca34,2024-10-03_12h10.33.077,WTP_SM_Choice,2022.2.1,Win32,59.17159763,,,,,,,,,,,,,,,,,,62,,,,,,,,,,0.02,1,3.3812,0,1,1,1,1,Take pictures with my camera in the city on a warm sunny day,Go to the book store or the library with friends on cloudy afternoons,0.02,0.03,3.3,1,,,,
,,6560aa71bf5cc31f1c99ca34,2024-10-03_12h10.33.077,WTP_SM_Choice,2022.2.1,Win32,59.17159763,,,,,,,,,,,,,,,,,,63,,,,,,,,,,0.03,1,2.7512,0,2,2,2,1,Go to the book store or the library with friends on cloudy afternoons,Cook delicious meals in my kitchen on a sunny day,0.03,0.03,3.3,0,,,,
,,6560aa71bf5cc31f1c99ca34,2024-10-03_12h10.33.077,WTP_SM_Choice,2022.2.1,Win32,59.17159763,,,,,,,,,,,,,,,,,,64,,,,,,,,,,0.04,1,4.3059,0,3,3,3,1,Hang out with friends or family at the mall on a rainy day,Take walks in the park on a sunny day,0.04,0.03,1.1,0,,,,
,,6560aa71bf5cc31f1c99ca34,2024-10-03_12h10.33.077,WTP_SM_Choice,2022.2.1,Win32,59.17159763,,,,,,,,,,,,,,,,,,65,,,,,,,,,,0.05,1,3.331,0,4,4,4,1,Watch tubi movies on random days with friends,Draw pictures in my room on a sunny day,0.05,0.03,1.1,0,,,,
,,6560aa71bf5cc31f1c99ca34,2024-10-03_12h10.33.077,WTP_SM_Choice,2022.2.1,Win32,59.17159763,,,,,,,NAN,,NAN,2.34,3.66,,0,64,64,64,1,65,Sam,Acc,Participant_Images/6560aa71bf5cc31f1c99ca34/6560aa71bf5cc31f1c99ca34_Images/6560aa71bf5cc31f1c99ca34_Image_7.jpeg,liked,2.455989137,,,,,,,,,,,,,,,,,,,,,,
,,6560aa71bf5cc31f1c99ca34,2024-10-03_12h10.33.077,WTP_SM_Choice,2022.2.1,Win32,59.17159763,,,,,space,0.5008,NAN,,NAN,2.34,3.66,,0,65,65,65,1,66,Sam,Acc,Participant_Images/6560aa71bf5cc31f1c99ca34/6560aa71bf5cc31f1c99ca34_Images/6560aa71bf5cc31f1c99ca34_Image_1.jpeg,liked,3.79605092,,,,,,,,,,,,,,,,,,,,,,
,,6560aa71bf5cc31f1c99ca34,2024-10-03_12h10.33.077,WTP_SM_Choice,2022.2.1,Win32,59.17159763,,,,,space,1.3121,NAN,,NAN,2.34,3.66,,0,66,66,66,1,67,Sam,Acc,Participant_Images/6560aa71bf5cc31f1c99ca34/6560aa71bf5cc31f1c99ca34_Images/6560aa71bf5cc31f1c99ca34_Image_10.jpeg,liked,3.562416326,,,,,,,,,,,,,,,,,,,,,,
,,6560aa71bf5cc31f1c99ca34,2024-10-03_12h10.33.077,WTP_SM_Choice,2022.2.1,Win32,59.17159763,,,,,space,0.706,NAN,,NAN,2.34,3.66,,0,67,67,67,1,68,Sam,Acc,Participant_Images/6560aa71bf5cc31f1c99ca34/6560aa71bf5cc31f1c99ca34_Images/6560aa71bf5cc31f1c99ca34_Image_2.jpeg,liked,2.843822497,,,,,,,,,,,,,,,,,,,,,,
,,6560aa71bf5cc31f1c99ca34,2024-10-03_12h10.33.077,WTP_SM_Choice,2022.2.1,Win32,59.17159763,,,,,space,1.1688,NAN,,NAN,2.34,3.66,,0,68,68,68,1,69,Sam,Acc,Participant_Images/6560aa71bf5cc31f1c99ca34/6560aa71bf5cc31f1c99ca34_Images/6560aa71bf5cc31f1c99ca34_Image_12.jpeg,liked,3.546495948,,,,,,,,,,,,,,,,,,,,,,
,,6560aa71bf5cc31f1c99ca34,2024-10-03_12h10.33.077,WTP_SM_Choice,2022.2.1,Win32,59.17159763,,,,,,,,,,,,,,,,,,66,,,,,,space,1.6046,space,1.606,0.04,2,2.9124,0,0,0,0,1,Cuddle with my stuffed animals in the bed at night,Hikewith friends on sunny mornings,0.01,0.04,1.1,1,,,,
,,6560aa71bf5cc31f1c99ca34,2024-10-03_12h10.33.077,WTP_SM_Choice,2022.2.1,Win32,59.17159763,,,,,,,,,,,,,,,,,,67,,,,,,,,,,0.04,2,2.0532,0,1,1,1,1,Eat dinner with family on Sunday evenings,Play instruments in my room on a sunny day,0.02,0.04,8.8,0,,,,
,,6560aa71bf5cc31f1c99ca34,2024-10-03_12h10.33.077,WTP_SM_Choice,2022.2.1,Win32,59.17159763,,,,,,,,,,,,,,,,,,68,,,,,,,,,,0.04,2,3.2527,0,2,2,2,1,Watch tv in my bed alone,Try out new restaurants with friends on the weekends,0.03,0.04,4.4,1,,,,
,,6560aa71bf5cc31f1c99ca34,2024-10-03_12h10.33.077,WTP_SM_Choice,2022.2.1,Win32,59.17159763,,,,,,,,,,,,,,,,,,69,,,,,,,,,,,,,0,3,3,3,1,Watch tv in my bed alone,Make beats or playng instruments with friends,0.04,0.04,1.1,1,,,,
,,6560aa71bf5cc31f1c99ca34,2024-10-03_12h10.33.077,WTP_SM_Choice,2022.2.1,Win32,59.17159763,,,,,,,,,,,,,,,,,,70,,,,,,,,,,0.05,1,3.2226,0,4,4,4,1,Make beats or playng instruments with friends,Cook delicious meals in my kitchen on a sunny day,0.05,0.04,1.1,0,,,,
,,6560aa71bf5cc31f1c99ca34,2024-10-03_12h10.33.077,WTP_SM_Choice,2022.2.1,Win32,59.17159763,,,,,,,NAN,,NAN,2.51,3.49,,0,69,69,69,1,70,Sam,Acc,Participant_Images/6560aa71bf5cc31f1c99ca34/6560aa71bf5cc31f1c99ca34_Images/6560aa71bf5cc31f1c99ca34_Image_17.jpeg,liked,1.672012706,,,,,,,,,,,,,,,,,,,,,,
,,6560aa71bf5cc31f1c99ca34,2024-10-03_12h10.33.077,WTP_SM_Choice,2022.2.1,Win32,59.17159763,,,,,space,8.1674,NAN,,NAN,2.51,3.49,,0,70,70,70,1,71,Sam,Acc,Participant_Images/6560aa71bf5cc31f1c99ca34/6560aa71bf5cc31f1c99ca34_Images/6560aa71bf5cc31f1c99ca34_Image_16.jpeg,liked,4.942172136,,,,,,,,,,,,,,,,,,,,,,
,,6560aa71bf5cc31f1c99ca34,2024-10-03_12h10.33.077,WTP_SM_Choice,2022.2.1,Win32,59.17159763,,,,,space,3.3892,NAN,,NAN,2.51,3.49,,0,71,71,71,1,72,Sam,Acc,Participant_Images/6560aa71bf5cc31f1c99ca34/6560aa71bf5cc31f1c99ca34_Images/6560aa71bf5cc31f1c99ca34_Image_6.jpeg,liked,2.50187214,,,,,,,,,,,,,,,,,,,,,,
,,6560aa71bf5cc31f1c99ca34,2024-10-03_12h10.33.077,WTP_SM_Choice,2022.2.1,Win32,59.17159763,,,,,space,2.1055,NAN,,NAN,2.51,3.49,,0,72,72,72,1,73,Sam,Acc,Participant_Images/6560aa71bf5cc31f1c99ca34/6560aa71bf5cc31f1c99ca34_Images/6560aa71bf5cc31f1c99ca34_Image_5.jpeg,did not like,2.071164779,,,,,,,,,,,,,,,,,,,,,,
,,6560aa71bf5cc31f1c99ca34,2024-10-03_12h10.33.077,WTP_SM_Choice,2022.2.1,Win32,59.17159763,,,,,space,1.4224,NAN,,NAN,2.51,3.49,,0,73,73,73,1,74,Sam,Acc,Participant_Images/6560aa71bf5cc31f1c99ca34/6560aa71bf5cc31f1c99ca34_Images/6560aa71bf5cc31f1c99ca34_Image_13.jpeg,liked,5.336503566,,,,,,,,,,,,,,,,,,,,,,
,,6560aa71bf5cc31f1c99ca34,2024-10-03_12h10.33.077,WTP_SM_Choice,2022.2.1,Win32,59.17159763,,,,,,,,,,,,,,,,,,71,,,,,,space,2.1442,space,5.8032,0.05,2,3.8483,0,0,0,0,1,Watch tubi movies on random days with friends,Play instruments in my room on a sunny day,0.01,0.05,3.3,0,,,,
,,6560aa71bf5cc31f1c99ca34,2024-10-03_12h10.33.077,WTP_SM_Choice,2022.2.1,Win32,59.17159763,,,,,,,,,,,,,,,,,,72,,,,,,,,,,0.05,2,2.9086,0,1,1,1,1,Watch anime on a rainy day in my room,Watch tubi movies on random days with friends,0.02,0.05,8.8,1,,,,
,,6560aa71bf5cc31f1c99ca34,2024-10-03_12h10.33.077,WTP_SM_Choice,2022.2.1,Win32,59.17159763,,,,,,,,,,,,,,,,,,73,,,,,,,,,,0.05,2,2.4468,0,2,2,2,1,Cook delicious meals in my kitchen on a sunny day,Hang out with friends or family at the mall on a rainy day,0.03,0.05,3.3,1,,,,
,,6560aa71bf5cc31f1c99ca34,2024-10-03_12h10.33.077,WTP_SM_Choice,2022.2.1,Win32,59.17159763,,,,,,,,,,,,,,,,,,74,,,,,,,,,,0.04,1,3.0847,0,3,3,3,1,Cook delicious meals in my kitchen on a sunny day,Travel out of town with friends on the weekends,0.04,0.05,4.4,1,,,,
,,6560aa71bf5cc31f1c99ca34,2024-10-03_12h10.33.077,WTP_SM_Choice,2022.2.1,Win32,59.17159763,,,,,,,,,,,,,,,,,,75,,,,,,,,,,0.05,2,3.6832,0,4,4,4,1,Play instruments in my room on a sunny day,Hikewith friends on sunny mornings,0.05,0.05,3.3,1,,,,
,,6560aa71bf5cc31f1c99ca34,2024-10-03_12h10.33.077,WTP_SM_Choice,2022.2.1,Win32,59.17159763,,,,,,,2,,9,2.75,3.25,,0,74,74,74,1,75,Sam,Acc,Participant_Images/6560aa71bf5cc31f1c99ca34/6560aa71bf5cc31f1c99ca34_Images/6560aa71bf5cc31f1c99ca34_Image_22.jpeg,did not like,2.642157193,,,,,,,,,,,,,,,,,,,space,1.5401,,
,,6560aa71bf5cc31f1c99ca34,2024-10-03_12h10.33.077,WTP_SM_Choice,2022.2.1,Win32,59.17159763,,,space,2.1141,space,1.7082,NAN,,NAN,2.75,3.25,,0,75,75,75,1,76,Alex,Rej,Participant_Images/6560aa71bf5cc31f1c99ca34/6560aa71bf5cc31f1c99ca34_Images/6560aa71bf5cc31f1c99ca34_Image_6.jpeg,did not like,4.456234322,,,,,,,,,,,,,,,,,,,,,,
,,6560aa71bf5cc31f1c99ca34,2024-10-03_12h10.33.077,WTP_SM_Choice,2022.2.1,Win32,59.17159763,,,,,space,5.2222,NAN,,NAN,2.75,3.25,,0,76,76,76,1,77,Alex,Rej,Participant_Images/6560aa71bf5cc31f1c99ca34/6560aa71bf5cc31f1c99ca34_Images/6560aa71bf5cc31f1c99ca34_Image_20.jpeg,did not like,4.438512181,,,,,,,,,,,,,,,,,,,,,,
,,6560aa71bf5cc31f1c99ca34,2024-10-03_12h10.33.077,WTP_SM_Choice,2022.2.1,Win32,59.17159763,,,,,space,5.8915,NAN,,NAN,2.75,3.25,,0,77,77,77,1,78,Alex,Rej,Participant_Images/6560aa71bf5cc31f1c99ca34/6560aa71bf5cc31f1c99ca34_Images/6560aa71bf5cc31f1c99ca34_Image_23.jpeg,did not like,2.682944783,,,,,,,,,,,,,,,,,,,,,,
,,6560aa71bf5cc31f1c99ca34,2024-10-03_12h10.33.077,WTP_SM_Choice,2022.2.1,Win32,59.17159763,,,,,space,6.2406,NAN,,NAN,2.75,3.25,,0,78,78,78,1,79,Alex,Rej,Participant_Images/6560aa71bf5cc31f1c99ca34/6560aa71bf5cc31f1c99ca34_Images/6560aa71bf5cc31f1c99ca34_Image_10.jpeg,liked,4.51984296,,,,,,,,,,,,,,,,,,,,,,
,,6560aa71bf5cc31f1c99ca34,2024-10-03_12h10.33.077,WTP_SM_Choice,2022.2.1,Win32,59.17159763,,,,,,,,,,,,,,,,,,76,,,,,,space,2.6179,space,7.381,0.01,2,3.5317,0,0,0,0,1,Cuddle with my stuffed animals in the bed at night,Go to the book store or the library with friends on cloudy afternoons,0.01,0.01,1.1,1,,,,
,,6560aa71bf5cc31f1c99ca34,2024-10-03_12h10.33.077,WTP_SM_Choice,2022.2.1,Win32,59.17159763,,,,,,,,,,,,,,,,,,77,,,,,,,,,,0.02,1,3.9307,0,1,1,1,1,Take pictures with my camera in the city on a warm sunny day,Travel out of town with friends on the weekends,0.02,0.01,8.8,1,,,,
,,6560aa71bf5cc31f1c99ca34,2024-10-03_12h10.33.077,WTP_SM_Choice,2022.2.1,Win32,59.17159763,,,,,,,,,,,,,,,,,,78,,,,,,,,,,0.01,2,3.8513,0,2,2,2,1,Draw pictures in my room on a sunny day,Play aracde games at the arcade on the weekends with friends,0.03,0.01,1.1,1,,,,
,,6560aa71bf5cc31f1c99ca34,2024-10-03_12h10.33.077,WTP_SM_Choice,2022.2.1,Win32,59.17159763,,,,,,,,,,,,,,,,,,79,,,,,,,,,,0.04,1,4.4786,0,3,3,3,1,Eat dinner with family on Sunday evenings,Cuddle with my stuffed animals in the bed at night,0.04,0.01,1.1,0,,,,
,,6560aa71bf5cc31f1c99ca34,2024-10-03_12h10.33.077,WTP_SM_Choice,2022.2.1,Win32,59.17159763,,,,,,,,,,,,,,,,,,80,,,,,,,,,,0.05,1,7.5674,0,4,4,4,1,Make beats on my computer in my room during the sunset,Travel out of town with friends on the weekends,0.05,0.01,4.4,1,,,,
,,6560aa71bf5cc31f1c99ca34,2024-10-03_12h10.33.077,WTP_SM_Choice,2022.2.1,Win32,59.17159763,,,,,,,NAN,,NAN,2.88,3.12,,0,79,79,79,1,80,Alex,Rej,Participant_Images/6560aa71bf5cc31f1c99ca34/6560aa71bf5cc31f1c99ca34_Images/6560aa71bf5cc31f1c99ca34_Image_5.jpeg,liked,3.195382774,,,,,,,,,,,,,,,,,,,,,,
,,6560aa71bf5cc31f1c99ca34,2024-10-03_12h10.33.077,WTP_SM_Choice,2022.2.1,Win32,59.17159763,,,,,space,2.5605,NAN,,NAN,2.88,3.12,,0,80,80,80,1,81,Alex,Rej,Participant_Images/6560aa71bf5cc31f1c99ca34/6560aa71bf5cc31f1c99ca34_Images/6560aa71bf5cc31f1c99ca34_Image_12.jpeg,liked,1.779333479,,,,,,,,,,,,,,,,,,,,,,
,,6560aa71bf5cc31f1c99ca34,2024-10-03_12h10.33.077,WTP_SM_Choice,2022.2.1,Win32,59.17159763,,,,,space,1.0545,NAN,,NAN,2.88,3.12,,0,81,81,81,1,82,Alex,Rej,Participant_Images/6560aa71bf5cc31f1c99ca34/6560aa71bf5cc31f1c99ca34_Images/6560aa71bf5cc31f1c99ca34_Image_3.jpeg,did not like,4.312468682,,,,,,,,,,,,,,,,,,,,,,
,,6560aa71bf5cc31f1c99ca34,2024-10-03_12h10.33.077,WTP_SM_Choice,2022.2.1,Win32,59.17159763,,,,,space,4.285,NAN,,NAN,2.88,3.12,,0,82,82,82,1,83,Alex,Rej,Participant_Images/6560aa71bf5cc31f1c99ca34/6560aa71bf5cc31f1c99ca34_Images/6560aa71bf5cc31f1c99ca34_Image_21.jpeg,did not like,4.940433059,,,,,,,,,,,,,,,,,,,,,,
,,6560aa71bf5cc31f1c99ca34,2024-10-03_12h10.33.077,WTP_SM_Choice,2022.2.1,Win32,59.17159763,,,,,space,3.8331,NAN,,NAN,2.88,3.12,,0,83,83,83,1,84,Alex,Rej,Participant_Images/6560aa71bf5cc31f1c99ca34/6560aa71bf5cc31f1c99ca34_Images/6560aa71bf5cc31f1c99ca34_Image_9.jpeg,did not like,2.7105123,,,,,,,,,,,,,,,,,,,,,,
,,6560aa71bf5cc31f1c99ca34,2024-10-03_12h10.33.077,WTP_SM_Choice,2022.2.1,Win32,59.17159763,,,,,,,,,,,,,,,,,,81,,,,,,space,2.2783,space,1.4863,0.02,2,1.577,0,0,0,0,1,Hikewith friends on sunny mornings,Watch tv in my bed alone,0.01,0.02,3.3,0,,,,
,,6560aa71bf5cc31f1c99ca34,2024-10-03_12h10.33.077,WTP_SM_Choice,2022.2.1,Win32,59.17159763,,,,,,,,,,,,,,,,,,82,,,,,,,,,,0.02,1,4.3994,0,1,1,1,1,Take pictures with my camera in the city on a warm sunny day,Eat dinner with family on Sunday evenings,0.02,0.02,4.4,1,,,,
,,6560aa71bf5cc31f1c99ca34,2024-10-03_12h10.33.077,WTP_SM_Choice,2022.2.1,Win32,59.17159763,,,,,,,,,,,,,,,,,,83,,,,,,,,,,0.03,1,3.711,0,2,2,2,1,Try out new restaurants with friends on the weekends,Cook delicious meals in my kitchen on a sunny day,0.03,0.02,1.1,0,,,,
,,6560aa71bf5cc31f1c99ca34,2024-10-03_12h10.33.077,WTP_SM_Choice,2022.2.1,Win32,59.17159763,,,,,,,,,,,,,,,,,,84,,,,,,,,,,0.04,1,4.0506,0,3,3,3,1,Draw pictures in my room on a sunny day,Hang out with friends or family at the mall on a rainy day,0.04,0.02,3.3,1,,,,
,,6560aa71bf5cc31f1c99ca34,2024-10-03_12h10.33.077,WTP_SM_Choice,2022.2.1,Win32,59.17159763,,,,,,,,,,,,,,,,,,85,,,,,,,,,,0.05,1,2.4516,0,4,4,4,1,Watch tubi movies on random days with friends,Cuddle with my stuffed animals in the bed at night,0.05,0.02,3.3,0,,,,
,,6560aa71bf5cc31f1c99ca34,2024-10-03_12h10.33.077,WTP_SM_Choice,2022.2.1,Win32,59.17159763,,,,,,,NAN,,NAN,3.04,2.96,,0,84,84,84,1,85,Alex,Rej,Participant_Images/6560aa71bf5cc31f1c99ca34/6560aa71bf5cc31f1c99ca34_Images/6560aa71bf5cc31f1c99ca34_Image_15.jpeg,did not like,3.602308302,,,,,,,,,,,,,,,,,,,,,,
,,6560aa71bf5cc31f1c99ca34,2024-10-03_12h10.33.077,WTP_SM_Choice,2022.2.1,Win32,59.17159763,,,,,space,5.0534,NAN,,NAN,3.04,2.96,,0,85,85,85,1,86,Alex,Rej,Participant_Images/6560aa71bf5cc31f1c99ca34/6560aa71bf5cc31f1c99ca34_Images/6560aa71bf5cc31f1c99ca34_Image_22.jpeg,liked,4.106391878,,,,,,,,,,,,,,,,,,,,,,
,,6560aa71bf5cc31f1c99ca34,2024-10-03_12h10.33.077,WTP_SM_Choice,2022.2.1,Win32,59.17159763,,,,,space,4.9043,NAN,,NAN,3.04,2.96,,0,86,86,86,1,87,Alex,Rej,Participant_Images/6560aa71bf5cc31f1c99ca34/6560aa71bf5cc31f1c99ca34_Images/6560aa71bf5cc31f1c99ca34_Image_1.jpeg,did not like,3.799433026,,,,,,,,,,,,,,,,,,,,,,
,,6560aa71bf5cc31f1c99ca34,2024-10-03_12h10.33.077,WTP_SM_Choice,2022.2.1,Win32,59.17159763,,,,,space,1.1826,NAN,,NAN,3.04,2.96,,0,87,87,87,1,88,Alex,Rej,Participant_Images/6560aa71bf5cc31f1c99ca34/6560aa71bf5cc31f1c99ca34_Images/6560aa71bf5cc31f1c99ca34_Image_4.jpeg,did not like,5.246980764,,,,,,,,,,,,,,,,,,,,,,
,,6560aa71bf5cc31f1c99ca34,2024-10-03_12h10.33.077,WTP_SM_Choice,2022.2.1,Win32,59.17159763,,,,,space,11.0062,NAN,,NAN,3.04,2.96,,0,88,88,88,1,89,Alex,Rej,Participant_Images/6560aa71bf5cc31f1c99ca34/6560aa71bf5cc31f1c99ca34_Images/6560aa71bf5cc31f1c99ca34_Image_14.jpeg,did not like,3.30081769,,,,,,,,,,,,,,,,,,,,,,
,,6560aa71bf5cc31f1c99ca34,2024-10-03_12h10.33.077,WTP_SM_Choice,2022.2.1,Win32,59.17159763,,,,,,,,,,,,,,,,,,86,,,,,,space,2.7015,space,4.6172,0.03,2,2.1503,0,0,0,0,1,Travel out of town with friends on the weekends,Watch anime on a rainy day in my room,0.01,0.03,1.1,0,,,,
,,6560aa71bf5cc31f1c99ca34,2024-10-03_12h10.33.077,WTP_SM_Choice,2022.2.1,Win32,59.17159763,,,,,,,,,,,,,,,,,,87,,,,,,,,,,0.03,2,2.3566,0,1,1,1,1,Try out new restaurants with friends on the weekends,Read books in my room on a cloudy day,0.02,0.03,4.4,0,,,,
,,6560aa71bf5cc31f1c99ca34,2024-10-03_12h10.33.077,WTP_SM_Choice,2022.2.1,Win32,59.17159763,,,,,,,,,,,,,,,,,,88,,,,,,,,,,0.03,1,2.7901,0,2,2,2,1,Play instruments in my room on a sunny day,Make beats or playng instruments with friends,0.03,0.03,1.1,1,,,,
,,6560aa71bf5cc31f1c99ca34,2024-10-03_12h10.33.077,WTP_SM_Choice,2022.2.1,Win32,59.17159763,,,,,,,,,,,,,,,,,,89,,,,,,,,,,0.04,1,3.922,0,3,3,3,1,Play aracde games at the arcade on the weekends with friends,Watch tv in my bed alone,0.04,0.03,3.3,0,,,,
,,6560aa71bf5cc31f1c99ca34,2024-10-03_12h10.33.077,WTP_SM_Choice,2022.2.1,Win32,59.17159763,,,,,,,,,,,,,,,,,,90,,,,,,,,,,,,,0,4,4,4,1,Go to the book store or the library with friends on cloudy afternoons,Watch anime on a rainy day in my room,0.05,0.03,8.8,0,,,,
,,6560aa71bf5cc31f1c99ca34,2024-10-03_12h10.33.077,WTP_SM_Choice,2022.2.1,Win32,59.17159763,,,,,,,NAN,,NAN,3.17,2.83,,0,89,89,89,1,90,Alex,Rej,Participant_Images/6560aa71bf5cc31f1c99ca34/6560aa71bf5cc31f1c99ca34_Images/6560aa71bf5cc31f1c99ca34_Image_13.jpeg,liked,1.661473164,,,,,,,,,,,,,,,,,,,,,,
,,6560aa71bf5cc31f1c99ca34,2024-10-03_12h10.33.077,WTP_SM_Choice,2022.2.1,Win32,59.17159763,,,,,space,7.9558,NAN,,NAN,3.17,2.83,,0,90,90,90,1,91,Alex,Rej,Participant_Images/6560aa71bf5cc31f1c99ca34/6560aa71bf5cc31f1c99ca34_Images/6560aa71bf5cc31f1c99ca34_Image_24.jpeg,did not like,3.613205605,,,,,,,,,,,,,,,,,,,,,,
,,6560aa71bf5cc31f1c99ca34,2024-10-03_12h10.33.077,WTP_SM_Choice,2022.2.1,Win32,59.17159763,,,,,space,10.6617,NAN,,NAN,3.17,2.83,,0,91,91,91,1,92,Alex,Rej,Participant_Images/6560aa71bf5cc31f1c99ca34/6560aa71bf5cc31f1c99ca34_Images/6560aa71bf5cc31f1c99ca34_Image_8.jpeg,liked,4.988446431,,,,,,,,,,,,,,,,,,,,,,
,,6560aa71bf5cc31f1c99ca34,2024-10-03_12h10.33.077,WTP_SM_Choice,2022.2.1,Win32,59.17159763,,,,,space,11.7332,NAN,,NAN,3.17,2.83,,0,92,92,92,1,93,Alex,Rej,Participant_Images/6560aa71bf5cc31f1c99ca34/6560aa71bf5cc31f1c99ca34_Images/6560aa71bf5cc31f1c99ca34_Image_11.jpeg,did not like,3.470791822,,,,,,,,,,,,,,,,,,,,,,
,,6560aa71bf5cc31f1c99ca34,2024-10-03_12h10.33.077,WTP_SM_Choice,2022.2.1,Win32,59.17159763,,,,,space,0.9898,NAN,,NAN,3.17,2.83,,0,93,93,93,1,94,Alex,Rej,Participant_Images/6560aa71bf5cc31f1c99ca34/6560aa71bf5cc31f1c99ca34_Images/6560aa71bf5cc31f1c99ca34_Image_19.jpeg,did not like,3.820572462,,,,,,,,,,,,,,,,,,,,,,
,,6560aa71bf5cc31f1c99ca34,2024-10-03_12h10.33.077,WTP_SM_Choice,2022.2.1,Win32,59.17159763,,,,,,,,,,,,,,,,,,91,,,,,,space,1.4842,space,1.408,0.04,2,1.4538,0,0,0,0,1,Travel out of town with friends on the weekends,Watch tv in my bed alone,0.01,0.04,3.3,0,,,,
,,6560aa71bf5cc31f1c99ca34,2024-10-03_12h10.33.077,WTP_SM_Choice,2022.2.1,Win32,59.17159763,,,,,,,,,,,,,,,,,,92,,,,,,,,,,0.04,2,1.6024,0,1,1,1,1,Watch tv in my bed alone,Eat dinner with family on Sunday evenings,0.02,0.04,8.8,1,,,,
,,6560aa71bf5cc31f1c99ca34,2024-10-03_12h10.33.077,WTP_SM_Choice,2022.2.1,Win32,59.17159763,,,,,,,,,,,,,,,,,,93,,,,,,,,,,0.04,2,2.5147,0,2,2,2,1,Hang out with friends or family at the mall on a rainy day,Make beats on my computer in my room during the sunset,0.03,0.04,1.1,0,,,,
,,6560aa71bf5cc31f1c99ca34,2024-10-03_12h10.33.077,WTP_SM_Choice,2022.2.1,Win32,59.17159763,,,,,,,,,,,,,,,,,,94,,,,,,,,,,0.04,1,5.3249,0,3,3,3,1,Go to the book store or the library with friends on cloudy afternoons,Read books in my room on a cloudy day,0.04,0.04,4.4,0,,,,
,,6560aa71bf5cc31f1c99ca34,2024-10-03_12h10.33.077,WTP_SM_Choice,2022.2.1,Win32,59.17159763,,,,,,,,,,,,,,,,,,95,,,,,,,,,,0.04,2,3.1579,0,4,4,4,1,Read books in my room on a cloudy day,Hikewith friends on sunny mornings,0.05,0.04,4.4,1,,,,
,,6560aa71bf5cc31f1c99ca34,2024-10-03_12h10.33.077,WTP_SM_Choice,2022.2.1,Win32,59.17159763,,,,,,,NAN,,NAN,3.37,2.63,,0,94,94,94,1,95,Alex,Rej,Participant_Images/6560aa71bf5cc31f1c99ca34/6560aa71bf5cc31f1c99ca34_Images/6560aa71bf5cc31f1c99ca34_Image_16.jpeg,did not like,2.455989137,,,,,,,,,,,,,,,,,,,,,,
,,6560aa71bf5cc31f1c99ca34,2024-10-03_12h10.33.077,WTP_SM_Choice,2022.2.1,Win32,59.17159763,,,,,space,3.9229,NAN,,NAN,3.37,2.63,,0,95,95,95,1,96,Alex,Rej,Participant_Images/6560aa71bf5cc31f1c99ca34/6560aa71bf5cc31f1c99ca34_Images/6560aa71bf5cc31f1c99ca34_Image_7.jpeg,did not like,3.79605092,,,,,,,,,,,,,,,,,,,,,,
,,6560aa71bf5cc31f1c99ca34,2024-10-03_12h10.33.077,WTP_SM_Choice,2022.2.1,Win32,59.17159763,,,,,space,1.1864,NAN,,NAN,3.37,2.63,,0,96,96,96,1,97,Alex,Rej,Participant_Images/6560aa71bf5cc31f1c99ca34/6560aa71bf5cc31f1c99ca34_Images/6560aa71bf5cc31f1c99ca34_Image_18.jpeg,did not like,3.562416326,,,,,,,,,,,,,,,,,,,,,,
,,6560aa71bf5cc31f1c99ca34,2024-10-03_12h10.33.077,WTP_SM_Choice,2022.2.1,Win32,59.17159763,,,,,space,2.2167,NAN,,NAN,3.37,2.63,,0,97,97,97,1,98,Alex,Rej,Participant_Images/6560aa71bf5cc31f1c99ca34/6560aa71bf5cc31f1c99ca34_Images/6560aa71bf5cc31f1c99ca34_Image_25.jpeg,did not like,2.843822497,,,,,,,,,,,,,,,,,,,,,,
,,6560aa71bf5cc31f1c99ca34,2024-10-03_12h10.33.077,WTP_SM_Choice,2022.2.1,Win32,59.17159763,,,,,space,3.6841,NAN,,NAN,3.37,2.63,,0,98,98,98,1,99,Alex,Rej,Participant_Images/6560aa71bf5cc31f1c99ca34/6560aa71bf5cc31f1c99ca34_Images/6560aa71bf5cc31f1c99ca34_Image_17.jpeg,did not like,3.546495948,,,,,,,,,,,,,,,,,,,,,,
,,6560aa71bf5cc31f1c99ca34,2024-10-03_12h10.33.077,WTP_SM_Choice,2022.2.1,Win32,59.17159763,,,,,,,,,,,,,,,,,,96,,,,,,space,1.9036,space,1.1681,0.05,2,2.1349,0,0,0,0,1,Cook delicious meals in my kitchen on a sunny day,Watch anime on random days with friends,0.01,0.05,3.3,1,,,,
,,6560aa71bf5cc31f1c99ca34,2024-10-03_12h10.33.077,WTP_SM_Choice,2022.2.1,Win32,59.17159763,,,,,,,,,,,,,,,,,,97,,,,,,,,,,0.05,2,1.5558,0,1,1,1,1,Watch tubi movies on random days with friends,Read books in my room on a cloudy day,0.02,0.05,1.1,0,,,,
,,6560aa71bf5cc31f1c99ca34,2024-10-03_12h10.33.077,WTP_SM_Choice,2022.2.1,Win32,59.17159763,,,,,,,,,,,,,,,,,,98,,,,,,,,,,0.05,2,3.612,0,2,2,2,1,Try out new restaurants with friends on the weekends,Play instruments in my room on a sunny day,0.03,0.05,1.1,0,,,,
,,6560aa71bf5cc31f1c99ca34,2024-10-03_12h10.33.077,WTP_SM_Choice,2022.2.1,Win32,59.17159763,,,,,,,,,,,,,,,,,,99,,,,,,,,,,0.05,2,5.7512,0,3,3,3,1,Watch tubi movies on random days with friends,Make beats on my computer in my room during the sunset,0.04,0.05,3.3,0,,,,
,,6560aa71bf5cc31f1c99ca34,2024-10-03_12h10.33.077,WTP_SM_Choice,2022.2.1,Win32,59.17159763,,,,,,,,,,,,,,,,,,100,,,,,,,,,,0.05,2,2.8965,0,4,4,4,1,Cuddle with my stuffed animals in the bed at night,Travel out of town with friends on the weekends,0.05,0.05,4.4,1,,,,
,,6560aa71bf5cc31f1c99ca34,2024-10-03_12h10.33.077,WTP_SM_Choice,2022.2.1,Win32,59.17159763,,,,,,,2,,9,3.62,2.38,,0,99,99,99,1,100,Alex,Rej,Participant_Images/6560aa71bf5cc31f1c99ca34/6560aa71bf5cc31f1c99ca34_Images/6560aa71bf5cc31f1c99ca34_Image_2.jpeg,liked,1.672012706,,,,,,,,,,,,,,,,,,,space,1.4676,,
,,6560aa71bf5cc31f1c99ca34,2024-10-03_12h10.33.077,WTP_SM_Choice,2022.2.1,Win32,59.17159763,,,,,,,,,,,,,,,,,,,,,,,,,,,,,,,,,,,,,,,,,,,,space,2.8302
