endwelcomescreen_keys.keys,endwelcomescreen_keys.rt,participant,STUDY_ID,SESSION_ID,date,expName,psychopyVersion,OS,frameRate,endinstructionscreen_keys.keys,endinstructionscreen_keys.rt,endpartnermatch_keys.keys,endpartnermatch_keys.rt,sharenextphoto_key.keys,sharenextphoto_key.rt,salience_rating,key_resp.keys,stress_level,subtract_bonus,TOTAL_TASK_BONUS,stresslevel_keypress.keys,entiretaskloop.thisRepN,entiretaskloop.thisTrialN,entiretaskloop.thisN,entiretaskloop.thisIndex,entiretaskloop.ran,TrialNumber,Partner,Condition,Photos,Feedback,FeedbackWait,WTP_ins_keys1.keys,WTP_ins_keys1.rt,WTP_ins_keys2.keys,WTP_ins_keys2.rt,decision_price,responses.keys,responses.rt,WTPTaskLoop.thisRepN,WTPTaskLoop.thisTrialN,WTPTaskLoop.thisN,WTPTaskLoop.thisIndex,WTPTaskLoop.ran,right,left,leftmoney,rightmoney,WTP_ITI,social_left,Resume_keys.keys,Resume_keys.rt,end_screen_keys.keys,end_screen_keys.rt
space,8.4497,65624dbc33b93e2696f06d1f,6685aa9113c938e83b4f1ea0,671bda334966aff2325b40f2,2024-10-25_12h52.22.169,WTP_SM_Choice,2022.2.1,Win32,59.17159763,,,,,,,,,,,,,,,,,,,,,,,,,,,,,,,,,,,,,,,,,,,,,
,,65624dbc33b93e2696f06d1f,6685aa9113c938e83b4f1ea0,671bda334966aff2325b40f2,2024-10-25_12h52.22.169,WTP_SM_Choice,2022.2.1,Win32,59.17159763,space,24.9042,,,,,,,,,,,,,,,,,,,,,,,,,,,,,,,,,,,,,,,,,,,
,,65624dbc33b93e2696f06d1f,6685aa9113c938e83b4f1ea0,671bda334966aff2325b40f2,2024-10-25_12h52.22.169,WTP_SM_Choice,2022.2.1,Win32,59.17159763,,,space,2.5127,space,2.44,NAN,,NAN,0,6,,0,0,0,0,1,1,Charlie,Rej,Participant_Images/65624dbc33b93e2696f06d1f/65624dbc33b93e2696f06d1f_Images/65624dbc33b93e2696f06d1f_Image_3.jpeg,did not like,3.613205605,,,,,,,,,,,,,,,,,,,,,,
,,65624dbc33b93e2696f06d1f,6685aa9113c938e83b4f1ea0,671bda334966aff2325b40f2,2024-10-25_12h52.22.169,WTP_SM_Choice,2022.2.1,Win32,59.17159763,,,,,space,2.4669,NAN,,NAN,0,6,,0,1,1,1,1,2,Charlie,Rej,Participant_Images/65624dbc33b93e2696f06d1f/65624dbc33b93e2696f06d1f_Images/65624dbc33b93e2696f06d1f_Image_22.jpeg,did not like,4.988446431,,,,,,,,,,,,,,,,,,,,,,
,,65624dbc33b93e2696f06d1f,6685aa9113c938e83b4f1ea0,671bda334966aff2325b40f2,2024-10-25_12h52.22.169,WTP_SM_Choice,2022.2.1,Win32,59.17159763,,,,,space,0.801,NAN,,NAN,0,6,,0,2,2,2,1,3,Charlie,Rej,Participant_Images/65624dbc33b93e2696f06d1f/65624dbc33b93e2696f06d1f_Images/65624dbc33b93e2696f06d1f_Image_1.jpeg,liked,3.470791822,,,,,,,,,,,,,,,,,,,,,,
,,65624dbc33b93e2696f06d1f,6685aa9113c938e83b4f1ea0,671bda334966aff2325b40f2,2024-10-25_12h52.22.169,WTP_SM_Choice,2022.2.1,Win32,59.17159763,,,,,space,0.0352,NAN,,NAN,0,6,,0,3,3,3,1,4,Charlie,Rej,Participant_Images/65624dbc33b93e2696f06d1f/65624dbc33b93e2696f06d1f_Images/65624dbc33b93e2696f06d1f_Image_25.jpeg,liked,3.820572462,,,,,,,,,,,,,,,,,,,,,,
,,65624dbc33b93e2696f06d1f,6685aa9113c938e83b4f1ea0,671bda334966aff2325b40f2,2024-10-25_12h52.22.169,WTP_SM_Choice,2022.2.1,Win32,59.17159763,,,,,,,,,,,,,,,,,,1,,,,,,space,22.3711,space,17.8903,0.01,1,9.5749,0,0,0,0,1,Watch youtube videos in my bedroom,sing songs with my cousin,0.01,0.01,4.4,1,,,,
,,65624dbc33b93e2696f06d1f,6685aa9113c938e83b4f1ea0,671bda334966aff2325b40f2,2024-10-25_12h52.22.169,WTP_SM_Choice,2022.2.1,Win32,59.17159763,,,,,,,,,,,,,,,,,,2,,,,,,,,,,0.01,2,6.2615,0,1,1,1,1,play instruments with the band from high school,Listen to music in my bedroom,0.02,0.01,8.8,0,,,,
,,65624dbc33b93e2696f06d1f,6685aa9113c938e83b4f1ea0,671bda334966aff2325b40f2,2024-10-25_12h52.22.169,WTP_SM_Choice,2022.2.1,Win32,59.17159763,,,,,,,,,,,,,,,,,,3,,,,,,,,,,0.03,1,6.3182,0,2,2,2,1,Listen to music in my bedroom,make dance routines with my cousin,0.03,0.01,3.3,1,,,,
,,65624dbc33b93e2696f06d1f,6685aa9113c938e83b4f1ea0,671bda334966aff2325b40f2,2024-10-25_12h52.22.169,WTP_SM_Choice,2022.2.1,Win32,59.17159763,,,,,,,,,,,,,,,,,,4,,,,,,,,,,0.01,2,5.8624,0,3,3,3,1,play uno with my cousin,Watch youtube videos in my bedroom,0.04,0.01,1.1,0,,,,
,,65624dbc33b93e2696f06d1f,6685aa9113c938e83b4f1ea0,671bda334966aff2325b40f2,2024-10-25_12h52.22.169,WTP_SM_Choice,2022.2.1,Win32,59.17159763,,,,,,,,,,,,,,,,,,5,,,,,,,,,,0.05,1,5.4279,0,4,4,4,1,Read tarot cards in my bedroom,volunteer with a volunteer group,0.05,0.01,1.1,1,,,,
,,65624dbc33b93e2696f06d1f,6685aa9113c938e83b4f1ea0,671bda334966aff2325b40f2,2024-10-25_12h52.22.169,WTP_SM_Choice,2022.2.1,Win32,59.17159763,,,,,,,NAN,,NAN,0.11,5.89,,0,4,4,4,1,5,Charlie,Rej,Participant_Images/65624dbc33b93e2696f06d1f/65624dbc33b93e2696f06d1f_Images/65624dbc33b93e2696f06d1f_Image_14.jpeg,liked,2.455989137,,,,,,,,,,,,,,,,,,,,,,
,,65624dbc33b93e2696f06d1f,6685aa9113c938e83b4f1ea0,671bda334966aff2325b40f2,2024-10-25_12h52.22.169,WTP_SM_Choice,2022.2.1,Win32,59.17159763,,,,,space,0.834,NAN,,NAN,0.11,5.89,,0,5,5,5,1,6,Charlie,Rej,Participant_Images/65624dbc33b93e2696f06d1f/65624dbc33b93e2696f06d1f_Images/65624dbc33b93e2696f06d1f_Image_17.jpeg,did not like,3.79605092,,,,,,,,,,,,,,,,,,,,,,
,,65624dbc33b93e2696f06d1f,6685aa9113c938e83b4f1ea0,671bda334966aff2325b40f2,2024-10-25_12h52.22.169,WTP_SM_Choice,2022.2.1,Win32,59.17159763,,,,,space,0.9513,NAN,,NAN,0.11,5.89,,0,6,6,6,1,7,Charlie,Rej,Participant_Images/65624dbc33b93e2696f06d1f/65624dbc33b93e2696f06d1f_Images/65624dbc33b93e2696f06d1f_Image_23.jpeg,did not like,3.562416326,,,,,,,,,,,,,,,,,,,,,,
,,65624dbc33b93e2696f06d1f,6685aa9113c938e83b4f1ea0,671bda334966aff2325b40f2,2024-10-25_12h52.22.169,WTP_SM_Choice,2022.2.1,Win32,59.17159763,,,,,space,0.3509,NAN,,NAN,0.11,5.89,,0,7,7,7,1,8,Charlie,Rej,Participant_Images/65624dbc33b93e2696f06d1f/65624dbc33b93e2696f06d1f_Images/65624dbc33b93e2696f06d1f_Image_18.jpeg,did not like,2.843822497,,,,,,,,,,,,,,,,,,,,,,
,,65624dbc33b93e2696f06d1f,6685aa9113c938e83b4f1ea0,671bda334966aff2325b40f2,2024-10-25_12h52.22.169,WTP_SM_Choice,2022.2.1,Win32,59.17159763,,,,,space,1.4369,NAN,,NAN,0.11,5.89,,0,8,8,8,1,9,Charlie,Rej,Participant_Images/65624dbc33b93e2696f06d1f/65624dbc33b93e2696f06d1f_Images/65624dbc33b93e2696f06d1f_Image_21.jpeg,did not like,3.546495948,,,,,,,,,,,,,,,,,,,,,,
,,65624dbc33b93e2696f06d1f,6685aa9113c938e83b4f1ea0,671bda334966aff2325b40f2,2024-10-25_12h52.22.169,WTP_SM_Choice,2022.2.1,Win32,59.17159763,,,,,,,,,,,,,,,,,,6,,,,,,space,7.8828,space,6.8363,0.01,1,1.9746,0,0,0,0,1,walk the dog with my neighbor,Watch youtube videos in my bedroom,0.01,0.02,3.3,0,,,,
,,65624dbc33b93e2696f06d1f,6685aa9113c938e83b4f1ea0,671bda334966aff2325b40f2,2024-10-25_12h52.22.169,WTP_SM_Choice,2022.2.1,Win32,59.17159763,,,,,,,,,,,,,,,,,,7,,,,,,,,,,0.02,1,2.976,0,1,1,1,1,Draw and paint in my bedroom,play online co op video games with people i meet online,0.02,0.02,1.1,1,,,,
,,65624dbc33b93e2696f06d1f,6685aa9113c938e83b4f1ea0,671bda334966aff2325b40f2,2024-10-25_12h52.22.169,WTP_SM_Choice,2022.2.1,Win32,59.17159763,,,,,,,,,,,,,,,,,,8,,,,,,,,,,0.02,2,2.4952,0,2,2,2,1,Walk to the store,play uno with my cousin,0.03,0.02,1.1,1,,,,
,,65624dbc33b93e2696f06d1f,6685aa9113c938e83b4f1ea0,671bda334966aff2325b40f2,2024-10-25_12h52.22.169,WTP_SM_Choice,2022.2.1,Win32,59.17159763,,,,,,,,,,,,,,,,,,9,,,,,,,,,,0.04,1,2.8795,0,3,3,3,1,play instruments with the band from high school,Sleep in my cold bedroom,0.04,0.02,4.4,0,,,,
,,65624dbc33b93e2696f06d1f,6685aa9113c938e83b4f1ea0,671bda334966aff2325b40f2,2024-10-25_12h52.22.169,WTP_SM_Choice,2022.2.1,Win32,59.17159763,,,,,,,,,,,,,,,,,,10,,,,,,,,,,0.02,2,2.4281,0,4,4,4,1,Read in my bedroom,gossip about boys with my cousin,0.05,0.02,1.1,1,,,,
,,65624dbc33b93e2696f06d1f,6685aa9113c938e83b4f1ea0,671bda334966aff2325b40f2,2024-10-25_12h52.22.169,WTP_SM_Choice,2022.2.1,Win32,59.17159763,,,,,,,NAN,,NAN,0.22,5.78,,0,9,9,9,1,10,Charlie,Rej,Participant_Images/65624dbc33b93e2696f06d1f/65624dbc33b93e2696f06d1f_Images/65624dbc33b93e2696f06d1f_Image_12.jpeg,did not like,1.672012706,,,,,,,,,,,,,,,,,,,,,,
,,65624dbc33b93e2696f06d1f,6685aa9113c938e83b4f1ea0,671bda334966aff2325b40f2,2024-10-25_12h52.22.169,WTP_SM_Choice,2022.2.1,Win32,59.17159763,,,,,space,1.8832,NAN,,NAN,0.22,5.78,,0,10,10,10,1,11,Charlie,Rej,Participant_Images/65624dbc33b93e2696f06d1f/65624dbc33b93e2696f06d1f_Images/65624dbc33b93e2696f06d1f_Image_13.jpeg,did not like,4.942172136,,,,,,,,,,,,,,,,,,,,,,
,,65624dbc33b93e2696f06d1f,6685aa9113c938e83b4f1ea0,671bda334966aff2325b40f2,2024-10-25_12h52.22.169,WTP_SM_Choice,2022.2.1,Win32,59.17159763,,,,,space,0.7823,NAN,,NAN,0.22,5.78,,0,11,11,11,1,12,Charlie,Rej,Participant_Images/65624dbc33b93e2696f06d1f/65624dbc33b93e2696f06d1f_Images/65624dbc33b93e2696f06d1f_Image_6.jpeg,liked,2.50187214,,,,,,,,,,,,,,,,,,,,,,
,,65624dbc33b93e2696f06d1f,6685aa9113c938e83b4f1ea0,671bda334966aff2325b40f2,2024-10-25_12h52.22.169,WTP_SM_Choice,2022.2.1,Win32,59.17159763,,,,,space,0.4266,NAN,,NAN,0.22,5.78,,0,12,12,12,1,13,Charlie,Rej,Participant_Images/65624dbc33b93e2696f06d1f/65624dbc33b93e2696f06d1f_Images/65624dbc33b93e2696f06d1f_Image_10.jpeg,did not like,2.071164779,,,,,,,,,,,,,,,,,,,,,,
,,65624dbc33b93e2696f06d1f,6685aa9113c938e83b4f1ea0,671bda334966aff2325b40f2,2024-10-25_12h52.22.169,WTP_SM_Choice,2022.2.1,Win32,59.17159763,,,,,space,1.772,NAN,,NAN,0.22,5.78,,0,13,13,13,1,14,Charlie,Rej,Participant_Images/65624dbc33b93e2696f06d1f/65624dbc33b93e2696f06d1f_Images/65624dbc33b93e2696f06d1f_Image_16.jpeg,did not like,5.336503566,,,,,,,,,,,,,,,,,,,,,,
,,65624dbc33b93e2696f06d1f,6685aa9113c938e83b4f1ea0,671bda334966aff2325b40f2,2024-10-25_12h52.22.169,WTP_SM_Choice,2022.2.1,Win32,59.17159763,,,,,,,,,,,,,,,,,,11,,,,,,space,2.3834,space,0.935,0.01,1,2.3627,0,0,0,0,1,Read in my bedroom,sing songs with my cousin,0.01,0.03,3.3,1,,,,
,,65624dbc33b93e2696f06d1f,6685aa9113c938e83b4f1ea0,671bda334966aff2325b40f2,2024-10-25_12h52.22.169,WTP_SM_Choice,2022.2.1,Win32,59.17159763,,,,,,,,,,,,,,,,,,12,,,,,,,,,,0.02,1,2.0649,0,1,1,1,1,Walk to the store,walk the dog with my neighbor,0.02,0.03,4.4,1,,,,
,,65624dbc33b93e2696f06d1f,6685aa9113c938e83b4f1ea0,671bda334966aff2325b40f2,2024-10-25_12h52.22.169,WTP_SM_Choice,2022.2.1,Win32,59.17159763,,,,,,,,,,,,,,,,,,13,,,,,,,,,,0.03,2,2.2962,0,2,2,2,1,Listen to music in my bedroom,play uno with my cousin,0.03,0.03,1.1,1,,,,
,,65624dbc33b93e2696f06d1f,6685aa9113c938e83b4f1ea0,671bda334966aff2325b40f2,2024-10-25_12h52.22.169,WTP_SM_Choice,2022.2.1,Win32,59.17159763,,,,,,,,,,,,,,,,,,14,,,,,,,,,,0.03,2,2.579,0,3,3,3,1,Eat chicken in my bedroom,perform in theatre with my friends from high school,0.04,0.03,3.3,1,,,,
,,65624dbc33b93e2696f06d1f,6685aa9113c938e83b4f1ea0,671bda334966aff2325b40f2,2024-10-25_12h52.22.169,WTP_SM_Choice,2022.2.1,Win32,59.17159763,,,,,,,,,,,,,,,,,,15,,,,,,,,,,0.03,2,2.1816,0,4,4,4,1,Write in my journal in my bedroom,do chores with my cousin,0.05,0.03,4.4,1,,,,
,,65624dbc33b93e2696f06d1f,6685aa9113c938e83b4f1ea0,671bda334966aff2325b40f2,2024-10-25_12h52.22.169,WTP_SM_Choice,2022.2.1,Win32,59.17159763,,,,,,,NAN,,NAN,0.34,5.66,,0,14,14,14,1,15,Charlie,Rej,Participant_Images/65624dbc33b93e2696f06d1f/65624dbc33b93e2696f06d1f_Images/65624dbc33b93e2696f06d1f_Image_24.jpeg,did not like,2.642157193,,,,,,,,,,,,,,,,,,,,,,
,,65624dbc33b93e2696f06d1f,6685aa9113c938e83b4f1ea0,671bda334966aff2325b40f2,2024-10-25_12h52.22.169,WTP_SM_Choice,2022.2.1,Win32,59.17159763,,,,,space,2.4871,NAN,,NAN,0.34,5.66,,0,15,15,15,1,16,Charlie,Rej,Participant_Images/65624dbc33b93e2696f06d1f/65624dbc33b93e2696f06d1f_Images/65624dbc33b93e2696f06d1f_Image_19.jpeg,did not like,4.456234322,,,,,,,,,,,,,,,,,,,,,,
,,65624dbc33b93e2696f06d1f,6685aa9113c938e83b4f1ea0,671bda334966aff2325b40f2,2024-10-25_12h52.22.169,WTP_SM_Choice,2022.2.1,Win32,59.17159763,,,,,space,1.918,NAN,,NAN,0.34,5.66,,0,16,16,16,1,17,Charlie,Rej,Participant_Images/65624dbc33b93e2696f06d1f/65624dbc33b93e2696f06d1f_Images/65624dbc33b93e2696f06d1f_Image_8.jpeg,did not like,4.438512181,,,,,,,,,,,,,,,,,,,,,,
,,65624dbc33b93e2696f06d1f,6685aa9113c938e83b4f1ea0,671bda334966aff2325b40f2,2024-10-25_12h52.22.169,WTP_SM_Choice,2022.2.1,Win32,59.17159763,,,,,space,4.3558,NAN,,NAN,0.34,5.66,,0,17,17,17,1,18,Charlie,Rej,Participant_Images/65624dbc33b93e2696f06d1f/65624dbc33b93e2696f06d1f_Images/65624dbc33b93e2696f06d1f_Image_4.jpeg,did not like,2.682944783,,,,,,,,,,,,,,,,,,,,,,
,,65624dbc33b93e2696f06d1f,6685aa9113c938e83b4f1ea0,671bda334966aff2325b40f2,2024-10-25_12h52.22.169,WTP_SM_Choice,2022.2.1,Win32,59.17159763,,,,,space,3.1373,NAN,,NAN,0.34,5.66,,0,18,18,18,1,19,Charlie,Rej,Participant_Images/65624dbc33b93e2696f06d1f/65624dbc33b93e2696f06d1f_Images/65624dbc33b93e2696f06d1f_Image_7.jpeg,did not like,4.51984296,,,,,,,,,,,,,,,,,,,,,,
,,65624dbc33b93e2696f06d1f,6685aa9113c938e83b4f1ea0,671bda334966aff2325b40f2,2024-10-25_12h52.22.169,WTP_SM_Choice,2022.2.1,Win32,59.17159763,,,,,,,,,,,,,,,,,,16,,,,,,space,1.9666,space,1.3188,0.01,1,1.8825,0,0,0,0,1,gossip about boys with my cousin,Listen to music in my bedroom,0.01,0.04,1.1,0,,,,
,,65624dbc33b93e2696f06d1f,6685aa9113c938e83b4f1ea0,671bda334966aff2325b40f2,2024-10-25_12h52.22.169,WTP_SM_Choice,2022.2.1,Win32,59.17159763,,,,,,,,,,,,,,,,,,17,,,,,,,,,,0.02,1,2.395,0,1,1,1,1,play uno with my cousin,Sing along to music in my bedroom,0.02,0.04,8.8,0,,,,
,,65624dbc33b93e2696f06d1f,6685aa9113c938e83b4f1ea0,671bda334966aff2325b40f2,2024-10-25_12h52.22.169,WTP_SM_Choice,2022.2.1,Win32,59.17159763,,,,,,,,,,,,,,,,,,18,,,,,,,,,,0.04,2,4.1788,0,2,2,2,1,Watch youtube videos in my bedroom,perform in theatre with my friends from high school,0.03,0.04,3.3,1,,,,
,,65624dbc33b93e2696f06d1f,6685aa9113c938e83b4f1ea0,671bda334966aff2325b40f2,2024-10-25_12h52.22.169,WTP_SM_Choice,2022.2.1,Win32,59.17159763,,,,,,,,,,,,,,,,,,19,,,,,,,,,,0.04,2,2.8854,0,3,3,3,1,Draw and paint in my bedroom,play uno with my cousin,0.04,0.04,3.3,1,,,,
,,65624dbc33b93e2696f06d1f,6685aa9113c938e83b4f1ea0,671bda334966aff2325b40f2,2024-10-25_12h52.22.169,WTP_SM_Choice,2022.2.1,Win32,59.17159763,,,,,,,,,,,,,,,,,,20,,,,,,,,,,0.05,1,2.0689,0,4,4,4,1,play instruments with the band from high school,Read in my bedroom,0.05,0.04,1.1,0,,,,
,,65624dbc33b93e2696f06d1f,6685aa9113c938e83b4f1ea0,671bda334966aff2325b40f2,2024-10-25_12h52.22.169,WTP_SM_Choice,2022.2.1,Win32,59.17159763,,,,,,,NAN,,NAN,0.5,5.5,,0,19,19,19,1,20,Charlie,Rej,Participant_Images/65624dbc33b93e2696f06d1f/65624dbc33b93e2696f06d1f_Images/65624dbc33b93e2696f06d1f_Image_20.jpeg,did not like,3.195382774,,,,,,,,,,,,,,,,,,,,,,
,,65624dbc33b93e2696f06d1f,6685aa9113c938e83b4f1ea0,671bda334966aff2325b40f2,2024-10-25_12h52.22.169,WTP_SM_Choice,2022.2.1,Win32,59.17159763,,,,,space,0.3851,NAN,,NAN,0.5,5.5,,0,20,20,20,1,21,Charlie,Rej,Participant_Images/65624dbc33b93e2696f06d1f/65624dbc33b93e2696f06d1f_Images/65624dbc33b93e2696f06d1f_Image_5.jpeg,liked,1.779333479,,,,,,,,,,,,,,,,,,,,,,
,,65624dbc33b93e2696f06d1f,6685aa9113c938e83b4f1ea0,671bda334966aff2325b40f2,2024-10-25_12h52.22.169,WTP_SM_Choice,2022.2.1,Win32,59.17159763,,,,,space,0.8584,NAN,,NAN,0.5,5.5,,0,21,21,21,1,22,Charlie,Rej,Participant_Images/65624dbc33b93e2696f06d1f/65624dbc33b93e2696f06d1f_Images/65624dbc33b93e2696f06d1f_Image_2.jpeg,liked,4.312468682,,,,,,,,,,,,,,,,,,,,,,
,,65624dbc33b93e2696f06d1f,6685aa9113c938e83b4f1ea0,671bda334966aff2325b40f2,2024-10-25_12h52.22.169,WTP_SM_Choice,2022.2.1,Win32,59.17159763,,,,,space,5.2744,NAN,,NAN,0.5,5.5,,0,22,22,22,1,23,Charlie,Rej,Participant_Images/65624dbc33b93e2696f06d1f/65624dbc33b93e2696f06d1f_Images/65624dbc33b93e2696f06d1f_Image_9.jpeg,liked,4.940433059,,,,,,,,,,,,,,,,,,,,,,
,,65624dbc33b93e2696f06d1f,6685aa9113c938e83b4f1ea0,671bda334966aff2325b40f2,2024-10-25_12h52.22.169,WTP_SM_Choice,2022.2.1,Win32,59.17159763,,,,,space,1.2005,NAN,,NAN,0.5,5.5,,0,23,23,23,1,24,Charlie,Rej,Participant_Images/65624dbc33b93e2696f06d1f/65624dbc33b93e2696f06d1f_Images/65624dbc33b93e2696f06d1f_Image_11.jpeg,did not like,2.7105123,,,,,,,,,,,,,,,,,,,,,,
,,65624dbc33b93e2696f06d1f,6685aa9113c938e83b4f1ea0,671bda334966aff2325b40f2,2024-10-25_12h52.22.169,WTP_SM_Choice,2022.2.1,Win32,59.17159763,,,,,,,,,,,,,,,,,,21,,,,,,space,5.8194,space,1.0676,0.01,1,3.7143,0,0,0,0,1,play online co op video games with people i meet online,Walk to the store,0.01,0.05,8.8,0,,,,
,,65624dbc33b93e2696f06d1f,6685aa9113c938e83b4f1ea0,671bda334966aff2325b40f2,2024-10-25_12h52.22.169,WTP_SM_Choice,2022.2.1,Win32,59.17159763,,,,,,,,,,,,,,,,,,22,,,,,,,,,,0.05,2,2.7803,0,1,1,1,1,gossip about boys with my cousin,Walk to the store,0.02,0.05,4.4,0,,,,
,,65624dbc33b93e2696f06d1f,6685aa9113c938e83b4f1ea0,671bda334966aff2325b40f2,2024-10-25_12h52.22.169,WTP_SM_Choice,2022.2.1,Win32,59.17159763,,,,,,,,,,,,,,,,,,23,,,,,,,,,,0.05,2,2.0198,0,2,2,2,1,Read in my bedroom,play online co op video games with people i meet online,0.03,0.05,1.1,1,,,,
,,65624dbc33b93e2696f06d1f,6685aa9113c938e83b4f1ea0,671bda334966aff2325b40f2,2024-10-25_12h52.22.169,WTP_SM_Choice,2022.2.1,Win32,59.17159763,,,,,,,,,,,,,,,,,,24,,,,,,,,,,0.05,2,2.7355,0,3,3,3,1,Sleep in my cold bedroom,play online co op video games with people i meet online,0.04,0.05,4.4,1,,,,
,,65624dbc33b93e2696f06d1f,6685aa9113c938e83b4f1ea0,671bda334966aff2325b40f2,2024-10-25_12h52.22.169,WTP_SM_Choice,2022.2.1,Win32,59.17159763,,,,,,,,,,,,,,,,,,25,,,,,,,,,,0.05,1,2.0515,0,4,4,4,1,volunteer with a volunteer group,Sleep in my cold bedroom,0.05,0.05,3.3,0,,,,
,,65624dbc33b93e2696f06d1f,6685aa9113c938e83b4f1ea0,671bda334966aff2325b40f2,2024-10-25_12h52.22.169,WTP_SM_Choice,2022.2.1,Win32,59.17159763,,,,,,,2,,9,0.71,5.29,,0,24,24,24,1,25,Charlie,Rej,Participant_Images/65624dbc33b93e2696f06d1f/65624dbc33b93e2696f06d1f_Images/65624dbc33b93e2696f06d1f_Image_15.jpeg,did not like,3.602308302,,,,,,,,,,,,,,,,,,,space,2.6564,,
,,65624dbc33b93e2696f06d1f,6685aa9113c938e83b4f1ea0,671bda334966aff2325b40f2,2024-10-25_12h52.22.169,WTP_SM_Choice,2022.2.1,Win32,59.17159763,,,space,2.6094,space,0.5668,NAN,,NAN,0.71,5.29,,0,25,25,25,1,26,Riley,Acc,Participant_Images/65624dbc33b93e2696f06d1f/65624dbc33b93e2696f06d1f_Images/65624dbc33b93e2696f06d1f_Image_24.jpeg,liked,4.106391878,,,,,,,,,,,,,,,,,,,,,,
,,65624dbc33b93e2696f06d1f,6685aa9113c938e83b4f1ea0,671bda334966aff2325b40f2,2024-10-25_12h52.22.169,WTP_SM_Choice,2022.2.1,Win32,59.17159763,,,,,space,1.05,NAN,,NAN,0.71,5.29,,0,26,26,26,1,27,Riley,Acc,Participant_Images/65624dbc33b93e2696f06d1f/65624dbc33b93e2696f06d1f_Images/65624dbc33b93e2696f06d1f_Image_8.jpeg,liked,3.799433026,,,,,,,,,,,,,,,,,,,,,,
,,65624dbc33b93e2696f06d1f,6685aa9113c938e83b4f1ea0,671bda334966aff2325b40f2,2024-10-25_12h52.22.169,WTP_SM_Choice,2022.2.1,Win32,59.17159763,,,,,space,0.5166,NAN,,NAN,0.71,5.29,,0,27,27,27,1,28,Riley,Acc,Participant_Images/65624dbc33b93e2696f06d1f/65624dbc33b93e2696f06d1f_Images/65624dbc33b93e2696f06d1f_Image_1.jpeg,liked,5.246980764,,,,,,,,,,,,,,,,,,,,,,
,,65624dbc33b93e2696f06d1f,6685aa9113c938e83b4f1ea0,671bda334966aff2325b40f2,2024-10-25_12h52.22.169,WTP_SM_Choice,2022.2.1,Win32,59.17159763,,,,,space,0.9546,NAN,,NAN,0.71,5.29,,0,28,28,28,1,29,Riley,Acc,Participant_Images/65624dbc33b93e2696f06d1f/65624dbc33b93e2696f06d1f_Images/65624dbc33b93e2696f06d1f_Image_3.jpeg,liked,3.30081769,,,,,,,,,,,,,,,,,,,,,,
,,65624dbc33b93e2696f06d1f,6685aa9113c938e83b4f1ea0,671bda334966aff2325b40f2,2024-10-25_12h52.22.169,WTP_SM_Choice,2022.2.1,Win32,59.17159763,,,,,,,,,,,,,,,,,,26,,,,,,space,1.3833,space,1.9258,0.01,1,2.0173,0,0,0,0,1,play instruments with the band from high school,Walk to the store,0.01,0.01,4.4,0,,,,
,,65624dbc33b93e2696f06d1f,6685aa9113c938e83b4f1ea0,671bda334966aff2325b40f2,2024-10-25_12h52.22.169,WTP_SM_Choice,2022.2.1,Win32,59.17159763,,,,,,,,,,,,,,,,,,27,,,,,,,,,,0.02,1,1.5334,0,1,1,1,1,do chores with my cousin,Listen to music in my bedroom,0.02,0.01,3.3,0,,,,
,,65624dbc33b93e2696f06d1f,6685aa9113c938e83b4f1ea0,671bda334966aff2325b40f2,2024-10-25_12h52.22.169,WTP_SM_Choice,2022.2.1,Win32,59.17159763,,,,,,,,,,,,,,,,,,28,,,,,,,,,,0.01,2,2.8451,0,2,2,2,1,Sing along to music in my bedroom,do chores with my cousin,0.03,0.01,3.3,1,,,,
,,65624dbc33b93e2696f06d1f,6685aa9113c938e83b4f1ea0,671bda334966aff2325b40f2,2024-10-25_12h52.22.169,WTP_SM_Choice,2022.2.1,Win32,59.17159763,,,,,,,,,,,,,,,,,,29,,,,,,,,,,0.04,1,1.7989,0,3,3,3,1,perform in theatre with my friends from high school,Sleep in my cold bedroom,0.04,0.01,4.4,0,,,,
,,65624dbc33b93e2696f06d1f,6685aa9113c938e83b4f1ea0,671bda334966aff2325b40f2,2024-10-25_12h52.22.169,WTP_SM_Choice,2022.2.1,Win32,59.17159763,,,,,,,,,,,,,,,,,,30,,,,,,,,,,0.01,2,2.4874,0,4,4,4,1,play online co op video games with people i meet online,Sing along to music in my bedroom,0.05,0.01,8.8,0,,,,
,,65624dbc33b93e2696f06d1f,6685aa9113c938e83b4f1ea0,671bda334966aff2325b40f2,2024-10-25_12h52.22.169,WTP_SM_Choice,2022.2.1,Win32,59.17159763,,,,,,,NAN,,NAN,0.8,5.2,,0,29,29,29,1,30,Riley,Acc,Participant_Images/65624dbc33b93e2696f06d1f/65624dbc33b93e2696f06d1f_Images/65624dbc33b93e2696f06d1f_Image_4.jpeg,did not like,1.661473164,,,,,,,,,,,,,,,,,,,,,,
,,65624dbc33b93e2696f06d1f,6685aa9113c938e83b4f1ea0,671bda334966aff2325b40f2,2024-10-25_12h52.22.169,WTP_SM_Choice,2022.2.1,Win32,59.17159763,,,,,space,1.7093,NAN,,NAN,0.8,5.2,,0,30,30,30,1,31,Riley,Acc,Participant_Images/65624dbc33b93e2696f06d1f/65624dbc33b93e2696f06d1f_Images/65624dbc33b93e2696f06d1f_Image_9.jpeg,liked,3.613205605,,,,,,,,,,,,,,,,,,,,,,
,,65624dbc33b93e2696f06d1f,6685aa9113c938e83b4f1ea0,671bda334966aff2325b40f2,2024-10-25_12h52.22.169,WTP_SM_Choice,2022.2.1,Win32,59.17159763,,,,,space,5.6502,NAN,,NAN,0.8,5.2,,0,31,31,31,1,32,Riley,Acc,Participant_Images/65624dbc33b93e2696f06d1f/65624dbc33b93e2696f06d1f_Images/65624dbc33b93e2696f06d1f_Image_20.jpeg,did not like,4.988446431,,,,,,,,,,,,,,,,,,,,,,
,,65624dbc33b93e2696f06d1f,6685aa9113c938e83b4f1ea0,671bda334966aff2325b40f2,2024-10-25_12h52.22.169,WTP_SM_Choice,2022.2.1,Win32,59.17159763,,,,,space,6.4042,NAN,,NAN,0.8,5.2,,0,32,32,32,1,33,Riley,Acc,Participant_Images/65624dbc33b93e2696f06d1f/65624dbc33b93e2696f06d1f_Images/65624dbc33b93e2696f06d1f_Image_23.jpeg,liked,3.470791822,,,,,,,,,,,,,,,,,,,,,,
,,65624dbc33b93e2696f06d1f,6685aa9113c938e83b4f1ea0,671bda334966aff2325b40f2,2024-10-25_12h52.22.169,WTP_SM_Choice,2022.2.1,Win32,59.17159763,,,,,space,0.0181,NAN,,NAN,0.8,5.2,,0,33,33,33,1,34,Riley,Acc,Participant_Images/65624dbc33b93e2696f06d1f/65624dbc33b93e2696f06d1f_Images/65624dbc33b93e2696f06d1f_Image_6.jpeg,did not like,3.820572462,,,,,,,,,,,,,,,,,,,,,,
,,65624dbc33b93e2696f06d1f,6685aa9113c938e83b4f1ea0,671bda334966aff2325b40f2,2024-10-25_12h52.22.169,WTP_SM_Choice,2022.2.1,Win32,59.17159763,,,,,,,,,,,,,,,,,,31,,,,,,space,2.0836,space,13.7469,0.01,1,3.2658,0,0,0,0,1,make dance routines with my cousin,Watch youtube videos in my bedroom,0.01,0.02,8.8,0,,,,
,,65624dbc33b93e2696f06d1f,6685aa9113c938e83b4f1ea0,671bda334966aff2325b40f2,2024-10-25_12h52.22.169,WTP_SM_Choice,2022.2.1,Win32,59.17159763,,,,,,,,,,,,,,,,,,32,,,,,,,,,,0.02,1,2.1012,0,1,1,1,1,Draw and paint in my bedroom,gossip about boys with my cousin,0.02,0.02,1.1,1,,,,
,,65624dbc33b93e2696f06d1f,6685aa9113c938e83b4f1ea0,671bda334966aff2325b40f2,2024-10-25_12h52.22.169,WTP_SM_Choice,2022.2.1,Win32,59.17159763,,,,,,,,,,,,,,,,,,33,,,,,,,,,,0.02,2,3.128,0,2,2,2,1,Sleep in my cold bedroom,sing songs with my cousin,0.03,0.02,4.4,1,,,,
,,65624dbc33b93e2696f06d1f,6685aa9113c938e83b4f1ea0,671bda334966aff2325b40f2,2024-10-25_12h52.22.169,WTP_SM_Choice,2022.2.1,Win32,59.17159763,,,,,,,,,,,,,,,,,,34,,,,,,,,,,0.04,1,2.232,0,3,3,3,1,walk the dog with my neighbor,Read in my bedroom,0.04,0.02,3.3,0,,,,
,,65624dbc33b93e2696f06d1f,6685aa9113c938e83b4f1ea0,671bda334966aff2325b40f2,2024-10-25_12h52.22.169,WTP_SM_Choice,2022.2.1,Win32,59.17159763,,,,,,,,,,,,,,,,,,35,,,,,,,,,,0.02,2,2.5793,0,4,4,4,1,Watch youtube videos in my bedroom,do chores with my cousin,0.05,0.02,1.1,1,,,,
,,65624dbc33b93e2696f06d1f,6685aa9113c938e83b4f1ea0,671bda334966aff2325b40f2,2024-10-25_12h52.22.169,WTP_SM_Choice,2022.2.1,Win32,59.17159763,,,,,,,NAN,,NAN,0.91,5.09,,0,34,34,34,1,35,Riley,Acc,Participant_Images/65624dbc33b93e2696f06d1f/65624dbc33b93e2696f06d1f_Images/65624dbc33b93e2696f06d1f_Image_25.jpeg,liked,2.455989137,,,,,,,,,,,,,,,,,,,,,,
,,65624dbc33b93e2696f06d1f,6685aa9113c938e83b4f1ea0,671bda334966aff2325b40f2,2024-10-25_12h52.22.169,WTP_SM_Choice,2022.2.1,Win32,59.17159763,,,,,space,8.3657,NAN,,NAN,0.91,5.09,,0,35,35,35,1,36,Riley,Acc,Participant_Images/65624dbc33b93e2696f06d1f/65624dbc33b93e2696f06d1f_Images/65624dbc33b93e2696f06d1f_Image_13.jpeg,liked,3.79605092,,,,,,,,,,,,,,,,,,,,,,
,,65624dbc33b93e2696f06d1f,6685aa9113c938e83b4f1ea0,671bda334966aff2325b40f2,2024-10-25_12h52.22.169,WTP_SM_Choice,2022.2.1,Win32,59.17159763,,,,,space,3.4691,NAN,,NAN,0.91,5.09,,0,36,36,36,1,37,Riley,Acc,Participant_Images/65624dbc33b93e2696f06d1f/65624dbc33b93e2696f06d1f_Images/65624dbc33b93e2696f06d1f_Image_18.jpeg,liked,3.562416326,,,,,,,,,,,,,,,,,,,,,,
,,65624dbc33b93e2696f06d1f,6685aa9113c938e83b4f1ea0,671bda334966aff2325b40f2,2024-10-25_12h52.22.169,WTP_SM_Choice,2022.2.1,Win32,59.17159763,,,,,space,0.709,NAN,,NAN,0.91,5.09,,0,37,37,37,1,38,Riley,Acc,Participant_Images/65624dbc33b93e2696f06d1f/65624dbc33b93e2696f06d1f_Images/65624dbc33b93e2696f06d1f_Image_14.jpeg,liked,2.843822497,,,,,,,,,,,,,,,,,,,,,,
,,65624dbc33b93e2696f06d1f,6685aa9113c938e83b4f1ea0,671bda334966aff2325b40f2,2024-10-25_12h52.22.169,WTP_SM_Choice,2022.2.1,Win32,59.17159763,,,,,space,1.1229,NAN,,NAN,0.91,5.09,,0,38,38,38,1,39,Riley,Acc,Participant_Images/65624dbc33b93e2696f06d1f/65624dbc33b93e2696f06d1f_Images/65624dbc33b93e2696f06d1f_Image_5.jpeg,liked,3.546495948,,,,,,,,,,,,,,,,,,,,,,
,,65624dbc33b93e2696f06d1f,6685aa9113c938e83b4f1ea0,671bda334966aff2325b40f2,2024-10-25_12h52.22.169,WTP_SM_Choice,2022.2.1,Win32,59.17159763,,,,,,,,,,,,,,,,,,36,,,,,,space,1.7752,space,0.8908,0.03,2,1.7256,0,0,0,0,1,Write in my journal in my bedroom,play online co op video games with people i meet online,0.01,0.03,3.3,1,,,,
,,65624dbc33b93e2696f06d1f,6685aa9113c938e83b4f1ea0,671bda334966aff2325b40f2,2024-10-25_12h52.22.169,WTP_SM_Choice,2022.2.1,Win32,59.17159763,,,,,,,,,,,,,,,,,,37,,,,,,,,,,0.03,2,1.3986,0,1,1,1,1,Read in my bedroom,do chores with my cousin,0.02,0.03,1.1,1,,,,
,,65624dbc33b93e2696f06d1f,6685aa9113c938e83b4f1ea0,671bda334966aff2325b40f2,2024-10-25_12h52.22.169,WTP_SM_Choice,2022.2.1,Win32,59.17159763,,,,,,,,,,,,,,,,,,38,,,,,,,,,,0.03,2,2.0686,0,2,2,2,1,Watch youtube videos in my bedroom,gossip about boys with my cousin,0.03,0.03,1.1,1,,,,
,,65624dbc33b93e2696f06d1f,6685aa9113c938e83b4f1ea0,671bda334966aff2325b40f2,2024-10-25_12h52.22.169,WTP_SM_Choice,2022.2.1,Win32,59.17159763,,,,,,,,,,,,,,,,,,39,,,,,,,,,,0.03,2,2.011,0,3,3,3,1,sing songs with my cousin,Eat chicken in my bedroom,0.04,0.03,3.3,0,,,,
,,65624dbc33b93e2696f06d1f,6685aa9113c938e83b4f1ea0,671bda334966aff2325b40f2,2024-10-25_12h52.22.169,WTP_SM_Choice,2022.2.1,Win32,59.17159763,,,,,,,,,,,,,,,,,,40,,,,,,,,,,0.03,2,2.6802,0,4,4,4,1,sing songs with my cousin,Walk to the store,0.05,0.03,4.4,0,,,,
,,65624dbc33b93e2696f06d1f,6685aa9113c938e83b4f1ea0,671bda334966aff2325b40f2,2024-10-25_12h52.22.169,WTP_SM_Choice,2022.2.1,Win32,59.17159763,,,,,,,NAN,,NAN,1.06,4.94,,0,39,39,39,1,40,Riley,Acc,Participant_Images/65624dbc33b93e2696f06d1f/65624dbc33b93e2696f06d1f_Images/65624dbc33b93e2696f06d1f_Image_15.jpeg,liked,1.672012706,,,,,,,,,,,,,,,,,,,,,,
,,65624dbc33b93e2696f06d1f,6685aa9113c938e83b4f1ea0,671bda334966aff2325b40f2,2024-10-25_12h52.22.169,WTP_SM_Choice,2022.2.1,Win32,59.17159763,,,,,space,0.5422,NAN,,NAN,1.06,4.94,,0,40,40,40,1,41,Riley,Acc,Participant_Images/65624dbc33b93e2696f06d1f/65624dbc33b93e2696f06d1f_Images/65624dbc33b93e2696f06d1f_Image_11.jpeg,liked,4.942172136,,,,,,,,,,,,,,,,,,,,,,
,,65624dbc33b93e2696f06d1f,6685aa9113c938e83b4f1ea0,671bda334966aff2325b40f2,2024-10-25_12h52.22.169,WTP_SM_Choice,2022.2.1,Win32,59.17159763,,,,,space,0.3344,NAN,,NAN,1.06,4.94,,0,41,41,41,1,42,Riley,Acc,Participant_Images/65624dbc33b93e2696f06d1f/65624dbc33b93e2696f06d1f_Images/65624dbc33b93e2696f06d1f_Image_7.jpeg,liked,2.50187214,,,,,,,,,,,,,,,,,,,,,,
,,65624dbc33b93e2696f06d1f,6685aa9113c938e83b4f1ea0,671bda334966aff2325b40f2,2024-10-25_12h52.22.169,WTP_SM_Choice,2022.2.1,Win32,59.17159763,,,,,space,1.9359,NAN,,NAN,1.06,4.94,,0,42,42,42,1,43,Riley,Acc,Participant_Images/65624dbc33b93e2696f06d1f/65624dbc33b93e2696f06d1f_Images/65624dbc33b93e2696f06d1f_Image_12.jpeg,liked,2.071164779,,,,,,,,,,,,,,,,,,,,,,
,,65624dbc33b93e2696f06d1f,6685aa9113c938e83b4f1ea0,671bda334966aff2325b40f2,2024-10-25_12h52.22.169,WTP_SM_Choice,2022.2.1,Win32,59.17159763,,,,,space,1.1411,NAN,,NAN,1.06,4.94,,0,43,43,43,1,44,Riley,Acc,Participant_Images/65624dbc33b93e2696f06d1f/65624dbc33b93e2696f06d1f_Images/65624dbc33b93e2696f06d1f_Image_16.jpeg,did not like,5.336503566,,,,,,,,,,,,,,,,,,,,,,
,,65624dbc33b93e2696f06d1f,6685aa9113c938e83b4f1ea0,671bda334966aff2325b40f2,2024-10-25_12h52.22.169,WTP_SM_Choice,2022.2.1,Win32,59.17159763,,,,,,,,,,,,,,,,,,41,,,,,,space,1.2675,space,0.6856,0.01,1,1.2926,0,0,0,0,1,perform in theatre with my friends from high school,Sing along to music in my bedroom,0.01,0.04,1.1,0,,,,
,,65624dbc33b93e2696f06d1f,6685aa9113c938e83b4f1ea0,671bda334966aff2325b40f2,2024-10-25_12h52.22.169,WTP_SM_Choice,2022.2.1,Win32,59.17159763,,,,,,,,,,,,,,,,,,42,,,,,,,,,,0.02,1,1.9307,0,1,1,1,1,volunteer with a volunteer group,Sing along to music in my bedroom,0.02,0.04,3.3,0,,,,
,,65624dbc33b93e2696f06d1f,6685aa9113c938e83b4f1ea0,671bda334966aff2325b40f2,2024-10-25_12h52.22.169,WTP_SM_Choice,2022.2.1,Win32,59.17159763,,,,,,,,,,,,,,,,,,43,,,,,,,,,,0.03,1,1.6527,0,2,2,2,1,walk the dog with my neighbor,Eat chicken in my bedroom,0.03,0.04,1.1,0,,,,
,,65624dbc33b93e2696f06d1f,6685aa9113c938e83b4f1ea0,671bda334966aff2325b40f2,2024-10-25_12h52.22.169,WTP_SM_Choice,2022.2.1,Win32,59.17159763,,,,,,,,,,,,,,,,,,44,,,,,,,,,,0.04,1,2.1129,0,3,3,3,1,gossip about boys with my cousin,Sing along to music in my bedroom,0.04,0.04,1.1,0,,,,
,,65624dbc33b93e2696f06d1f,6685aa9113c938e83b4f1ea0,671bda334966aff2325b40f2,2024-10-25_12h52.22.169,WTP_SM_Choice,2022.2.1,Win32,59.17159763,,,,,,,,,,,,,,,,,,45,,,,,,,,,,0.04,2,2.3006,0,4,4,4,1,Sing along to music in my bedroom,sing songs with my cousin,0.05,0.04,4.4,1,,,,
,,65624dbc33b93e2696f06d1f,6685aa9113c938e83b4f1ea0,671bda334966aff2325b40f2,2024-10-25_12h52.22.169,WTP_SM_Choice,2022.2.1,Win32,59.17159763,,,,,,,NAN,,NAN,1.2,4.8,,0,44,44,44,1,45,Riley,Acc,Participant_Images/65624dbc33b93e2696f06d1f/65624dbc33b93e2696f06d1f_Images/65624dbc33b93e2696f06d1f_Image_2.jpeg,did not like,2.642157193,,,,,,,,,,,,,,,,,,,,,,
,,65624dbc33b93e2696f06d1f,6685aa9113c938e83b4f1ea0,671bda334966aff2325b40f2,2024-10-25_12h52.22.169,WTP_SM_Choice,2022.2.1,Win32,59.17159763,,,,,space,1.6175,NAN,,NAN,1.2,4.8,,0,45,45,45,1,46,Riley,Acc,Participant_Images/65624dbc33b93e2696f06d1f/65624dbc33b93e2696f06d1f_Images/65624dbc33b93e2696f06d1f_Image_19.jpeg,did not like,4.456234322,,,,,,,,,,,,,,,,,,,,,,
,,65624dbc33b93e2696f06d1f,6685aa9113c938e83b4f1ea0,671bda334966aff2325b40f2,2024-10-25_12h52.22.169,WTP_SM_Choice,2022.2.1,Win32,59.17159763,,,,,space,0.6679,NAN,,NAN,1.2,4.8,,0,46,46,46,1,47,Riley,Acc,Participant_Images/65624dbc33b93e2696f06d1f/65624dbc33b93e2696f06d1f_Images/65624dbc33b93e2696f06d1f_Image_17.jpeg,liked,4.438512181,,,,,,,,,,,,,,,,,,,,,,
,,65624dbc33b93e2696f06d1f,6685aa9113c938e83b4f1ea0,671bda334966aff2325b40f2,2024-10-25_12h52.22.169,WTP_SM_Choice,2022.2.1,Win32,59.17159763,,,,,space,4.6503,NAN,,NAN,1.2,4.8,,0,47,47,47,1,48,Riley,Acc,Participant_Images/65624dbc33b93e2696f06d1f/65624dbc33b93e2696f06d1f_Images/65624dbc33b93e2696f06d1f_Image_10.jpeg,did not like,2.682944783,,,,,,,,,,,,,,,,,,,,,,
,,65624dbc33b93e2696f06d1f,6685aa9113c938e83b4f1ea0,671bda334966aff2325b40f2,2024-10-25_12h52.22.169,WTP_SM_Choice,2022.2.1,Win32,59.17159763,,,,,space,9.0484,NAN,,NAN,1.2,4.8,,0,48,48,48,1,49,Riley,Acc,Participant_Images/65624dbc33b93e2696f06d1f/65624dbc33b93e2696f06d1f_Images/65624dbc33b93e2696f06d1f_Image_21.jpeg,liked,4.51984296,,,,,,,,,,,,,,,,,,,,,,
,,65624dbc33b93e2696f06d1f,6685aa9113c938e83b4f1ea0,671bda334966aff2325b40f2,2024-10-25_12h52.22.169,WTP_SM_Choice,2022.2.1,Win32,59.17159763,,,,,,,,,,,,,,,,,,46,,,,,,space,2.7412,space,0.5513,0.05,2,1.6258,0,0,0,0,1,Write in my journal in my bedroom,gossip about boys with my cousin,0.01,0.05,8.8,1,,,,
,,65624dbc33b93e2696f06d1f,6685aa9113c938e83b4f1ea0,671bda334966aff2325b40f2,2024-10-25_12h52.22.169,WTP_SM_Choice,2022.2.1,Win32,59.17159763,,,,,,,,,,,,,,,,,,47,,,,,,,,,,0.02,1,2.0447,0,1,1,1,1,Draw and paint in my bedroom,volunteer with a volunteer group,0.02,0.05,1.1,1,,,,
,,65624dbc33b93e2696f06d1f,6685aa9113c938e83b4f1ea0,671bda334966aff2325b40f2,2024-10-25_12h52.22.169,WTP_SM_Choice,2022.2.1,Win32,59.17159763,,,,,,,,,,,,,,,,,,48,,,,,,,,,,0.03,1,1.9042,0,2,2,2,1,make dance routines with my cousin,Eat chicken in my bedroom,0.03,0.05,4.4,0,,,,
,,65624dbc33b93e2696f06d1f,6685aa9113c938e83b4f1ea0,671bda334966aff2325b40f2,2024-10-25_12h52.22.169,WTP_SM_Choice,2022.2.1,Win32,59.17159763,,,,,,,,,,,,,,,,,,49,,,,,,,,,,0.05,2,3.4662,0,3,3,3,1,Sleep in my cold bedroom,make dance routines with my cousin,0.04,0.05,3.3,1,,,,
,,65624dbc33b93e2696f06d1f,6685aa9113c938e83b4f1ea0,671bda334966aff2325b40f2,2024-10-25_12h52.22.169,WTP_SM_Choice,2022.2.1,Win32,59.17159763,,,,,,,,,,,,,,,,,,50,,,,,,,,,,0.05,2,2.4453,0,4,4,4,1,Listen to music in my bedroom,play online co op video games with people i meet online,0.05,0.05,1.1,1,,,,
,,65624dbc33b93e2696f06d1f,6685aa9113c938e83b4f1ea0,671bda334966aff2325b40f2,2024-10-25_12h52.22.169,WTP_SM_Choice,2022.2.1,Win32,59.17159763,,,,,,,5,,9,1.4,4.6,,0,49,49,49,1,50,Riley,Acc,Participant_Images/65624dbc33b93e2696f06d1f/65624dbc33b93e2696f06d1f_Images/65624dbc33b93e2696f06d1f_Image_22.jpeg,liked,3.195382774,,,,,,,,,,,,,,,,,,,space,1.7017,,
,,65624dbc33b93e2696f06d1f,6685aa9113c938e83b4f1ea0,671bda334966aff2325b40f2,2024-10-25_12h52.22.169,WTP_SM_Choice,2022.2.1,Win32,59.17159763,,,space,2.6359,space,1.4094,NAN,,NAN,1.4,4.6,,0,50,50,50,1,51,Sam,Acc,Participant_Images/65624dbc33b93e2696f06d1f/65624dbc33b93e2696f06d1f_Images/65624dbc33b93e2696f06d1f_Image_17.jpeg,liked,1.779333479,,,,,,,,,,,,,,,,,,,,,,
,,65624dbc33b93e2696f06d1f,6685aa9113c938e83b4f1ea0,671bda334966aff2325b40f2,2024-10-25_12h52.22.169,WTP_SM_Choice,2022.2.1,Win32,59.17159763,,,,,space,3.6041,NAN,,NAN,1.4,4.6,,0,51,51,51,1,52,Sam,Acc,Participant_Images/65624dbc33b93e2696f06d1f/65624dbc33b93e2696f06d1f_Images/65624dbc33b93e2696f06d1f_Image_20.jpeg,liked,4.312468682,,,,,,,,,,,,,,,,,,,,,,
,,65624dbc33b93e2696f06d1f,6685aa9113c938e83b4f1ea0,671bda334966aff2325b40f2,2024-10-25_12h52.22.169,WTP_SM_Choice,2022.2.1,Win32,59.17159763,,,,,space,1.2066,NAN,,NAN,1.4,4.6,,0,52,52,52,1,53,Sam,Acc,Participant_Images/65624dbc33b93e2696f06d1f/65624dbc33b93e2696f06d1f_Images/65624dbc33b93e2696f06d1f_Image_1.jpeg,liked,4.940433059,,,,,,,,,,,,,,,,,,,,,,
,,65624dbc33b93e2696f06d1f,6685aa9113c938e83b4f1ea0,671bda334966aff2325b40f2,2024-10-25_12h52.22.169,WTP_SM_Choice,2022.2.1,Win32,59.17159763,,,,,space,8.6156,NAN,,NAN,1.4,4.6,,0,53,53,53,1,54,Sam,Acc,Participant_Images/65624dbc33b93e2696f06d1f/65624dbc33b93e2696f06d1f_Images/65624dbc33b93e2696f06d1f_Image_23.jpeg,did not like,2.7105123,,,,,,,,,,,,,,,,,,,,,,
,,65624dbc33b93e2696f06d1f,6685aa9113c938e83b4f1ea0,671bda334966aff2325b40f2,2024-10-25_12h52.22.169,WTP_SM_Choice,2022.2.1,Win32,59.17159763,,,,,,,,,,,,,,,,,,51,,,,,,space,0.4026,space,0.8192,0.01,1,1.2329,0,0,0,0,1,gossip about boys with my cousin,Sleep in my cold bedroom,0.01,0.01,1.1,0,,,,
,,65624dbc33b93e2696f06d1f,6685aa9113c938e83b4f1ea0,671bda334966aff2325b40f2,2024-10-25_12h52.22.169,WTP_SM_Choice,2022.2.1,Win32,59.17159763,,,,,,,,,,,,,,,,,,52,,,,,,,,,,0.01,2,1.1469,0,1,1,1,1,make dance routines with my cousin,Draw and paint in my bedroom,0.02,0.01,3.3,0,,,,
,,65624dbc33b93e2696f06d1f,6685aa9113c938e83b4f1ea0,671bda334966aff2325b40f2,2024-10-25_12h52.22.169,WTP_SM_Choice,2022.2.1,Win32,59.17159763,,,,,,,,,,,,,,,,,,53,,,,,,,,,,0.01,2,1.5986,0,2,2,2,1,Eat chicken in my bedroom,gossip about boys with my cousin,0.03,0.01,1.1,1,,,,
,,65624dbc33b93e2696f06d1f,6685aa9113c938e83b4f1ea0,671bda334966aff2325b40f2,2024-10-25_12h52.22.169,WTP_SM_Choice,2022.2.1,Win32,59.17159763,,,,,,,,,,,,,,,,,,54,,,,,,,,,,0.04,1,1.8819,0,3,3,3,1,volunteer with a volunteer group,Read in my bedroom,0.04,0.01,4.4,0,,,,
,,65624dbc33b93e2696f06d1f,6685aa9113c938e83b4f1ea0,671bda334966aff2325b40f2,2024-10-25_12h52.22.169,WTP_SM_Choice,2022.2.1,Win32,59.17159763,,,,,,,,,,,,,,,,,,55,,,,,,,,,,0.05,1,3.2632,0,4,4,4,1,perform in theatre with my friends from high school,Read in my bedroom,0.05,0.01,1.1,0,,,,
,,65624dbc33b93e2696f06d1f,6685aa9113c938e83b4f1ea0,671bda334966aff2325b40f2,2024-10-25_12h52.22.169,WTP_SM_Choice,2022.2.1,Win32,59.17159763,,,,,,,NAN,,NAN,1.52,4.48,,0,54,54,54,1,55,Sam,Acc,Participant_Images/65624dbc33b93e2696f06d1f/65624dbc33b93e2696f06d1f_Images/65624dbc33b93e2696f06d1f_Image_14.jpeg,liked,3.602308302,,,,,,,,,,,,,,,,,,,,,,
,,65624dbc33b93e2696f06d1f,6685aa9113c938e83b4f1ea0,671bda334966aff2325b40f2,2024-10-25_12h52.22.169,WTP_SM_Choice,2022.2.1,Win32,59.17159763,,,,,space,11.1686,NAN,,NAN,1.52,4.48,,0,55,55,55,1,56,Sam,Acc,Participant_Images/65624dbc33b93e2696f06d1f/65624dbc33b93e2696f06d1f_Images/65624dbc33b93e2696f06d1f_Image_21.jpeg,liked,4.106391878,,,,,,,,,,,,,,,,,,,,,,
,,65624dbc33b93e2696f06d1f,6685aa9113c938e83b4f1ea0,671bda334966aff2325b40f2,2024-10-25_12h52.22.169,WTP_SM_Choice,2022.2.1,Win32,59.17159763,,,,,space,9.8872,NAN,,NAN,1.52,4.48,,0,56,56,56,1,57,Sam,Acc,Participant_Images/65624dbc33b93e2696f06d1f/65624dbc33b93e2696f06d1f_Images/65624dbc33b93e2696f06d1f_Image_7.jpeg,did not like,3.799433026,,,,,,,,,,,,,,,,,,,,,,
,,65624dbc33b93e2696f06d1f,6685aa9113c938e83b4f1ea0,671bda334966aff2325b40f2,2024-10-25_12h52.22.169,WTP_SM_Choice,2022.2.1,Win32,59.17159763,,,,,space,1.3341,NAN,,NAN,1.52,4.48,,0,57,57,57,1,58,Sam,Acc,Participant_Images/65624dbc33b93e2696f06d1f/65624dbc33b93e2696f06d1f_Images/65624dbc33b93e2696f06d1f_Image_22.jpeg,liked,5.246980764,,,,,,,,,,,,,,,,,,,,,,
,,65624dbc33b93e2696f06d1f,6685aa9113c938e83b4f1ea0,671bda334966aff2325b40f2,2024-10-25_12h52.22.169,WTP_SM_Choice,2022.2.1,Win32,59.17159763,,,,,space,3.368,NAN,,NAN,1.52,4.48,,0,58,58,58,1,59,Sam,Acc,Participant_Images/65624dbc33b93e2696f06d1f/65624dbc33b93e2696f06d1f_Images/65624dbc33b93e2696f06d1f_Image_11.jpeg,liked,3.30081769,,,,,,,,,,,,,,,,,,,,,,
,,65624dbc33b93e2696f06d1f,6685aa9113c938e83b4f1ea0,671bda334966aff2325b40f2,2024-10-25_12h52.22.169,WTP_SM_Choice,2022.2.1,Win32,59.17159763,,,,,,,,,,,,,,,,,,56,,,,,,space,0.072,space,1.0015,0.01,1,1.5257,0,0,0,0,1,Read in my bedroom,make dance routines with my cousin,0.01,0.02,8.8,1,,,,
,,65624dbc33b93e2696f06d1f,6685aa9113c938e83b4f1ea0,671bda334966aff2325b40f2,2024-10-25_12h52.22.169,WTP_SM_Choice,2022.2.1,Win32,59.17159763,,,,,,,,,,,,,,,,,,57,,,,,,,,,,0.02,1,2.7447,0,1,1,1,1,make dance routines with my cousin,Sing along to music in my bedroom,0.02,0.02,4.4,0,,,,
,,65624dbc33b93e2696f06d1f,6685aa9113c938e83b4f1ea0,671bda334966aff2325b40f2,2024-10-25_12h52.22.169,WTP_SM_Choice,2022.2.1,Win32,59.17159763,,,,,,,,,,,,,,,,,,58,,,,,,,,,,0.03,1,2.4131,0,2,2,2,1,play instruments with the band from high school,Sing along to music in my bedroom,0.03,0.02,4.4,0,,,,
,,65624dbc33b93e2696f06d1f,6685aa9113c938e83b4f1ea0,671bda334966aff2325b40f2,2024-10-25_12h52.22.169,WTP_SM_Choice,2022.2.1,Win32,59.17159763,,,,,,,,,,,,,,,,,,59,,,,,,,,,,0.04,1,2.6467,0,3,3,3,1,Eat chicken in my bedroom,play uno with my cousin,0.04,0.02,4.4,1,,,,
,,65624dbc33b93e2696f06d1f,6685aa9113c938e83b4f1ea0,671bda334966aff2325b40f2,2024-10-25_12h52.22.169,WTP_SM_Choice,2022.2.1,Win32,59.17159763,,,,,,,,,,,,,,,,,,60,,,,,,,,,,0.05,1,1.7669,0,4,4,4,1,walk the dog with my neighbor,Sing along to music in my bedroom,0.05,0.02,1.1,0,,,,
,,65624dbc33b93e2696f06d1f,6685aa9113c938e83b4f1ea0,671bda334966aff2325b40f2,2024-10-25_12h52.22.169,WTP_SM_Choice,2022.2.1,Win32,59.17159763,,,,,,,NAN,,NAN,1.67,4.33,,0,59,59,59,1,60,Sam,Acc,Participant_Images/65624dbc33b93e2696f06d1f/65624dbc33b93e2696f06d1f_Images/65624dbc33b93e2696f06d1f_Image_25.jpeg,did not like,1.661473164,,,,,,,,,,,,,,,,,,,,,,
,,65624dbc33b93e2696f06d1f,6685aa9113c938e83b4f1ea0,671bda334966aff2325b40f2,2024-10-25_12h52.22.169,WTP_SM_Choice,2022.2.1,Win32,59.17159763,,,,,space,0.9064,NAN,,NAN,1.67,4.33,,0,60,60,60,1,61,Sam,Acc,Participant_Images/65624dbc33b93e2696f06d1f/65624dbc33b93e2696f06d1f_Images/65624dbc33b93e2696f06d1f_Image_15.jpeg,liked,3.613205605,,,,,,,,,,,,,,,,,,,,,,
,,65624dbc33b93e2696f06d1f,6685aa9113c938e83b4f1ea0,671bda334966aff2325b40f2,2024-10-25_12h52.22.169,WTP_SM_Choice,2022.2.1,Win32,59.17159763,,,,,space,4.1851,NAN,,NAN,1.67,4.33,,0,61,61,61,1,62,Sam,Acc,Participant_Images/65624dbc33b93e2696f06d1f/65624dbc33b93e2696f06d1f_Images/65624dbc33b93e2696f06d1f_Image_24.jpeg,did not like,4.988446431,,,,,,,,,,,,,,,,,,,,,,
,,65624dbc33b93e2696f06d1f,6685aa9113c938e83b4f1ea0,671bda334966aff2325b40f2,2024-10-25_12h52.22.169,WTP_SM_Choice,2022.2.1,Win32,59.17159763,,,,,space,3.4003,NAN,,NAN,1.67,4.33,,0,62,62,62,1,63,Sam,Acc,Participant_Images/65624dbc33b93e2696f06d1f/65624dbc33b93e2696f06d1f_Images/65624dbc33b93e2696f06d1f_Image_6.jpeg,liked,3.470791822,,,,,,,,,,,,,,,,,,,,,,
,,65624dbc33b93e2696f06d1f,6685aa9113c938e83b4f1ea0,671bda334966aff2325b40f2,2024-10-25_12h52.22.169,WTP_SM_Choice,2022.2.1,Win32,59.17159763,,,,,space,4.7911,NAN,,NAN,1.67,4.33,,0,63,63,63,1,64,Sam,Acc,Participant_Images/65624dbc33b93e2696f06d1f/65624dbc33b93e2696f06d1f_Images/65624dbc33b93e2696f06d1f_Image_3.jpeg,liked,3.820572462,,,,,,,,,,,,,,,,,,,,,,
,,65624dbc33b93e2696f06d1f,6685aa9113c938e83b4f1ea0,671bda334966aff2325b40f2,2024-10-25_12h52.22.169,WTP_SM_Choice,2022.2.1,Win32,59.17159763,,,,,,,,,,,,,,,,,,61,,,,,,space,5.6832,space,0.6342,0.03,2,1.966,0,0,0,0,1,Walk to the store,do chores with my cousin,0.01,0.03,3.3,1,,,,
,,65624dbc33b93e2696f06d1f,6685aa9113c938e83b4f1ea0,671bda334966aff2325b40f2,2024-10-25_12h52.22.169,WTP_SM_Choice,2022.2.1,Win32,59.17159763,,,,,,,,,,,,,,,,,,62,,,,,,,,,,0.03,2,2.0467,0,1,1,1,1,Listen to music in my bedroom,perform in theatre with my friends from high school,0.02,0.03,3.3,1,,,,
,,65624dbc33b93e2696f06d1f,6685aa9113c938e83b4f1ea0,671bda334966aff2325b40f2,2024-10-25_12h52.22.169,WTP_SM_Choice,2022.2.1,Win32,59.17159763,,,,,,,,,,,,,,,,,,63,,,,,,,,,,0.03,2,2.8006,0,2,2,2,1,Read tarot cards in my bedroom,play online co op video games with people i meet online,0.03,0.03,3.3,1,,,,
,,65624dbc33b93e2696f06d1f,6685aa9113c938e83b4f1ea0,671bda334966aff2325b40f2,2024-10-25_12h52.22.169,WTP_SM_Choice,2022.2.1,Win32,59.17159763,,,,,,,,,,,,,,,,,,64,,,,,,,,,,0.04,1,7.8266,0,3,3,3,1,walk the dog with my neighbor,Listen to music in my bedroom,0.04,0.03,1.1,0,,,,
,,65624dbc33b93e2696f06d1f,6685aa9113c938e83b4f1ea0,671bda334966aff2325b40f2,2024-10-25_12h52.22.169,WTP_SM_Choice,2022.2.1,Win32,59.17159763,,,,,,,,,,,,,,,,,,65,,,,,,,,,,0.03,2,7.5535,0,4,4,4,1,Listen to music in my bedroom,sing songs with my cousin,0.05,0.03,1.1,1,,,,
,,65624dbc33b93e2696f06d1f,6685aa9113c938e83b4f1ea0,671bda334966aff2325b40f2,2024-10-25_12h52.22.169,WTP_SM_Choice,2022.2.1,Win32,59.17159763,,,,,,,NAN,,NAN,1.83,4.17,,0,64,64,64,1,65,Sam,Acc,Participant_Images/65624dbc33b93e2696f06d1f/65624dbc33b93e2696f06d1f_Images/65624dbc33b93e2696f06d1f_Image_13.jpeg,liked,2.455989137,,,,,,,,,,,,,,,,,,,,,,
,,65624dbc33b93e2696f06d1f,6685aa9113c938e83b4f1ea0,671bda334966aff2325b40f2,2024-10-25_12h52.22.169,WTP_SM_Choice,2022.2.1,Win32,59.17159763,,,,,space,1.4255,NAN,,NAN,1.83,4.17,,0,65,65,65,1,66,Sam,Acc,Participant_Images/65624dbc33b93e2696f06d1f/65624dbc33b93e2696f06d1f_Images/65624dbc33b93e2696f06d1f_Image_18.jpeg,did not like,3.79605092,,,,,,,,,,,,,,,,,,,,,,
,,65624dbc33b93e2696f06d1f,6685aa9113c938e83b4f1ea0,671bda334966aff2325b40f2,2024-10-25_12h52.22.169,WTP_SM_Choice,2022.2.1,Win32,59.17159763,,,,,space,4.2266,NAN,,NAN,1.83,4.17,,0,66,66,66,1,67,Sam,Acc,Participant_Images/65624dbc33b93e2696f06d1f/65624dbc33b93e2696f06d1f_Images/65624dbc33b93e2696f06d1f_Image_9.jpeg,did not like,3.562416326,,,,,,,,,,,,,,,,,,,,,,
,,65624dbc33b93e2696f06d1f,6685aa9113c938e83b4f1ea0,671bda334966aff2325b40f2,2024-10-25_12h52.22.169,WTP_SM_Choice,2022.2.1,Win32,59.17159763,,,,,space,3.4196,NAN,,NAN,1.83,4.17,,0,67,67,67,1,68,Sam,Acc,Participant_Images/65624dbc33b93e2696f06d1f/65624dbc33b93e2696f06d1f_Images/65624dbc33b93e2696f06d1f_Image_16.jpeg,liked,2.843822497,,,,,,,,,,,,,,,,,,,,,,
,,65624dbc33b93e2696f06d1f,6685aa9113c938e83b4f1ea0,671bda334966aff2325b40f2,2024-10-25_12h52.22.169,WTP_SM_Choice,2022.2.1,Win32,59.17159763,,,,,space,3.2546,NAN,,NAN,1.83,4.17,,0,68,68,68,1,69,Sam,Acc,Participant_Images/65624dbc33b93e2696f06d1f/65624dbc33b93e2696f06d1f_Images/65624dbc33b93e2696f06d1f_Image_5.jpeg,liked,3.546495948,,,,,,,,,,,,,,,,,,,,,,
,,65624dbc33b93e2696f06d1f,6685aa9113c938e83b4f1ea0,671bda334966aff2325b40f2,2024-10-25_12h52.22.169,WTP_SM_Choice,2022.2.1,Win32,59.17159763,,,,,,,,,,,,,,,,,,66,,,,,,space,7.2474,space,0.5178,0.04,2,1.9844,0,0,0,0,1,Sleep in my cold bedroom,play uno with my cousin,0.01,0.04,1.1,1,,,,
,,65624dbc33b93e2696f06d1f,6685aa9113c938e83b4f1ea0,671bda334966aff2325b40f2,2024-10-25_12h52.22.169,WTP_SM_Choice,2022.2.1,Win32,59.17159763,,,,,,,,,,,,,,,,,,67,,,,,,,,,,0.02,1,1.8639,0,1,1,1,1,volunteer with a volunteer group,Eat chicken in my bedroom,0.02,0.04,8.8,0,,,,
,,65624dbc33b93e2696f06d1f,6685aa9113c938e83b4f1ea0,671bda334966aff2325b40f2,2024-10-25_12h52.22.169,WTP_SM_Choice,2022.2.1,Win32,59.17159763,,,,,,,,,,,,,,,,,,68,,,,,,,,,,0.03,1,2.8615,0,2,2,2,1,Write in my journal in my bedroom,sing songs with my cousin,0.03,0.04,4.4,1,,,,
,,65624dbc33b93e2696f06d1f,6685aa9113c938e83b4f1ea0,671bda334966aff2325b40f2,2024-10-25_12h52.22.169,WTP_SM_Choice,2022.2.1,Win32,59.17159763,,,,,,,,,,,,,,,,,,69,,,,,,,,,,0.04,2,1.1655,0,3,3,3,1,Read tarot cards in my bedroom,play instruments with the band from high school,0.04,0.04,1.1,1,,,,
,,65624dbc33b93e2696f06d1f,6685aa9113c938e83b4f1ea0,671bda334966aff2325b40f2,2024-10-25_12h52.22.169,WTP_SM_Choice,2022.2.1,Win32,59.17159763,,,,,,,,,,,,,,,,,,70,,,,,,,,,,0.04,2,2.3782,0,4,4,4,1,Draw and paint in my bedroom,do chores with my cousin,0.05,0.04,1.1,1,,,,
,,65624dbc33b93e2696f06d1f,6685aa9113c938e83b4f1ea0,671bda334966aff2325b40f2,2024-10-25_12h52.22.169,WTP_SM_Choice,2022.2.1,Win32,59.17159763,,,,,,,NAN,,NAN,2,4,,0,69,69,69,1,70,Sam,Acc,Participant_Images/65624dbc33b93e2696f06d1f/65624dbc33b93e2696f06d1f_Images/65624dbc33b93e2696f06d1f_Image_10.jpeg,liked,1.672012706,,,,,,,,,,,,,,,,,,,,,,
,,65624dbc33b93e2696f06d1f,6685aa9113c938e83b4f1ea0,671bda334966aff2325b40f2,2024-10-25_12h52.22.169,WTP_SM_Choice,2022.2.1,Win32,59.17159763,,,,,space,2.9911,NAN,,NAN,2,4,,0,70,70,70,1,71,Sam,Acc,Participant_Images/65624dbc33b93e2696f06d1f/65624dbc33b93e2696f06d1f_Images/65624dbc33b93e2696f06d1f_Image_19.jpeg,did not like,4.942172136,,,,,,,,,,,,,,,,,,,,,,
,,65624dbc33b93e2696f06d1f,6685aa9113c938e83b4f1ea0,671bda334966aff2325b40f2,2024-10-25_12h52.22.169,WTP_SM_Choice,2022.2.1,Win32,59.17159763,,,,,space,4.9869,NAN,,NAN,2,4,,0,71,71,71,1,72,Sam,Acc,Participant_Images/65624dbc33b93e2696f06d1f/65624dbc33b93e2696f06d1f_Images/65624dbc33b93e2696f06d1f_Image_4.jpeg,liked,2.50187214,,,,,,,,,,,,,,,,,,,,,,
,,65624dbc33b93e2696f06d1f,6685aa9113c938e83b4f1ea0,671bda334966aff2325b40f2,2024-10-25_12h52.22.169,WTP_SM_Choice,2022.2.1,Win32,59.17159763,,,,,space,0.7258,NAN,,NAN,2,4,,0,72,72,72,1,73,Sam,Acc,Participant_Images/65624dbc33b93e2696f06d1f/65624dbc33b93e2696f06d1f_Images/65624dbc33b93e2696f06d1f_Image_12.jpeg,liked,2.071164779,,,,,,,,,,,,,,,,,,,,,,
,,65624dbc33b93e2696f06d1f,6685aa9113c938e83b4f1ea0,671bda334966aff2325b40f2,2024-10-25_12h52.22.169,WTP_SM_Choice,2022.2.1,Win32,59.17159763,,,,,space,5.4,NAN,,NAN,2,4,,0,73,73,73,1,74,Sam,Acc,Participant_Images/65624dbc33b93e2696f06d1f/65624dbc33b93e2696f06d1f_Images/65624dbc33b93e2696f06d1f_Image_8.jpeg,liked,5.336503566,,,,,,,,,,,,,,,,,,,,,,
,,65624dbc33b93e2696f06d1f,6685aa9113c938e83b4f1ea0,671bda334966aff2325b40f2,2024-10-25_12h52.22.169,WTP_SM_Choice,2022.2.1,Win32,59.17159763,,,,,,,,,,,,,,,,,,71,,,,,,space,2.1161,space,0.6336,0.01,1,2.2002,0,0,0,0,1,play online co op video games with people i meet online,Eat chicken in my bedroom,0.01,0.05,3.3,0,,,,
,,65624dbc33b93e2696f06d1f,6685aa9113c938e83b4f1ea0,671bda334966aff2325b40f2,2024-10-25_12h52.22.169,WTP_SM_Choice,2022.2.1,Win32,59.17159763,,,,,,,,,,,,,,,,,,72,,,,,,,,,,0.02,1,7.3765,0,1,1,1,1,Write in my journal in my bedroom,make dance routines with my cousin,0.02,0.05,8.8,1,,,,
,,65624dbc33b93e2696f06d1f,6685aa9113c938e83b4f1ea0,671bda334966aff2325b40f2,2024-10-25_12h52.22.169,WTP_SM_Choice,2022.2.1,Win32,59.17159763,,,,,,,,,,,,,,,,,,73,,,,,,,,,,0.03,1,5.4442,0,2,2,2,1,volunteer with a volunteer group,Write in my journal in my bedroom,0.03,0.05,3.3,0,,,,
,,65624dbc33b93e2696f06d1f,6685aa9113c938e83b4f1ea0,671bda334966aff2325b40f2,2024-10-25_12h52.22.169,WTP_SM_Choice,2022.2.1,Win32,59.17159763,,,,,,,,,,,,,,,,,,74,,,,,,,,,,0.04,1,4.2693,0,3,3,3,1,do chores with my cousin,Read tarot cards in my bedroom,0.04,0.05,4.4,0,,,,
,,65624dbc33b93e2696f06d1f,6685aa9113c938e83b4f1ea0,671bda334966aff2325b40f2,2024-10-25_12h52.22.169,WTP_SM_Choice,2022.2.1,Win32,59.17159763,,,,,,,,,,,,,,,,,,75,,,,,,,,,,0.05,2,1.3295,0,4,4,4,1,Sleep in my cold bedroom,walk the dog with my neighbor,0.05,0.05,3.3,1,,,,
,,65624dbc33b93e2696f06d1f,6685aa9113c938e83b4f1ea0,671bda334966aff2325b40f2,2024-10-25_12h52.22.169,WTP_SM_Choice,2022.2.1,Win32,59.17159763,,,,,,,5,,9,2.15,3.85,,0,74,74,74,1,75,Sam,Acc,Participant_Images/65624dbc33b93e2696f06d1f/65624dbc33b93e2696f06d1f_Images/65624dbc33b93e2696f06d1f_Image_2.jpeg,liked,2.642157193,,,,,,,,,,,,,,,,,,,space,0.8407,,
,,65624dbc33b93e2696f06d1f,6685aa9113c938e83b4f1ea0,671bda334966aff2325b40f2,2024-10-25_12h52.22.169,WTP_SM_Choice,2022.2.1,Win32,59.17159763,,,space,1.3646,space,0.9513,NAN,,NAN,2.15,3.85,,0,75,75,75,1,76,Alex,Rej,Participant_Images/65624dbc33b93e2696f06d1f/65624dbc33b93e2696f06d1f_Images/65624dbc33b93e2696f06d1f_Image_4.jpeg,did not like,4.456234322,,,,,,,,,,,,,,,,,,,,,,
,,65624dbc33b93e2696f06d1f,6685aa9113c938e83b4f1ea0,671bda334966aff2325b40f2,2024-10-25_12h52.22.169,WTP_SM_Choice,2022.2.1,Win32,59.17159763,,,,,space,0.901,NAN,,NAN,2.15,3.85,,0,76,76,76,1,77,Alex,Rej,Participant_Images/65624dbc33b93e2696f06d1f/65624dbc33b93e2696f06d1f_Images/65624dbc33b93e2696f06d1f_Image_17.jpeg,liked,4.438512181,,,,,,,,,,,,,,,,,,,,,,
,,65624dbc33b93e2696f06d1f,6685aa9113c938e83b4f1ea0,671bda334966aff2325b40f2,2024-10-25_12h52.22.169,WTP_SM_Choice,2022.2.1,Win32,59.17159763,,,,,space,1.2231,NAN,,NAN,2.15,3.85,,0,77,77,77,1,78,Alex,Rej,Participant_Images/65624dbc33b93e2696f06d1f/65624dbc33b93e2696f06d1f_Images/65624dbc33b93e2696f06d1f_Image_3.jpeg,did not like,2.682944783,,,,,,,,,,,,,,,,,,,,,,
,,65624dbc33b93e2696f06d1f,6685aa9113c938e83b4f1ea0,671bda334966aff2325b40f2,2024-10-25_12h52.22.169,WTP_SM_Choice,2022.2.1,Win32,59.17159763,,,,,space,1.6171,NAN,,NAN,2.15,3.85,,0,78,78,78,1,79,Alex,Rej,Participant_Images/65624dbc33b93e2696f06d1f/65624dbc33b93e2696f06d1f_Images/65624dbc33b93e2696f06d1f_Image_12.jpeg,did not like,4.51984296,,,,,,,,,,,,,,,,,,,,,,
,,65624dbc33b93e2696f06d1f,6685aa9113c938e83b4f1ea0,671bda334966aff2325b40f2,2024-10-25_12h52.22.169,WTP_SM_Choice,2022.2.1,Win32,59.17159763,,,,,,,,,,,,,,,,,,76,,,,,,space,1.3844,space,0.617,0.01,1,1.8238,0,0,0,0,1,play online co op video games with people i meet online,Watch youtube videos in my bedroom,0.01,0.01,1.1,0,,,,
,,65624dbc33b93e2696f06d1f,6685aa9113c938e83b4f1ea0,671bda334966aff2325b40f2,2024-10-25_12h52.22.169,WTP_SM_Choice,2022.2.1,Win32,59.17159763,,,,,,,,,,,,,,,,,,77,,,,,,,,,,0.01,2,1.5121,0,1,1,1,1,make dance routines with my cousin,Walk to the store,0.02,0.01,8.8,0,,,,
,,65624dbc33b93e2696f06d1f,6685aa9113c938e83b4f1ea0,671bda334966aff2325b40f2,2024-10-25_12h52.22.169,WTP_SM_Choice,2022.2.1,Win32,59.17159763,,,,,,,,,,,,,,,,,,78,,,,,,,,,,0.01,2,6.8028,0,2,2,2,1,Read tarot cards in my bedroom,perform in theatre with my friends from high school,0.03,0.01,1.1,1,,,,
,,65624dbc33b93e2696f06d1f,6685aa9113c938e83b4f1ea0,671bda334966aff2325b40f2,2024-10-25_12h52.22.169,WTP_SM_Choice,2022.2.1,Win32,59.17159763,,,,,,,,,,,,,,,,,,79,,,,,,,,,,0.01,2,4.6119,0,3,3,3,1,Draw and paint in my bedroom,play instruments with the band from high school,0.04,0.01,1.1,1,,,,
,,65624dbc33b93e2696f06d1f,6685aa9113c938e83b4f1ea0,671bda334966aff2325b40f2,2024-10-25_12h52.22.169,WTP_SM_Choice,2022.2.1,Win32,59.17159763,,,,,,,,,,,,,,,,,,80,,,,,,,,,,0.05,1,4.2283,0,4,4,4,1,Read tarot cards in my bedroom,play uno with my cousin,0.05,0.01,4.4,1,,,,
,,65624dbc33b93e2696f06d1f,6685aa9113c938e83b4f1ea0,671bda334966aff2325b40f2,2024-10-25_12h52.22.169,WTP_SM_Choice,2022.2.1,Win32,59.17159763,,,,,,,NAN,,NAN,2.24,3.76,,0,79,79,79,1,80,Alex,Rej,Participant_Images/65624dbc33b93e2696f06d1f/65624dbc33b93e2696f06d1f_Images/65624dbc33b93e2696f06d1f_Image_13.jpeg,did not like,3.195382774,,,,,,,,,,,,,,,,,,,,,,
,,65624dbc33b93e2696f06d1f,6685aa9113c938e83b4f1ea0,671bda334966aff2325b40f2,2024-10-25_12h52.22.169,WTP_SM_Choice,2022.2.1,Win32,59.17159763,,,,,space,7.4841,NAN,,NAN,2.24,3.76,,0,80,80,80,1,81,Alex,Rej,Participant_Images/65624dbc33b93e2696f06d1f/65624dbc33b93e2696f06d1f_Images/65624dbc33b93e2696f06d1f_Image_6.jpeg,liked,1.779333479,,,,,,,,,,,,,,,,,,,,,,
,,65624dbc33b93e2696f06d1f,6685aa9113c938e83b4f1ea0,671bda334966aff2325b40f2,2024-10-25_12h52.22.169,WTP_SM_Choice,2022.2.1,Win32,59.17159763,,,,,space,1.5012,NAN,,NAN,2.24,3.76,,0,81,81,81,1,82,Alex,Rej,Participant_Images/65624dbc33b93e2696f06d1f/65624dbc33b93e2696f06d1f_Images/65624dbc33b93e2696f06d1f_Image_25.jpeg,did not like,4.312468682,,,,,,,,,,,,,,,,,,,,,,
,,65624dbc33b93e2696f06d1f,6685aa9113c938e83b4f1ea0,671bda334966aff2325b40f2,2024-10-25_12h52.22.169,WTP_SM_Choice,2022.2.1,Win32,59.17159763,,,,,space,3.5545,NAN,,NAN,2.24,3.76,,0,82,82,82,1,83,Alex,Rej,Participant_Images/65624dbc33b93e2696f06d1f/65624dbc33b93e2696f06d1f_Images/65624dbc33b93e2696f06d1f_Image_1.jpeg,did not like,4.940433059,,,,,,,,,,,,,,,,,,,,,,
,,65624dbc33b93e2696f06d1f,6685aa9113c938e83b4f1ea0,671bda334966aff2325b40f2,2024-10-25_12h52.22.169,WTP_SM_Choice,2022.2.1,Win32,59.17159763,,,,,space,7.3486,NAN,,NAN,2.24,3.76,,0,83,83,83,1,84,Alex,Rej,Participant_Images/65624dbc33b93e2696f06d1f/65624dbc33b93e2696f06d1f_Images/65624dbc33b93e2696f06d1f_Image_19.jpeg,did not like,2.7105123,,,,,,,,,,,,,,,,,,,,,,
,,65624dbc33b93e2696f06d1f,6685aa9113c938e83b4f1ea0,671bda334966aff2325b40f2,2024-10-25_12h52.22.169,WTP_SM_Choice,2022.2.1,Win32,59.17159763,,,,,,,,,,,,,,,,,,81,,,,,,space,9.3823,space,6.1588,0.01,1,1.5444,0,0,0,0,1,walk the dog with my neighbor,Write in my journal in my bedroom,0.01,0.02,3.3,0,,,,
,,65624dbc33b93e2696f06d1f,6685aa9113c938e83b4f1ea0,671bda334966aff2325b40f2,2024-10-25_12h52.22.169,WTP_SM_Choice,2022.2.1,Win32,59.17159763,,,,,,,,,,,,,,,,,,82,,,,,,,,,,0.02,1,1.3938,0,1,1,1,1,play instruments with the band from high school,Watch youtube videos in my bedroom,0.02,0.02,4.4,0,,,,
,,65624dbc33b93e2696f06d1f,6685aa9113c938e83b4f1ea0,671bda334966aff2325b40f2,2024-10-25_12h52.22.169,WTP_SM_Choice,2022.2.1,Win32,59.17159763,,,,,,,,,,,,,,,,,,83,,,,,,,,,,0.03,1,2.0964,0,2,2,2,1,perform in theatre with my friends from high school,Draw and paint in my bedroom,0.03,0.02,1.1,0,,,,
,,65624dbc33b93e2696f06d1f,6685aa9113c938e83b4f1ea0,671bda334966aff2325b40f2,2024-10-25_12h52.22.169,WTP_SM_Choice,2022.2.1,Win32,59.17159763,,,,,,,,,,,,,,,,,,84,,,,,,,,,,0.04,1,2.3292,0,3,3,3,1,Draw and paint in my bedroom,sing songs with my cousin,0.04,0.02,3.3,1,,,,
,,65624dbc33b93e2696f06d1f,6685aa9113c938e83b4f1ea0,671bda334966aff2325b40f2,2024-10-25_12h52.22.169,WTP_SM_Choice,2022.2.1,Win32,59.17159763,,,,,,,,,,,,,,,,,,85,,,,,,,,,,0.05,1,2.2668,0,4,4,4,1,play instruments with the band from high school,Eat chicken in my bedroom,0.05,0.02,3.3,0,,,,
,,65624dbc33b93e2696f06d1f,6685aa9113c938e83b4f1ea0,671bda334966aff2325b40f2,2024-10-25_12h52.22.169,WTP_SM_Choice,2022.2.1,Win32,59.17159763,,,,,,,NAN,,NAN,2.39,3.61,,0,84,84,84,1,85,Alex,Rej,Participant_Images/65624dbc33b93e2696f06d1f/65624dbc33b93e2696f06d1f_Images/65624dbc33b93e2696f06d1f_Image_14.jpeg,liked,3.602308302,,,,,,,,,,,,,,,,,,,,,,
,,65624dbc33b93e2696f06d1f,6685aa9113c938e83b4f1ea0,671bda334966aff2325b40f2,2024-10-25_12h52.22.169,WTP_SM_Choice,2022.2.1,Win32,59.17159763,,,,,space,0.5509,NAN,,NAN,2.39,3.61,,0,85,85,85,1,86,Alex,Rej,Participant_Images/65624dbc33b93e2696f06d1f/65624dbc33b93e2696f06d1f_Images/65624dbc33b93e2696f06d1f_Image_23.jpeg,did not like,4.106391878,,,,,,,,,,,,,,,,,,,,,,
,,65624dbc33b93e2696f06d1f,6685aa9113c938e83b4f1ea0,671bda334966aff2325b40f2,2024-10-25_12h52.22.169,WTP_SM_Choice,2022.2.1,Win32,59.17159763,,,,,space,3.7523,NAN,,NAN,2.39,3.61,,0,86,86,86,1,87,Alex,Rej,Participant_Images/65624dbc33b93e2696f06d1f/65624dbc33b93e2696f06d1f_Images/65624dbc33b93e2696f06d1f_Image_2.jpeg,liked,3.799433026,,,,,,,,,,,,,,,,,,,,,,
,,65624dbc33b93e2696f06d1f,6685aa9113c938e83b4f1ea0,671bda334966aff2325b40f2,2024-10-25_12h52.22.169,WTP_SM_Choice,2022.2.1,Win32,59.17159763,,,,,space,2.59,NAN,,NAN,2.39,3.61,,0,87,87,87,1,88,Alex,Rej,Participant_Images/65624dbc33b93e2696f06d1f/65624dbc33b93e2696f06d1f_Images/65624dbc33b93e2696f06d1f_Image_24.jpeg,liked,5.246980764,,,,,,,,,,,,,,,,,,,,,,
,,65624dbc33b93e2696f06d1f,6685aa9113c938e83b4f1ea0,671bda334966aff2325b40f2,2024-10-25_12h52.22.169,WTP_SM_Choice,2022.2.1,Win32,59.17159763,,,,,space,4.7357,NAN,,NAN,2.39,3.61,,0,88,88,88,1,89,Alex,Rej,Participant_Images/65624dbc33b93e2696f06d1f/65624dbc33b93e2696f06d1f_Images/65624dbc33b93e2696f06d1f_Image_8.jpeg,did not like,3.30081769,,,,,,,,,,,,,,,,,,,,,,
,,65624dbc33b93e2696f06d1f,6685aa9113c938e83b4f1ea0,671bda334966aff2325b40f2,2024-10-25_12h52.22.169,WTP_SM_Choice,2022.2.1,Win32,59.17159763,,,,,,,,,,,,,,,,,,86,,,,,,space,1.9736,space,0.8838,0.03,2,4.2328,0,0,0,0,1,gossip about boys with my cousin,Read tarot cards in my bedroom,0.01,0.03,1.1,0,,,,
,,65624dbc33b93e2696f06d1f,6685aa9113c938e83b4f1ea0,671bda334966aff2325b40f2,2024-10-25_12h52.22.169,WTP_SM_Choice,2022.2.1,Win32,59.17159763,,,,,,,,,,,,,,,,,,87,,,,,,,,,,0.02,1,3.079,0,1,1,1,1,Read tarot cards in my bedroom,make dance routines with my cousin,0.02,0.03,4.4,1,,,,
,,65624dbc33b93e2696f06d1f,6685aa9113c938e83b4f1ea0,671bda334966aff2325b40f2,2024-10-25_12h52.22.169,WTP_SM_Choice,2022.2.1,Win32,59.17159763,,,,,,,,,,,,,,,,,,88,,,,,,,,,,0.03,1,5.9781,0,2,2,2,1,volunteer with a volunteer group,Watch youtube videos in my bedroom,0.03,0.03,1.1,0,,,,
,,65624dbc33b93e2696f06d1f,6685aa9113c938e83b4f1ea0,671bda334966aff2325b40f2,2024-10-25_12h52.22.169,WTP_SM_Choice,2022.2.1,Win32,59.17159763,,,,,,,,,,,,,,,,,,89,,,,,,,,,,0.04,1,2.0684,0,3,3,3,1,perform in theatre with my friends from high school,Write in my journal in my bedroom,0.04,0.03,3.3,0,,,,
,,65624dbc33b93e2696f06d1f,6685aa9113c938e83b4f1ea0,671bda334966aff2325b40f2,2024-10-25_12h52.22.169,WTP_SM_Choice,2022.2.1,Win32,59.17159763,,,,,,,,,,,,,,,,,,90,,,,,,,,,,0.03,2,4.6478,0,4,4,4,1,Walk to the store,volunteer with a volunteer group,0.05,0.03,8.8,1,,,,
,,65624dbc33b93e2696f06d1f,6685aa9113c938e83b4f1ea0,671bda334966aff2325b40f2,2024-10-25_12h52.22.169,WTP_SM_Choice,2022.2.1,Win32,59.17159763,,,,,,,NAN,,NAN,2.54,3.46,,0,89,89,89,1,90,Alex,Rej,Participant_Images/65624dbc33b93e2696f06d1f/65624dbc33b93e2696f06d1f_Images/65624dbc33b93e2696f06d1f_Image_7.jpeg,did not like,1.661473164,,,,,,,,,,,,,,,,,,,,,,
,,65624dbc33b93e2696f06d1f,6685aa9113c938e83b4f1ea0,671bda334966aff2325b40f2,2024-10-25_12h52.22.169,WTP_SM_Choice,2022.2.1,Win32,59.17159763,,,,,space,4.417,NAN,,NAN,2.54,3.46,,0,90,90,90,1,91,Alex,Rej,Participant_Images/65624dbc33b93e2696f06d1f/65624dbc33b93e2696f06d1f_Images/65624dbc33b93e2696f06d1f_Image_18.jpeg,did not like,3.613205605,,,,,,,,,,,,,,,,,,,,,,
,,65624dbc33b93e2696f06d1f,6685aa9113c938e83b4f1ea0,671bda334966aff2325b40f2,2024-10-25_12h52.22.169,WTP_SM_Choice,2022.2.1,Win32,59.17159763,,,,,space,0.0008,NAN,,NAN,2.54,3.46,,0,91,91,91,1,92,Alex,Rej,Participant_Images/65624dbc33b93e2696f06d1f/65624dbc33b93e2696f06d1f_Images/65624dbc33b93e2696f06d1f_Image_5.jpeg,did not like,4.988446431,,,,,,,,,,,,,,,,,,,,,,
,,65624dbc33b93e2696f06d1f,6685aa9113c938e83b4f1ea0,671bda334966aff2325b40f2,2024-10-25_12h52.22.169,WTP_SM_Choice,2022.2.1,Win32,59.17159763,,,,,space,22.1705,NAN,,NAN,2.54,3.46,,0,92,92,92,1,93,Alex,Rej,Participant_Images/65624dbc33b93e2696f06d1f/65624dbc33b93e2696f06d1f_Images/65624dbc33b93e2696f06d1f_Image_11.jpeg,did not like,3.470791822,,,,,,,,,,,,,,,,,,,,,,
,,65624dbc33b93e2696f06d1f,6685aa9113c938e83b4f1ea0,671bda334966aff2325b40f2,2024-10-25_12h52.22.169,WTP_SM_Choice,2022.2.1,Win32,59.17159763,,,,,space,90.2638,NAN,,NAN,2.54,3.46,,0,93,93,93,1,94,Alex,Rej,Participant_Images/65624dbc33b93e2696f06d1f/65624dbc33b93e2696f06d1f_Images/65624dbc33b93e2696f06d1f_Image_22.jpeg,did not like,3.820572462,,,,,,,,,,,,,,,,,,,,,,
,,65624dbc33b93e2696f06d1f,6685aa9113c938e83b4f1ea0,671bda334966aff2325b40f2,2024-10-25_12h52.22.169,WTP_SM_Choice,2022.2.1,Win32,59.17159763,,,,,,,,,,,,,,,,,,91,,,,,,space,3.1998,space,0.5342,0.04,2,1.4626,0,0,0,0,1,Write in my journal in my bedroom,play instruments with the band from high school,0.01,0.04,3.3,1,,,,
,,65624dbc33b93e2696f06d1f,6685aa9113c938e83b4f1ea0,671bda334966aff2325b40f2,2024-10-25_12h52.22.169,WTP_SM_Choice,2022.2.1,Win32,59.17159763,,,,,,,,,,,,,,,,,,92,,,,,,,,,,0.04,2,2.9186,0,1,1,1,1,Walk to the store,perform in theatre with my friends from high school,0.02,0.04,8.8,1,,,,
,,65624dbc33b93e2696f06d1f,6685aa9113c938e83b4f1ea0,671bda334966aff2325b40f2,2024-10-25_12h52.22.169,WTP_SM_Choice,2022.2.1,Win32,59.17159763,,,,,,,,,,,,,,,,,,93,,,,,,,,,,0.03,1,1.603,0,2,2,2,1,volunteer with a volunteer group,Listen to music in my bedroom,0.03,0.04,1.1,0,,,,
,,65624dbc33b93e2696f06d1f,6685aa9113c938e83b4f1ea0,671bda334966aff2325b40f2,2024-10-25_12h52.22.169,WTP_SM_Choice,2022.2.1,Win32,59.17159763,,,,,,,,,,,,,,,,,,94,,,,,,,,,,0.04,1,3.6316,0,3,3,3,1,play uno with my cousin,Write in my journal in my bedroom,0.04,0.04,4.4,0,,,,
,,65624dbc33b93e2696f06d1f,6685aa9113c938e83b4f1ea0,671bda334966aff2325b40f2,2024-10-25_12h52.22.169,WTP_SM_Choice,2022.2.1,Win32,59.17159763,,,,,,,,,,,,,,,,,,95,,,,,,,,,,0.04,2,1.855,0,4,4,4,1,sing songs with my cousin,Read tarot cards in my bedroom,0.05,0.04,4.4,0,,,,
,,65624dbc33b93e2696f06d1f,6685aa9113c938e83b4f1ea0,671bda334966aff2325b40f2,2024-10-25_12h52.22.169,WTP_SM_Choice,2022.2.1,Win32,59.17159763,,,,,,,NAN,,NAN,2.73,3.27,,0,94,94,94,1,95,Alex,Rej,Participant_Images/65624dbc33b93e2696f06d1f/65624dbc33b93e2696f06d1f_Images/65624dbc33b93e2696f06d1f_Image_15.jpeg,did not like,2.455989137,,,,,,,,,,,,,,,,,,,,,,
,,65624dbc33b93e2696f06d1f,6685aa9113c938e83b4f1ea0,671bda334966aff2325b40f2,2024-10-25_12h52.22.169,WTP_SM_Choice,2022.2.1,Win32,59.17159763,,,,,space,0.5726,NAN,,NAN,2.73,3.27,,0,95,95,95,1,96,Alex,Rej,Participant_Images/65624dbc33b93e2696f06d1f/65624dbc33b93e2696f06d1f_Images/65624dbc33b93e2696f06d1f_Image_20.jpeg,did not like,3.79605092,,,,,,,,,,,,,,,,,,,,,,
,,65624dbc33b93e2696f06d1f,6685aa9113c938e83b4f1ea0,671bda334966aff2325b40f2,2024-10-25_12h52.22.169,WTP_SM_Choice,2022.2.1,Win32,59.17159763,,,,,space,5.2829,NAN,,NAN,2.73,3.27,,0,96,96,96,1,97,Alex,Rej,Participant_Images/65624dbc33b93e2696f06d1f/65624dbc33b93e2696f06d1f_Images/65624dbc33b93e2696f06d1f_Image_9.jpeg,liked,3.562416326,,,,,,,,,,,,,,,,,,,,,,
,,65624dbc33b93e2696f06d1f,6685aa9113c938e83b4f1ea0,671bda334966aff2325b40f2,2024-10-25_12h52.22.169,WTP_SM_Choice,2022.2.1,Win32,59.17159763,,,,,space,0.8172,NAN,,NAN,2.73,3.27,,0,97,97,97,1,98,Alex,Rej,Participant_Images/65624dbc33b93e2696f06d1f/65624dbc33b93e2696f06d1f_Images/65624dbc33b93e2696f06d1f_Image_10.jpeg,did not like,2.843822497,,,,,,,,,,,,,,,,,,,,,,
,,65624dbc33b93e2696f06d1f,6685aa9113c938e83b4f1ea0,671bda334966aff2325b40f2,2024-10-25_12h52.22.169,WTP_SM_Choice,2022.2.1,Win32,59.17159763,,,,,space,19.7061,NAN,,NAN,2.73,3.27,,0,98,98,98,1,99,Alex,Rej,Participant_Images/65624dbc33b93e2696f06d1f/65624dbc33b93e2696f06d1f_Images/65624dbc33b93e2696f06d1f_Image_21.jpeg,did not like,3.546495948,,,,,,,,,,,,,,,,,,,,,,
,,65624dbc33b93e2696f06d1f,6685aa9113c938e83b4f1ea0,671bda334966aff2325b40f2,2024-10-25_12h52.22.169,WTP_SM_Choice,2022.2.1,Win32,59.17159763,,,,,,,,,,,,,,,,,,96,,,,,,space,3.1711,space,0.9409,0.01,1,1.9121,0,0,0,0,1,walk the dog with my neighbor,Read tarot cards in my bedroom,0.01,0.05,3.3,0,,,,
,,65624dbc33b93e2696f06d1f,6685aa9113c938e83b4f1ea0,671bda334966aff2325b40f2,2024-10-25_12h52.22.169,WTP_SM_Choice,2022.2.1,Win32,59.17159763,,,,,,,,,,,,,,,,,,97,,,,,,,,,,0.02,1,2.6665,0,1,1,1,1,walk the dog with my neighbor,Draw and paint in my bedroom,0.02,0.05,1.1,0,,,,
,,65624dbc33b93e2696f06d1f,6685aa9113c938e83b4f1ea0,671bda334966aff2325b40f2,2024-10-25_12h52.22.169,WTP_SM_Choice,2022.2.1,Win32,59.17159763,,,,,,,,,,,,,,,,,,98,,,,,,,,,,0.05,2,3.7328,0,2,2,2,1,Read in my bedroom,play uno with my cousin,0.03,0.05,1.1,1,,,,
,,65624dbc33b93e2696f06d1f,6685aa9113c938e83b4f1ea0,671bda334966aff2325b40f2,2024-10-25_12h52.22.169,WTP_SM_Choice,2022.2.1,Win32,59.17159763,,,,,,,,,,,,,,,,,,99,,,,,,,,,,0.04,1,2.7612,0,3,3,3,1,do chores with my cousin,Eat chicken in my bedroom,0.04,0.05,3.3,0,,,,
,,65624dbc33b93e2696f06d1f,6685aa9113c938e83b4f1ea0,671bda334966aff2325b40f2,2024-10-25_12h52.22.169,WTP_SM_Choice,2022.2.1,Win32,59.17159763,,,,,,,,,,,,,,,,,,100,,,,,,,,,,0.05,2,1.488,0,4,4,4,1,Sleep in my cold bedroom,do chores with my cousin,0.05,0.05,4.4,1,,,,
,,65624dbc33b93e2696f06d1f,6685aa9113c938e83b4f1ea0,671bda334966aff2325b40f2,2024-10-25_12h52.22.169,WTP_SM_Choice,2022.2.1,Win32,59.17159763,,,,,,,5,,9,2.9,3.1,,0,99,99,99,1,100,Alex,Rej,Participant_Images/65624dbc33b93e2696f06d1f/65624dbc33b93e2696f06d1f_Images/65624dbc33b93e2696f06d1f_Image_16.jpeg,liked,1.672012706,,,,,,,,,,,,,,,,,,,space,1.0997,,
,,65624dbc33b93e2696f06d1f,6685aa9113c938e83b4f1ea0,671bda334966aff2325b40f2,2024-10-25_12h52.22.169,WTP_SM_Choice,2022.2.1,Win32,59.17159763,,,,,,,,,,,,,,,,,,,,,,,,,,,,,,,,,,,,,,,,,,,,space,3.0735
