endwelcomescreen_keys.keys,endwelcomescreen_keys.rt,participant,date,expName,psychopyVersion,OS,frameRate,endinstructionscreen_keys.keys,endinstructionscreen_keys.rt,endpartnermatch_keys.keys,endpartnermatch_keys.rt,sharenextphoto_key.keys,sharenextphoto_key.rt,salience_rating,key_resp.keys,stress_level,subtract_bonus,TOTAL_TASK_BONUS,stresslevel_keypress.keys,entiretaskloop.thisRepN,entiretaskloop.thisTrialN,entiretaskloop.thisN,entiretaskloop.thisIndex,entiretaskloop.ran,TrialNumber,Partner,Condition,Photos,Feedback,FeedbackWait,WTP_ins_keys1.keys,WTP_ins_keys1.rt,WTP_ins_keys2.keys,WTP_ins_keys2.rt,decision_price,responses.keys,responses.rt,WTPTaskLoop.thisRepN,WTPTaskLoop.thisTrialN,WTPTaskLoop.thisN,WTPTaskLoop.thisIndex,WTPTaskLoop.ran,right,left,leftmoney,rightmoney,WTP_ITI,Resume_keys.keys,Resume_keys.rt,key_resp.rt
space,6.793,65779c4bde34621ce896b77d,2024-04-16_11h06.11.187,WTP_SM_Choice,2022.2.1,Win32,11.99040767,,,,,,,,,,,,,,,,,,,,,,,,,,,,,,,,,,,,,,,,,,,
,,65779c4bde34621ce896b77d,2024-04-16_11h06.11.187,WTP_SM_Choice,2022.2.1,Win32,11.99040767,space,19.533,,,,,,,,,,,,,,,,,,,,,,,,,,,,,,,,,,,,,,,,,
,,65779c4bde34621ce896b77d,2024-04-16_11h06.11.187,WTP_SM_Choice,2022.2.1,Win32,11.99040767,,,space,2.98,space,1.8458,NAN,,NAN,0,6,,0,0,0,0,1,1,Alex,Rej,Participant_Images/65779c4bde34621ce896b77d/65779c4bde34621ce896b77d_Images/65779c4bde34621ce896b77d_Image_20.jpeg,did not like,3.613205605,,,,,,,,,,,,,,,,,,,,
,,65779c4bde34621ce896b77d,2024-04-16_11h06.11.187,WTP_SM_Choice,2022.2.1,Win32,11.99040767,,,,,space,2.8434,NAN,,NAN,0,6,,0,1,1,1,1,2,Alex,Rej,Participant_Images/65779c4bde34621ce896b77d/65779c4bde34621ce896b77d_Images/65779c4bde34621ce896b77d_Image_4.jpeg,liked,4.988446431,,,,,,,,,,,,,,,,,,,,
,,65779c4bde34621ce896b77d,2024-04-16_11h06.11.187,WTP_SM_Choice,2022.2.1,Win32,11.99040767,,,,,space,2.4993,NAN,,NAN,0,6,,0,2,2,2,1,3,Alex,Rej,Participant_Images/65779c4bde34621ce896b77d/65779c4bde34621ce896b77d_Images/65779c4bde34621ce896b77d_Image_7.jpeg,did not like,3.470791822,,,,,,,,,,,,,,,,,,,,
,,65779c4bde34621ce896b77d,2024-04-16_11h06.11.187,WTP_SM_Choice,2022.2.1,Win32,11.99040767,,,,,space,2.8441,NAN,,NAN,0,6,,0,3,3,3,1,4,Alex,Rej,Participant_Images/65779c4bde34621ce896b77d/65779c4bde34621ce896b77d_Images/65779c4bde34621ce896b77d_Image_16.jpeg,liked,3.820572462,,,,,,,,,,,,,,,,,,,,
,,65779c4bde34621ce896b77d,2024-04-16_11h06.11.187,WTP_SM_Choice,2022.2.1,Win32,11.99040767,,,,,,,,,,,,,,,,,,1,,,,,,space,18.5506,space,9.5098,0.01,1,8.0052,0,0,0,0,1,Playing Rocket League on my gaming laptop,Watching movies with my friends,0.01,0.01,4.4,,,
,,65779c4bde34621ce896b77d,2024-04-16_11h06.11.187,WTP_SM_Choice,2022.2.1,Win32,11.99040767,,,,,,,,,,,,,,,,,,2,,,,,,,,,,0.02,1,2.9585,0,1,1,1,1,Watching movies on amazon prime,Going to concerts with my friends,0.02,0.01,8.8,,,
,,65779c4bde34621ce896b77d,2024-04-16_11h06.11.187,WTP_SM_Choice,2022.2.1,Win32,11.99040767,,,,,,,,,,,,,,,,,,3,,,,,,,,,,0.01,2,3.4019,0,2,2,2,1,Going for bike rides on the harbor,Playing Rocket League with my friends,0.03,0.01,3.3,,,
,,65779c4bde34621ce896b77d,2024-04-16_11h06.11.187,WTP_SM_Choice,2022.2.1,Win32,11.99040767,,,,,,,,,,,,,,,,,,4,,,,,,,,,,0.04,1,2.6872,0,3,3,3,1,Watching movies on amazon prime,Going to cookouts with family and friends,0.04,0.01,1.1,,,
,,65779c4bde34621ce896b77d,2024-04-16_11h06.11.187,WTP_SM_Choice,2022.2.1,Win32,11.99040767,,,,,,,,,,,,,,,,,,5,,,,,,,,,,0.01,2,6.3772,0,4,4,4,1,Watching movies on amazon prime,Playing Rocket League with my friends,0.05,0.01,1.1,,,
,,65779c4bde34621ce896b77d,2024-04-16_11h06.11.187,WTP_SM_Choice,2022.2.1,Win32,11.99040767,,,,,,,NAN,,NAN,0.09,5.91,,0,4,4,4,1,5,Alex,Rej,Participant_Images/65779c4bde34621ce896b77d/65779c4bde34621ce896b77d_Images/65779c4bde34621ce896b77d_Image_8.jpeg,liked,2.455989137,,,,,,,,,,,,,,,,,,,,
,,65779c4bde34621ce896b77d,2024-04-16_11h06.11.187,WTP_SM_Choice,2022.2.1,Win32,11.99040767,,,,,space,1.3904,NAN,,NAN,0.09,5.91,,0,5,5,5,1,6,Alex,Rej,Participant_Images/65779c4bde34621ce896b77d/65779c4bde34621ce896b77d_Images/65779c4bde34621ce896b77d_Image_17.jpeg,did not like,3.79605092,,,,,,,,,,,,,,,,,,,,
,,65779c4bde34621ce896b77d,2024-04-16_11h06.11.187,WTP_SM_Choice,2022.2.1,Win32,11.99040767,,,,,space,1.6154,NAN,,NAN,0.09,5.91,,0,6,6,6,1,7,Alex,Rej,Participant_Images/65779c4bde34621ce896b77d/65779c4bde34621ce896b77d_Images/65779c4bde34621ce896b77d_Image_18.jpeg,liked,3.562416326,,,,,,,,,,,,,,,,,,,,
,,65779c4bde34621ce896b77d,2024-04-16_11h06.11.187,WTP_SM_Choice,2022.2.1,Win32,11.99040767,,,,,space,1.2535,NAN,,NAN,0.09,5.91,,0,7,7,7,1,8,Alex,Rej,Participant_Images/65779c4bde34621ce896b77d/65779c4bde34621ce896b77d_Images/65779c4bde34621ce896b77d_Image_3.jpeg,did not like,2.843822497,,,,,,,,,,,,,,,,,,,,
,,65779c4bde34621ce896b77d,2024-04-16_11h06.11.187,WTP_SM_Choice,2022.2.1,Win32,11.99040767,,,,,space,1.3498,NAN,,NAN,0.09,5.91,,0,8,8,8,1,9,Alex,Rej,Participant_Images/65779c4bde34621ce896b77d/65779c4bde34621ce896b77d_Images/65779c4bde34621ce896b77d_Image_19.jpeg,did not like,3.546495948,,,,,,,,,,,,,,,,,,,,
,,65779c4bde34621ce896b77d,2024-04-16_11h06.11.187,WTP_SM_Choice,2022.2.1,Win32,11.99040767,,,,,,,,,,,,,,,,,,6,,,,,,space,7.9017,space,10.9653,0.02,2,1.9317,0,0,0,0,1,Surfing at the beach,Watching movies with my friends,0.01,0.02,3.3,,,
,,65779c4bde34621ce896b77d,2024-04-16_11h06.11.187,WTP_SM_Choice,2022.2.1,Win32,11.99040767,,,,,,,,,,,,,,,,,,7,,,,,,,,,,0.02,2,2.518,0,1,1,1,1,Going to Disney Land in Anaheim,Camping with friends,0.02,0.02,1.1,,,
,,65779c4bde34621ce896b77d,2024-04-16_11h06.11.187,WTP_SM_Choice,2022.2.1,Win32,11.99040767,,,,,,,,,,,,,,,,,,8,,,,,,,,,,0.03,1,3.0565,0,2,2,2,1,Listening to music on spotify,Hiking with the homies,0.03,0.02,1.1,,,
,,65779c4bde34621ce896b77d,2024-04-16_11h06.11.187,WTP_SM_Choice,2022.2.1,Win32,11.99040767,,,,,,,,,,,,,,,,,,9,,,,,,,,,,0.04,1,2.3044,0,3,3,3,1,Going for bike rides on the harbor,Going to Six flags with family and friends,0.04,0.02,4.4,,,
,,65779c4bde34621ce896b77d,2024-04-16_11h06.11.187,WTP_SM_Choice,2022.2.1,Win32,11.99040767,,,,,,,,,,,,,,,,,,10,,,,,,,,,,0.02,2,5.3848,0,4,4,4,1,Hiking in the mountains,Going to the beach with friends and family,0.05,0.02,1.1,,,
,,65779c4bde34621ce896b77d,2024-04-16_11h06.11.187,WTP_SM_Choice,2022.2.1,Win32,11.99040767,,,,,,,NAN,,NAN,0.22,5.78,,0,9,9,9,1,10,Alex,Rej,Participant_Images/65779c4bde34621ce896b77d/65779c4bde34621ce896b77d_Images/65779c4bde34621ce896b77d_Image_13.jpeg,did not like,1.672012706,,,,,,,,,,,,,,,,,,,,
,,65779c4bde34621ce896b77d,2024-04-16_11h06.11.187,WTP_SM_Choice,2022.2.1,Win32,11.99040767,,,,,space,1.2146,NAN,,NAN,0.22,5.78,,0,10,10,10,1,11,Alex,Rej,Participant_Images/65779c4bde34621ce896b77d/65779c4bde34621ce896b77d_Images/65779c4bde34621ce896b77d_Image_22.jpeg,liked,4.942172136,,,,,,,,,,,,,,,,,,,,
,,65779c4bde34621ce896b77d,2024-04-16_11h06.11.187,WTP_SM_Choice,2022.2.1,Win32,11.99040767,,,,,space,5.7178,NAN,,NAN,0.22,5.78,,0,11,11,11,1,12,Alex,Rej,Participant_Images/65779c4bde34621ce896b77d/65779c4bde34621ce896b77d_Images/65779c4bde34621ce896b77d_Image_1.jpeg,did not like,2.50187214,,,,,,,,,,,,,,,,,,,,
,,65779c4bde34621ce896b77d,2024-04-16_11h06.11.187,WTP_SM_Choice,2022.2.1,Win32,11.99040767,,,,,space,0.9831,NAN,,NAN,0.22,5.78,,0,12,12,12,1,13,Alex,Rej,Participant_Images/65779c4bde34621ce896b77d/65779c4bde34621ce896b77d_Images/65779c4bde34621ce896b77d_Image_14.jpeg,did not like,2.071164779,,,,,,,,,,,,,,,,,,,,
,,65779c4bde34621ce896b77d,2024-04-16_11h06.11.187,WTP_SM_Choice,2022.2.1,Win32,11.99040767,,,,,space,5.8727,NAN,,NAN,0.22,5.78,,0,13,13,13,1,14,Alex,Rej,Participant_Images/65779c4bde34621ce896b77d/65779c4bde34621ce896b77d_Images/65779c4bde34621ce896b77d_Image_12.jpeg,did not like,5.336503566,,,,,,,,,,,,,,,,,,,,
,,65779c4bde34621ce896b77d,2024-04-16_11h06.11.187,WTP_SM_Choice,2022.2.1,Win32,11.99040767,,,,,,,,,,,,,,,,,,11,,,,,,space,6.9272,space,4.6144,0.03,2,4.8213,0,0,0,0,1,Hiking in the mountains,Going to concerts with my friends,0.01,0.03,3.3,,,
,,65779c4bde34621ce896b77d,2024-04-16_11h06.11.187,WTP_SM_Choice,2022.2.1,Win32,11.99040767,,,,,,,,,,,,,,,,,,12,,,,,,,,,,0.02,1,1.9124,0,1,1,1,1,Listening to music on spotify,Going to concerts with my friends,0.02,0.03,4.4,,,
,,65779c4bde34621ce896b77d,2024-04-16_11h06.11.187,WTP_SM_Choice,2022.2.1,Win32,11.99040767,,,,,,,,,,,,,,,,,,13,,,,,,,,,,0.03,1,2.3679,0,2,2,2,1,Surfing at the beach,Hiking with the homies,0.03,0.03,1.1,,,
,,65779c4bde34621ce896b77d,2024-04-16_11h06.11.187,WTP_SM_Choice,2022.2.1,Win32,11.99040767,,,,,,,,,,,,,,,,,,14,,,,,,,,,,0.04,1,2.4995,0,3,3,3,1,Playing Rocket League on my gaming laptop,Going to cookouts with family and friends,0.04,0.03,3.3,,,
,,65779c4bde34621ce896b77d,2024-04-16_11h06.11.187,WTP_SM_Choice,2022.2.1,Win32,11.99040767,,,,,,,,,,,,,,,,,,15,,,,,,,,,,0.05,1,2.3838,0,4,4,4,1,Playing Destiny 2 on my gaming laptop,Going to the beach with friends and family,0.05,0.03,4.4,,,
,,65779c4bde34621ce896b77d,2024-04-16_11h06.11.187,WTP_SM_Choice,2022.2.1,Win32,11.99040767,,,,,,,NAN,,NAN,0.39,5.61,,0,14,14,14,1,15,Alex,Rej,Participant_Images/65779c4bde34621ce896b77d/65779c4bde34621ce896b77d_Images/65779c4bde34621ce896b77d_Image_11.jpeg,did not like,2.642157193,,,,,,,,,,,,,,,,,,,,
,,65779c4bde34621ce896b77d,2024-04-16_11h06.11.187,WTP_SM_Choice,2022.2.1,Win32,11.99040767,,,,,space,1.2203,NAN,,NAN,0.39,5.61,,0,15,15,15,1,16,Alex,Rej,Participant_Images/65779c4bde34621ce896b77d/65779c4bde34621ce896b77d_Images/65779c4bde34621ce896b77d_Image_2.jpeg,liked,4.456234322,,,,,,,,,,,,,,,,,,,,
,,65779c4bde34621ce896b77d,2024-04-16_11h06.11.187,WTP_SM_Choice,2022.2.1,Win32,11.99040767,,,,,space,0.8615,NAN,,NAN,0.39,5.61,,0,16,16,16,1,17,Alex,Rej,Participant_Images/65779c4bde34621ce896b77d/65779c4bde34621ce896b77d_Images/65779c4bde34621ce896b77d_Image_23.jpeg,did not like,4.438512181,,,,,,,,,,,,,,,,,,,,
,,65779c4bde34621ce896b77d,2024-04-16_11h06.11.187,WTP_SM_Choice,2022.2.1,Win32,11.99040767,,,,,space,0.778,NAN,,NAN,0.39,5.61,,0,17,17,17,1,18,Alex,Rej,Participant_Images/65779c4bde34621ce896b77d/65779c4bde34621ce896b77d_Images/65779c4bde34621ce896b77d_Image_25.jpeg,did not like,2.682944783,,,,,,,,,,,,,,,,,,,,
,,65779c4bde34621ce896b77d,2024-04-16_11h06.11.187,WTP_SM_Choice,2022.2.1,Win32,11.99040767,,,,,space,0.8739,NAN,,NAN,0.39,5.61,,0,18,18,18,1,19,Alex,Rej,Participant_Images/65779c4bde34621ce896b77d/65779c4bde34621ce896b77d_Images/65779c4bde34621ce896b77d_Image_5.jpeg,liked,4.51984296,,,,,,,,,,,,,,,,,,,,
,,65779c4bde34621ce896b77d,2024-04-16_11h06.11.187,WTP_SM_Choice,2022.2.1,Win32,11.99040767,,,,,,,,,,,,,,,,,,16,,,,,,space,3.2833,space,1.2867,0.01,1,3.0674,0,0,0,0,1,Listening to music on spotify,Watching movies with my friends,0.01,0.04,1.1,,,
,,65779c4bde34621ce896b77d,2024-04-16_11h06.11.187,WTP_SM_Choice,2022.2.1,Win32,11.99040767,,,,,,,,,,,,,,,,,,17,,,,,,,,,,0.04,2,1.7245,0,1,1,1,1,Hiking in the mountains,Playing Rocket League with my friends,0.02,0.04,8.8,,,
,,65779c4bde34621ce896b77d,2024-04-16_11h06.11.187,WTP_SM_Choice,2022.2.1,Win32,11.99040767,,,,,,,,,,,,,,,,,,18,,,,,,,,,,0.03,1,2.0821,0,2,2,2,1,Listening to music on spotify,Going to cookouts with family and friends,0.03,0.04,3.3,,,
,,65779c4bde34621ce896b77d,2024-04-16_11h06.11.187,WTP_SM_Choice,2022.2.1,Win32,11.99040767,,,,,,,,,,,,,,,,,,19,,,,,,,,,,0.04,1,1.6519,0,3,3,3,1,Watching movies on amazon prime,Hiking with the homies,0.04,0.04,3.3,,,
,,65779c4bde34621ce896b77d,2024-04-16_11h06.11.187,WTP_SM_Choice,2022.2.1,Win32,11.99040767,,,,,,,,,,,,,,,,,,20,,,,,,,,,,0.04,2,3.3428,0,4,4,4,1,Surfing at the beach,Going to cookouts with family and friends,0.05,0.04,1.1,,,
,,65779c4bde34621ce896b77d,2024-04-16_11h06.11.187,WTP_SM_Choice,2022.2.1,Win32,11.99040767,,,,,,,NAN,,NAN,0.55,5.45,,0,19,19,19,1,20,Alex,Rej,Participant_Images/65779c4bde34621ce896b77d/65779c4bde34621ce896b77d_Images/65779c4bde34621ce896b77d_Image_15.jpeg,did not like,3.195382774,,,,,,,,,,,,,,,,,,,,
,,65779c4bde34621ce896b77d,2024-04-16_11h06.11.187,WTP_SM_Choice,2022.2.1,Win32,11.99040767,,,,,space,1.4213,NAN,,NAN,0.55,5.45,,0,20,20,20,1,21,Alex,Rej,Participant_Images/65779c4bde34621ce896b77d/65779c4bde34621ce896b77d_Images/65779c4bde34621ce896b77d_Image_6.jpeg,did not like,1.779333479,,,,,,,,,,,,,,,,,,,,
,,65779c4bde34621ce896b77d,2024-04-16_11h06.11.187,WTP_SM_Choice,2022.2.1,Win32,11.99040767,,,,,space,0.8959,NAN,,NAN,0.55,5.45,,0,21,21,21,1,22,Alex,Rej,Participant_Images/65779c4bde34621ce896b77d/65779c4bde34621ce896b77d_Images/65779c4bde34621ce896b77d_Image_9.jpeg,did not like,4.312468682,,,,,,,,,,,,,,,,,,,,
,,65779c4bde34621ce896b77d,2024-04-16_11h06.11.187,WTP_SM_Choice,2022.2.1,Win32,11.99040767,,,,,space,5.088,NAN,,NAN,0.55,5.45,,0,22,22,22,1,23,Alex,Rej,Participant_Images/65779c4bde34621ce896b77d/65779c4bde34621ce896b77d_Images/65779c4bde34621ce896b77d_Image_10.jpeg,did not like,4.940433059,,,,,,,,,,,,,,,,,,,,
,,65779c4bde34621ce896b77d,2024-04-16_11h06.11.187,WTP_SM_Choice,2022.2.1,Win32,11.99040767,,,,,space,1.216,NAN,,NAN,0.55,5.45,,0,23,23,23,1,24,Alex,Rej,Participant_Images/65779c4bde34621ce896b77d/65779c4bde34621ce896b77d_Images/65779c4bde34621ce896b77d_Image_24.jpeg,did not like,2.7105123,,,,,,,,,,,,,,,,,,,,
,,65779c4bde34621ce896b77d,2024-04-16_11h06.11.187,WTP_SM_Choice,2022.2.1,Win32,11.99040767,,,,,,,,,,,,,,,,,,21,,,,,,space,4.0151,space,1.0889,0.01,1,2.022,0,0,0,0,1,Listening to music on spotify,Going to the beach with friends and family,0.01,0.05,8.8,,,
,,65779c4bde34621ce896b77d,2024-04-16_11h06.11.187,WTP_SM_Choice,2022.2.1,Win32,11.99040767,,,,,,,,,,,,,,,,,,22,,,,,,,,,,0.05,2,2.0099,0,1,1,1,1,Going to Disney Land in Anaheim,Watching movies with my friends,0.02,0.05,4.4,,,
,,65779c4bde34621ce896b77d,2024-04-16_11h06.11.187,WTP_SM_Choice,2022.2.1,Win32,11.99040767,,,,,,,,,,,,,,,,,,23,,,,,,,,,,0.03,1,5.0008,0,2,2,2,1,Listening to music on spotify,Playing Destiny 2 with my friends,0.03,0.05,1.1,,,
,,65779c4bde34621ce896b77d,2024-04-16_11h06.11.187,WTP_SM_Choice,2022.2.1,Win32,11.99040767,,,,,,,,,,,,,,,,,,24,,,,,,,,,,0.04,1,1.2746,0,3,3,3,1,Surfing at the beach,Going to Six flags with family and friends,0.04,0.05,4.4,,,
,,65779c4bde34621ce896b77d,2024-04-16_11h06.11.187,WTP_SM_Choice,2022.2.1,Win32,11.99040767,,,,,,,,,,,,,,,,,,25,,,,,,,,,,0.05,1,4.6812,0,4,4,4,1,Surfing at the beach,Fishing with the homies,0.05,0.05,3.3,,,
,,65779c4bde34621ce896b77d,2024-04-16_11h06.11.187,WTP_SM_Choice,2022.2.1,Win32,11.99040767,,,,,,,1,,3,0.73,5.27,,0,24,24,24,1,25,Alex,Rej,Participant_Images/65779c4bde34621ce896b77d/65779c4bde34621ce896b77d_Images/65779c4bde34621ce896b77d_Image_21.jpeg,did not like,3.602308302,,,,,,,,,,,,,,,,,,space,1.5326,
,,65779c4bde34621ce896b77d,2024-04-16_11h06.11.187,WTP_SM_Choice,2022.2.1,Win32,11.99040767,,,space,11.4808,space,10.1249,NAN,,NAN,0.73,5.27,,0,25,25,25,1,26,Charlie,Rej,Participant_Images/65779c4bde34621ce896b77d/65779c4bde34621ce896b77d_Images/65779c4bde34621ce896b77d_Image_1.jpeg,did not like,4.106391878,,,,,,,,,,,,,,,,,,,,
,,65779c4bde34621ce896b77d,2024-04-16_11h06.11.187,WTP_SM_Choice,2022.2.1,Win32,11.99040767,,,,,space,3.2397,NAN,,NAN,0.73,5.27,,0,26,26,26,1,27,Charlie,Rej,Participant_Images/65779c4bde34621ce896b77d/65779c4bde34621ce896b77d_Images/65779c4bde34621ce896b77d_Image_24.jpeg,did not like,3.799433026,,,,,,,,,,,,,,,,,,,,
,,65779c4bde34621ce896b77d,2024-04-16_11h06.11.187,WTP_SM_Choice,2022.2.1,Win32,11.99040767,,,,,space,2.2013,NAN,,NAN,0.73,5.27,,0,27,27,27,1,28,Charlie,Rej,Participant_Images/65779c4bde34621ce896b77d/65779c4bde34621ce896b77d_Images/65779c4bde34621ce896b77d_Image_20.jpeg,liked,5.246980764,,,,,,,,,,,,,,,,,,,,
,,65779c4bde34621ce896b77d,2024-04-16_11h06.11.187,WTP_SM_Choice,2022.2.1,Win32,11.99040767,,,,,space,1.8798,NAN,,NAN,0.73,5.27,,0,28,28,28,1,29,Charlie,Rej,Participant_Images/65779c4bde34621ce896b77d/65779c4bde34621ce896b77d_Images/65779c4bde34621ce896b77d_Image_21.jpeg,did not like,3.30081769,,,,,,,,,,,,,,,,,,,,
,,65779c4bde34621ce896b77d,2024-04-16_11h06.11.187,WTP_SM_Choice,2022.2.1,Win32,11.99040767,,,,,,,,,,,,,,,,,,26,,,,,,space,2.4233,space,1.0022,0.01,1,2.3799,0,0,0,0,1,Watching movies on amazon prime,Fishing with the homies,0.01,0.01,4.4,,,
,,65779c4bde34621ce896b77d,2024-04-16_11h06.11.187,WTP_SM_Choice,2022.2.1,Win32,11.99040767,,,,,,,,,,,,,,,,,,27,,,,,,,,,,0.02,1,2.2476,0,1,1,1,1,Listening to music on spotify,Camping with friends,0.02,0.01,3.3,,,
,,65779c4bde34621ce896b77d,2024-04-16_11h06.11.187,WTP_SM_Choice,2022.2.1,Win32,11.99040767,,,,,,,,,,,,,,,,,,28,,,,,,,,,,0.03,1,4.6993,0,2,2,2,1,Watching youtube videos,Going to concerts with my friends,0.03,0.01,3.3,,,
,,65779c4bde34621ce896b77d,2024-04-16_11h06.11.187,WTP_SM_Choice,2022.2.1,Win32,11.99040767,,,,,,,,,,,,,,,,,,29,,,,,,,,,,0.01,2,3.437,0,3,3,3,1,Going to Disney Land in Anaheim,Playing Rocket League with my friends,0.04,0.01,4.4,,,
,,65779c4bde34621ce896b77d,2024-04-16_11h06.11.187,WTP_SM_Choice,2022.2.1,Win32,11.99040767,,,,,,,,,,,,,,,,,,30,,,,,,,,,,0.05,1,4.1686,0,4,4,4,1,Playing Rocket League on my gaming laptop,Playing Rocket League with my friends,0.05,0.01,8.8,,,
,,65779c4bde34621ce896b77d,2024-04-16_11h06.11.187,WTP_SM_Choice,2022.2.1,Win32,11.99040767,,,,,,,NAN,,NAN,0.85,5.15,,0,29,29,29,1,30,Charlie,Rej,Participant_Images/65779c4bde34621ce896b77d/65779c4bde34621ce896b77d_Images/65779c4bde34621ce896b77d_Image_9.jpeg,did not like,1.661473164,,,,,,,,,,,,,,,,,,,,
,,65779c4bde34621ce896b77d,2024-04-16_11h06.11.187,WTP_SM_Choice,2022.2.1,Win32,11.99040767,,,,,space,3.4163,NAN,,NAN,0.85,5.15,,0,30,30,30,1,31,Charlie,Rej,Participant_Images/65779c4bde34621ce896b77d/65779c4bde34621ce896b77d_Images/65779c4bde34621ce896b77d_Image_11.jpeg,liked,3.613205605,,,,,,,,,,,,,,,,,,,,
,,65779c4bde34621ce896b77d,2024-04-16_11h06.11.187,WTP_SM_Choice,2022.2.1,Win32,11.99040767,,,,,space,5.0806,NAN,,NAN,0.85,5.15,,0,31,31,31,1,32,Charlie,Rej,Participant_Images/65779c4bde34621ce896b77d/65779c4bde34621ce896b77d_Images/65779c4bde34621ce896b77d_Image_7.jpeg,did not like,4.988446431,,,,,,,,,,,,,,,,,,,,
,,65779c4bde34621ce896b77d,2024-04-16_11h06.11.187,WTP_SM_Choice,2022.2.1,Win32,11.99040767,,,,,space,2.3273,NAN,,NAN,0.85,5.15,,0,32,32,32,1,33,Charlie,Rej,Participant_Images/65779c4bde34621ce896b77d/65779c4bde34621ce896b77d_Images/65779c4bde34621ce896b77d_Image_12.jpeg,did not like,3.470791822,,,,,,,,,,,,,,,,,,,,
,,65779c4bde34621ce896b77d,2024-04-16_11h06.11.187,WTP_SM_Choice,2022.2.1,Win32,11.99040767,,,,,space,2.9123,NAN,,NAN,0.85,5.15,,0,33,33,33,1,34,Charlie,Rej,Participant_Images/65779c4bde34621ce896b77d/65779c4bde34621ce896b77d_Images/65779c4bde34621ce896b77d_Image_18.jpeg,did not like,3.820572462,,,,,,,,,,,,,,,,,,,,
,,65779c4bde34621ce896b77d,2024-04-16_11h06.11.187,WTP_SM_Choice,2022.2.1,Win32,11.99040767,,,,,,,,,,,,,,,,,,31,,,,,,space,7.0065,space,0.826,0.01,1,2.1844,0,0,0,0,1,Listening to music on spotify,Fishing with the homies,0.01,0.02,8.8,,,
,,65779c4bde34621ce896b77d,2024-04-16_11h06.11.187,WTP_SM_Choice,2022.2.1,Win32,11.99040767,,,,,,,,,,,,,,,,,,32,,,,,,,,,,0.02,1,5.0762,0,1,1,1,1,Watching movies on amazon prime,Going to the beach with friends and family,0.02,0.02,1.1,,,
,,65779c4bde34621ce896b77d,2024-04-16_11h06.11.187,WTP_SM_Choice,2022.2.1,Win32,11.99040767,,,,,,,,,,,,,,,,,,33,,,,,,,,,,0.02,2,1.3699,0,2,2,2,1,Playing Destiny 2 on my gaming laptop,Playing Rocket League with my friends,0.03,0.02,4.4,,,
,,65779c4bde34621ce896b77d,2024-04-16_11h06.11.187,WTP_SM_Choice,2022.2.1,Win32,11.99040767,,,,,,,,,,,,,,,,,,34,,,,,,,,,,0.04,1,1.8478,0,3,3,3,1,Watching youtube videos,Going to Six flags with family and friends,0.04,0.02,3.3,,,
,,65779c4bde34621ce896b77d,2024-04-16_11h06.11.187,WTP_SM_Choice,2022.2.1,Win32,11.99040767,,,,,,,,,,,,,,,,,,35,,,,,,,,,,0.05,1,3.1376,0,4,4,4,1,Hiking in the mountains,Hiking with the homies,0.05,0.02,1.1,,,
,,65779c4bde34621ce896b77d,2024-04-16_11h06.11.187,WTP_SM_Choice,2022.2.1,Win32,11.99040767,,,,,,,NAN,,NAN,0.99,5.01,,0,34,34,34,1,35,Charlie,Rej,Participant_Images/65779c4bde34621ce896b77d/65779c4bde34621ce896b77d_Images/65779c4bde34621ce896b77d_Image_14.jpeg,liked,2.455989137,,,,,,,,,,,,,,,,,,,,
,,65779c4bde34621ce896b77d,2024-04-16_11h06.11.187,WTP_SM_Choice,2022.2.1,Win32,11.99040767,,,,,space,9.3879,NAN,,NAN,0.99,5.01,,0,35,35,35,1,36,Charlie,Rej,Participant_Images/65779c4bde34621ce896b77d/65779c4bde34621ce896b77d_Images/65779c4bde34621ce896b77d_Image_10.jpeg,did not like,3.79605092,,,,,,,,,,,,,,,,,,,,
,,65779c4bde34621ce896b77d,2024-04-16_11h06.11.187,WTP_SM_Choice,2022.2.1,Win32,11.99040767,,,,,space,2.4686,NAN,,NAN,0.99,5.01,,0,36,36,36,1,37,Charlie,Rej,Participant_Images/65779c4bde34621ce896b77d/65779c4bde34621ce896b77d_Images/65779c4bde34621ce896b77d_Image_6.jpeg,liked,3.562416326,,,,,,,,,,,,,,,,,,,,
,,65779c4bde34621ce896b77d,2024-04-16_11h06.11.187,WTP_SM_Choice,2022.2.1,Win32,11.99040767,,,,,space,3.0639,NAN,,NAN,0.99,5.01,,0,37,37,37,1,38,Charlie,Rej,Participant_Images/65779c4bde34621ce896b77d/65779c4bde34621ce896b77d_Images/65779c4bde34621ce896b77d_Image_16.jpeg,liked,2.843822497,,,,,,,,,,,,,,,,,,,,
,,65779c4bde34621ce896b77d,2024-04-16_11h06.11.187,WTP_SM_Choice,2022.2.1,Win32,11.99040767,,,,,space,2.9517,NAN,,NAN,0.99,5.01,,0,38,38,38,1,39,Charlie,Rej,Participant_Images/65779c4bde34621ce896b77d/65779c4bde34621ce896b77d_Images/65779c4bde34621ce896b77d_Image_19.jpeg,liked,3.546495948,,,,,,,,,,,,,,,,,,,,
,,65779c4bde34621ce896b77d,2024-04-16_11h06.11.187,WTP_SM_Choice,2022.2.1,Win32,11.99040767,,,,,,,,,,,,,,,,,,36,,,,,,space,3.1046,space,0.8282,0.03,2,2.7562,0,0,0,0,1,Going to Disney Land in Anaheim,Going to concerts with my friends,0.01,0.03,3.3,,,
,,65779c4bde34621ce896b77d,2024-04-16_11h06.11.187,WTP_SM_Choice,2022.2.1,Win32,11.99040767,,,,,,,,,,,,,,,,,,37,,,,,,,,,,0.02,1,4.977,0,1,1,1,1,Shopping online or windowshopping,Going to concerts with my friends,0.02,0.03,1.1,,,
,,65779c4bde34621ce896b77d,2024-04-16_11h06.11.187,WTP_SM_Choice,2022.2.1,Win32,11.99040767,,,,,,,,,,,,,,,,,,38,,,,,,,,,,0.03,2,3.8335,0,2,2,2,1,Going for bike rides on the harbor,Fishing with the homies,0.03,0.03,1.1,,,
,,65779c4bde34621ce896b77d,2024-04-16_11h06.11.187,WTP_SM_Choice,2022.2.1,Win32,11.99040767,,,,,,,,,,,,,,,,,,39,,,,,,,,,,0.04,1,6.1026,0,3,3,3,1,Watching youtube videos,Hiking with the homies,0.04,0.03,3.3,,,
,,65779c4bde34621ce896b77d,2024-04-16_11h06.11.187,WTP_SM_Choice,2022.2.1,Win32,11.99040767,,,,,,,,,,,,,,,,,,40,,,,,,,,,,0.05,1,2.989,0,4,4,4,1,Going to Disney Land in Anaheim,Going to Six flags with family and friends,0.05,0.03,4.4,,,
,,65779c4bde34621ce896b77d,2024-04-16_11h06.11.187,WTP_SM_Choice,2022.2.1,Win32,11.99040767,,,,,,,NAN,,NAN,1.16,4.84,,0,39,39,39,1,40,Charlie,Rej,Participant_Images/65779c4bde34621ce896b77d/65779c4bde34621ce896b77d_Images/65779c4bde34621ce896b77d_Image_17.jpeg,did not like,1.672012706,,,,,,,,,,,,,,,,,,,,
,,65779c4bde34621ce896b77d,2024-04-16_11h06.11.187,WTP_SM_Choice,2022.2.1,Win32,11.99040767,,,,,space,3.046,NAN,,NAN,1.16,4.84,,0,40,40,40,1,41,Charlie,Rej,Participant_Images/65779c4bde34621ce896b77d/65779c4bde34621ce896b77d_Images/65779c4bde34621ce896b77d_Image_8.jpeg,liked,4.942172136,,,,,,,,,,,,,,,,,,,,
,,65779c4bde34621ce896b77d,2024-04-16_11h06.11.187,WTP_SM_Choice,2022.2.1,Win32,11.99040767,,,,,space,2.7046,NAN,,NAN,1.16,4.84,,0,41,41,41,1,42,Charlie,Rej,Participant_Images/65779c4bde34621ce896b77d/65779c4bde34621ce896b77d_Images/65779c4bde34621ce896b77d_Image_13.jpeg,did not like,2.50187214,,,,,,,,,,,,,,,,,,,,
,,65779c4bde34621ce896b77d,2024-04-16_11h06.11.187,WTP_SM_Choice,2022.2.1,Win32,11.99040767,,,,,space,12.5815,NAN,,NAN,1.16,4.84,,0,42,42,42,1,43,Charlie,Rej,Participant_Images/65779c4bde34621ce896b77d/65779c4bde34621ce896b77d_Images/65779c4bde34621ce896b77d_Image_15.jpeg,did not like,2.071164779,,,,,,,,,,,,,,,,,,,,
,,65779c4bde34621ce896b77d,2024-04-16_11h06.11.187,WTP_SM_Choice,2022.2.1,Win32,11.99040767,,,,,space,2.4098,NAN,,NAN,1.16,4.84,,0,43,43,43,1,44,Charlie,Rej,Participant_Images/65779c4bde34621ce896b77d/65779c4bde34621ce896b77d_Images/65779c4bde34621ce896b77d_Image_23.jpeg,did not like,5.336503566,,,,,,,,,,,,,,,,,,,,
,,65779c4bde34621ce896b77d,2024-04-16_11h06.11.187,WTP_SM_Choice,2022.2.1,Win32,11.99040767,,,,,,,,,,,,,,,,,,41,,,,,,space,1.5877,space,0.9396,0.01,1,1.9802,0,0,0,0,1,Shopping online or windowshopping,Playing Destiny 2 with my friends,0.01,0.04,1.1,,,
,,65779c4bde34621ce896b77d,2024-04-16_11h06.11.187,WTP_SM_Choice,2022.2.1,Win32,11.99040767,,,,,,,,,,,,,,,,,,42,,,,,,,,,,0.02,1,1.6323,0,1,1,1,1,Playing Rocket League on my gaming laptop,Going to Six flags with family and friends,0.02,0.04,3.3,,,
,,65779c4bde34621ce896b77d,2024-04-16_11h06.11.187,WTP_SM_Choice,2022.2.1,Win32,11.99040767,,,,,,,,,,,,,,,,,,43,,,,,,,,,,0.03,1,2.0971,0,2,2,2,1,Shopping online or windowshopping,Camping with friends,0.03,0.04,1.1,,,
,,65779c4bde34621ce896b77d,2024-04-16_11h06.11.187,WTP_SM_Choice,2022.2.1,Win32,11.99040767,,,,,,,,,,,,,,,,,,44,,,,,,,,,,0.04,1,3.8097,0,3,3,3,1,Watching youtube videos,Watching movies with my friends,0.04,0.04,1.1,,,
,,65779c4bde34621ce896b77d,2024-04-16_11h06.11.187,WTP_SM_Choice,2022.2.1,Win32,11.99040767,,,,,,,,,,,,,,,,,,45,,,,,,,,,,0.05,1,2.9868,0,4,4,4,1,Shopping online or windowshopping,Fishing with the homies,0.05,0.04,4.4,,,
,,65779c4bde34621ce896b77d,2024-04-16_11h06.11.187,WTP_SM_Choice,2022.2.1,Win32,11.99040767,,,,,,,NAN,,NAN,1.31,4.69,,0,44,44,44,1,45,Charlie,Rej,Participant_Images/65779c4bde34621ce896b77d/65779c4bde34621ce896b77d_Images/65779c4bde34621ce896b77d_Image_4.jpeg,did not like,2.642157193,,,,,,,,,,,,,,,,,,,,
,,65779c4bde34621ce896b77d,2024-04-16_11h06.11.187,WTP_SM_Choice,2022.2.1,Win32,11.99040767,,,,,space,4.762,NAN,,NAN,1.31,4.69,,0,45,45,45,1,46,Charlie,Rej,Participant_Images/65779c4bde34621ce896b77d/65779c4bde34621ce896b77d_Images/65779c4bde34621ce896b77d_Image_5.jpeg,did not like,4.456234322,,,,,,,,,,,,,,,,,,,,
,,65779c4bde34621ce896b77d,2024-04-16_11h06.11.187,WTP_SM_Choice,2022.2.1,Win32,11.99040767,,,,,space,2.0209,NAN,,NAN,1.31,4.69,,0,46,46,46,1,47,Charlie,Rej,Participant_Images/65779c4bde34621ce896b77d/65779c4bde34621ce896b77d_Images/65779c4bde34621ce896b77d_Image_2.jpeg,did not like,4.438512181,,,,,,,,,,,,,,,,,,,,
,,65779c4bde34621ce896b77d,2024-04-16_11h06.11.187,WTP_SM_Choice,2022.2.1,Win32,11.99040767,,,,,space,1.5217,NAN,,NAN,1.31,4.69,,0,47,47,47,1,48,Charlie,Rej,Participant_Images/65779c4bde34621ce896b77d/65779c4bde34621ce896b77d_Images/65779c4bde34621ce896b77d_Image_22.jpeg,did not like,2.682944783,,,,,,,,,,,,,,,,,,,,
,,65779c4bde34621ce896b77d,2024-04-16_11h06.11.187,WTP_SM_Choice,2022.2.1,Win32,11.99040767,,,,,space,5.2831,NAN,,NAN,1.31,4.69,,0,48,48,48,1,49,Charlie,Rej,Participant_Images/65779c4bde34621ce896b77d/65779c4bde34621ce896b77d_Images/65779c4bde34621ce896b77d_Image_3.jpeg,did not like,4.51984296,,,,,,,,,,,,,,,,,,,,
,,65779c4bde34621ce896b77d,2024-04-16_11h06.11.187,WTP_SM_Choice,2022.2.1,Win32,11.99040767,,,,,,,,,,,,,,,,,,46,,,,,,space,2.1931,space,0.8007,0.01,1,2.0955,0,0,0,0,1,Shopping online or windowshopping,Going to the beach with friends and family,0.01,0.05,8.8,,,
,,65779c4bde34621ce896b77d,2024-04-16_11h06.11.187,WTP_SM_Choice,2022.2.1,Win32,11.99040767,,,,,,,,,,,,,,,,,,47,,,,,,,,,,0.05,2,1.8309,0,1,1,1,1,Surfing at the beach,Playing Rocket League with my friends,0.02,0.05,1.1,,,
,,65779c4bde34621ce896b77d,2024-04-16_11h06.11.187,WTP_SM_Choice,2022.2.1,Win32,11.99040767,,,,,,,,,,,,,,,,,,48,,,,,,,,,,0.03,1,2.1399,0,2,2,2,1,Going for bike rides on the harbor,Going to concerts with my friends,0.03,0.05,4.4,,,
,,65779c4bde34621ce896b77d,2024-04-16_11h06.11.187,WTP_SM_Choice,2022.2.1,Win32,11.99040767,,,,,,,,,,,,,,,,,,49,,,,,,,,,,0.05,2,1.823,0,3,3,3,1,Going to Disney Land in Anaheim,Playing Destiny 2 with my friends,0.04,0.05,3.3,,,
,,65779c4bde34621ce896b77d,2024-04-16_11h06.11.187,WTP_SM_Choice,2022.2.1,Win32,11.99040767,,,,,,,,,,,,,,,,,,50,,,,,,,,,,0.05,1,3.8421,0,4,4,4,1,Playing Destiny 2 on my gaming laptop,Going to cookouts with family and friends,0.05,0.05,1.1,,,
,,65779c4bde34621ce896b77d,2024-04-16_11h06.11.187,WTP_SM_Choice,2022.2.1,Win32,11.99040767,,,,,,,1,,2,1.5,4.5,,0,49,49,49,1,50,Charlie,Rej,Participant_Images/65779c4bde34621ce896b77d/65779c4bde34621ce896b77d_Images/65779c4bde34621ce896b77d_Image_25.jpeg,did not like,3.195382774,,,,,,,,,,,,,,,,,,space,1.9902,
,,65779c4bde34621ce896b77d,2024-04-16_11h06.11.187,WTP_SM_Choice,2022.2.1,Win32,11.99040767,,,space,3.2887,space,9.1937,NAN,,NAN,1.5,4.5,,0,50,50,50,1,51,Sam,Acc,Participant_Images/65779c4bde34621ce896b77d/65779c4bde34621ce896b77d_Images/65779c4bde34621ce896b77d_Image_25.jpeg,liked,1.779333479,,,,,,,,,,,,,,,,,,,,
,,65779c4bde34621ce896b77d,2024-04-16_11h06.11.187,WTP_SM_Choice,2022.2.1,Win32,11.99040767,,,,,space,1.4662,NAN,,NAN,1.5,4.5,,0,51,51,51,1,52,Sam,Acc,Participant_Images/65779c4bde34621ce896b77d/65779c4bde34621ce896b77d_Images/65779c4bde34621ce896b77d_Image_20.jpeg,liked,4.312468682,,,,,,,,,,,,,,,,,,,,
,,65779c4bde34621ce896b77d,2024-04-16_11h06.11.187,WTP_SM_Choice,2022.2.1,Win32,11.99040767,,,,,space,5.4864,NAN,,NAN,1.5,4.5,,0,52,52,52,1,53,Sam,Acc,Participant_Images/65779c4bde34621ce896b77d/65779c4bde34621ce896b77d_Images/65779c4bde34621ce896b77d_Image_8.jpeg,liked,4.940433059,,,,,,,,,,,,,,,,,,,,
,,65779c4bde34621ce896b77d,2024-04-16_11h06.11.187,WTP_SM_Choice,2022.2.1,Win32,11.99040767,,,,,space,3.1986,NAN,,NAN,1.5,4.5,,0,53,53,53,1,54,Sam,Acc,Participant_Images/65779c4bde34621ce896b77d/65779c4bde34621ce896b77d_Images/65779c4bde34621ce896b77d_Image_9.jpeg,did not like,2.7105123,,,,,,,,,,,,,,,,,,,,
,,65779c4bde34621ce896b77d,2024-04-16_11h06.11.187,WTP_SM_Choice,2022.2.1,Win32,11.99040767,,,,,,,,,,,,,,,,,,51,,,,,,space,1.6168,space,0.3982,0.01,1,1.7529,0,0,0,0,1,Shopping online or windowshopping,Watching movies with my friends,0.01,0.01,1.1,,,
,,65779c4bde34621ce896b77d,2024-04-16_11h06.11.187,WTP_SM_Choice,2022.2.1,Win32,11.99040767,,,,,,,,,,,,,,,,,,52,,,,,,,,,,0.02,1,2.947,0,1,1,1,1,Playing Rocket League on my gaming laptop,Fishing with the homies,0.02,0.01,3.3,,,
,,65779c4bde34621ce896b77d,2024-04-16_11h06.11.187,WTP_SM_Choice,2022.2.1,Win32,11.99040767,,,,,,,,,,,,,,,,,,53,,,,,,,,,,0.03,1,1.2642,0,2,2,2,1,Playing Rocket League on my gaming laptop,Hiking with the homies,0.03,0.01,1.1,,,
,,65779c4bde34621ce896b77d,2024-04-16_11h06.11.187,WTP_SM_Choice,2022.2.1,Win32,11.99040767,,,,,,,,,,,,,,,,,,54,,,,,,,,,,0.04,1,1.8102,0,3,3,3,1,Watching movies on amazon prime,Playing Destiny 2 with my friends,0.04,0.01,4.4,,,
,,65779c4bde34621ce896b77d,2024-04-16_11h06.11.187,WTP_SM_Choice,2022.2.1,Win32,11.99040767,,,,,,,,,,,,,,,,,,55,,,,,,,,,,0.01,2,1.7202,0,4,4,4,1,Hiking in the mountains,Playing Destiny 2 with my friends,0.05,0.01,1.1,,,
,,65779c4bde34621ce896b77d,2024-04-16_11h06.11.187,WTP_SM_Choice,2022.2.1,Win32,11.99040767,,,,,,,NAN,,NAN,1.61,4.39,,0,54,54,54,1,55,Sam,Acc,Participant_Images/65779c4bde34621ce896b77d/65779c4bde34621ce896b77d_Images/65779c4bde34621ce896b77d_Image_2.jpeg,liked,3.602308302,,,,,,,,,,,,,,,,,,,,
,,65779c4bde34621ce896b77d,2024-04-16_11h06.11.187,WTP_SM_Choice,2022.2.1,Win32,11.99040767,,,,,space,1.8422,NAN,,NAN,1.61,4.39,,0,55,55,55,1,56,Sam,Acc,Participant_Images/65779c4bde34621ce896b77d/65779c4bde34621ce896b77d_Images/65779c4bde34621ce896b77d_Image_11.jpeg,liked,4.106391878,,,,,,,,,,,,,,,,,,,,
,,65779c4bde34621ce896b77d,2024-04-16_11h06.11.187,WTP_SM_Choice,2022.2.1,Win32,11.99040767,,,,,space,1.0431,NAN,,NAN,1.61,4.39,,0,56,56,56,1,57,Sam,Acc,Participant_Images/65779c4bde34621ce896b77d/65779c4bde34621ce896b77d_Images/65779c4bde34621ce896b77d_Image_13.jpeg,liked,3.799433026,,,,,,,,,,,,,,,,,,,,
,,65779c4bde34621ce896b77d,2024-04-16_11h06.11.187,WTP_SM_Choice,2022.2.1,Win32,11.99040767,,,,,space,1.0499,NAN,,NAN,1.61,4.39,,0,57,57,57,1,58,Sam,Acc,Participant_Images/65779c4bde34621ce896b77d/65779c4bde34621ce896b77d_Images/65779c4bde34621ce896b77d_Image_4.jpeg,did not like,5.246980764,,,,,,,,,,,,,,,,,,,,
,,65779c4bde34621ce896b77d,2024-04-16_11h06.11.187,WTP_SM_Choice,2022.2.1,Win32,11.99040767,,,,,space,0.9535,NAN,,NAN,1.61,4.39,,0,58,58,58,1,59,Sam,Acc,Participant_Images/65779c4bde34621ce896b77d/65779c4bde34621ce896b77d_Images/65779c4bde34621ce896b77d_Image_17.jpeg,liked,3.30081769,,,,,,,,,,,,,,,,,,,,
,,65779c4bde34621ce896b77d,2024-04-16_11h06.11.187,WTP_SM_Choice,2022.2.1,Win32,11.99040767,,,,,,,,,,,,,,,,,,56,,,,,,space,3.0565,space,0.6495,0.02,2,1.8365,0,0,0,0,1,Surfing at the beach,Playing Destiny 2 with my friends,0.01,0.02,8.8,,,
,,65779c4bde34621ce896b77d,2024-04-16_11h06.11.187,WTP_SM_Choice,2022.2.1,Win32,11.99040767,,,,,,,,,,,,,,,,,,57,,,,,,,,,,0.02,1,2.7608,0,1,1,1,1,Playing Rocket League on my gaming laptop,Camping with friends,0.02,0.02,4.4,,,
,,65779c4bde34621ce896b77d,2024-04-16_11h06.11.187,WTP_SM_Choice,2022.2.1,Win32,11.99040767,,,,,,,,,,,,,,,,,,58,,,,,,,,,,0.02,2,1.895,0,2,2,2,1,Hiking in the mountains,Watching movies with my friends,0.03,0.02,4.4,,,
,,65779c4bde34621ce896b77d,2024-04-16_11h06.11.187,WTP_SM_Choice,2022.2.1,Win32,11.99040767,,,,,,,,,,,,,,,,,,59,,,,,,,,,,0.02,2,2.5632,0,3,3,3,1,Listening to music on spotify,Going to Six flags with family and friends,0.04,0.02,4.4,,,
,,65779c4bde34621ce896b77d,2024-04-16_11h06.11.187,WTP_SM_Choice,2022.2.1,Win32,11.99040767,,,,,,,,,,,,,,,,,,60,,,,,,,,,,0.05,1,1.7343,0,4,4,4,1,Watching youtube videos,Camping with friends,0.05,0.02,1.1,,,
,,65779c4bde34621ce896b77d,2024-04-16_11h06.11.187,WTP_SM_Choice,2022.2.1,Win32,11.99040767,,,,,,,NAN,,NAN,1.74,4.26,,0,59,59,59,1,60,Sam,Acc,Participant_Images/65779c4bde34621ce896b77d/65779c4bde34621ce896b77d_Images/65779c4bde34621ce896b77d_Image_10.jpeg,liked,1.661473164,,,,,,,,,,,,,,,,,,,,
,,65779c4bde34621ce896b77d,2024-04-16_11h06.11.187,WTP_SM_Choice,2022.2.1,Win32,11.99040767,,,,,space,15.5856,NAN,,NAN,1.74,4.26,,0,60,60,60,1,61,Sam,Acc,Participant_Images/65779c4bde34621ce896b77d/65779c4bde34621ce896b77d_Images/65779c4bde34621ce896b77d_Image_7.jpeg,liked,3.613205605,,,,,,,,,,,,,,,,,,,,
,,65779c4bde34621ce896b77d,2024-04-16_11h06.11.187,WTP_SM_Choice,2022.2.1,Win32,11.99040767,,,,,space,0.5798,NAN,,NAN,1.74,4.26,,0,61,61,61,1,62,Sam,Acc,Participant_Images/65779c4bde34621ce896b77d/65779c4bde34621ce896b77d_Images/65779c4bde34621ce896b77d_Image_3.jpeg,did not like,4.988446431,,,,,,,,,,,,,,,,,,,,
,,65779c4bde34621ce896b77d,2024-04-16_11h06.11.187,WTP_SM_Choice,2022.2.1,Win32,11.99040767,,,,,space,2.1035,NAN,,NAN,1.74,4.26,,0,62,62,62,1,63,Sam,Acc,Participant_Images/65779c4bde34621ce896b77d/65779c4bde34621ce896b77d_Images/65779c4bde34621ce896b77d_Image_18.jpeg,liked,3.470791822,,,,,,,,,,,,,,,,,,,,
,,65779c4bde34621ce896b77d,2024-04-16_11h06.11.187,WTP_SM_Choice,2022.2.1,Win32,11.99040767,,,,,space,2.476,NAN,,NAN,1.74,4.26,,0,63,63,63,1,64,Sam,Acc,Participant_Images/65779c4bde34621ce896b77d/65779c4bde34621ce896b77d_Images/65779c4bde34621ce896b77d_Image_22.jpeg,liked,3.820572462,,,,,,,,,,,,,,,,,,,,
,,65779c4bde34621ce896b77d,2024-04-16_11h06.11.187,WTP_SM_Choice,2022.2.1,Win32,11.99040767,,,,,,,,,,,,,,,,,,61,,,,,,space,1.2399,space,9.6516,0.01,1,2.5626,0,0,0,0,1,Playing Destiny 2 on my gaming laptop,Playing Destiny 2 with my friends,0.01,0.03,3.3,,,
,,65779c4bde34621ce896b77d,2024-04-16_11h06.11.187,WTP_SM_Choice,2022.2.1,Win32,11.99040767,,,,,,,,,,,,,,,,,,62,,,,,,,,,,0.02,1,2.8805,0,1,1,1,1,Playing Rocket League on my gaming laptop,Playing Destiny 2 with my friends,0.02,0.03,3.3,,,
,,65779c4bde34621ce896b77d,2024-04-16_11h06.11.187,WTP_SM_Choice,2022.2.1,Win32,11.99040767,,,,,,,,,,,,,,,,,,63,,,,,,,,,,0.03,1,2.9927,0,2,2,2,1,Surfing at the beach,Camping with friends,0.03,0.03,3.3,,,
,,65779c4bde34621ce896b77d,2024-04-16_11h06.11.187,WTP_SM_Choice,2022.2.1,Win32,11.99040767,,,,,,,,,,,,,,,,,,64,,,,,,,,,,0.04,1,6.7204,0,3,3,3,1,Playing Rocket League on my gaming laptop,Going to concerts with my friends,0.04,0.03,1.1,,,
,,65779c4bde34621ce896b77d,2024-04-16_11h06.11.187,WTP_SM_Choice,2022.2.1,Win32,11.99040767,,,,,,,,,,,,,,,,,,65,,,,,,,,,,0.03,2,2.2802,0,4,4,4,1,Going for bike rides on the harbor,Watching movies with my friends,0.05,0.03,1.1,,,
,,65779c4bde34621ce896b77d,2024-04-16_11h06.11.187,WTP_SM_Choice,2022.2.1,Win32,11.99040767,,,,,,,NAN,,NAN,1.87,4.13,,0,64,64,64,1,65,Sam,Acc,Participant_Images/65779c4bde34621ce896b77d/65779c4bde34621ce896b77d_Images/65779c4bde34621ce896b77d_Image_23.jpeg,did not like,2.455989137,,,,,,,,,,,,,,,,,,,,
,,65779c4bde34621ce896b77d,2024-04-16_11h06.11.187,WTP_SM_Choice,2022.2.1,Win32,11.99040767,,,,,space,1.2288,NAN,,NAN,1.87,4.13,,0,65,65,65,1,66,Sam,Acc,Participant_Images/65779c4bde34621ce896b77d/65779c4bde34621ce896b77d_Images/65779c4bde34621ce896b77d_Image_14.jpeg,liked,3.79605092,,,,,,,,,,,,,,,,,,,,
,,65779c4bde34621ce896b77d,2024-04-16_11h06.11.187,WTP_SM_Choice,2022.2.1,Win32,11.99040767,,,,,space,1.3928,NAN,,NAN,1.87,4.13,,0,66,66,66,1,67,Sam,Acc,Participant_Images/65779c4bde34621ce896b77d/65779c4bde34621ce896b77d_Images/65779c4bde34621ce896b77d_Image_21.jpeg,did not like,3.562416326,,,,,,,,,,,,,,,,,,,,
,,65779c4bde34621ce896b77d,2024-04-16_11h06.11.187,WTP_SM_Choice,2022.2.1,Win32,11.99040767,,,,,space,0.8589,NAN,,NAN,1.87,4.13,,0,67,67,67,1,68,Sam,Acc,Participant_Images/65779c4bde34621ce896b77d/65779c4bde34621ce896b77d_Images/65779c4bde34621ce896b77d_Image_5.jpeg,liked,2.843822497,,,,,,,,,,,,,,,,,,,,
,,65779c4bde34621ce896b77d,2024-04-16_11h06.11.187,WTP_SM_Choice,2022.2.1,Win32,11.99040767,,,,,space,3.5035,NAN,,NAN,1.87,4.13,,0,68,68,68,1,69,Sam,Acc,Participant_Images/65779c4bde34621ce896b77d/65779c4bde34621ce896b77d_Images/65779c4bde34621ce896b77d_Image_12.jpeg,liked,3.546495948,,,,,,,,,,,,,,,,,,,,
,,65779c4bde34621ce896b77d,2024-04-16_11h06.11.187,WTP_SM_Choice,2022.2.1,Win32,11.99040767,,,,,,,,,,,,,,,,,,66,,,,,,space,0.8146,space,0.5634,0.04,2,2.0141,0,0,0,0,1,Hiking in the mountains,Going to cookouts with family and friends,0.01,0.04,1.1,,,
,,65779c4bde34621ce896b77d,2024-04-16_11h06.11.187,WTP_SM_Choice,2022.2.1,Win32,11.99040767,,,,,,,,,,,,,,,,,,67,,,,,,,,,,0.02,1,1.9471,0,1,1,1,1,Playing Destiny 2 on my gaming laptop,Fishing with the homies,0.02,0.04,8.8,,,
,,65779c4bde34621ce896b77d,2024-04-16_11h06.11.187,WTP_SM_Choice,2022.2.1,Win32,11.99040767,,,,,,,,,,,,,,,,,,68,,,,,,,,,,0.03,1,5.0594,0,2,2,2,1,Watching youtube videos,Going to the beach with friends and family,0.03,0.04,4.4,,,
,,65779c4bde34621ce896b77d,2024-04-16_11h06.11.187,WTP_SM_Choice,2022.2.1,Win32,11.99040767,,,,,,,,,,,,,,,,,,69,,,,,,,,,,0.04,1,5.0354,0,3,3,3,1,Watching movies on amazon prime,Watching movies with my friends,0.04,0.04,1.1,,,
,,65779c4bde34621ce896b77d,2024-04-16_11h06.11.187,WTP_SM_Choice,2022.2.1,Win32,11.99040767,,,,,,,,,,,,,,,,,,70,,,,,,,,,,0.05,1,6.7743,0,4,4,4,1,Playing Destiny 2 on my gaming laptop,Going to Six flags with family and friends,0.05,0.04,1.1,,,
,,65779c4bde34621ce896b77d,2024-04-16_11h06.11.187,WTP_SM_Choice,2022.2.1,Win32,11.99040767,,,,,,,NAN,,NAN,2.05,3.95,,0,69,69,69,1,70,Sam,Acc,Participant_Images/65779c4bde34621ce896b77d/65779c4bde34621ce896b77d_Images/65779c4bde34621ce896b77d_Image_15.jpeg,did not like,1.672012706,,,,,,,,,,,,,,,,,,,,
,,65779c4bde34621ce896b77d,2024-04-16_11h06.11.187,WTP_SM_Choice,2022.2.1,Win32,11.99040767,,,,,space,1.3983,NAN,,NAN,2.05,3.95,,0,70,70,70,1,71,Sam,Acc,Participant_Images/65779c4bde34621ce896b77d/65779c4bde34621ce896b77d_Images/65779c4bde34621ce896b77d_Image_16.jpeg,liked,4.942172136,,,,,,,,,,,,,,,,,,,,
,,65779c4bde34621ce896b77d,2024-04-16_11h06.11.187,WTP_SM_Choice,2022.2.1,Win32,11.99040767,,,,,space,2.6079,NAN,,NAN,2.05,3.95,,0,71,71,71,1,72,Sam,Acc,Participant_Images/65779c4bde34621ce896b77d/65779c4bde34621ce896b77d_Images/65779c4bde34621ce896b77d_Image_19.jpeg,liked,2.50187214,,,,,,,,,,,,,,,,,,,,
,,65779c4bde34621ce896b77d,2024-04-16_11h06.11.187,WTP_SM_Choice,2022.2.1,Win32,11.99040767,,,,,space,2.6749,NAN,,NAN,2.05,3.95,,0,72,72,72,1,73,Sam,Acc,Participant_Images/65779c4bde34621ce896b77d/65779c4bde34621ce896b77d_Images/65779c4bde34621ce896b77d_Image_1.jpeg,did not like,2.071164779,,,,,,,,,,,,,,,,,,,,
,,65779c4bde34621ce896b77d,2024-04-16_11h06.11.187,WTP_SM_Choice,2022.2.1,Win32,11.99040767,,,,,space,0.7471,NAN,,NAN,2.05,3.95,,0,73,73,73,1,74,Sam,Acc,Participant_Images/65779c4bde34621ce896b77d/65779c4bde34621ce896b77d_Images/65779c4bde34621ce896b77d_Image_6.jpeg,liked,5.336503566,,,,,,,,,,,,,,,,,,,,
,,65779c4bde34621ce896b77d,2024-04-16_11h06.11.187,WTP_SM_Choice,2022.2.1,Win32,11.99040767,,,,,,,,,,,,,,,,,,71,,,,,,space,0.8468,space,0.6169,0.05,2,1.8086,0,0,0,0,1,Hiking in the mountains,Fishing with the homies,0.01,0.05,3.3,,,
,,65779c4bde34621ce896b77d,2024-04-16_11h06.11.187,WTP_SM_Choice,2022.2.1,Win32,11.99040767,,,,,,,,,,,,,,,,,,72,,,,,,,,,,0.02,1,3.1343,0,1,1,1,1,Hiking in the mountains,Going to Six flags with family and friends,0.02,0.05,8.8,,,
,,65779c4bde34621ce896b77d,2024-04-16_11h06.11.187,WTP_SM_Choice,2022.2.1,Win32,11.99040767,,,,,,,,,,,,,,,,,,73,,,,,,,,,,0.03,1,2.9948,0,2,2,2,1,Going for bike rides on the harbor,Camping with friends,0.03,0.05,3.3,,,
,,65779c4bde34621ce896b77d,2024-04-16_11h06.11.187,WTP_SM_Choice,2022.2.1,Win32,11.99040767,,,,,,,,,,,,,,,,,,74,,,,,,,,,,0.04,1,3.0203,0,3,3,3,1,Surfing at the beach,Going to concerts with my friends,0.04,0.05,4.4,,,
,,65779c4bde34621ce896b77d,2024-04-16_11h06.11.187,WTP_SM_Choice,2022.2.1,Win32,11.99040767,,,,,,,,,,,,,,,,,,75,,,,,,,,,,0.05,1,2.8238,0,4,4,4,1,Playing Destiny 2 on my gaming laptop,Camping with friends,0.05,0.05,3.3,,,
,,65779c4bde34621ce896b77d,2024-04-16_11h06.11.187,WTP_SM_Choice,2022.2.1,Win32,11.99040767,,,,,,,4,,8,2.24,3.76,,0,74,74,74,1,75,Sam,Acc,Participant_Images/65779c4bde34621ce896b77d/65779c4bde34621ce896b77d_Images/65779c4bde34621ce896b77d_Image_24.jpeg,liked,2.642157193,,,,,,,,,,,,,,,,,,space,1.2254,
,,65779c4bde34621ce896b77d,2024-04-16_11h06.11.187,WTP_SM_Choice,2022.2.1,Win32,11.99040767,,,space,3.2646,space,0.8152,NAN,,NAN,2.24,3.76,,0,75,75,75,1,76,Riley,Acc,Participant_Images/65779c4bde34621ce896b77d/65779c4bde34621ce896b77d_Images/65779c4bde34621ce896b77d_Image_3.jpeg,liked,4.456234322,,,,,,,,,,,,,,,,,,,,
,,65779c4bde34621ce896b77d,2024-04-16_11h06.11.187,WTP_SM_Choice,2022.2.1,Win32,11.99040767,,,,,space,5.2297,NAN,,NAN,2.24,3.76,,0,76,76,76,1,77,Riley,Acc,Participant_Images/65779c4bde34621ce896b77d/65779c4bde34621ce896b77d_Images/65779c4bde34621ce896b77d_Image_22.jpeg,liked,4.438512181,,,,,,,,,,,,,,,,,,,,
,,65779c4bde34621ce896b77d,2024-04-16_11h06.11.187,WTP_SM_Choice,2022.2.1,Win32,11.99040767,,,,,space,4.9396,NAN,,NAN,2.24,3.76,,0,77,77,77,1,78,Riley,Acc,Participant_Images/65779c4bde34621ce896b77d/65779c4bde34621ce896b77d_Images/65779c4bde34621ce896b77d_Image_16.jpeg,did not like,2.682944783,,,,,,,,,,,,,,,,,,,,
,,65779c4bde34621ce896b77d,2024-04-16_11h06.11.187,WTP_SM_Choice,2022.2.1,Win32,11.99040767,,,,,space,5.4948,NAN,,NAN,2.24,3.76,,0,78,78,78,1,79,Riley,Acc,Participant_Images/65779c4bde34621ce896b77d/65779c4bde34621ce896b77d_Images/65779c4bde34621ce896b77d_Image_5.jpeg,liked,4.51984296,,,,,,,,,,,,,,,,,,,,
,,65779c4bde34621ce896b77d,2024-04-16_11h06.11.187,WTP_SM_Choice,2022.2.1,Win32,11.99040767,,,,,,,,,,,,,,,,,,76,,,,,,space,1.6739,space,0.514,0.01,1,1.7248,0,0,0,0,1,Shopping online or windowshopping,Going to Six flags with family and friends,0.01,0.01,1.1,,,
,,65779c4bde34621ce896b77d,2024-04-16_11h06.11.187,WTP_SM_Choice,2022.2.1,Win32,11.99040767,,,,,,,,,,,,,,,,,,77,,,,,,,,,,0.02,1,1.7319,0,1,1,1,1,Going for bike rides on the harbor,Hiking with the homies,0.02,0.01,8.8,,,
,,65779c4bde34621ce896b77d,2024-04-16_11h06.11.187,WTP_SM_Choice,2022.2.1,Win32,11.99040767,,,,,,,,,,,,,,,,,,78,,,,,,,,,,0.01,2,2.4153,0,2,2,2,1,Going to Disney Land in Anaheim,Going to cookouts with family and friends,0.03,0.01,1.1,,,
,,65779c4bde34621ce896b77d,2024-04-16_11h06.11.187,WTP_SM_Choice,2022.2.1,Win32,11.99040767,,,,,,,,,,,,,,,,,,79,,,,,,,,,,0.04,1,1.2088,0,3,3,3,1,Shopping online or windowshopping,Going to cookouts with family and friends,0.04,0.01,1.1,,,
,,65779c4bde34621ce896b77d,2024-04-16_11h06.11.187,WTP_SM_Choice,2022.2.1,Win32,11.99040767,,,,,,,,,,,,,,,,,,80,,,,,,,,,,0.05,1,1.7362,0,4,4,4,1,Shopping online or windowshopping,Hiking with the homies,0.05,0.01,4.4,,,
,,65779c4bde34621ce896b77d,2024-04-16_11h06.11.187,WTP_SM_Choice,2022.2.1,Win32,11.99040767,,,,,,,NAN,,NAN,2.37,3.63,,0,79,79,79,1,80,Riley,Acc,Participant_Images/65779c4bde34621ce896b77d/65779c4bde34621ce896b77d_Images/65779c4bde34621ce896b77d_Image_9.jpeg,did not like,3.195382774,,,,,,,,,,,,,,,,,,,,
,,65779c4bde34621ce896b77d,2024-04-16_11h06.11.187,WTP_SM_Choice,2022.2.1,Win32,11.99040767,,,,,space,1.0402,NAN,,NAN,2.37,3.63,,0,80,80,80,1,81,Riley,Acc,Participant_Images/65779c4bde34621ce896b77d/65779c4bde34621ce896b77d_Images/65779c4bde34621ce896b77d_Image_1.jpeg,liked,1.779333479,,,,,,,,,,,,,,,,,,,,
,,65779c4bde34621ce896b77d,2024-04-16_11h06.11.187,WTP_SM_Choice,2022.2.1,Win32,11.99040767,,,,,space,1.4904,NAN,,NAN,2.37,3.63,,0,81,81,81,1,82,Riley,Acc,Participant_Images/65779c4bde34621ce896b77d/65779c4bde34621ce896b77d_Images/65779c4bde34621ce896b77d_Image_8.jpeg,did not like,4.312468682,,,,,,,,,,,,,,,,,,,,
,,65779c4bde34621ce896b77d,2024-04-16_11h06.11.187,WTP_SM_Choice,2022.2.1,Win32,11.99040767,,,,,space,1.6603,NAN,,NAN,2.37,3.63,,0,82,82,82,1,83,Riley,Acc,Participant_Images/65779c4bde34621ce896b77d/65779c4bde34621ce896b77d_Images/65779c4bde34621ce896b77d_Image_12.jpeg,liked,4.940433059,,,,,,,,,,,,,,,,,,,,
,,65779c4bde34621ce896b77d,2024-04-16_11h06.11.187,WTP_SM_Choice,2022.2.1,Win32,11.99040767,,,,,space,0.8721,NAN,,NAN,2.37,3.63,,0,83,83,83,1,84,Riley,Acc,Participant_Images/65779c4bde34621ce896b77d/65779c4bde34621ce896b77d_Images/65779c4bde34621ce896b77d_Image_7.jpeg,liked,2.7105123,,,,,,,,,,,,,,,,,,,,
,,65779c4bde34621ce896b77d,2024-04-16_11h06.11.187,WTP_SM_Choice,2022.2.1,Win32,11.99040767,,,,,,,,,,,,,,,,,,81,,,,,,space,0.941,space,0.595,0.02,2,3.6875,0,0,0,0,1,Going to Disney Land in Anaheim,Going to the beach with friends and family,0.01,0.02,3.3,,,
,,65779c4bde34621ce896b77d,2024-04-16_11h06.11.187,WTP_SM_Choice,2022.2.1,Win32,11.99040767,,,,,,,,,,,,,,,,,,82,,,,,,,,,,0.02,1,3.3744,0,1,1,1,1,Playing Destiny 2 on my gaming laptop,Watching movies with my friends,0.02,0.02,4.4,,,
,,65779c4bde34621ce896b77d,2024-04-16_11h06.11.187,WTP_SM_Choice,2022.2.1,Win32,11.99040767,,,,,,,,,,,,,,,,,,83,,,,,,,,,,0.03,1,2.1963,0,2,2,2,1,Watching youtube videos,Playing Destiny 2 with my friends,0.03,0.02,1.1,,,
,,65779c4bde34621ce896b77d,2024-04-16_11h06.11.187,WTP_SM_Choice,2022.2.1,Win32,11.99040767,,,,,,,,,,,,,,,,,,84,,,,,,,,,,0.04,1,1.1547,0,3,3,3,1,Playing Destiny 2 on my gaming laptop,Hiking with the homies,0.04,0.02,3.3,,,
,,65779c4bde34621ce896b77d,2024-04-16_11h06.11.187,WTP_SM_Choice,2022.2.1,Win32,11.99040767,,,,,,,,,,,,,,,,,,85,,,,,,,,,,0.05,1,5.2853,0,4,4,4,1,Going for bike rides on the harbor,Going to cookouts with family and friends,0.05,0.02,3.3,,,
,,65779c4bde34621ce896b77d,2024-04-16_11h06.11.187,WTP_SM_Choice,2022.2.1,Win32,11.99040767,,,,,,,NAN,,NAN,2.53,3.47,,0,84,84,84,1,85,Riley,Acc,Participant_Images/65779c4bde34621ce896b77d/65779c4bde34621ce896b77d_Images/65779c4bde34621ce896b77d_Image_2.jpeg,did not like,3.602308302,,,,,,,,,,,,,,,,,,,,
,,65779c4bde34621ce896b77d,2024-04-16_11h06.11.187,WTP_SM_Choice,2022.2.1,Win32,11.99040767,,,,,space,1.5369,NAN,,NAN,2.53,3.47,,0,85,85,85,1,86,Riley,Acc,Participant_Images/65779c4bde34621ce896b77d/65779c4bde34621ce896b77d_Images/65779c4bde34621ce896b77d_Image_19.jpeg,liked,4.106391878,,,,,,,,,,,,,,,,,,,,
,,65779c4bde34621ce896b77d,2024-04-16_11h06.11.187,WTP_SM_Choice,2022.2.1,Win32,11.99040767,,,,,space,1.7726,NAN,,NAN,2.53,3.47,,0,86,86,86,1,87,Riley,Acc,Participant_Images/65779c4bde34621ce896b77d/65779c4bde34621ce896b77d_Images/65779c4bde34621ce896b77d_Image_14.jpeg,did not like,3.799433026,,,,,,,,,,,,,,,,,,,,
,,65779c4bde34621ce896b77d,2024-04-16_11h06.11.187,WTP_SM_Choice,2022.2.1,Win32,11.99040767,,,,,space,1.1412,NAN,,NAN,2.53,3.47,,0,87,87,87,1,88,Riley,Acc,Participant_Images/65779c4bde34621ce896b77d/65779c4bde34621ce896b77d_Images/65779c4bde34621ce896b77d_Image_18.jpeg,liked,5.246980764,,,,,,,,,,,,,,,,,,,,
,,65779c4bde34621ce896b77d,2024-04-16_11h06.11.187,WTP_SM_Choice,2022.2.1,Win32,11.99040767,,,,,space,0.7741,NAN,,NAN,2.53,3.47,,0,88,88,88,1,89,Riley,Acc,Participant_Images/65779c4bde34621ce896b77d/65779c4bde34621ce896b77d_Images/65779c4bde34621ce896b77d_Image_10.jpeg,liked,3.30081769,,,,,,,,,,,,,,,,,,,,
,,65779c4bde34621ce896b77d,2024-04-16_11h06.11.187,WTP_SM_Choice,2022.2.1,Win32,11.99040767,,,,,,,,,,,,,,,,,,86,,,,,,space,1.3691,space,0.5918,0.03,2,1.6254,0,0,0,0,1,Going to Disney Land in Anaheim,Fishing with the homies,0.01,0.03,1.1,,,
,,65779c4bde34621ce896b77d,2024-04-16_11h06.11.187,WTP_SM_Choice,2022.2.1,Win32,11.99040767,,,,,,,,,,,,,,,,,,87,,,,,,,,,,0.02,1,1.9927,0,1,1,1,1,Listening to music on spotify,Playing Rocket League with my friends,0.02,0.03,4.4,,,
,,65779c4bde34621ce896b77d,2024-04-16_11h06.11.187,WTP_SM_Choice,2022.2.1,Win32,11.99040767,,,,,,,,,,,,,,,,,,88,,,,,,,,,,0.03,1,1.2302,0,2,2,2,1,Watching movies on amazon prime,Camping with friends,0.03,0.03,1.1,,,
,,65779c4bde34621ce896b77d,2024-04-16_11h06.11.187,WTP_SM_Choice,2022.2.1,Win32,11.99040767,,,,,,,,,,,,,,,,,,89,,,,,,,,,,0.04,1,1.9866,0,3,3,3,1,Watching movies on amazon prime,Going to Six flags with family and friends,0.04,0.03,3.3,,,
,,65779c4bde34621ce896b77d,2024-04-16_11h06.11.187,WTP_SM_Choice,2022.2.1,Win32,11.99040767,,,,,,,,,,,,,,,,,,90,,,,,,,,,,0.03,2,2.3469,0,4,4,4,1,Surfing at the beach,Going to the beach with friends and family,0.05,0.03,8.8,,,
,,65779c4bde34621ce896b77d,2024-04-16_11h06.11.187,WTP_SM_Choice,2022.2.1,Win32,11.99040767,,,,,,,NAN,,NAN,2.68,3.32,,0,89,89,89,1,90,Riley,Acc,Participant_Images/65779c4bde34621ce896b77d/65779c4bde34621ce896b77d_Images/65779c4bde34621ce896b77d_Image_13.jpeg,did not like,1.661473164,,,,,,,,,,,,,,,,,,,,
,,65779c4bde34621ce896b77d,2024-04-16_11h06.11.187,WTP_SM_Choice,2022.2.1,Win32,11.99040767,,,,,space,0.8468,NAN,,NAN,2.68,3.32,,0,90,90,90,1,91,Riley,Acc,Participant_Images/65779c4bde34621ce896b77d/65779c4bde34621ce896b77d_Images/65779c4bde34621ce896b77d_Image_23.jpeg,liked,3.613205605,,,,,,,,,,,,,,,,,,,,
,,65779c4bde34621ce896b77d,2024-04-16_11h06.11.187,WTP_SM_Choice,2022.2.1,Win32,11.99040767,,,,,space,0.9302,NAN,,NAN,2.68,3.32,,0,91,91,91,1,92,Riley,Acc,Participant_Images/65779c4bde34621ce896b77d/65779c4bde34621ce896b77d_Images/65779c4bde34621ce896b77d_Image_21.jpeg,liked,4.988446431,,,,,,,,,,,,,,,,,,,,
,,65779c4bde34621ce896b77d,2024-04-16_11h06.11.187,WTP_SM_Choice,2022.2.1,Win32,11.99040767,,,,,space,1.0582,NAN,,NAN,2.68,3.32,,0,92,92,92,1,93,Riley,Acc,Participant_Images/65779c4bde34621ce896b77d/65779c4bde34621ce896b77d_Images/65779c4bde34621ce896b77d_Image_25.jpeg,liked,3.470791822,,,,,,,,,,,,,,,,,,,,
,,65779c4bde34621ce896b77d,2024-04-16_11h06.11.187,WTP_SM_Choice,2022.2.1,Win32,11.99040767,,,,,space,1.322,NAN,,NAN,2.68,3.32,,0,93,93,93,1,94,Riley,Acc,Participant_Images/65779c4bde34621ce896b77d/65779c4bde34621ce896b77d_Images/65779c4bde34621ce896b77d_Image_6.jpeg,liked,3.820572462,,,,,,,,,,,,,,,,,,,,
,,65779c4bde34621ce896b77d,2024-04-16_11h06.11.187,WTP_SM_Choice,2022.2.1,Win32,11.99040767,,,,,,,,,,,,,,,,,,91,,,,,,space,1.2317,space,1.3968,0.01,1,1.8141,0,0,0,0,1,Watching youtube videos,Going to cookouts with family and friends,0.01,0.04,3.3,,,
,,65779c4bde34621ce896b77d,2024-04-16_11h06.11.187,WTP_SM_Choice,2022.2.1,Win32,11.99040767,,,,,,,,,,,,,,,,,,92,,,,,,,,,,0.02,1,5.0058,0,1,1,1,1,Going for bike rides on the harbor,Going to the beach with friends and family,0.02,0.04,8.8,,,
,,65779c4bde34621ce896b77d,2024-04-16_11h06.11.187,WTP_SM_Choice,2022.2.1,Win32,11.99040767,,,,,,,,,,,,,,,,,,93,,,,,,,,,,0.04,2,2.7742,0,2,2,2,1,Going for bike rides on the harbor,Playing Destiny 2 with my friends,0.03,0.04,1.1,,,
,,65779c4bde34621ce896b77d,2024-04-16_11h06.11.187,WTP_SM_Choice,2022.2.1,Win32,11.99040767,,,,,,,,,,,,,,,,,,94,,,,,,,,,,0.04,1,1.3891,0,3,3,3,1,Watching youtube videos,Fishing with the homies,0.04,0.04,4.4,,,
,,65779c4bde34621ce896b77d,2024-04-16_11h06.11.187,WTP_SM_Choice,2022.2.1,Win32,11.99040767,,,,,,,,,,,,,,,,,,95,,,,,,,,,,0.05,1,0.9861,0,4,4,4,1,Hiking in the mountains,Camping with friends,0.05,0.04,4.4,,,
,,65779c4bde34621ce896b77d,2024-04-16_11h06.11.187,WTP_SM_Choice,2022.2.1,Win32,11.99040767,,,,,,,NAN,,NAN,2.84,3.16,,0,94,94,94,1,95,Riley,Acc,Participant_Images/65779c4bde34621ce896b77d/65779c4bde34621ce896b77d_Images/65779c4bde34621ce896b77d_Image_11.jpeg,liked,2.455989137,,,,,,,,,,,,,,,,,,,,
,,65779c4bde34621ce896b77d,2024-04-16_11h06.11.187,WTP_SM_Choice,2022.2.1,Win32,11.99040767,,,,,space,1.1546,NAN,,NAN,2.84,3.16,,0,95,95,95,1,96,Riley,Acc,Participant_Images/65779c4bde34621ce896b77d/65779c4bde34621ce896b77d_Images/65779c4bde34621ce896b77d_Image_4.jpeg,liked,3.79605092,,,,,,,,,,,,,,,,,,,,
,,65779c4bde34621ce896b77d,2024-04-16_11h06.11.187,WTP_SM_Choice,2022.2.1,Win32,11.99040767,,,,,space,0.9146,NAN,,NAN,2.84,3.16,,0,96,96,96,1,97,Riley,Acc,Participant_Images/65779c4bde34621ce896b77d/65779c4bde34621ce896b77d_Images/65779c4bde34621ce896b77d_Image_15.jpeg,did not like,3.562416326,,,,,,,,,,,,,,,,,,,,
,,65779c4bde34621ce896b77d,2024-04-16_11h06.11.187,WTP_SM_Choice,2022.2.1,Win32,11.99040767,,,,,space,0.7038,NAN,,NAN,2.84,3.16,,0,97,97,97,1,98,Riley,Acc,Participant_Images/65779c4bde34621ce896b77d/65779c4bde34621ce896b77d_Images/65779c4bde34621ce896b77d_Image_17.jpeg,liked,2.843822497,,,,,,,,,,,,,,,,,,,,
,,65779c4bde34621ce896b77d,2024-04-16_11h06.11.187,WTP_SM_Choice,2022.2.1,Win32,11.99040767,,,,,space,0.6924,NAN,,NAN,2.84,3.16,,0,98,98,98,1,99,Riley,Acc,Participant_Images/65779c4bde34621ce896b77d/65779c4bde34621ce896b77d_Images/65779c4bde34621ce896b77d_Image_24.jpeg,liked,3.546495948,,,,,,,,,,,,,,,,,,,,
,,65779c4bde34621ce896b77d,2024-04-16_11h06.11.187,WTP_SM_Choice,2022.2.1,Win32,11.99040767,,,,,,,,,,,,,,,,,,96,,,,,,space,1.2664,space,0.6735,0.05,2,2.0216,0,0,0,0,1,Watching youtube videos,Playing Rocket League with my friends,0.01,0.05,3.3,,,
,,65779c4bde34621ce896b77d,2024-04-16_11h06.11.187,WTP_SM_Choice,2022.2.1,Win32,11.99040767,,,,,,,,,,,,,,,,,,97,,,,,,,,,,,,,0,1,1,1,1,Playing Destiny 2 on my gaming laptop,Going to concerts with my friends,0.02,0.05,1.1,,,
,,65779c4bde34621ce896b77d,2024-04-16_11h06.11.187,WTP_SM_Choice,2022.2.1,Win32,11.99040767,,,,,,,,,,,,,,,,,,98,,,,,,,,,,0.03,1,1.9779,0,2,2,2,1,Shopping online or windowshopping,Playing Rocket League with my friends,0.03,0.05,1.1,,,
,,65779c4bde34621ce896b77d,2024-04-16_11h06.11.187,WTP_SM_Choice,2022.2.1,Win32,11.99040767,,,,,,,,,,,,,,,,,,99,,,,,,,,,,0.04,1,1.1675,0,3,3,3,1,Going to Disney Land in Anaheim,Hiking with the homies,0.04,0.05,3.3,,,
,,65779c4bde34621ce896b77d,2024-04-16_11h06.11.187,WTP_SM_Choice,2022.2.1,Win32,11.99040767,,,,,,,,,,,,,,,,,,100,,,,,,,,,,,,,0,4,4,4,1,Playing Rocket League on my gaming laptop,Going to the beach with friends and family,0.05,0.05,4.4,,,
,,65779c4bde34621ce896b77d,2024-04-16_11h06.11.187,WTP_SM_Choice,2022.2.1,Win32,11.99040767,,,,,,,3,space,9,2.96,3.04,,0,99,99,99,1,100,Riley,Acc,Participant_Images/65779c4bde34621ce896b77d/65779c4bde34621ce896b77d_Images/65779c4bde34621ce896b77d_Image_20.jpeg,liked,1.672012706,,,,,,,,,,,,,,,,,,space,0.948,2.6472
