endwelcomescreen_keys.keys,endwelcomescreen_keys.rt,participant,STUDY_ID,SESSION_ID,date,expName,psychopyVersion,OS,frameRate,endinstructionscreen_keys.keys,endinstructionscreen_keys.rt,endpartnermatch_keys.keys,endpartnermatch_keys.rt,sharenextphoto_key.keys,sharenextphoto_key.rt,salience_rating,key_resp.keys,stress_level,subtract_bonus,TOTAL_TASK_BONUS,stresslevel_keypress.keys,entiretaskloop.thisRepN,entiretaskloop.thisTrialN,entiretaskloop.thisN,entiretaskloop.thisIndex,entiretaskloop.ran,TrialNumber,Partner,Condition,Photos,Feedback,FeedbackWait,WTP_ins_keys1.keys,WTP_ins_keys1.rt,WTP_ins_keys2.keys,WTP_ins_keys2.rt,decision_price,responses.keys,responses.rt,WTPTaskLoop.thisRepN,WTPTaskLoop.thisTrialN,WTPTaskLoop.thisN,WTPTaskLoop.thisIndex,WTPTaskLoop.ran,right,left,leftmoney,rightmoney,WTP_ITI,social_left,Resume_keys.keys,Resume_keys.rt,end_screen_keys.keys,end_screen_keys.rt
space,3.3141,659cc63ff59c72a20e2b7688,6685aa9113c938e83b4f1ea0,6723939b6ee84684a13e5bb0,2024-10-31_10h27.26.996,WTP_SM_Choice,2022.2.1,MacIntel,58.82352941,,,,,,,,,,,,,,,,,,,,,,,,,,,,,,,,,,,,,,,,,,,,,
,,659cc63ff59c72a20e2b7688,6685aa9113c938e83b4f1ea0,6723939b6ee84684a13e5bb0,2024-10-31_10h27.26.996,WTP_SM_Choice,2022.2.1,MacIntel,58.82352941,space,2.5507,,,,,,,,,,,,,,,,,,,,,,,,,,,,,,,,,,,,,,,,,,,
,,659cc63ff59c72a20e2b7688,6685aa9113c938e83b4f1ea0,6723939b6ee84684a13e5bb0,2024-10-31_10h27.26.996,WTP_SM_Choice,2022.2.1,MacIntel,58.82352941,,,space,1.5267,space,1.5312,NAN,,NAN,0,6,,0,0,0,0,1,1,Sam,Rej,Participant_Images/659cc63ff59c72a20e2b7688/659cc63ff59c72a20e2b7688_Images/659cc63ff59c72a20e2b7688_Image_16.jpeg,did not like,3.613205605,,,,,,,,,,,,,,,,,,,,,,
,,659cc63ff59c72a20e2b7688,6685aa9113c938e83b4f1ea0,6723939b6ee84684a13e5bb0,2024-10-31_10h27.26.996,WTP_SM_Choice,2022.2.1,MacIntel,58.82352941,,,,,space,0.8151,NAN,,NAN,0,6,,0,1,1,1,1,2,Sam,Rej,Participant_Images/659cc63ff59c72a20e2b7688/659cc63ff59c72a20e2b7688_Images/659cc63ff59c72a20e2b7688_Image_3.jpeg,did not like,4.988446431,,,,,,,,,,,,,,,,,,,,,,
,,659cc63ff59c72a20e2b7688,6685aa9113c938e83b4f1ea0,6723939b6ee84684a13e5bb0,2024-10-31_10h27.26.996,WTP_SM_Choice,2022.2.1,MacIntel,58.82352941,,,,,space,0.3351,NAN,,NAN,0,6,,0,2,2,2,1,3,Sam,Rej,Participant_Images/659cc63ff59c72a20e2b7688/659cc63ff59c72a20e2b7688_Images/659cc63ff59c72a20e2b7688_Image_11.jpeg,liked,3.470791822,,,,,,,,,,,,,,,,,,,,,,
,,659cc63ff59c72a20e2b7688,6685aa9113c938e83b4f1ea0,6723939b6ee84684a13e5bb0,2024-10-31_10h27.26.996,WTP_SM_Choice,2022.2.1,MacIntel,58.82352941,,,,,space,0.4705,NAN,,NAN,0,6,,0,3,3,3,1,4,Sam,Rej,Participant_Images/659cc63ff59c72a20e2b7688/659cc63ff59c72a20e2b7688_Images/659cc63ff59c72a20e2b7688_Image_23.jpeg,liked,3.820572462,,,,,,,,,,,,,,,,,,,,,,
,,659cc63ff59c72a20e2b7688,6685aa9113c938e83b4f1ea0,6723939b6ee84684a13e5bb0,2024-10-31_10h27.26.996,WTP_SM_Choice,2022.2.1,MacIntel,58.82352941,,,,,,,,,,,,,,,,,,1,,,,,,space,9.157,space,3.6019,0.01,2,4.238,0,0,0,0,1,Bake holiday treats with my mom in her kitchen every december,Watch classic movies in bed on a sunday morning,0.01,0.01,4.4,0,,,,
,,659cc63ff59c72a20e2b7688,6685aa9113c938e83b4f1ea0,6723939b6ee84684a13e5bb0,2024-10-31_10h27.26.996,WTP_SM_Choice,2022.2.1,MacIntel,58.82352941,,,,,,,,,,,,,,,,,,2,,,,,,,,,,0.01,2,4.0794,0,1,1,1,1,Bake holiday treats with my mom in her kitchen every december,Stargaze in a cozy blanket on a chilly night in the backyard,0.02,0.01,8.8,0,,,,
,,659cc63ff59c72a20e2b7688,6685aa9113c938e83b4f1ea0,6723939b6ee84684a13e5bb0,2024-10-31_10h27.26.996,WTP_SM_Choice,2022.2.1,MacIntel,58.82352941,,,,,,,,,,,,,,,,,,3,,,,,,,,,,0.01,2,0.7239,0,2,2,2,1,Write poetry in a quiet coffee shop with a warm latte,Play board games with my siblings on holiday afternoons,0.03,0.01,3.3,1,,,,
,,659cc63ff59c72a20e2b7688,6685aa9113c938e83b4f1ea0,6723939b6ee84684a13e5bb0,2024-10-31_10h27.26.996,WTP_SM_Choice,2022.2.1,MacIntel,58.82352941,,,,,,,,,,,,,,,,,,4,,,,,,,,,,0.01,2,0.7014,0,3,3,3,1,Stargaze in a cozy blanket on a chilly night in the backyard,Take road trips with my family to explore new towns and scenic spots,0.04,0.01,1.1,1,,,,
,,659cc63ff59c72a20e2b7688,6685aa9113c938e83b4f1ea0,6723939b6ee84684a13e5bb0,2024-10-31_10h27.26.996,WTP_SM_Choice,2022.2.1,MacIntel,58.82352941,,,,,,,,,,,,,,,,,,5,,,,,,,,,,0.01,2,0.4166,0,4,4,4,1,Go on weekend brunch dates with friends at our favorite cafe,Explore new hiking trails in a secluded forest,0.05,0.01,1.1,0,,,,
,,659cc63ff59c72a20e2b7688,6685aa9113c938e83b4f1ea0,6723939b6ee84684a13e5bb0,2024-10-31_10h27.26.996,WTP_SM_Choice,2022.2.1,MacIntel,58.82352941,,,,,,,NAN,,NAN,0.05,5.95,,0,4,4,4,1,5,Sam,Rej,Participant_Images/659cc63ff59c72a20e2b7688/659cc63ff59c72a20e2b7688_Images/659cc63ff59c72a20e2b7688_Image_1.jpeg,did not like,2.455989137,,,,,,,,,,,,,,,,,,,,,,
,,659cc63ff59c72a20e2b7688,6685aa9113c938e83b4f1ea0,6723939b6ee84684a13e5bb0,2024-10-31_10h27.26.996,WTP_SM_Choice,2022.2.1,MacIntel,58.82352941,,,,,space,1.4671,NAN,,NAN,0.05,5.95,,0,5,5,5,1,6,Sam,Rej,Participant_Images/659cc63ff59c72a20e2b7688/659cc63ff59c72a20e2b7688_Images/659cc63ff59c72a20e2b7688_Image_9.jpeg,did not like,3.79605092,,,,,,,,,,,,,,,,,,,,,,
,,659cc63ff59c72a20e2b7688,6685aa9113c938e83b4f1ea0,6723939b6ee84684a13e5bb0,2024-10-31_10h27.26.996,WTP_SM_Choice,2022.2.1,MacIntel,58.82352941,,,,,space,1.7825,NAN,,NAN,0.05,5.95,,0,6,6,6,1,7,Sam,Rej,Participant_Images/659cc63ff59c72a20e2b7688/659cc63ff59c72a20e2b7688_Images/659cc63ff59c72a20e2b7688_Image_14.jpeg,did not like,3.562416326,,,,,,,,,,,,,,,,,,,,,,
,,659cc63ff59c72a20e2b7688,6685aa9113c938e83b4f1ea0,6723939b6ee84684a13e5bb0,2024-10-31_10h27.26.996,WTP_SM_Choice,2022.2.1,MacIntel,58.82352941,,,,,space,1.381,NAN,,NAN,0.05,5.95,,0,7,7,7,1,8,Sam,Rej,Participant_Images/659cc63ff59c72a20e2b7688/659cc63ff59c72a20e2b7688_Images/659cc63ff59c72a20e2b7688_Image_15.jpeg,did not like,2.843822497,,,,,,,,,,,,,,,,,,,,,,
,,659cc63ff59c72a20e2b7688,6685aa9113c938e83b4f1ea0,6723939b6ee84684a13e5bb0,2024-10-31_10h27.26.996,WTP_SM_Choice,2022.2.1,MacIntel,58.82352941,,,,,space,0.9193,NAN,,NAN,0.05,5.95,,0,8,8,8,1,9,Sam,Rej,Participant_Images/659cc63ff59c72a20e2b7688/659cc63ff59c72a20e2b7688_Images/659cc63ff59c72a20e2b7688_Image_8.jpeg,did not like,3.546495948,,,,,,,,,,,,,,,,,,,,,,
,,659cc63ff59c72a20e2b7688,6685aa9113c938e83b4f1ea0,6723939b6ee84684a13e5bb0,2024-10-31_10h27.26.996,WTP_SM_Choice,2022.2.1,MacIntel,58.82352941,,,,,,,,,,,,,,,,,,6,,,,,,space,1.6105,space,0.6471,0.01,1,1.3555,0,0,0,0,1,Write poetry in a quiet coffee shop with a warm latte,Attend live music concerts with friends in the summer,0.01,0.02,3.3,1,,,,
,,659cc63ff59c72a20e2b7688,6685aa9113c938e83b4f1ea0,6723939b6ee84684a13e5bb0,2024-10-31_10h27.26.996,WTP_SM_Choice,2022.2.1,MacIntel,58.82352941,,,,,,,,,,,,,,,,,,7,,,,,,,,,,0.02,1,0.9375,0,1,1,1,1,Practice meditation on the balcony early in the morning,Attend live music concerts with friends in the summer,0.02,0.02,1.1,1,,,,
,,659cc63ff59c72a20e2b7688,6685aa9113c938e83b4f1ea0,6723939b6ee84684a13e5bb0,2024-10-31_10h27.26.996,WTP_SM_Choice,2022.2.1,MacIntel,58.82352941,,,,,,,,,,,,,,,,,,8,,,,,,,,,,0.02,2,1.5128,0,2,2,2,1,Practice yoga in my room with dim lighting and scented candles,Go for long beach walks with my best friend on warm sunny days,0.03,0.02,1.1,1,,,,
,,659cc63ff59c72a20e2b7688,6685aa9113c938e83b4f1ea0,6723939b6ee84684a13e5bb0,2024-10-31_10h27.26.996,WTP_SM_Choice,2022.2.1,MacIntel,58.82352941,,,,,,,,,,,,,,,,,,9,,,,,,,,,,0.02,2,1.0117,0,3,3,3,1,Play board games with my siblings on holiday afternoons,Explore new hiking trails in a secluded forest,0.04,0.02,4.4,0,,,,
,,659cc63ff59c72a20e2b7688,6685aa9113c938e83b4f1ea0,6723939b6ee84684a13e5bb0,2024-10-31_10h27.26.996,WTP_SM_Choice,2022.2.1,MacIntel,58.82352941,,,,,,,,,,,,,,,,,,10,,,,,,,,,,0.02,2,0.9115,0,4,4,4,1,Try out new hiking trails with my outdoorsy group on saturday mornings,Practice yoga in my room with dim lighting and scented candles,0.05,0.02,1.1,0,,,,
,,659cc63ff59c72a20e2b7688,6685aa9113c938e83b4f1ea0,6723939b6ee84684a13e5bb0,2024-10-31_10h27.26.996,WTP_SM_Choice,2022.2.1,MacIntel,58.82352941,,,,,,,NAN,,NAN,0.14,5.86,,0,9,9,9,1,10,Sam,Rej,Participant_Images/659cc63ff59c72a20e2b7688/659cc63ff59c72a20e2b7688_Images/659cc63ff59c72a20e2b7688_Image_19.jpeg,did not like,1.672012706,,,,,,,,,,,,,,,,,,,,,,
,,659cc63ff59c72a20e2b7688,6685aa9113c938e83b4f1ea0,6723939b6ee84684a13e5bb0,2024-10-31_10h27.26.996,WTP_SM_Choice,2022.2.1,MacIntel,58.82352941,,,,,space,0.7832,NAN,,NAN,0.14,5.86,,0,10,10,10,1,11,Sam,Rej,Participant_Images/659cc63ff59c72a20e2b7688/659cc63ff59c72a20e2b7688_Images/659cc63ff59c72a20e2b7688_Image_25.jpeg,did not like,4.942172136,,,,,,,,,,,,,,,,,,,,,,
,,659cc63ff59c72a20e2b7688,6685aa9113c938e83b4f1ea0,6723939b6ee84684a13e5bb0,2024-10-31_10h27.26.996,WTP_SM_Choice,2022.2.1,MacIntel,58.82352941,,,,,space,0.8346,NAN,,NAN,0.14,5.86,,0,11,11,11,1,12,Sam,Rej,Participant_Images/659cc63ff59c72a20e2b7688/659cc63ff59c72a20e2b7688_Images/659cc63ff59c72a20e2b7688_Image_7.jpeg,liked,2.50187214,,,,,,,,,,,,,,,,,,,,,,
,,659cc63ff59c72a20e2b7688,6685aa9113c938e83b4f1ea0,6723939b6ee84684a13e5bb0,2024-10-31_10h27.26.996,WTP_SM_Choice,2022.2.1,MacIntel,58.82352941,,,,,space,1.1168,NAN,,NAN,0.14,5.86,,0,12,12,12,1,13,Sam,Rej,Participant_Images/659cc63ff59c72a20e2b7688/659cc63ff59c72a20e2b7688_Images/659cc63ff59c72a20e2b7688_Image_20.jpeg,did not like,2.071164779,,,,,,,,,,,,,,,,,,,,,,
,,659cc63ff59c72a20e2b7688,6685aa9113c938e83b4f1ea0,6723939b6ee84684a13e5bb0,2024-10-31_10h27.26.996,WTP_SM_Choice,2022.2.1,MacIntel,58.82352941,,,,,space,0.4983,NAN,,NAN,0.14,5.86,,0,13,13,13,1,14,Sam,Rej,Participant_Images/659cc63ff59c72a20e2b7688/659cc63ff59c72a20e2b7688_Images/659cc63ff59c72a20e2b7688_Image_6.jpeg,liked,5.336503566,,,,,,,,,,,,,,,,,,,,,,
,,659cc63ff59c72a20e2b7688,6685aa9113c938e83b4f1ea0,6723939b6ee84684a13e5bb0,2024-10-31_10h27.26.996,WTP_SM_Choice,2022.2.1,MacIntel,58.82352941,,,,,,,,,,,,,,,,,,11,,,,,,space,0.9948,space,0.6531,0.01,1,0.9288,0,0,0,0,1,Go on weekend brunch dates with friends at our favorite cafe,Write poetry in a quiet coffee shop with a warm latte,0.01,0.03,3.3,0,,,,
,,659cc63ff59c72a20e2b7688,6685aa9113c938e83b4f1ea0,6723939b6ee84684a13e5bb0,2024-10-31_10h27.26.996,WTP_SM_Choice,2022.2.1,MacIntel,58.82352941,,,,,,,,,,,,,,,,,,12,,,,,,,,,,0.02,1,1.145,0,1,1,1,1,Read mystery novels by the window on a rainy afternoon,Watch classic movies with my partner on cozy friday nights at home,0.02,0.03,4.4,1,,,,
,,659cc63ff59c72a20e2b7688,6685aa9113c938e83b4f1ea0,6723939b6ee84684a13e5bb0,2024-10-31_10h27.26.996,WTP_SM_Choice,2022.2.1,MacIntel,58.82352941,,,,,,,,,,,,,,,,,,13,,,,,,,,,,0.03,1,0.9638,0,2,2,2,1,Cook new recipes in the kitchen with a favorite playlist on,Bake holiday treats with my mom in her kitchen every december,0.03,0.03,1.1,1,,,,
,,659cc63ff59c72a20e2b7688,6685aa9113c938e83b4f1ea0,6723939b6ee84684a13e5bb0,2024-10-31_10h27.26.996,WTP_SM_Choice,2022.2.1,MacIntel,58.82352941,,,,,,,,,,,,,,,,,,14,,,,,,,,,,0.03,2,1.0805,0,3,3,3,1,Explore new hiking trails in a secluded forest,Take road trips with my family to explore new towns and scenic spots,0.04,0.03,3.3,1,,,,
,,659cc63ff59c72a20e2b7688,6685aa9113c938e83b4f1ea0,6723939b6ee84684a13e5bb0,2024-10-31_10h27.26.996,WTP_SM_Choice,2022.2.1,MacIntel,58.82352941,,,,,,,,,,,,,,,,,,15,,,,,,,,,,0.03,2,1.0622,0,4,4,4,1,Cook new recipes in the kitchen with a favorite playlist on,Study together with my classmates in the library before finals,0.05,0.03,4.4,1,,,,
,,659cc63ff59c72a20e2b7688,6685aa9113c938e83b4f1ea0,6723939b6ee84684a13e5bb0,2024-10-31_10h27.26.996,WTP_SM_Choice,2022.2.1,MacIntel,58.82352941,,,,,,,NAN,,NAN,0.26,5.74,,0,14,14,14,1,15,Sam,Rej,Participant_Images/659cc63ff59c72a20e2b7688/659cc63ff59c72a20e2b7688_Images/659cc63ff59c72a20e2b7688_Image_12.jpeg,liked,2.642157193,,,,,,,,,,,,,,,,,,,,,,
,,659cc63ff59c72a20e2b7688,6685aa9113c938e83b4f1ea0,6723939b6ee84684a13e5bb0,2024-10-31_10h27.26.996,WTP_SM_Choice,2022.2.1,MacIntel,58.82352941,,,,,space,0.5691,NAN,,NAN,0.26,5.74,,0,15,15,15,1,16,Sam,Rej,Participant_Images/659cc63ff59c72a20e2b7688/659cc63ff59c72a20e2b7688_Images/659cc63ff59c72a20e2b7688_Image_2.jpeg,did not like,4.456234322,,,,,,,,,,,,,,,,,,,,,,
,,659cc63ff59c72a20e2b7688,6685aa9113c938e83b4f1ea0,6723939b6ee84684a13e5bb0,2024-10-31_10h27.26.996,WTP_SM_Choice,2022.2.1,MacIntel,58.82352941,,,,,space,0.6677,NAN,,NAN,0.26,5.74,,0,16,16,16,1,17,Sam,Rej,Participant_Images/659cc63ff59c72a20e2b7688/659cc63ff59c72a20e2b7688_Images/659cc63ff59c72a20e2b7688_Image_5.jpeg,did not like,4.438512181,,,,,,,,,,,,,,,,,,,,,,
,,659cc63ff59c72a20e2b7688,6685aa9113c938e83b4f1ea0,6723939b6ee84684a13e5bb0,2024-10-31_10h27.26.996,WTP_SM_Choice,2022.2.1,MacIntel,58.82352941,,,,,space,0.5012,NAN,,NAN,0.26,5.74,,0,17,17,17,1,18,Sam,Rej,Participant_Images/659cc63ff59c72a20e2b7688/659cc63ff59c72a20e2b7688_Images/659cc63ff59c72a20e2b7688_Image_24.jpeg,did not like,2.682944783,,,,,,,,,,,,,,,,,,,,,,
,,659cc63ff59c72a20e2b7688,6685aa9113c938e83b4f1ea0,6723939b6ee84684a13e5bb0,2024-10-31_10h27.26.996,WTP_SM_Choice,2022.2.1,MacIntel,58.82352941,,,,,space,0.738,NAN,,NAN,0.26,5.74,,0,18,18,18,1,19,Sam,Rej,Participant_Images/659cc63ff59c72a20e2b7688/659cc63ff59c72a20e2b7688_Images/659cc63ff59c72a20e2b7688_Image_22.jpeg,liked,4.51984296,,,,,,,,,,,,,,,,,,,,,,
,,659cc63ff59c72a20e2b7688,6685aa9113c938e83b4f1ea0,6723939b6ee84684a13e5bb0,2024-10-31_10h27.26.996,WTP_SM_Choice,2022.2.1,MacIntel,58.82352941,,,,,,,,,,,,,,,,,,16,,,,,,space,0.3148,space,0.667,0.01,1,1.1145,0,0,0,0,1,Go for long beach walks with my best friend on warm sunny days,Explore new hiking trails in a secluded forest,0.01,0.04,1.1,0,,,,
,,659cc63ff59c72a20e2b7688,6685aa9113c938e83b4f1ea0,6723939b6ee84684a13e5bb0,2024-10-31_10h27.26.996,WTP_SM_Choice,2022.2.1,MacIntel,58.82352941,,,,,,,,,,,,,,,,,,17,,,,,,,,,,0.02,1,0.9714,0,1,1,1,1,Write poetry in a quiet coffee shop with a warm latte,Go for long beach walks with my best friend on warm sunny days,0.02,0.04,8.8,1,,,,
,,659cc63ff59c72a20e2b7688,6685aa9113c938e83b4f1ea0,6723939b6ee84684a13e5bb0,2024-10-31_10h27.26.996,WTP_SM_Choice,2022.2.1,MacIntel,58.82352941,,,,,,,,,,,,,,,,,,18,,,,,,,,,,0.03,1,0.9322,0,2,2,2,1,Read mystery novels by the window on a rainy afternoon,Study together with my classmates in the library before finals,0.03,0.04,3.3,1,,,,
,,659cc63ff59c72a20e2b7688,6685aa9113c938e83b4f1ea0,6723939b6ee84684a13e5bb0,2024-10-31_10h27.26.996,WTP_SM_Choice,2022.2.1,MacIntel,58.82352941,,,,,,,,,,,,,,,,,,19,,,,,,,,,,0.04,1,1.0864,0,3,3,3,1,Go to trivia night at a local bar with coworkers every month,Practice yoga in my room with dim lighting and scented candles,0.04,0.04,3.3,0,,,,
,,659cc63ff59c72a20e2b7688,6685aa9113c938e83b4f1ea0,6723939b6ee84684a13e5bb0,2024-10-31_10h27.26.996,WTP_SM_Choice,2022.2.1,MacIntel,58.82352941,,,,,,,,,,,,,,,,,,20,,,,,,,,,,0.04,2,1.2281,0,4,4,4,1,Watch classic movies in bed on a sunday morning,Play board games with my siblings on holiday afternoons,0.05,0.04,1.1,1,,,,
,,659cc63ff59c72a20e2b7688,6685aa9113c938e83b4f1ea0,6723939b6ee84684a13e5bb0,2024-10-31_10h27.26.996,WTP_SM_Choice,2022.2.1,MacIntel,58.82352941,,,,,,,NAN,,NAN,0.4,5.6,,0,19,19,19,1,20,Sam,Rej,Participant_Images/659cc63ff59c72a20e2b7688/659cc63ff59c72a20e2b7688_Images/659cc63ff59c72a20e2b7688_Image_13.jpeg,did not like,3.195382774,,,,,,,,,,,,,,,,,,,,,,
,,659cc63ff59c72a20e2b7688,6685aa9113c938e83b4f1ea0,6723939b6ee84684a13e5bb0,2024-10-31_10h27.26.996,WTP_SM_Choice,2022.2.1,MacIntel,58.82352941,,,,,space,0.4018,NAN,,NAN,0.4,5.6,,0,20,20,20,1,21,Sam,Rej,Participant_Images/659cc63ff59c72a20e2b7688/659cc63ff59c72a20e2b7688_Images/659cc63ff59c72a20e2b7688_Image_17.jpeg,did not like,1.779333479,,,,,,,,,,,,,,,,,,,,,,
,,659cc63ff59c72a20e2b7688,6685aa9113c938e83b4f1ea0,6723939b6ee84684a13e5bb0,2024-10-31_10h27.26.996,WTP_SM_Choice,2022.2.1,MacIntel,58.82352941,,,,,space,1.0698,NAN,,NAN,0.4,5.6,,0,21,21,21,1,22,Sam,Rej,Participant_Images/659cc63ff59c72a20e2b7688/659cc63ff59c72a20e2b7688_Images/659cc63ff59c72a20e2b7688_Image_18.jpeg,liked,4.312468682,,,,,,,,,,,,,,,,,,,,,,
,,659cc63ff59c72a20e2b7688,6685aa9113c938e83b4f1ea0,6723939b6ee84684a13e5bb0,2024-10-31_10h27.26.996,WTP_SM_Choice,2022.2.1,MacIntel,58.82352941,,,,,space,0.4831,NAN,,NAN,0.4,5.6,,0,22,22,22,1,23,Sam,Rej,Participant_Images/659cc63ff59c72a20e2b7688/659cc63ff59c72a20e2b7688_Images/659cc63ff59c72a20e2b7688_Image_10.jpeg,did not like,4.940433059,,,,,,,,,,,,,,,,,,,,,,
,,659cc63ff59c72a20e2b7688,6685aa9113c938e83b4f1ea0,6723939b6ee84684a13e5bb0,2024-10-31_10h27.26.996,WTP_SM_Choice,2022.2.1,MacIntel,58.82352941,,,,,space,0.6679,NAN,,NAN,0.4,5.6,,0,23,23,23,1,24,Sam,Rej,Participant_Images/659cc63ff59c72a20e2b7688/659cc63ff59c72a20e2b7688_Images/659cc63ff59c72a20e2b7688_Image_21.jpeg,did not like,2.7105123,,,,,,,,,,,,,,,,,,,,,,
,,659cc63ff59c72a20e2b7688,6685aa9113c938e83b4f1ea0,6723939b6ee84684a13e5bb0,2024-10-31_10h27.26.996,WTP_SM_Choice,2022.2.1,MacIntel,58.82352941,,,,,,,,,,,,,,,,,,21,,,,,,space,0.4978,space,0.3822,0.01,1,0.9739,0,0,0,0,1,Journal my thoughts in bed with soft instrumental music playing,Study together with my classmates in the library before finals,0.01,0.05,8.8,1,,,,
,,659cc63ff59c72a20e2b7688,6685aa9113c938e83b4f1ea0,6723939b6ee84684a13e5bb0,2024-10-31_10h27.26.996,WTP_SM_Choice,2022.2.1,MacIntel,58.82352941,,,,,,,,,,,,,,,,,,22,,,,,,,,,,0.02,1,1.0937,0,1,1,1,1,Write poetry in a quiet coffee shop with a warm latte,Try out new hiking trails with my outdoorsy group on saturday mornings,0.02,0.05,4.4,1,,,,
,,659cc63ff59c72a20e2b7688,6685aa9113c938e83b4f1ea0,6723939b6ee84684a13e5bb0,2024-10-31_10h27.26.996,WTP_SM_Choice,2022.2.1,MacIntel,58.82352941,,,,,,,,,,,,,,,,,,23,,,,,,,,,,0.03,1,1.0491,0,2,2,2,1,Journal my thoughts in bed with soft instrumental music playing,Go for long beach walks with my best friend on warm sunny days,0.03,0.05,1.1,1,,,,
,,659cc63ff59c72a20e2b7688,6685aa9113c938e83b4f1ea0,6723939b6ee84684a13e5bb0,2024-10-31_10h27.26.996,WTP_SM_Choice,2022.2.1,MacIntel,58.82352941,,,,,,,,,,,,,,,,,,24,,,,,,,,,,0.04,1,1.1277,0,3,3,3,1,Cook new recipes in the kitchen with a favorite playlist on,Play board games with my siblings on holiday afternoons,0.04,0.05,4.4,1,,,,
,,659cc63ff59c72a20e2b7688,6685aa9113c938e83b4f1ea0,6723939b6ee84684a13e5bb0,2024-10-31_10h27.26.996,WTP_SM_Choice,2022.2.1,MacIntel,58.82352941,,,,,,,,,,,,,,,,,,25,,,,,,,,,,0.05,1,1.0604,0,4,4,4,1,Study together with my classmates in the library before finals,Sketch landscapes in my backyard during sunset,0.05,0.05,3.3,0,,,,
,,659cc63ff59c72a20e2b7688,6685aa9113c938e83b4f1ea0,6723939b6ee84684a13e5bb0,2024-10-31_10h27.26.996,WTP_SM_Choice,2022.2.1,MacIntel,58.82352941,,,,,,,2,,4,0.55,5.45,,0,24,24,24,1,25,Sam,Rej,Participant_Images/659cc63ff59c72a20e2b7688/659cc63ff59c72a20e2b7688_Images/659cc63ff59c72a20e2b7688_Image_4.jpeg,did not like,3.602308302,,,,,,,,,,,,,,,,,,,space,1.5475,,
,,659cc63ff59c72a20e2b7688,6685aa9113c938e83b4f1ea0,6723939b6ee84684a13e5bb0,2024-10-31_10h27.26.996,WTP_SM_Choice,2022.2.1,MacIntel,58.82352941,,,space,1.0817,space,0.4158,NAN,,NAN,0.55,5.45,,0,25,25,25,1,26,Charlie,Acc,Participant_Images/659cc63ff59c72a20e2b7688/659cc63ff59c72a20e2b7688_Images/659cc63ff59c72a20e2b7688_Image_3.jpeg,did not like,4.106391878,,,,,,,,,,,,,,,,,,,,,,
,,659cc63ff59c72a20e2b7688,6685aa9113c938e83b4f1ea0,6723939b6ee84684a13e5bb0,2024-10-31_10h27.26.996,WTP_SM_Choice,2022.2.1,MacIntel,58.82352941,,,,,space,0.4385,NAN,,NAN,0.55,5.45,,0,26,26,26,1,27,Charlie,Acc,Participant_Images/659cc63ff59c72a20e2b7688/659cc63ff59c72a20e2b7688_Images/659cc63ff59c72a20e2b7688_Image_7.jpeg,liked,3.799433026,,,,,,,,,,,,,,,,,,,,,,
,,659cc63ff59c72a20e2b7688,6685aa9113c938e83b4f1ea0,6723939b6ee84684a13e5bb0,2024-10-31_10h27.26.996,WTP_SM_Choice,2022.2.1,MacIntel,58.82352941,,,,,space,0.9825,NAN,,NAN,0.55,5.45,,0,27,27,27,1,28,Charlie,Acc,Participant_Images/659cc63ff59c72a20e2b7688/659cc63ff59c72a20e2b7688_Images/659cc63ff59c72a20e2b7688_Image_5.jpeg,liked,5.246980764,,,,,,,,,,,,,,,,,,,,,,
,,659cc63ff59c72a20e2b7688,6685aa9113c938e83b4f1ea0,6723939b6ee84684a13e5bb0,2024-10-31_10h27.26.996,WTP_SM_Choice,2022.2.1,MacIntel,58.82352941,,,,,space,0.67,NAN,,NAN,0.55,5.45,,0,28,28,28,1,29,Charlie,Acc,Participant_Images/659cc63ff59c72a20e2b7688/659cc63ff59c72a20e2b7688_Images/659cc63ff59c72a20e2b7688_Image_15.jpeg,liked,3.30081769,,,,,,,,,,,,,,,,,,,,,,
,,659cc63ff59c72a20e2b7688,6685aa9113c938e83b4f1ea0,6723939b6ee84684a13e5bb0,2024-10-31_10h27.26.996,WTP_SM_Choice,2022.2.1,MacIntel,58.82352941,,,,,,,,,,,,,,,,,,26,,,,,,space,1.0326,space,0.4508,0.01,1,0.9751,0,0,0,0,1,Try out new hiking trails with my outdoorsy group on saturday mornings,Sketch landscapes in my backyard during sunset,0.01,0.01,4.4,0,,,,
,,659cc63ff59c72a20e2b7688,6685aa9113c938e83b4f1ea0,6723939b6ee84684a13e5bb0,2024-10-31_10h27.26.996,WTP_SM_Choice,2022.2.1,MacIntel,58.82352941,,,,,,,,,,,,,,,,,,27,,,,,,,,,,0.01,2,0.7326,0,1,1,1,1,Watch classic movies with my partner on cozy friday nights at home,Practice meditation on the balcony early in the morning,0.02,0.01,3.3,0,,,,
,,659cc63ff59c72a20e2b7688,6685aa9113c938e83b4f1ea0,6723939b6ee84684a13e5bb0,2024-10-31_10h27.26.996,WTP_SM_Choice,2022.2.1,MacIntel,58.82352941,,,,,,,,,,,,,,,,,,28,,,,,,,,,,0.01,2,0.8849,0,2,2,2,1,Attend live music concerts with friends in the summer,Practice yoga in my room with dim lighting and scented candles,0.03,0.01,3.3,0,,,,
,,659cc63ff59c72a20e2b7688,6685aa9113c938e83b4f1ea0,6723939b6ee84684a13e5bb0,2024-10-31_10h27.26.996,WTP_SM_Choice,2022.2.1,MacIntel,58.82352941,,,,,,,,,,,,,,,,,,29,,,,,,,,,,0.01,2,1.7336,0,3,3,3,1,Stargaze in a cozy blanket on a chilly night in the backyard,Go for long beach walks with my best friend on warm sunny days,0.04,0.01,4.4,1,,,,
,,659cc63ff59c72a20e2b7688,6685aa9113c938e83b4f1ea0,6723939b6ee84684a13e5bb0,2024-10-31_10h27.26.996,WTP_SM_Choice,2022.2.1,MacIntel,58.82352941,,,,,,,,,,,,,,,,,,30,,,,,,,,,,0.01,2,1.0775,0,4,4,4,1,Journal my thoughts in bed with soft instrumental music playing,Take road trips with my family to explore new towns and scenic spots,0.05,0.01,8.8,1,,,,
,,659cc63ff59c72a20e2b7688,6685aa9113c938e83b4f1ea0,6723939b6ee84684a13e5bb0,2024-10-31_10h27.26.996,WTP_SM_Choice,2022.2.1,MacIntel,58.82352941,,,,,,,NAN,,NAN,0.6,5.4,,0,29,29,29,1,30,Charlie,Acc,Participant_Images/659cc63ff59c72a20e2b7688/659cc63ff59c72a20e2b7688_Images/659cc63ff59c72a20e2b7688_Image_21.jpeg,liked,1.661473164,,,,,,,,,,,,,,,,,,,,,,
,,659cc63ff59c72a20e2b7688,6685aa9113c938e83b4f1ea0,6723939b6ee84684a13e5bb0,2024-10-31_10h27.26.996,WTP_SM_Choice,2022.2.1,MacIntel,58.82352941,,,,,space,2.3515,NAN,,NAN,0.6,5.4,,0,30,30,30,1,31,Charlie,Acc,Participant_Images/659cc63ff59c72a20e2b7688/659cc63ff59c72a20e2b7688_Images/659cc63ff59c72a20e2b7688_Image_16.jpeg,liked,3.613205605,,,,,,,,,,,,,,,,,,,,,,
,,659cc63ff59c72a20e2b7688,6685aa9113c938e83b4f1ea0,6723939b6ee84684a13e5bb0,2024-10-31_10h27.26.996,WTP_SM_Choice,2022.2.1,MacIntel,58.82352941,,,,,space,1.0028,NAN,,NAN,0.6,5.4,,0,31,31,31,1,32,Charlie,Acc,Participant_Images/659cc63ff59c72a20e2b7688/659cc63ff59c72a20e2b7688_Images/659cc63ff59c72a20e2b7688_Image_22.jpeg,liked,4.988446431,,,,,,,,,,,,,,,,,,,,,,
,,659cc63ff59c72a20e2b7688,6685aa9113c938e83b4f1ea0,6723939b6ee84684a13e5bb0,2024-10-31_10h27.26.996,WTP_SM_Choice,2022.2.1,MacIntel,58.82352941,,,,,space,0.5979,NAN,,NAN,0.6,5.4,,0,32,32,32,1,33,Charlie,Acc,Participant_Images/659cc63ff59c72a20e2b7688/659cc63ff59c72a20e2b7688_Images/659cc63ff59c72a20e2b7688_Image_20.jpeg,did not like,3.470791822,,,,,,,,,,,,,,,,,,,,,,
,,659cc63ff59c72a20e2b7688,6685aa9113c938e83b4f1ea0,6723939b6ee84684a13e5bb0,2024-10-31_10h27.26.996,WTP_SM_Choice,2022.2.1,MacIntel,58.82352941,,,,,space,0.8321,NAN,,NAN,0.6,5.4,,0,33,33,33,1,34,Charlie,Acc,Participant_Images/659cc63ff59c72a20e2b7688/659cc63ff59c72a20e2b7688_Images/659cc63ff59c72a20e2b7688_Image_2.jpeg,did not like,3.820572462,,,,,,,,,,,,,,,,,,,,,,
,,659cc63ff59c72a20e2b7688,6685aa9113c938e83b4f1ea0,6723939b6ee84684a13e5bb0,2024-10-31_10h27.26.996,WTP_SM_Choice,2022.2.1,MacIntel,58.82352941,,,,,,,,,,,,,,,,,,31,,,,,,space,1.114,space,0.4656,0.01,1,1.1425,0,0,0,0,1,Sketch landscapes in my backyard during sunset,Go to trivia night at a local bar with coworkers every month,0.01,0.02,8.8,1,,,,
,,659cc63ff59c72a20e2b7688,6685aa9113c938e83b4f1ea0,6723939b6ee84684a13e5bb0,2024-10-31_10h27.26.996,WTP_SM_Choice,2022.2.1,MacIntel,58.82352941,,,,,,,,,,,,,,,,,,32,,,,,,,,,,0.02,1,1.1354,0,1,1,1,1,Play board games with my siblings on holiday afternoons,Read mystery novels by the window on a rainy afternoon,0.02,0.02,1.1,0,,,,
,,659cc63ff59c72a20e2b7688,6685aa9113c938e83b4f1ea0,6723939b6ee84684a13e5bb0,2024-10-31_10h27.26.996,WTP_SM_Choice,2022.2.1,MacIntel,58.82352941,,,,,,,,,,,,,,,,,,33,,,,,,,,,,0.02,2,0.9973,0,2,2,2,1,Write poetry in a quiet coffee shop with a warm latte,Go to trivia night at a local bar with coworkers every month,0.03,0.02,4.4,1,,,,
,,659cc63ff59c72a20e2b7688,6685aa9113c938e83b4f1ea0,6723939b6ee84684a13e5bb0,2024-10-31_10h27.26.996,WTP_SM_Choice,2022.2.1,MacIntel,58.82352941,,,,,,,,,,,,,,,,,,34,,,,,,,,,,0.02,2,1.135,0,3,3,3,1,Write poetry in a quiet coffee shop with a warm latte,Bake holiday treats with my mom in her kitchen every december,0.04,0.02,3.3,1,,,,
,,659cc63ff59c72a20e2b7688,6685aa9113c938e83b4f1ea0,6723939b6ee84684a13e5bb0,2024-10-31_10h27.26.996,WTP_SM_Choice,2022.2.1,MacIntel,58.82352941,,,,,,,,,,,,,,,,,,35,,,,,,,,,,0.02,2,1.0587,0,4,4,4,1,Attend live music concerts with friends in the summer,Read mystery novels by the window on a rainy afternoon,0.05,0.02,1.1,0,,,,
,,659cc63ff59c72a20e2b7688,6685aa9113c938e83b4f1ea0,6723939b6ee84684a13e5bb0,2024-10-31_10h27.26.996,WTP_SM_Choice,2022.2.1,MacIntel,58.82352941,,,,,,,NAN,,NAN,0.69,5.31,,0,34,34,34,1,35,Charlie,Acc,Participant_Images/659cc63ff59c72a20e2b7688/659cc63ff59c72a20e2b7688_Images/659cc63ff59c72a20e2b7688_Image_18.jpeg,liked,2.455989137,,,,,,,,,,,,,,,,,,,,,,
,,659cc63ff59c72a20e2b7688,6685aa9113c938e83b4f1ea0,6723939b6ee84684a13e5bb0,2024-10-31_10h27.26.996,WTP_SM_Choice,2022.2.1,MacIntel,58.82352941,,,,,space,0.4873,NAN,,NAN,0.69,5.31,,0,35,35,35,1,36,Charlie,Acc,Participant_Images/659cc63ff59c72a20e2b7688/659cc63ff59c72a20e2b7688_Images/659cc63ff59c72a20e2b7688_Image_19.jpeg,liked,3.79605092,,,,,,,,,,,,,,,,,,,,,,
,,659cc63ff59c72a20e2b7688,6685aa9113c938e83b4f1ea0,6723939b6ee84684a13e5bb0,2024-10-31_10h27.26.996,WTP_SM_Choice,2022.2.1,MacIntel,58.82352941,,,,,space,0.7239,NAN,,NAN,0.69,5.31,,0,36,36,36,1,37,Charlie,Acc,Participant_Images/659cc63ff59c72a20e2b7688/659cc63ff59c72a20e2b7688_Images/659cc63ff59c72a20e2b7688_Image_8.jpeg,liked,3.562416326,,,,,,,,,,,,,,,,,,,,,,
,,659cc63ff59c72a20e2b7688,6685aa9113c938e83b4f1ea0,6723939b6ee84684a13e5bb0,2024-10-31_10h27.26.996,WTP_SM_Choice,2022.2.1,MacIntel,58.82352941,,,,,space,0.6405,NAN,,NAN,0.69,5.31,,0,37,37,37,1,38,Charlie,Acc,Participant_Images/659cc63ff59c72a20e2b7688/659cc63ff59c72a20e2b7688_Images/659cc63ff59c72a20e2b7688_Image_9.jpeg,liked,2.843822497,,,,,,,,,,,,,,,,,,,,,,
,,659cc63ff59c72a20e2b7688,6685aa9113c938e83b4f1ea0,6723939b6ee84684a13e5bb0,2024-10-31_10h27.26.996,WTP_SM_Choice,2022.2.1,MacIntel,58.82352941,,,,,space,0.5667,NAN,,NAN,0.69,5.31,,0,38,38,38,1,39,Charlie,Acc,Participant_Images/659cc63ff59c72a20e2b7688/659cc63ff59c72a20e2b7688_Images/659cc63ff59c72a20e2b7688_Image_11.jpeg,liked,3.546495948,,,,,,,,,,,,,,,,,,,,,,
,,659cc63ff59c72a20e2b7688,6685aa9113c938e83b4f1ea0,6723939b6ee84684a13e5bb0,2024-10-31_10h27.26.996,WTP_SM_Choice,2022.2.1,MacIntel,58.82352941,,,,,,,,,,,,,,,,,,36,,,,,,space,0.6137,space,0.3199,0.01,1,0.7878,0,0,0,0,1,Stargaze in a cozy blanket on a chilly night in the backyard,Attend live music concerts with friends in the summer,0.01,0.03,3.3,1,,,,
,,659cc63ff59c72a20e2b7688,6685aa9113c938e83b4f1ea0,6723939b6ee84684a13e5bb0,2024-10-31_10h27.26.996,WTP_SM_Choice,2022.2.1,MacIntel,58.82352941,,,,,,,,,,,,,,,,,,37,,,,,,,,,,0.02,1,0.9855,0,1,1,1,1,Play board games with my siblings on holiday afternoons,Stargaze in a cozy blanket on a chilly night in the backyard,0.02,0.03,1.1,0,,,,
,,659cc63ff59c72a20e2b7688,6685aa9113c938e83b4f1ea0,6723939b6ee84684a13e5bb0,2024-10-31_10h27.26.996,WTP_SM_Choice,2022.2.1,MacIntel,58.82352941,,,,,,,,,,,,,,,,,,38,,,,,,,,,,0.03,1,1.0194,0,2,2,2,1,Go to trivia night at a local bar with coworkers every month,Cook new recipes in the kitchen with a favorite playlist on,0.03,0.03,1.1,0,,,,
,,659cc63ff59c72a20e2b7688,6685aa9113c938e83b4f1ea0,6723939b6ee84684a13e5bb0,2024-10-31_10h27.26.996,WTP_SM_Choice,2022.2.1,MacIntel,58.82352941,,,,,,,,,,,,,,,,,,39,,,,,,,,,,0.03,2,1.0385,0,3,3,3,1,Study together with my classmates in the library before finals,Write poetry in a quiet coffee shop with a warm latte,0.04,0.03,3.3,0,,,,
,,659cc63ff59c72a20e2b7688,6685aa9113c938e83b4f1ea0,6723939b6ee84684a13e5bb0,2024-10-31_10h27.26.996,WTP_SM_Choice,2022.2.1,MacIntel,58.82352941,,,,,,,,,,,,,,,,,,40,,,,,,,,,,0.03,2,0.8613,0,4,4,4,1,Try out new hiking trails with my outdoorsy group on saturday mornings,Practice meditation on the balcony early in the morning,0.05,0.03,4.4,0,,,,
,,659cc63ff59c72a20e2b7688,6685aa9113c938e83b4f1ea0,6723939b6ee84684a13e5bb0,2024-10-31_10h27.26.996,WTP_SM_Choice,2022.2.1,MacIntel,58.82352941,,,,,,,NAN,,NAN,0.81,5.19,,0,39,39,39,1,40,Charlie,Acc,Participant_Images/659cc63ff59c72a20e2b7688/659cc63ff59c72a20e2b7688_Images/659cc63ff59c72a20e2b7688_Image_14.jpeg,liked,1.672012706,,,,,,,,,,,,,,,,,,,,,,
,,659cc63ff59c72a20e2b7688,6685aa9113c938e83b4f1ea0,6723939b6ee84684a13e5bb0,2024-10-31_10h27.26.996,WTP_SM_Choice,2022.2.1,MacIntel,58.82352941,,,,,space,1.3672,NAN,,NAN,0.81,5.19,,0,40,40,40,1,41,Charlie,Acc,Participant_Images/659cc63ff59c72a20e2b7688/659cc63ff59c72a20e2b7688_Images/659cc63ff59c72a20e2b7688_Image_10.jpeg,liked,4.942172136,,,,,,,,,,,,,,,,,,,,,,
,,659cc63ff59c72a20e2b7688,6685aa9113c938e83b4f1ea0,6723939b6ee84684a13e5bb0,2024-10-31_10h27.26.996,WTP_SM_Choice,2022.2.1,MacIntel,58.82352941,,,,,space,1.1934,NAN,,NAN,0.81,5.19,,0,41,41,41,1,42,Charlie,Acc,Participant_Images/659cc63ff59c72a20e2b7688/659cc63ff59c72a20e2b7688_Images/659cc63ff59c72a20e2b7688_Image_13.jpeg,did not like,2.50187214,,,,,,,,,,,,,,,,,,,,,,
,,659cc63ff59c72a20e2b7688,6685aa9113c938e83b4f1ea0,6723939b6ee84684a13e5bb0,2024-10-31_10h27.26.996,WTP_SM_Choice,2022.2.1,MacIntel,58.82352941,,,,,space,2.2135,NAN,,NAN,0.81,5.19,,0,42,42,42,1,43,Charlie,Acc,Participant_Images/659cc63ff59c72a20e2b7688/659cc63ff59c72a20e2b7688_Images/659cc63ff59c72a20e2b7688_Image_1.jpeg,did not like,2.071164779,,,,,,,,,,,,,,,,,,,,,,
,,659cc63ff59c72a20e2b7688,6685aa9113c938e83b4f1ea0,6723939b6ee84684a13e5bb0,2024-10-31_10h27.26.996,WTP_SM_Choice,2022.2.1,MacIntel,58.82352941,,,,,space,1.1336,NAN,,NAN,0.81,5.19,,0,43,43,43,1,44,Charlie,Acc,Participant_Images/659cc63ff59c72a20e2b7688/659cc63ff59c72a20e2b7688_Images/659cc63ff59c72a20e2b7688_Image_25.jpeg,liked,5.336503566,,,,,,,,,,,,,,,,,,,,,,
,,659cc63ff59c72a20e2b7688,6685aa9113c938e83b4f1ea0,6723939b6ee84684a13e5bb0,2024-10-31_10h27.26.996,WTP_SM_Choice,2022.2.1,MacIntel,58.82352941,,,,,,,,,,,,,,,,,,41,,,,,,space,1.1332,space,0.3673,0.01,1,1.2761,0,0,0,0,1,Read mystery novels by the window on a rainy afternoon,Go for long beach walks with my best friend on warm sunny days,0.01,0.04,1.1,1,,,,
,,659cc63ff59c72a20e2b7688,6685aa9113c938e83b4f1ea0,6723939b6ee84684a13e5bb0,2024-10-31_10h27.26.996,WTP_SM_Choice,2022.2.1,MacIntel,58.82352941,,,,,,,,,,,,,,,,,,42,,,,,,,,,,0.04,2,1.1138,0,1,1,1,1,Go for long beach walks with my best friend on warm sunny days,Cook new recipes in the kitchen with a favorite playlist on,0.02,0.04,3.3,0,,,,
,,659cc63ff59c72a20e2b7688,6685aa9113c938e83b4f1ea0,6723939b6ee84684a13e5bb0,2024-10-31_10h27.26.996,WTP_SM_Choice,2022.2.1,MacIntel,58.82352941,,,,,,,,,,,,,,,,,,43,,,,,,,,,,0.03,1,1.7039,0,2,2,2,1,Go on weekend brunch dates with friends at our favorite cafe,Sketch landscapes in my backyard during sunset,0.03,0.04,1.1,0,,,,
,,659cc63ff59c72a20e2b7688,6685aa9113c938e83b4f1ea0,6723939b6ee84684a13e5bb0,2024-10-31_10h27.26.996,WTP_SM_Choice,2022.2.1,MacIntel,58.82352941,,,,,,,,,,,,,,,,,,44,,,,,,,,,,0.04,2,1.8345,0,3,3,3,1,Try out new hiking trails with my outdoorsy group on saturday mornings,Read mystery novels by the window on a rainy afternoon,0.04,0.04,1.1,0,,,,
,,659cc63ff59c72a20e2b7688,6685aa9113c938e83b4f1ea0,6723939b6ee84684a13e5bb0,2024-10-31_10h27.26.996,WTP_SM_Choice,2022.2.1,MacIntel,58.82352941,,,,,,,,,,,,,,,,,,45,,,,,,,,,,0.04,2,1.2342,0,4,4,4,1,Go on weekend brunch dates with friends at our favorite cafe,Watch classic movies in bed on a sunday morning,0.05,0.04,4.4,0,,,,
,,659cc63ff59c72a20e2b7688,6685aa9113c938e83b4f1ea0,6723939b6ee84684a13e5bb0,2024-10-31_10h27.26.996,WTP_SM_Choice,2022.2.1,MacIntel,58.82352941,,,,,,,NAN,,NAN,0.97,5.03,,0,44,44,44,1,45,Charlie,Acc,Participant_Images/659cc63ff59c72a20e2b7688/659cc63ff59c72a20e2b7688_Images/659cc63ff59c72a20e2b7688_Image_12.jpeg,liked,2.642157193,,,,,,,,,,,,,,,,,,,,,,
,,659cc63ff59c72a20e2b7688,6685aa9113c938e83b4f1ea0,6723939b6ee84684a13e5bb0,2024-10-31_10h27.26.996,WTP_SM_Choice,2022.2.1,MacIntel,58.82352941,,,,,space,0.5206,NAN,,NAN,0.97,5.03,,0,45,45,45,1,46,Charlie,Acc,Participant_Images/659cc63ff59c72a20e2b7688/659cc63ff59c72a20e2b7688_Images/659cc63ff59c72a20e2b7688_Image_24.jpeg,liked,4.456234322,,,,,,,,,,,,,,,,,,,,,,
,,659cc63ff59c72a20e2b7688,6685aa9113c938e83b4f1ea0,6723939b6ee84684a13e5bb0,2024-10-31_10h27.26.996,WTP_SM_Choice,2022.2.1,MacIntel,58.82352941,,,,,space,1.5641,NAN,,NAN,0.97,5.03,,0,46,46,46,1,47,Charlie,Acc,Participant_Images/659cc63ff59c72a20e2b7688/659cc63ff59c72a20e2b7688_Images/659cc63ff59c72a20e2b7688_Image_17.jpeg,did not like,4.438512181,,,,,,,,,,,,,,,,,,,,,,
,,659cc63ff59c72a20e2b7688,6685aa9113c938e83b4f1ea0,6723939b6ee84684a13e5bb0,2024-10-31_10h27.26.996,WTP_SM_Choice,2022.2.1,MacIntel,58.82352941,,,,,space,0.4007,NAN,,NAN,0.97,5.03,,0,47,47,47,1,48,Charlie,Acc,Participant_Images/659cc63ff59c72a20e2b7688/659cc63ff59c72a20e2b7688_Images/659cc63ff59c72a20e2b7688_Image_23.jpeg,liked,2.682944783,,,,,,,,,,,,,,,,,,,,,,
,,659cc63ff59c72a20e2b7688,6685aa9113c938e83b4f1ea0,6723939b6ee84684a13e5bb0,2024-10-31_10h27.26.996,WTP_SM_Choice,2022.2.1,MacIntel,58.82352941,,,,,space,0.9325,NAN,,NAN,0.97,5.03,,0,48,48,48,1,49,Charlie,Acc,Participant_Images/659cc63ff59c72a20e2b7688/659cc63ff59c72a20e2b7688_Images/659cc63ff59c72a20e2b7688_Image_6.jpeg,liked,4.51984296,,,,,,,,,,,,,,,,,,,,,,
,,659cc63ff59c72a20e2b7688,6685aa9113c938e83b4f1ea0,6723939b6ee84684a13e5bb0,2024-10-31_10h27.26.996,WTP_SM_Choice,2022.2.1,MacIntel,58.82352941,,,,,,,,,,,,,,,,,,46,,,,,,space,0.8295,space,0.4079,0.01,1,1.1989,0,0,0,0,1,Study together with my classmates in the library before finals,Practice yoga in my room with dim lighting and scented candles,0.01,0.05,8.8,0,,,,
,,659cc63ff59c72a20e2b7688,6685aa9113c938e83b4f1ea0,6723939b6ee84684a13e5bb0,2024-10-31_10h27.26.996,WTP_SM_Choice,2022.2.1,MacIntel,58.82352941,,,,,,,,,,,,,,,,,,47,,,,,,,,,,0.02,1,1.0616,0,1,1,1,1,Go on weekend brunch dates with friends at our favorite cafe,Read mystery novels by the window on a rainy afternoon,0.02,0.05,1.1,0,,,,
,,659cc63ff59c72a20e2b7688,6685aa9113c938e83b4f1ea0,6723939b6ee84684a13e5bb0,2024-10-31_10h27.26.996,WTP_SM_Choice,2022.2.1,MacIntel,58.82352941,,,,,,,,,,,,,,,,,,48,,,,,,,,,,0.03,1,2.5002,0,2,2,2,1,Study together with my classmates in the library before finals,Practice meditation on the balcony early in the morning,0.03,0.05,4.4,0,,,,
,,659cc63ff59c72a20e2b7688,6685aa9113c938e83b4f1ea0,6723939b6ee84684a13e5bb0,2024-10-31_10h27.26.996,WTP_SM_Choice,2022.2.1,MacIntel,58.82352941,,,,,,,,,,,,,,,,,,49,,,,,,,,,,0.04,1,1.0135,0,3,3,3,1,Journal my thoughts in bed with soft instrumental music playing,Go on weekend brunch dates with friends at our favorite cafe,0.04,0.05,3.3,1,,,,
,,659cc63ff59c72a20e2b7688,6685aa9113c938e83b4f1ea0,6723939b6ee84684a13e5bb0,2024-10-31_10h27.26.996,WTP_SM_Choice,2022.2.1,MacIntel,58.82352941,,,,,,,,,,,,,,,,,,50,,,,,,,,,,0.05,1,0.9006,0,4,4,4,1,Journal my thoughts in bed with soft instrumental music playing,Play board games with my siblings on holiday afternoons,0.05,0.05,1.1,1,,,,
,,659cc63ff59c72a20e2b7688,6685aa9113c938e83b4f1ea0,6723939b6ee84684a13e5bb0,2024-10-31_10h27.26.996,WTP_SM_Choice,2022.2.1,MacIntel,58.82352941,,,,,,,3,,6,1.12,4.88,,0,49,49,49,1,50,Charlie,Acc,Participant_Images/659cc63ff59c72a20e2b7688/659cc63ff59c72a20e2b7688_Images/659cc63ff59c72a20e2b7688_Image_4.jpeg,did not like,3.195382774,,,,,,,,,,,,,,,,,,,space,0.7833,,
,,659cc63ff59c72a20e2b7688,6685aa9113c938e83b4f1ea0,6723939b6ee84684a13e5bb0,2024-10-31_10h27.26.996,WTP_SM_Choice,2022.2.1,MacIntel,58.82352941,,,space,2.0299,space,0.6524,NAN,,NAN,1.12,4.88,,0,50,50,50,1,51,Riley,Acc,Participant_Images/659cc63ff59c72a20e2b7688/659cc63ff59c72a20e2b7688_Images/659cc63ff59c72a20e2b7688_Image_3.jpeg,liked,1.779333479,,,,,,,,,,,,,,,,,,,,,,
,,659cc63ff59c72a20e2b7688,6685aa9113c938e83b4f1ea0,6723939b6ee84684a13e5bb0,2024-10-31_10h27.26.996,WTP_SM_Choice,2022.2.1,MacIntel,58.82352941,,,,,space,0.6165,NAN,,NAN,1.12,4.88,,0,51,51,51,1,52,Riley,Acc,Participant_Images/659cc63ff59c72a20e2b7688/659cc63ff59c72a20e2b7688_Images/659cc63ff59c72a20e2b7688_Image_16.jpeg,did not like,4.312468682,,,,,,,,,,,,,,,,,,,,,,
,,659cc63ff59c72a20e2b7688,6685aa9113c938e83b4f1ea0,6723939b6ee84684a13e5bb0,2024-10-31_10h27.26.996,WTP_SM_Choice,2022.2.1,MacIntel,58.82352941,,,,,space,0.3851,NAN,,NAN,1.12,4.88,,0,52,52,52,1,53,Riley,Acc,Participant_Images/659cc63ff59c72a20e2b7688/659cc63ff59c72a20e2b7688_Images/659cc63ff59c72a20e2b7688_Image_22.jpeg,liked,4.940433059,,,,,,,,,,,,,,,,,,,,,,
,,659cc63ff59c72a20e2b7688,6685aa9113c938e83b4f1ea0,6723939b6ee84684a13e5bb0,2024-10-31_10h27.26.996,WTP_SM_Choice,2022.2.1,MacIntel,58.82352941,,,,,space,0.3037,NAN,,NAN,1.12,4.88,,0,53,53,53,1,54,Riley,Acc,Participant_Images/659cc63ff59c72a20e2b7688/659cc63ff59c72a20e2b7688_Images/659cc63ff59c72a20e2b7688_Image_6.jpeg,liked,2.7105123,,,,,,,,,,,,,,,,,,,,,,
,,659cc63ff59c72a20e2b7688,6685aa9113c938e83b4f1ea0,6723939b6ee84684a13e5bb0,2024-10-31_10h27.26.996,WTP_SM_Choice,2022.2.1,MacIntel,58.82352941,,,,,,,,,,,,,,,,,,51,,,,,,space,0.5605,space,0.4007,0.01,1,1.1423,0,0,0,0,1,Read mystery novels by the window on a rainy afternoon,Take road trips with my family to explore new towns and scenic spots,0.01,0.01,1.1,1,,,,
,,659cc63ff59c72a20e2b7688,6685aa9113c938e83b4f1ea0,6723939b6ee84684a13e5bb0,2024-10-31_10h27.26.996,WTP_SM_Choice,2022.2.1,MacIntel,58.82352941,,,,,,,,,,,,,,,,,,52,,,,,,,,,,0.01,2,1.0762,0,1,1,1,1,Stargaze in a cozy blanket on a chilly night in the backyard,Go to trivia night at a local bar with coworkers every month,0.02,0.01,3.3,1,,,,
,,659cc63ff59c72a20e2b7688,6685aa9113c938e83b4f1ea0,6723939b6ee84684a13e5bb0,2024-10-31_10h27.26.996,WTP_SM_Choice,2022.2.1,MacIntel,58.82352941,,,,,,,,,,,,,,,,,,53,,,,,,,,,,0.01,2,1.9963,0,2,2,2,1,Watch classic movies with my partner on cozy friday nights at home,Sketch landscapes in my backyard during sunset,0.03,0.01,1.1,0,,,,
,,659cc63ff59c72a20e2b7688,6685aa9113c938e83b4f1ea0,6723939b6ee84684a13e5bb0,2024-10-31_10h27.26.996,WTP_SM_Choice,2022.2.1,MacIntel,58.82352941,,,,,,,,,,,,,,,,,,54,,,,,,,,,,0.01,2,0.9503,0,3,3,3,1,Practice yoga in my room with dim lighting and scented candles,Take road trips with my family to explore new towns and scenic spots,0.04,0.01,4.4,1,,,,
,,659cc63ff59c72a20e2b7688,6685aa9113c938e83b4f1ea0,6723939b6ee84684a13e5bb0,2024-10-31_10h27.26.996,WTP_SM_Choice,2022.2.1,MacIntel,58.82352941,,,,,,,,,,,,,,,,,,55,,,,,,,,,,0.01,2,0.9123,0,4,4,4,1,Watch classic movies with my partner on cozy friday nights at home,Stargaze in a cozy blanket on a chilly night in the backyard,0.05,0.01,1.1,0,,,,
,,659cc63ff59c72a20e2b7688,6685aa9113c938e83b4f1ea0,6723939b6ee84684a13e5bb0,2024-10-31_10h27.26.996,WTP_SM_Choice,2022.2.1,MacIntel,58.82352941,,,,,,,NAN,,NAN,1.17,4.83,,0,54,54,54,1,55,Riley,Acc,Participant_Images/659cc63ff59c72a20e2b7688/659cc63ff59c72a20e2b7688_Images/659cc63ff59c72a20e2b7688_Image_18.jpeg,liked,3.602308302,,,,,,,,,,,,,,,,,,,,,,
,,659cc63ff59c72a20e2b7688,6685aa9113c938e83b4f1ea0,6723939b6ee84684a13e5bb0,2024-10-31_10h27.26.996,WTP_SM_Choice,2022.2.1,MacIntel,58.82352941,,,,,space,3.7834,NAN,,NAN,1.17,4.83,,0,55,55,55,1,56,Riley,Acc,Participant_Images/659cc63ff59c72a20e2b7688/659cc63ff59c72a20e2b7688_Images/659cc63ff59c72a20e2b7688_Image_7.jpeg,liked,4.106391878,,,,,,,,,,,,,,,,,,,,,,
,,659cc63ff59c72a20e2b7688,6685aa9113c938e83b4f1ea0,6723939b6ee84684a13e5bb0,2024-10-31_10h27.26.996,WTP_SM_Choice,2022.2.1,MacIntel,58.82352941,,,,,space,0.1352,NAN,,NAN,1.17,4.83,,0,56,56,56,1,57,Riley,Acc,Participant_Images/659cc63ff59c72a20e2b7688/659cc63ff59c72a20e2b7688_Images/659cc63ff59c72a20e2b7688_Image_1.jpeg,liked,3.799433026,,,,,,,,,,,,,,,,,,,,,,
,,659cc63ff59c72a20e2b7688,6685aa9113c938e83b4f1ea0,6723939b6ee84684a13e5bb0,2024-10-31_10h27.26.996,WTP_SM_Choice,2022.2.1,MacIntel,58.82352941,,,,,space,0.4097,NAN,,NAN,1.17,4.83,,0,57,57,57,1,58,Riley,Acc,Participant_Images/659cc63ff59c72a20e2b7688/659cc63ff59c72a20e2b7688_Images/659cc63ff59c72a20e2b7688_Image_25.jpeg,did not like,5.246980764,,,,,,,,,,,,,,,,,,,,,,
,,659cc63ff59c72a20e2b7688,6685aa9113c938e83b4f1ea0,6723939b6ee84684a13e5bb0,2024-10-31_10h27.26.996,WTP_SM_Choice,2022.2.1,MacIntel,58.82352941,,,,,space,3.4164,NAN,,NAN,1.17,4.83,,0,58,58,58,1,59,Riley,Acc,Participant_Images/659cc63ff59c72a20e2b7688/659cc63ff59c72a20e2b7688_Images/659cc63ff59c72a20e2b7688_Image_23.jpeg,liked,3.30081769,,,,,,,,,,,,,,,,,,,,,,
,,659cc63ff59c72a20e2b7688,6685aa9113c938e83b4f1ea0,6723939b6ee84684a13e5bb0,2024-10-31_10h27.26.996,WTP_SM_Choice,2022.2.1,MacIntel,58.82352941,,,,,,,,,,,,,,,,,,56,,,,,,space,0.4327,space,0.465,0.01,1,0.9251,0,0,0,0,1,Play board games with my siblings on holiday afternoons,Practice meditation on the balcony early in the morning,0.01,0.02,8.8,0,,,,
,,659cc63ff59c72a20e2b7688,6685aa9113c938e83b4f1ea0,6723939b6ee84684a13e5bb0,2024-10-31_10h27.26.996,WTP_SM_Choice,2022.2.1,MacIntel,58.82352941,,,,,,,,,,,,,,,,,,57,,,,,,,,,,0.02,2,1.3632,0,1,1,1,1,Try out new hiking trails with my outdoorsy group on saturday mornings,Watch classic movies in bed on a sunday morning,0.02,0.02,4.4,0,,,,
,,659cc63ff59c72a20e2b7688,6685aa9113c938e83b4f1ea0,6723939b6ee84684a13e5bb0,2024-10-31_10h27.26.996,WTP_SM_Choice,2022.2.1,MacIntel,58.82352941,,,,,,,,,,,,,,,,,,58,,,,,,,,,,0.02,2,1.4215,0,2,2,2,1,Watch classic movies in bed on a sunday morning,Study together with my classmates in the library before finals,0.03,0.02,4.4,1,,,,
,,659cc63ff59c72a20e2b7688,6685aa9113c938e83b4f1ea0,6723939b6ee84684a13e5bb0,2024-10-31_10h27.26.996,WTP_SM_Choice,2022.2.1,MacIntel,58.82352941,,,,,,,,,,,,,,,,,,59,,,,,,,,,,0.02,2,0.7796,0,3,3,3,1,Practice meditation on the balcony early in the morning,Go on weekend brunch dates with friends at our favorite cafe,0.04,0.02,4.4,1,,,,
,,659cc63ff59c72a20e2b7688,6685aa9113c938e83b4f1ea0,6723939b6ee84684a13e5bb0,2024-10-31_10h27.26.996,WTP_SM_Choice,2022.2.1,MacIntel,58.82352941,,,,,,,,,,,,,,,,,,60,,,,,,,,,,0.02,2,3.5123,0,4,4,4,1,Practice yoga in my room with dim lighting and scented candles,Bake holiday treats with my mom in her kitchen every december,0.05,0.02,1.1,1,,,,
,,659cc63ff59c72a20e2b7688,6685aa9113c938e83b4f1ea0,6723939b6ee84684a13e5bb0,2024-10-31_10h27.26.996,WTP_SM_Choice,2022.2.1,MacIntel,58.82352941,,,,,,,NAN,,NAN,1.26,4.74,,0,59,59,59,1,60,Riley,Acc,Participant_Images/659cc63ff59c72a20e2b7688/659cc63ff59c72a20e2b7688_Images/659cc63ff59c72a20e2b7688_Image_20.jpeg,liked,1.661473164,,,,,,,,,,,,,,,,,,,,,,
,,659cc63ff59c72a20e2b7688,6685aa9113c938e83b4f1ea0,6723939b6ee84684a13e5bb0,2024-10-31_10h27.26.996,WTP_SM_Choice,2022.2.1,MacIntel,58.82352941,,,,,space,0.6351,NAN,,NAN,1.26,4.74,,0,60,60,60,1,61,Riley,Acc,Participant_Images/659cc63ff59c72a20e2b7688/659cc63ff59c72a20e2b7688_Images/659cc63ff59c72a20e2b7688_Image_17.jpeg,liked,3.613205605,,,,,,,,,,,,,,,,,,,,,,
,,659cc63ff59c72a20e2b7688,6685aa9113c938e83b4f1ea0,6723939b6ee84684a13e5bb0,2024-10-31_10h27.26.996,WTP_SM_Choice,2022.2.1,MacIntel,58.82352941,,,,,space,0.884,NAN,,NAN,1.26,4.74,,0,61,61,61,1,62,Riley,Acc,Participant_Images/659cc63ff59c72a20e2b7688/659cc63ff59c72a20e2b7688_Images/659cc63ff59c72a20e2b7688_Image_4.jpeg,did not like,4.988446431,,,,,,,,,,,,,,,,,,,,,,
,,659cc63ff59c72a20e2b7688,6685aa9113c938e83b4f1ea0,6723939b6ee84684a13e5bb0,2024-10-31_10h27.26.996,WTP_SM_Choice,2022.2.1,MacIntel,58.82352941,,,,,space,0.5645,NAN,,NAN,1.26,4.74,,0,62,62,62,1,63,Riley,Acc,Participant_Images/659cc63ff59c72a20e2b7688/659cc63ff59c72a20e2b7688_Images/659cc63ff59c72a20e2b7688_Image_24.jpeg,did not like,3.470791822,,,,,,,,,,,,,,,,,,,,,,
,,659cc63ff59c72a20e2b7688,6685aa9113c938e83b4f1ea0,6723939b6ee84684a13e5bb0,2024-10-31_10h27.26.996,WTP_SM_Choice,2022.2.1,MacIntel,58.82352941,,,,,space,0.8882,NAN,,NAN,1.26,4.74,,0,63,63,63,1,64,Riley,Acc,Participant_Images/659cc63ff59c72a20e2b7688/659cc63ff59c72a20e2b7688_Images/659cc63ff59c72a20e2b7688_Image_9.jpeg,liked,3.820572462,,,,,,,,,,,,,,,,,,,,,,
,,659cc63ff59c72a20e2b7688,6685aa9113c938e83b4f1ea0,6723939b6ee84684a13e5bb0,2024-10-31_10h27.26.996,WTP_SM_Choice,2022.2.1,MacIntel,58.82352941,,,,,,,,,,,,,,,,,,61,,,,,,space,0.819,space,0.3338,0.01,1,1.2122,0,0,0,0,1,Watch classic movies with my partner on cozy friday nights at home,Watch classic movies in bed on a sunday morning,0.01,0.03,3.3,0,,,,
,,659cc63ff59c72a20e2b7688,6685aa9113c938e83b4f1ea0,6723939b6ee84684a13e5bb0,2024-10-31_10h27.26.996,WTP_SM_Choice,2022.2.1,MacIntel,58.82352941,,,,,,,,,,,,,,,,,,62,,,,,,,,,,0.02,1,1.1143,0,1,1,1,1,Go for long beach walks with my best friend on warm sunny days,Sketch landscapes in my backyard during sunset,0.02,0.03,3.3,0,,,,
,,659cc63ff59c72a20e2b7688,6685aa9113c938e83b4f1ea0,6723939b6ee84684a13e5bb0,2024-10-31_10h27.26.996,WTP_SM_Choice,2022.2.1,MacIntel,58.82352941,,,,,,,,,,,,,,,,,,63,,,,,,,,,,0.03,2,1.2324,0,2,2,2,1,Cook new recipes in the kitchen with a favorite playlist on,Go on weekend brunch dates with friends at our favorite cafe,0.03,0.03,3.3,1,,,,
,,659cc63ff59c72a20e2b7688,6685aa9113c938e83b4f1ea0,6723939b6ee84684a13e5bb0,2024-10-31_10h27.26.996,WTP_SM_Choice,2022.2.1,MacIntel,58.82352941,,,,,,,,,,,,,,,,,,64,,,,,,,,,,0.03,2,0.9462,0,3,3,3,1,Go to trivia night at a local bar with coworkers every month,Journal my thoughts in bed with soft instrumental music playing,0.04,0.03,1.1,0,,,,
,,659cc63ff59c72a20e2b7688,6685aa9113c938e83b4f1ea0,6723939b6ee84684a13e5bb0,2024-10-31_10h27.26.996,WTP_SM_Choice,2022.2.1,MacIntel,58.82352941,,,,,,,,,,,,,,,,,,65,,,,,,,,,,0.03,2,1.7461,0,4,4,4,1,Cook new recipes in the kitchen with a favorite playlist on,Take road trips with my family to explore new towns and scenic spots,0.05,0.03,1.1,1,,,,
,,659cc63ff59c72a20e2b7688,6685aa9113c938e83b4f1ea0,6723939b6ee84684a13e5bb0,2024-10-31_10h27.26.996,WTP_SM_Choice,2022.2.1,MacIntel,58.82352941,,,,,,,NAN,,NAN,1.38,4.62,,0,64,64,64,1,65,Riley,Acc,Participant_Images/659cc63ff59c72a20e2b7688/659cc63ff59c72a20e2b7688_Images/659cc63ff59c72a20e2b7688_Image_15.jpeg,liked,2.455989137,,,,,,,,,,,,,,,,,,,,,,
,,659cc63ff59c72a20e2b7688,6685aa9113c938e83b4f1ea0,6723939b6ee84684a13e5bb0,2024-10-31_10h27.26.996,WTP_SM_Choice,2022.2.1,MacIntel,58.82352941,,,,,space,1.0347,NAN,,NAN,1.38,4.62,,0,65,65,65,1,66,Riley,Acc,Participant_Images/659cc63ff59c72a20e2b7688/659cc63ff59c72a20e2b7688_Images/659cc63ff59c72a20e2b7688_Image_11.jpeg,liked,3.79605092,,,,,,,,,,,,,,,,,,,,,,
,,659cc63ff59c72a20e2b7688,6685aa9113c938e83b4f1ea0,6723939b6ee84684a13e5bb0,2024-10-31_10h27.26.996,WTP_SM_Choice,2022.2.1,MacIntel,58.82352941,,,,,space,0.9521,NAN,,NAN,1.38,4.62,,0,66,66,66,1,67,Riley,Acc,Participant_Images/659cc63ff59c72a20e2b7688/659cc63ff59c72a20e2b7688_Images/659cc63ff59c72a20e2b7688_Image_10.jpeg,liked,3.562416326,,,,,,,,,,,,,,,,,,,,,,
,,659cc63ff59c72a20e2b7688,6685aa9113c938e83b4f1ea0,6723939b6ee84684a13e5bb0,2024-10-31_10h27.26.996,WTP_SM_Choice,2022.2.1,MacIntel,58.82352941,,,,,space,1.4117,NAN,,NAN,1.38,4.62,,0,67,67,67,1,68,Riley,Acc,Participant_Images/659cc63ff59c72a20e2b7688/659cc63ff59c72a20e2b7688_Images/659cc63ff59c72a20e2b7688_Image_2.jpeg,liked,2.843822497,,,,,,,,,,,,,,,,,,,,,,
,,659cc63ff59c72a20e2b7688,6685aa9113c938e83b4f1ea0,6723939b6ee84684a13e5bb0,2024-10-31_10h27.26.996,WTP_SM_Choice,2022.2.1,MacIntel,58.82352941,,,,,space,0.5187,NAN,,NAN,1.38,4.62,,0,68,68,68,1,69,Riley,Acc,Participant_Images/659cc63ff59c72a20e2b7688/659cc63ff59c72a20e2b7688_Images/659cc63ff59c72a20e2b7688_Image_12.jpeg,liked,3.546495948,,,,,,,,,,,,,,,,,,,,,,
,,659cc63ff59c72a20e2b7688,6685aa9113c938e83b4f1ea0,6723939b6ee84684a13e5bb0,2024-10-31_10h27.26.996,WTP_SM_Choice,2022.2.1,MacIntel,58.82352941,,,,,,,,,,,,,,,,,,66,,,,,,space,1.615,space,0.8567,0.01,1,1.0604,0,0,0,0,1,Practice yoga in my room with dim lighting and scented candles,Go on weekend brunch dates with friends at our favorite cafe,0.01,0.04,1.1,1,,,,
,,659cc63ff59c72a20e2b7688,6685aa9113c938e83b4f1ea0,6723939b6ee84684a13e5bb0,2024-10-31_10h27.26.996,WTP_SM_Choice,2022.2.1,MacIntel,58.82352941,,,,,,,,,,,,,,,,,,67,,,,,,,,,,0.02,1,0.8329,0,1,1,1,1,Take road trips with my family to explore new towns and scenic spots,Practice meditation on the balcony early in the morning,0.02,0.04,8.8,0,,,,
,,659cc63ff59c72a20e2b7688,6685aa9113c938e83b4f1ea0,6723939b6ee84684a13e5bb0,2024-10-31_10h27.26.996,WTP_SM_Choice,2022.2.1,MacIntel,58.82352941,,,,,,,,,,,,,,,,,,68,,,,,,,,,,0.03,1,1.3348,0,2,2,2,1,Watch classic movies with my partner on cozy friday nights at home,Practice yoga in my room with dim lighting and scented candles,0.03,0.04,4.4,0,,,,
,,659cc63ff59c72a20e2b7688,6685aa9113c938e83b4f1ea0,6723939b6ee84684a13e5bb0,2024-10-31_10h27.26.996,WTP_SM_Choice,2022.2.1,MacIntel,58.82352941,,,,,,,,,,,,,,,,,,69,,,,,,,,,,0.04,2,1.1489,0,3,3,3,1,Attend live music concerts with friends in the summer,Cook new recipes in the kitchen with a favorite playlist on,0.04,0.04,1.1,0,,,,
,,659cc63ff59c72a20e2b7688,6685aa9113c938e83b4f1ea0,6723939b6ee84684a13e5bb0,2024-10-31_10h27.26.996,WTP_SM_Choice,2022.2.1,MacIntel,58.82352941,,,,,,,,,,,,,,,,,,70,,,,,,,,,,0.04,2,1.0478,0,4,4,4,1,Read mystery novels by the window on a rainy afternoon,Bake holiday treats with my mom in her kitchen every december,0.05,0.04,1.1,1,,,,
,,659cc63ff59c72a20e2b7688,6685aa9113c938e83b4f1ea0,6723939b6ee84684a13e5bb0,2024-10-31_10h27.26.996,WTP_SM_Choice,2022.2.1,MacIntel,58.82352941,,,,,,,NAN,,NAN,1.52,4.48,,0,69,69,69,1,70,Riley,Acc,Participant_Images/659cc63ff59c72a20e2b7688/659cc63ff59c72a20e2b7688_Images/659cc63ff59c72a20e2b7688_Image_5.jpeg,liked,1.672012706,,,,,,,,,,,,,,,,,,,,,,
,,659cc63ff59c72a20e2b7688,6685aa9113c938e83b4f1ea0,6723939b6ee84684a13e5bb0,2024-10-31_10h27.26.996,WTP_SM_Choice,2022.2.1,MacIntel,58.82352941,,,,,space,1.1693,NAN,,NAN,1.52,4.48,,0,70,70,70,1,71,Riley,Acc,Participant_Images/659cc63ff59c72a20e2b7688/659cc63ff59c72a20e2b7688_Images/659cc63ff59c72a20e2b7688_Image_8.jpeg,liked,4.942172136,,,,,,,,,,,,,,,,,,,,,,
,,659cc63ff59c72a20e2b7688,6685aa9113c938e83b4f1ea0,6723939b6ee84684a13e5bb0,2024-10-31_10h27.26.996,WTP_SM_Choice,2022.2.1,MacIntel,58.82352941,,,,,space,2.2308,NAN,,NAN,1.52,4.48,,0,71,71,71,1,72,Riley,Acc,Participant_Images/659cc63ff59c72a20e2b7688/659cc63ff59c72a20e2b7688_Images/659cc63ff59c72a20e2b7688_Image_14.jpeg,did not like,2.50187214,,,,,,,,,,,,,,,,,,,,,,
,,659cc63ff59c72a20e2b7688,6685aa9113c938e83b4f1ea0,6723939b6ee84684a13e5bb0,2024-10-31_10h27.26.996,WTP_SM_Choice,2022.2.1,MacIntel,58.82352941,,,,,space,2.1321,NAN,,NAN,1.52,4.48,,0,72,72,72,1,73,Riley,Acc,Participant_Images/659cc63ff59c72a20e2b7688/659cc63ff59c72a20e2b7688_Images/659cc63ff59c72a20e2b7688_Image_21.jpeg,did not like,2.071164779,,,,,,,,,,,,,,,,,,,,,,
,,659cc63ff59c72a20e2b7688,6685aa9113c938e83b4f1ea0,6723939b6ee84684a13e5bb0,2024-10-31_10h27.26.996,WTP_SM_Choice,2022.2.1,MacIntel,58.82352941,,,,,space,0.4115,NAN,,NAN,1.52,4.48,,0,73,73,73,1,74,Riley,Acc,Participant_Images/659cc63ff59c72a20e2b7688/659cc63ff59c72a20e2b7688_Images/659cc63ff59c72a20e2b7688_Image_13.jpeg,did not like,5.336503566,,,,,,,,,,,,,,,,,,,,,,
,,659cc63ff59c72a20e2b7688,6685aa9113c938e83b4f1ea0,6723939b6ee84684a13e5bb0,2024-10-31_10h27.26.996,WTP_SM_Choice,2022.2.1,MacIntel,58.82352941,,,,,,,,,,,,,,,,,,71,,,,,,space,1.7445,space,0.3573,0.01,1,0.7097,0,0,0,0,1,Try out new hiking trails with my outdoorsy group on saturday mornings,Cook new recipes in the kitchen with a favorite playlist on,0.01,0.05,3.3,0,,,,
,,659cc63ff59c72a20e2b7688,6685aa9113c938e83b4f1ea0,6723939b6ee84684a13e5bb0,2024-10-31_10h27.26.996,WTP_SM_Choice,2022.2.1,MacIntel,58.82352941,,,,,,,,,,,,,,,,,,72,,,,,,,,,,0.02,1,1.6106,0,1,1,1,1,Play board games with my siblings on holiday afternoons,Practice yoga in my room with dim lighting and scented candles,0.02,0.05,8.8,0,,,,
,,659cc63ff59c72a20e2b7688,6685aa9113c938e83b4f1ea0,6723939b6ee84684a13e5bb0,2024-10-31_10h27.26.996,WTP_SM_Choice,2022.2.1,MacIntel,58.82352941,,,,,,,,,,,,,,,,,,73,,,,,,,,,,0.03,1,0.9821,0,2,2,2,1,Explore new hiking trails in a secluded forest,Attend live music concerts with friends in the summer,0.03,0.05,3.3,1,,,,
,,659cc63ff59c72a20e2b7688,6685aa9113c938e83b4f1ea0,6723939b6ee84684a13e5bb0,2024-10-31_10h27.26.996,WTP_SM_Choice,2022.2.1,MacIntel,58.82352941,,,,,,,,,,,,,,,,,,74,,,,,,,,,,0.04,1,0.8636,0,3,3,3,1,Watch classic movies with my partner on cozy friday nights at home,Write poetry in a quiet coffee shop with a warm latte,0.04,0.05,4.4,0,,,,
,,659cc63ff59c72a20e2b7688,6685aa9113c938e83b4f1ea0,6723939b6ee84684a13e5bb0,2024-10-31_10h27.26.996,WTP_SM_Choice,2022.2.1,MacIntel,58.82352941,,,,,,,,,,,,,,,,,,75,,,,,,,,,,0.05,2,1.1964,0,4,4,4,1,Sketch landscapes in my backyard during sunset,Play board games with my siblings on holiday afternoons,0.05,0.05,3.3,1,,,,
,,659cc63ff59c72a20e2b7688,6685aa9113c938e83b4f1ea0,6723939b6ee84684a13e5bb0,2024-10-31_10h27.26.996,WTP_SM_Choice,2022.2.1,MacIntel,58.82352941,,,,,,,3,,5,1.67,4.33,,0,74,74,74,1,75,Riley,Acc,Participant_Images/659cc63ff59c72a20e2b7688/659cc63ff59c72a20e2b7688_Images/659cc63ff59c72a20e2b7688_Image_19.jpeg,liked,2.642157193,,,,,,,,,,,,,,,,,,,space,1.117,,
,,659cc63ff59c72a20e2b7688,6685aa9113c938e83b4f1ea0,6723939b6ee84684a13e5bb0,2024-10-31_10h27.26.996,WTP_SM_Choice,2022.2.1,MacIntel,58.82352941,,,space,2.3176,space,1.4995,NAN,,NAN,1.67,4.33,,0,75,75,75,1,76,Alex,Rej,Participant_Images/659cc63ff59c72a20e2b7688/659cc63ff59c72a20e2b7688_Images/659cc63ff59c72a20e2b7688_Image_2.jpeg,did not like,4.456234322,,,,,,,,,,,,,,,,,,,,,,
,,659cc63ff59c72a20e2b7688,6685aa9113c938e83b4f1ea0,6723939b6ee84684a13e5bb0,2024-10-31_10h27.26.996,WTP_SM_Choice,2022.2.1,MacIntel,58.82352941,,,,,space,2.4111,NAN,,NAN,1.67,4.33,,0,76,76,76,1,77,Alex,Rej,Participant_Images/659cc63ff59c72a20e2b7688/659cc63ff59c72a20e2b7688_Images/659cc63ff59c72a20e2b7688_Image_15.jpeg,did not like,4.438512181,,,,,,,,,,,,,,,,,,,,,,
,,659cc63ff59c72a20e2b7688,6685aa9113c938e83b4f1ea0,6723939b6ee84684a13e5bb0,2024-10-31_10h27.26.996,WTP_SM_Choice,2022.2.1,MacIntel,58.82352941,,,,,space,0.638,NAN,,NAN,1.67,4.33,,0,77,77,77,1,78,Alex,Rej,Participant_Images/659cc63ff59c72a20e2b7688/659cc63ff59c72a20e2b7688_Images/659cc63ff59c72a20e2b7688_Image_7.jpeg,did not like,2.682944783,,,,,,,,,,,,,,,,,,,,,,
,,659cc63ff59c72a20e2b7688,6685aa9113c938e83b4f1ea0,6723939b6ee84684a13e5bb0,2024-10-31_10h27.26.996,WTP_SM_Choice,2022.2.1,MacIntel,58.82352941,,,,,space,0.1196,NAN,,NAN,1.67,4.33,,0,78,78,78,1,79,Alex,Rej,Participant_Images/659cc63ff59c72a20e2b7688/659cc63ff59c72a20e2b7688_Images/659cc63ff59c72a20e2b7688_Image_18.jpeg,did not like,4.51984296,,,,,,,,,,,,,,,,,,,,,,
,,659cc63ff59c72a20e2b7688,6685aa9113c938e83b4f1ea0,6723939b6ee84684a13e5bb0,2024-10-31_10h27.26.996,WTP_SM_Choice,2022.2.1,MacIntel,58.82352941,,,,,,,,,,,,,,,,,,76,,,,,,space,1.0337,space,0.5006,0.01,1,1.1087,0,0,0,0,1,Try out new hiking trails with my outdoorsy group on saturday mornings,Explore new hiking trails in a secluded forest,0.01,0.01,1.1,0,,,,
,,659cc63ff59c72a20e2b7688,6685aa9113c938e83b4f1ea0,6723939b6ee84684a13e5bb0,2024-10-31_10h27.26.996,WTP_SM_Choice,2022.2.1,MacIntel,58.82352941,,,,,,,,,,,,,,,,,,77,,,,,,,,,,0.01,2,1.0303,0,1,1,1,1,Write poetry in a quiet coffee shop with a warm latte,Take road trips with my family to explore new towns and scenic spots,0.02,0.01,8.8,1,,,,
,,659cc63ff59c72a20e2b7688,6685aa9113c938e83b4f1ea0,6723939b6ee84684a13e5bb0,2024-10-31_10h27.26.996,WTP_SM_Choice,2022.2.1,MacIntel,58.82352941,,,,,,,,,,,,,,,,,,78,,,,,,,,,,0.01,2,1.0097,0,2,2,2,1,Go to trivia night at a local bar with coworkers every month,Explore new hiking trails in a secluded forest,0.03,0.01,1.1,0,,,,
,,659cc63ff59c72a20e2b7688,6685aa9113c938e83b4f1ea0,6723939b6ee84684a13e5bb0,2024-10-31_10h27.26.996,WTP_SM_Choice,2022.2.1,MacIntel,58.82352941,,,,,,,,,,,,,,,,,,79,,,,,,,,,,0.01,2,1.1484,0,3,3,3,1,Take road trips with my family to explore new towns and scenic spots,Sketch landscapes in my backyard during sunset,0.04,0.01,1.1,0,,,,
,,659cc63ff59c72a20e2b7688,6685aa9113c938e83b4f1ea0,6723939b6ee84684a13e5bb0,2024-10-31_10h27.26.996,WTP_SM_Choice,2022.2.1,MacIntel,58.82352941,,,,,,,,,,,,,,,,,,80,,,,,,,,,,0.01,2,0.8667,0,4,4,4,1,Try out new hiking trails with my outdoorsy group on saturday mornings,Journal my thoughts in bed with soft instrumental music playing,0.05,0.01,4.4,0,,,,
,,659cc63ff59c72a20e2b7688,6685aa9113c938e83b4f1ea0,6723939b6ee84684a13e5bb0,2024-10-31_10h27.26.996,WTP_SM_Choice,2022.2.1,MacIntel,58.82352941,,,,,,,NAN,,NAN,1.72,4.28,,0,79,79,79,1,80,Alex,Rej,Participant_Images/659cc63ff59c72a20e2b7688/659cc63ff59c72a20e2b7688_Images/659cc63ff59c72a20e2b7688_Image_9.jpeg,did not like,3.195382774,,,,,,,,,,,,,,,,,,,,,,
,,659cc63ff59c72a20e2b7688,6685aa9113c938e83b4f1ea0,6723939b6ee84684a13e5bb0,2024-10-31_10h27.26.996,WTP_SM_Choice,2022.2.1,MacIntel,58.82352941,,,,,space,0.4508,NAN,,NAN,1.72,4.28,,0,80,80,80,1,81,Alex,Rej,Participant_Images/659cc63ff59c72a20e2b7688/659cc63ff59c72a20e2b7688_Images/659cc63ff59c72a20e2b7688_Image_1.jpeg,did not like,1.779333479,,,,,,,,,,,,,,,,,,,,,,
,,659cc63ff59c72a20e2b7688,6685aa9113c938e83b4f1ea0,6723939b6ee84684a13e5bb0,2024-10-31_10h27.26.996,WTP_SM_Choice,2022.2.1,MacIntel,58.82352941,,,,,space,0.15,NAN,,NAN,1.72,4.28,,0,81,81,81,1,82,Alex,Rej,Participant_Images/659cc63ff59c72a20e2b7688/659cc63ff59c72a20e2b7688_Images/659cc63ff59c72a20e2b7688_Image_22.jpeg,did not like,4.312468682,,,,,,,,,,,,,,,,,,,,,,
,,659cc63ff59c72a20e2b7688,6685aa9113c938e83b4f1ea0,6723939b6ee84684a13e5bb0,2024-10-31_10h27.26.996,WTP_SM_Choice,2022.2.1,MacIntel,58.82352941,,,,,space,2.2355,NAN,,NAN,1.72,4.28,,0,82,82,82,1,83,Alex,Rej,Participant_Images/659cc63ff59c72a20e2b7688/659cc63ff59c72a20e2b7688_Images/659cc63ff59c72a20e2b7688_Image_20.jpeg,did not like,4.940433059,,,,,,,,,,,,,,,,,,,,,,
,,659cc63ff59c72a20e2b7688,6685aa9113c938e83b4f1ea0,6723939b6ee84684a13e5bb0,2024-10-31_10h27.26.996,WTP_SM_Choice,2022.2.1,MacIntel,58.82352941,,,,,space,0.1504,NAN,,NAN,1.72,4.28,,0,83,83,83,1,84,Alex,Rej,Participant_Images/659cc63ff59c72a20e2b7688/659cc63ff59c72a20e2b7688_Images/659cc63ff59c72a20e2b7688_Image_23.jpeg,liked,2.7105123,,,,,,,,,,,,,,,,,,,,,,
,,659cc63ff59c72a20e2b7688,6685aa9113c938e83b4f1ea0,6723939b6ee84684a13e5bb0,2024-10-31_10h27.26.996,WTP_SM_Choice,2022.2.1,MacIntel,58.82352941,,,,,,,,,,,,,,,,,,81,,,,,,space,0.4641,space,0.4026,0.01,1,1.0602,0,0,0,0,1,Practice meditation on the balcony early in the morning,Go for long beach walks with my best friend on warm sunny days,0.01,0.02,3.3,1,,,,
,,659cc63ff59c72a20e2b7688,6685aa9113c938e83b4f1ea0,6723939b6ee84684a13e5bb0,2024-10-31_10h27.26.996,WTP_SM_Choice,2022.2.1,MacIntel,58.82352941,,,,,,,,,,,,,,,,,,82,,,,,,,,,,0.02,2,0.8854,0,1,1,1,1,Watch classic movies in bed on a sunday morning,Attend live music concerts with friends in the summer,0.02,0.02,4.4,1,,,,
,,659cc63ff59c72a20e2b7688,6685aa9113c938e83b4f1ea0,6723939b6ee84684a13e5bb0,2024-10-31_10h27.26.996,WTP_SM_Choice,2022.2.1,MacIntel,58.82352941,,,,,,,,,,,,,,,,,,83,,,,,,,,,,0.02,2,1.1694,0,2,2,2,1,Study together with my classmates in the library before finals,Stargaze in a cozy blanket on a chilly night in the backyard,0.03,0.02,1.1,0,,,,
,,659cc63ff59c72a20e2b7688,6685aa9113c938e83b4f1ea0,6723939b6ee84684a13e5bb0,2024-10-31_10h27.26.996,WTP_SM_Choice,2022.2.1,MacIntel,58.82352941,,,,,,,,,,,,,,,,,,84,,,,,,,,,,0.02,2,1.2362,0,3,3,3,1,Watch classic movies in bed on a sunday morning,Go to trivia night at a local bar with coworkers every month,0.04,0.02,3.3,1,,,,
,,659cc63ff59c72a20e2b7688,6685aa9113c938e83b4f1ea0,6723939b6ee84684a13e5bb0,2024-10-31_10h27.26.996,WTP_SM_Choice,2022.2.1,MacIntel,58.82352941,,,,,,,,,,,,,,,,,,85,,,,,,,,,,0.02,2,0.7972,0,4,4,4,1,Cook new recipes in the kitchen with a favorite playlist on,Watch classic movies with my partner on cozy friday nights at home,0.05,0.02,3.3,1,,,,
,,659cc63ff59c72a20e2b7688,6685aa9113c938e83b4f1ea0,6723939b6ee84684a13e5bb0,2024-10-31_10h27.26.996,WTP_SM_Choice,2022.2.1,MacIntel,58.82352941,,,,,,,NAN,,NAN,1.81,4.19,,0,84,84,84,1,85,Alex,Rej,Participant_Images/659cc63ff59c72a20e2b7688/659cc63ff59c72a20e2b7688_Images/659cc63ff59c72a20e2b7688_Image_16.jpeg,did not like,3.602308302,,,,,,,,,,,,,,,,,,,,,,
,,659cc63ff59c72a20e2b7688,6685aa9113c938e83b4f1ea0,6723939b6ee84684a13e5bb0,2024-10-31_10h27.26.996,WTP_SM_Choice,2022.2.1,MacIntel,58.82352941,,,,,space,2.2151,NAN,,NAN,1.81,4.19,,0,85,85,85,1,86,Alex,Rej,Participant_Images/659cc63ff59c72a20e2b7688/659cc63ff59c72a20e2b7688_Images/659cc63ff59c72a20e2b7688_Image_8.jpeg,liked,4.106391878,,,,,,,,,,,,,,,,,,,,,,
,,659cc63ff59c72a20e2b7688,6685aa9113c938e83b4f1ea0,6723939b6ee84684a13e5bb0,2024-10-31_10h27.26.996,WTP_SM_Choice,2022.2.1,MacIntel,58.82352941,,,,,space,4.2133,NAN,,NAN,1.81,4.19,,0,86,86,86,1,87,Alex,Rej,Participant_Images/659cc63ff59c72a20e2b7688/659cc63ff59c72a20e2b7688_Images/659cc63ff59c72a20e2b7688_Image_12.jpeg,did not like,3.799433026,,,,,,,,,,,,,,,,,,,,,,
,,659cc63ff59c72a20e2b7688,6685aa9113c938e83b4f1ea0,6723939b6ee84684a13e5bb0,2024-10-31_10h27.26.996,WTP_SM_Choice,2022.2.1,MacIntel,58.82352941,,,,,space,0.865,NAN,,NAN,1.81,4.19,,0,87,87,87,1,88,Alex,Rej,Participant_Images/659cc63ff59c72a20e2b7688/659cc63ff59c72a20e2b7688_Images/659cc63ff59c72a20e2b7688_Image_25.jpeg,liked,5.246980764,,,,,,,,,,,,,,,,,,,,,,
,,659cc63ff59c72a20e2b7688,6685aa9113c938e83b4f1ea0,6723939b6ee84684a13e5bb0,2024-10-31_10h27.26.996,WTP_SM_Choice,2022.2.1,MacIntel,58.82352941,,,,,space,2.1179,NAN,,NAN,1.81,4.19,,0,88,88,88,1,89,Alex,Rej,Participant_Images/659cc63ff59c72a20e2b7688/659cc63ff59c72a20e2b7688_Images/659cc63ff59c72a20e2b7688_Image_24.jpeg,liked,3.30081769,,,,,,,,,,,,,,,,,,,,,,
,,659cc63ff59c72a20e2b7688,6685aa9113c938e83b4f1ea0,6723939b6ee84684a13e5bb0,2024-10-31_10h27.26.996,WTP_SM_Choice,2022.2.1,MacIntel,58.82352941,,,,,,,,,,,,,,,,,,86,,,,,,space,0.7174,space,0.3167,0.01,1,1.1248,0,0,0,0,1,Try out new hiking trails with my outdoorsy group on saturday mornings,Stargaze in a cozy blanket on a chilly night in the backyard,0.01,0.03,1.1,0,,,,
,,659cc63ff59c72a20e2b7688,6685aa9113c938e83b4f1ea0,6723939b6ee84684a13e5bb0,2024-10-31_10h27.26.996,WTP_SM_Choice,2022.2.1,MacIntel,58.82352941,,,,,,,,,,,,,,,,,,87,,,,,,,,,,0.02,1,0.9661,0,1,1,1,1,Watch classic movies in bed on a sunday morning,Take road trips with my family to explore new towns and scenic spots,0.02,0.03,4.4,1,,,,
,,659cc63ff59c72a20e2b7688,6685aa9113c938e83b4f1ea0,6723939b6ee84684a13e5bb0,2024-10-31_10h27.26.996,WTP_SM_Choice,2022.2.1,MacIntel,58.82352941,,,,,,,,,,,,,,,,,,88,,,,,,,,,,0.03,2,1.1816,0,2,2,2,1,Bake holiday treats with my mom in her kitchen every december,Journal my thoughts in bed with soft instrumental music playing,0.03,0.03,1.1,0,,,,
,,659cc63ff59c72a20e2b7688,6685aa9113c938e83b4f1ea0,6723939b6ee84684a13e5bb0,2024-10-31_10h27.26.996,WTP_SM_Choice,2022.2.1,MacIntel,58.82352941,,,,,,,,,,,,,,,,,,89,,,,,,,,,,0.03,2,0.834,0,3,3,3,1,Watch classic movies in bed on a sunday morning,Go for long beach walks with my best friend on warm sunny days,0.04,0.03,3.3,1,,,,
,,659cc63ff59c72a20e2b7688,6685aa9113c938e83b4f1ea0,6723939b6ee84684a13e5bb0,2024-10-31_10h27.26.996,WTP_SM_Choice,2022.2.1,MacIntel,58.82352941,,,,,,,,,,,,,,,,,,90,,,,,,,,,,0.03,2,0.8829,0,4,4,4,1,Practice meditation on the balcony early in the morning,Bake holiday treats with my mom in her kitchen every december,0.05,0.03,8.8,1,,,,
,,659cc63ff59c72a20e2b7688,6685aa9113c938e83b4f1ea0,6723939b6ee84684a13e5bb0,2024-10-31_10h27.26.996,WTP_SM_Choice,2022.2.1,MacIntel,58.82352941,,,,,,,NAN,,NAN,1.93,4.07,,0,89,89,89,1,90,Alex,Rej,Participant_Images/659cc63ff59c72a20e2b7688/659cc63ff59c72a20e2b7688_Images/659cc63ff59c72a20e2b7688_Image_21.jpeg,did not like,1.661473164,,,,,,,,,,,,,,,,,,,,,,
,,659cc63ff59c72a20e2b7688,6685aa9113c938e83b4f1ea0,6723939b6ee84684a13e5bb0,2024-10-31_10h27.26.996,WTP_SM_Choice,2022.2.1,MacIntel,58.82352941,,,,,space,0.4374,NAN,,NAN,1.93,4.07,,0,90,90,90,1,91,Alex,Rej,Participant_Images/659cc63ff59c72a20e2b7688/659cc63ff59c72a20e2b7688_Images/659cc63ff59c72a20e2b7688_Image_3.jpeg,liked,3.613205605,,,,,,,,,,,,,,,,,,,,,,
,,659cc63ff59c72a20e2b7688,6685aa9113c938e83b4f1ea0,6723939b6ee84684a13e5bb0,2024-10-31_10h27.26.996,WTP_SM_Choice,2022.2.1,MacIntel,58.82352941,,,,,space,0.5522,NAN,,NAN,1.93,4.07,,0,91,91,91,1,92,Alex,Rej,Participant_Images/659cc63ff59c72a20e2b7688/659cc63ff59c72a20e2b7688_Images/659cc63ff59c72a20e2b7688_Image_11.jpeg,did not like,4.988446431,,,,,,,,,,,,,,,,,,,,,,
,,659cc63ff59c72a20e2b7688,6685aa9113c938e83b4f1ea0,6723939b6ee84684a13e5bb0,2024-10-31_10h27.26.996,WTP_SM_Choice,2022.2.1,MacIntel,58.82352941,,,,,space,1.3335,NAN,,NAN,1.93,4.07,,0,92,92,92,1,93,Alex,Rej,Participant_Images/659cc63ff59c72a20e2b7688/659cc63ff59c72a20e2b7688_Images/659cc63ff59c72a20e2b7688_Image_6.jpeg,did not like,3.470791822,,,,,,,,,,,,,,,,,,,,,,
,,659cc63ff59c72a20e2b7688,6685aa9113c938e83b4f1ea0,6723939b6ee84684a13e5bb0,2024-10-31_10h27.26.996,WTP_SM_Choice,2022.2.1,MacIntel,58.82352941,,,,,space,0.1235,NAN,,NAN,1.93,4.07,,0,93,93,93,1,94,Alex,Rej,Participant_Images/659cc63ff59c72a20e2b7688/659cc63ff59c72a20e2b7688_Images/659cc63ff59c72a20e2b7688_Image_17.jpeg,did not like,3.820572462,,,,,,,,,,,,,,,,,,,,,,
,,659cc63ff59c72a20e2b7688,6685aa9113c938e83b4f1ea0,6723939b6ee84684a13e5bb0,2024-10-31_10h27.26.996,WTP_SM_Choice,2022.2.1,MacIntel,58.82352941,,,,,,,,,,,,,,,,,,91,,,,,,space,0.1306,space,0.7708,0.01,1,1.0592,0,0,0,0,1,Journal my thoughts in bed with soft instrumental music playing,Watch classic movies with my partner on cozy friday nights at home,0.01,0.04,3.3,1,,,,
,,659cc63ff59c72a20e2b7688,6685aa9113c938e83b4f1ea0,6723939b6ee84684a13e5bb0,2024-10-31_10h27.26.996,WTP_SM_Choice,2022.2.1,MacIntel,58.82352941,,,,,,,,,,,,,,,,,,92,,,,,,,,,,0.02,1,1.9653,0,1,1,1,1,Study together with my classmates in the library before finals,Explore new hiking trails in a secluded forest,0.02,0.04,8.8,0,,,,
,,659cc63ff59c72a20e2b7688,6685aa9113c938e83b4f1ea0,6723939b6ee84684a13e5bb0,2024-10-31_10h27.26.996,WTP_SM_Choice,2022.2.1,MacIntel,58.82352941,,,,,,,,,,,,,,,,,,93,,,,,,,,,,0.03,1,0.8813,0,2,2,2,1,Read mystery novels by the window on a rainy afternoon,Go to trivia night at a local bar with coworkers every month,0.03,0.04,1.1,1,,,,
,,659cc63ff59c72a20e2b7688,6685aa9113c938e83b4f1ea0,6723939b6ee84684a13e5bb0,2024-10-31_10h27.26.996,WTP_SM_Choice,2022.2.1,MacIntel,58.82352941,,,,,,,,,,,,,,,,,,94,,,,,,,,,,0.04,1,1.4175,0,3,3,3,1,Attend live music concerts with friends in the summer,Journal my thoughts in bed with soft instrumental music playing,0.04,0.04,4.4,0,,,,
,,659cc63ff59c72a20e2b7688,6685aa9113c938e83b4f1ea0,6723939b6ee84684a13e5bb0,2024-10-31_10h27.26.996,WTP_SM_Choice,2022.2.1,MacIntel,58.82352941,,,,,,,,,,,,,,,,,,95,,,,,,,,,,0.04,2,1.3505,0,4,4,4,1,Attend live music concerts with friends in the summer,Sketch landscapes in my backyard during sunset,0.05,0.04,4.4,0,,,,
,,659cc63ff59c72a20e2b7688,6685aa9113c938e83b4f1ea0,6723939b6ee84684a13e5bb0,2024-10-31_10h27.26.996,WTP_SM_Choice,2022.2.1,MacIntel,58.82352941,,,,,,,NAN,,NAN,2.07,3.93,,0,94,94,94,1,95,Alex,Rej,Participant_Images/659cc63ff59c72a20e2b7688/659cc63ff59c72a20e2b7688_Images/659cc63ff59c72a20e2b7688_Image_14.jpeg,did not like,2.455989137,,,,,,,,,,,,,,,,,,,,,,
,,659cc63ff59c72a20e2b7688,6685aa9113c938e83b4f1ea0,6723939b6ee84684a13e5bb0,2024-10-31_10h27.26.996,WTP_SM_Choice,2022.2.1,MacIntel,58.82352941,,,,,space,0.0861,NAN,,NAN,2.07,3.93,,0,95,95,95,1,96,Alex,Rej,Participant_Images/659cc63ff59c72a20e2b7688/659cc63ff59c72a20e2b7688_Images/659cc63ff59c72a20e2b7688_Image_10.jpeg,did not like,3.79605092,,,,,,,,,,,,,,,,,,,,,,
,,659cc63ff59c72a20e2b7688,6685aa9113c938e83b4f1ea0,6723939b6ee84684a13e5bb0,2024-10-31_10h27.26.996,WTP_SM_Choice,2022.2.1,MacIntel,58.82352941,,,,,space,0.2176,NAN,,NAN,2.07,3.93,,0,96,96,96,1,97,Alex,Rej,Participant_Images/659cc63ff59c72a20e2b7688/659cc63ff59c72a20e2b7688_Images/659cc63ff59c72a20e2b7688_Image_5.jpeg,liked,3.562416326,,,,,,,,,,,,,,,,,,,,,,
,,659cc63ff59c72a20e2b7688,6685aa9113c938e83b4f1ea0,6723939b6ee84684a13e5bb0,2024-10-31_10h27.26.996,WTP_SM_Choice,2022.2.1,MacIntel,58.82352941,,,,,space,0.198,NAN,,NAN,2.07,3.93,,0,97,97,97,1,98,Alex,Rej,Participant_Images/659cc63ff59c72a20e2b7688/659cc63ff59c72a20e2b7688_Images/659cc63ff59c72a20e2b7688_Image_13.jpeg,liked,2.843822497,,,,,,,,,,,,,,,,,,,,,,
,,659cc63ff59c72a20e2b7688,6685aa9113c938e83b4f1ea0,6723939b6ee84684a13e5bb0,2024-10-31_10h27.26.996,WTP_SM_Choice,2022.2.1,MacIntel,58.82352941,,,,,space,0.2358,NAN,,NAN,2.07,3.93,,0,98,98,98,1,99,Alex,Rej,Participant_Images/659cc63ff59c72a20e2b7688/659cc63ff59c72a20e2b7688_Images/659cc63ff59c72a20e2b7688_Image_4.jpeg,did not like,3.546495948,,,,,,,,,,,,,,,,,,,,,,
,,659cc63ff59c72a20e2b7688,6685aa9113c938e83b4f1ea0,6723939b6ee84684a13e5bb0,2024-10-31_10h27.26.996,WTP_SM_Choice,2022.2.1,MacIntel,58.82352941,,,,,,,,,,,,,,,,,,96,,,,,,space,0.7464,space,0.5147,0.01,1,0.764,0,0,0,0,1,Explore new hiking trails in a secluded forest,Bake holiday treats with my mom in her kitchen every december,0.01,0.05,3.3,1,,,,
,,659cc63ff59c72a20e2b7688,6685aa9113c938e83b4f1ea0,6723939b6ee84684a13e5bb0,2024-10-31_10h27.26.996,WTP_SM_Choice,2022.2.1,MacIntel,58.82352941,,,,,,,,,,,,,,,,,,97,,,,,,,,,,0.02,1,1.2365,0,1,1,1,1,Sketch landscapes in my backyard during sunset,Bake holiday treats with my mom in her kitchen every december,0.02,0.05,1.1,1,,,,
,,659cc63ff59c72a20e2b7688,6685aa9113c938e83b4f1ea0,6723939b6ee84684a13e5bb0,2024-10-31_10h27.26.996,WTP_SM_Choice,2022.2.1,MacIntel,58.82352941,,,,,,,,,,,,,,,,,,98,,,,,,,,,,0.03,1,0.9779,0,2,2,2,1,Go on weekend brunch dates with friends at our favorite cafe,Stargaze in a cozy blanket on a chilly night in the backyard,0.03,0.05,1.1,0,,,,
,,659cc63ff59c72a20e2b7688,6685aa9113c938e83b4f1ea0,6723939b6ee84684a13e5bb0,2024-10-31_10h27.26.996,WTP_SM_Choice,2022.2.1,MacIntel,58.82352941,,,,,,,,,,,,,,,,,,99,,,,,,,,,,0.04,1,1.7176,0,3,3,3,1,Go to trivia night at a local bar with coworkers every month,Practice meditation on the balcony early in the morning,0.04,0.05,3.3,0,,,,
,,659cc63ff59c72a20e2b7688,6685aa9113c938e83b4f1ea0,6723939b6ee84684a13e5bb0,2024-10-31_10h27.26.996,WTP_SM_Choice,2022.2.1,MacIntel,58.82352941,,,,,,,,,,,,,,,,,,100,,,,,,,,,,0.05,2,1.2661,0,4,4,4,1,Explore new hiking trails in a secluded forest,Watch classic movies with my partner on cozy friday nights at home,0.05,0.05,4.4,1,,,,
,,659cc63ff59c72a20e2b7688,6685aa9113c938e83b4f1ea0,6723939b6ee84684a13e5bb0,2024-10-31_10h27.26.996,WTP_SM_Choice,2022.2.1,MacIntel,58.82352941,,,,,,,3,,5,2.22,3.78,,0,99,99,99,1,100,Alex,Rej,Participant_Images/659cc63ff59c72a20e2b7688/659cc63ff59c72a20e2b7688_Images/659cc63ff59c72a20e2b7688_Image_19.jpeg,did not like,1.672012706,,,,,,,,,,,,,,,,,,,space,1.3819,,
,,659cc63ff59c72a20e2b7688,6685aa9113c938e83b4f1ea0,6723939b6ee84684a13e5bb0,2024-10-31_10h27.26.996,WTP_SM_Choice,2022.2.1,MacIntel,58.82352941,,,,,,,,,,,,,,,,,,,,,,,,,,,,,,,,,,,,,,,,,,,,space,1.6198
