endwelcomescreen_keys.keys,endwelcomescreen_keys.rt,participant,STUDY_ID,SESSION_ID,date,expName,psychopyVersion,OS,frameRate,endinstructionscreen_keys.keys,endinstructionscreen_keys.rt,endpartnermatch_keys.keys,endpartnermatch_keys.rt,sharenextphoto_key.keys,sharenextphoto_key.rt,salience_rating,key_resp.keys,stress_level,subtract_bonus,TOTAL_TASK_BONUS,stresslevel_keypress.keys,entiretaskloop.thisRepN,entiretaskloop.thisTrialN,entiretaskloop.thisN,entiretaskloop.thisIndex,entiretaskloop.ran,TrialNumber,Partner,Condition,Photos,Feedback,FeedbackWait,WTP_ins_keys1.keys,WTP_ins_keys1.rt,WTP_ins_keys2.keys,WTP_ins_keys2.rt,decision_price,responses.keys,responses.rt,WTPTaskLoop.thisRepN,WTPTaskLoop.thisTrialN,WTPTaskLoop.thisN,WTPTaskLoop.thisIndex,WTPTaskLoop.ran,right,left,leftmoney,rightmoney,WTP_ITI,social_left,Resume_keys.keys,Resume_keys.rt,end_screen_keys.keys,end_screen_keys.rt
space,5.6362,65b7ba948f5c3052140c24f8,6685aa9113c938e83b4f1ea0,671c4d0c78c1624a723ea69f,2024-10-25_19h00.12.617,WTP_SM_Choice,2022.2.1,Win32,59.88023952,,,,,,,,,,,,,,,,,,,,,,,,,,,,,,,,,,,,,,,,,,,,,
,,65b7ba948f5c3052140c24f8,6685aa9113c938e83b4f1ea0,671c4d0c78c1624a723ea69f,2024-10-25_19h00.12.617,WTP_SM_Choice,2022.2.1,Win32,59.88023952,space,36.092,,,,,,,,,,,,,,,,,,,,,,,,,,,,,,,,,,,,,,,,,,,
,,65b7ba948f5c3052140c24f8,6685aa9113c938e83b4f1ea0,671c4d0c78c1624a723ea69f,2024-10-25_19h00.12.617,WTP_SM_Choice,2022.2.1,Win32,59.88023952,,,space,2.5458,space,2.3064,NAN,,NAN,0,6,,0,0,0,0,1,1,Charlie,Acc,Participant_Images/65b7ba948f5c3052140c24f8/65b7ba948f5c3052140c24f8_Images/65b7ba948f5c3052140c24f8_Image_7.jpeg,liked,3.613205605,,,,,,,,,,,,,,,,,,,,,,
,,65b7ba948f5c3052140c24f8,6685aa9113c938e83b4f1ea0,671c4d0c78c1624a723ea69f,2024-10-25_19h00.12.617,WTP_SM_Choice,2022.2.1,Win32,59.88023952,,,,,space,1.6191,NAN,,NAN,0,6,,0,1,1,1,1,2,Charlie,Acc,Participant_Images/65b7ba948f5c3052140c24f8/65b7ba948f5c3052140c24f8_Images/65b7ba948f5c3052140c24f8_Image_15.jpeg,liked,4.988446431,,,,,,,,,,,,,,,,,,,,,,
,,65b7ba948f5c3052140c24f8,6685aa9113c938e83b4f1ea0,671c4d0c78c1624a723ea69f,2024-10-25_19h00.12.617,WTP_SM_Choice,2022.2.1,Win32,59.88023952,,,,,space,1.7705,NAN,,NAN,0,6,,0,2,2,2,1,3,Charlie,Acc,Participant_Images/65b7ba948f5c3052140c24f8/65b7ba948f5c3052140c24f8_Images/65b7ba948f5c3052140c24f8_Image_1.jpeg,liked,3.470791822,,,,,,,,,,,,,,,,,,,,,,
,,65b7ba948f5c3052140c24f8,6685aa9113c938e83b4f1ea0,671c4d0c78c1624a723ea69f,2024-10-25_19h00.12.617,WTP_SM_Choice,2022.2.1,Win32,59.88023952,,,,,space,2.6149,NAN,,NAN,0,6,,0,3,3,3,1,4,Charlie,Acc,Participant_Images/65b7ba948f5c3052140c24f8/65b7ba948f5c3052140c24f8_Images/65b7ba948f5c3052140c24f8_Image_3.jpeg,liked,3.820572462,,,,,,,,,,,,,,,,,,,,,,
,,65b7ba948f5c3052140c24f8,6685aa9113c938e83b4f1ea0,671c4d0c78c1624a723ea69f,2024-10-25_19h00.12.617,WTP_SM_Choice,2022.2.1,Win32,59.88023952,,,,,,,,,,,,,,,,,,1,,,,,,space,24.2388,space,7.8113,0.01,2,6.2275,0,0,0,0,1,Browse tiktok and watching funny videos laying down on my bed,Listen to my favorite music with my brother,0.01,0.01,4.4,1,,,,
,,65b7ba948f5c3052140c24f8,6685aa9113c938e83b4f1ea0,671c4d0c78c1624a723ea69f,2024-10-25_19h00.12.617,WTP_SM_Choice,2022.2.1,Win32,59.88023952,,,,,,,,,,,,,,,,,,2,,,,,,,,,,0.01,2,6.943,0,1,1,1,1,Go on trips with the family to parks for them to play at,Go on errands in my car to pick up groceries,0.02,0.01,8.8,0,,,,
,,65b7ba948f5c3052140c24f8,6685aa9113c938e83b4f1ea0,671c4d0c78c1624a723ea69f,2024-10-25_19h00.12.617,WTP_SM_Choice,2022.2.1,Win32,59.88023952,,,,,,,,,,,,,,,,,,3,,,,,,,,,,0.03,1,2.6839,0,2,2,2,1,Listen to some music with my headphones on my bed,Listen to my favorite music with my brother,0.03,0.01,3.3,1,,,,
,,65b7ba948f5c3052140c24f8,6685aa9113c938e83b4f1ea0,671c4d0c78c1624a723ea69f,2024-10-25_19h00.12.617,WTP_SM_Choice,2022.2.1,Win32,59.88023952,,,,,,,,,,,,,,,,,,4,,,,,,,,,,0.04,1,3.8444,0,3,3,3,1,Watch movies at the theater with my friends,Browse tiktok and watching funny videos laying down on my bed,0.04,0.01,1.1,0,,,,
,,65b7ba948f5c3052140c24f8,6685aa9113c938e83b4f1ea0,671c4d0c78c1624a723ea69f,2024-10-25_19h00.12.617,WTP_SM_Choice,2022.2.1,Win32,59.88023952,,,,,,,,,,,,,,,,,,5,,,,,,,,,,0.01,2,5.2568,0,4,4,4,1,Have dinner with my family every night ,Play some world of warcraft on my gaming computer,0.05,0.01,1.1,0,,,,
,,65b7ba948f5c3052140c24f8,6685aa9113c938e83b4f1ea0,671c4d0c78c1624a723ea69f,2024-10-25_19h00.12.617,WTP_SM_Choice,2022.2.1,Win32,59.88023952,,,,,,,NAN,,NAN,0.1,5.9,,0,4,4,4,1,5,Charlie,Acc,Participant_Images/65b7ba948f5c3052140c24f8/65b7ba948f5c3052140c24f8_Images/65b7ba948f5c3052140c24f8_Image_13.jpeg,liked,2.455989137,,,,,,,,,,,,,,,,,,,,,,
,,65b7ba948f5c3052140c24f8,6685aa9113c938e83b4f1ea0,671c4d0c78c1624a723ea69f,2024-10-25_19h00.12.617,WTP_SM_Choice,2022.2.1,Win32,59.88023952,,,,,space,1.4168,NAN,,NAN,0.1,5.9,,0,5,5,5,1,6,Charlie,Acc,Participant_Images/65b7ba948f5c3052140c24f8/65b7ba948f5c3052140c24f8_Images/65b7ba948f5c3052140c24f8_Image_12.jpeg,liked,3.79605092,,,,,,,,,,,,,,,,,,,,,,
,,65b7ba948f5c3052140c24f8,6685aa9113c938e83b4f1ea0,671c4d0c78c1624a723ea69f,2024-10-25_19h00.12.617,WTP_SM_Choice,2022.2.1,Win32,59.88023952,,,,,space,0.7528,NAN,,NAN,0.1,5.9,,0,6,6,6,1,7,Charlie,Acc,Participant_Images/65b7ba948f5c3052140c24f8/65b7ba948f5c3052140c24f8_Images/65b7ba948f5c3052140c24f8_Image_4.jpeg,liked,3.562416326,,,,,,,,,,,,,,,,,,,,,,
,,65b7ba948f5c3052140c24f8,6685aa9113c938e83b4f1ea0,671c4d0c78c1624a723ea69f,2024-10-25_19h00.12.617,WTP_SM_Choice,2022.2.1,Win32,59.88023952,,,,,space,2.3696,NAN,,NAN,0.1,5.9,,0,7,7,7,1,8,Charlie,Acc,Participant_Images/65b7ba948f5c3052140c24f8/65b7ba948f5c3052140c24f8_Images/65b7ba948f5c3052140c24f8_Image_11.jpeg,liked,2.843822497,,,,,,,,,,,,,,,,,,,,,,
,,65b7ba948f5c3052140c24f8,6685aa9113c938e83b4f1ea0,671c4d0c78c1624a723ea69f,2024-10-25_19h00.12.617,WTP_SM_Choice,2022.2.1,Win32,59.88023952,,,,,space,10.8617,NAN,,NAN,0.1,5.9,,0,8,8,8,1,9,Charlie,Acc,Participant_Images/65b7ba948f5c3052140c24f8/65b7ba948f5c3052140c24f8_Images/65b7ba948f5c3052140c24f8_Image_10.jpeg,liked,3.546495948,,,,,,,,,,,,,,,,,,,,,,
,,65b7ba948f5c3052140c24f8,6685aa9113c938e83b4f1ea0,671c4d0c78c1624a723ea69f,2024-10-25_19h00.12.617,WTP_SM_Choice,2022.2.1,Win32,59.88023952,,,,,,,,,,,,,,,,,,6,,,,,,space,9.5471,space,5.0439,0.01,1,5.966,0,0,0,0,1,Clean the house while blasting my music,"Host a party and play jack box on the TV with my friends, family, and coworkers",0.01,0.02,3.3,1,,,,
,,65b7ba948f5c3052140c24f8,6685aa9113c938e83b4f1ea0,671c4d0c78c1624a723ea69f,2024-10-25_19h00.12.617,WTP_SM_Choice,2022.2.1,Win32,59.88023952,,,,,,,,,,,,,,,,,,7,,,,,,,,,,0.02,2,5.1387,0,1,1,1,1,Watch some anime from crunchyroll,Watch movies at the theater with my friends,0.02,0.02,1.1,1,,,,
,,65b7ba948f5c3052140c24f8,6685aa9113c938e83b4f1ea0,671c4d0c78c1624a723ea69f,2024-10-25_19h00.12.617,WTP_SM_Choice,2022.2.1,Win32,59.88023952,,,,,,,,,,,,,,,,,,8,,,,,,,,,,0.02,2,5.5456,0,2,2,2,1,Go out with my spouse on dates to our favorite restaurant,Play some world of warcraft on my gaming computer,0.03,0.02,1.1,0,,,,
,,65b7ba948f5c3052140c24f8,6685aa9113c938e83b4f1ea0,671c4d0c78c1624a723ea69f,2024-10-25_19h00.12.617,WTP_SM_Choice,2022.2.1,Win32,59.88023952,,,,,,,,,,,,,,,,,,9,,,,,,,,,,0.02,2,6.1908,0,3,3,3,1,Spend time on the couch with my spouse watch our tv shows,Clean the house while blasting my music,0.04,0.02,4.4,0,,,,
,,65b7ba948f5c3052140c24f8,6685aa9113c938e83b4f1ea0,671c4d0c78c1624a723ea69f,2024-10-25_19h00.12.617,WTP_SM_Choice,2022.2.1,Win32,59.88023952,,,,,,,,,,,,,,,,,,10,,,,,,,,,,0.05,1,2.8367,0,4,4,4,1,Go on errands in my car to pick up groceries,"Host a party and play jack box on the TV with my friends, family, and coworkers",0.05,0.02,1.1,1,,,,
,,65b7ba948f5c3052140c24f8,6685aa9113c938e83b4f1ea0,671c4d0c78c1624a723ea69f,2024-10-25_19h00.12.617,WTP_SM_Choice,2022.2.1,Win32,59.88023952,,,,,,,NAN,,NAN,0.22,5.78,,0,9,9,9,1,10,Charlie,Acc,Participant_Images/65b7ba948f5c3052140c24f8/65b7ba948f5c3052140c24f8_Images/65b7ba948f5c3052140c24f8_Image_20.jpeg,liked,1.672012706,,,,,,,,,,,,,,,,,,,,,,
,,65b7ba948f5c3052140c24f8,6685aa9113c938e83b4f1ea0,671c4d0c78c1624a723ea69f,2024-10-25_19h00.12.617,WTP_SM_Choice,2022.2.1,Win32,59.88023952,,,,,space,1.8482,NAN,,NAN,0.22,5.78,,0,10,10,10,1,11,Charlie,Acc,Participant_Images/65b7ba948f5c3052140c24f8/65b7ba948f5c3052140c24f8_Images/65b7ba948f5c3052140c24f8_Image_25.jpeg,did not like,4.942172136,,,,,,,,,,,,,,,,,,,,,,
,,65b7ba948f5c3052140c24f8,6685aa9113c938e83b4f1ea0,671c4d0c78c1624a723ea69f,2024-10-25_19h00.12.617,WTP_SM_Choice,2022.2.1,Win32,59.88023952,,,,,space,0.7064,NAN,,NAN,0.22,5.78,,0,11,11,11,1,12,Charlie,Acc,Participant_Images/65b7ba948f5c3052140c24f8/65b7ba948f5c3052140c24f8_Images/65b7ba948f5c3052140c24f8_Image_24.jpeg,did not like,2.50187214,,,,,,,,,,,,,,,,,,,,,,
,,65b7ba948f5c3052140c24f8,6685aa9113c938e83b4f1ea0,671c4d0c78c1624a723ea69f,2024-10-25_19h00.12.617,WTP_SM_Choice,2022.2.1,Win32,59.88023952,,,,,space,0.786,NAN,,NAN,0.22,5.78,,0,12,12,12,1,13,Charlie,Acc,Participant_Images/65b7ba948f5c3052140c24f8/65b7ba948f5c3052140c24f8_Images/65b7ba948f5c3052140c24f8_Image_8.jpeg,did not like,2.071164779,,,,,,,,,,,,,,,,,,,,,,
,,65b7ba948f5c3052140c24f8,6685aa9113c938e83b4f1ea0,671c4d0c78c1624a723ea69f,2024-10-25_19h00.12.617,WTP_SM_Choice,2022.2.1,Win32,59.88023952,,,,,space,11.2914,NAN,,NAN,0.22,5.78,,0,13,13,13,1,14,Charlie,Acc,Participant_Images/65b7ba948f5c3052140c24f8/65b7ba948f5c3052140c24f8_Images/65b7ba948f5c3052140c24f8_Image_22.jpeg,liked,5.336503566,,,,,,,,,,,,,,,,,,,,,,
,,65b7ba948f5c3052140c24f8,6685aa9113c938e83b4f1ea0,671c4d0c78c1624a723ea69f,2024-10-25_19h00.12.617,WTP_SM_Choice,2022.2.1,Win32,59.88023952,,,,,,,,,,,,,,,,,,11,,,,,,space,8.2797,space,4.7382,0.03,2,3.6051,0,0,0,0,1,Have dinner with my family every night ,Clean the house while blasting my music,0.01,0.03,3.3,0,,,,
,,65b7ba948f5c3052140c24f8,6685aa9113c938e83b4f1ea0,671c4d0c78c1624a723ea69f,2024-10-25_19h00.12.617,WTP_SM_Choice,2022.2.1,Win32,59.88023952,,,,,,,,,,,,,,,,,,12,,,,,,,,,,0.03,2,6.8986,0,1,1,1,1,Have dinner with my family every night ,Watch youtube and gamegrumps on my computer,0.02,0.03,4.4,0,,,,
,,65b7ba948f5c3052140c24f8,6685aa9113c938e83b4f1ea0,671c4d0c78c1624a723ea69f,2024-10-25_19h00.12.617,WTP_SM_Choice,2022.2.1,Win32,59.88023952,,,,,,,,,,,,,,,,,,13,,,,,,,,,,0.03,2,5.7398,0,2,2,2,1,Learn about new technology from reddit,Listen to my favorite music with my brother,0.03,0.03,1.1,1,,,,
,,65b7ba948f5c3052140c24f8,6685aa9113c938e83b4f1ea0,671c4d0c78c1624a723ea69f,2024-10-25_19h00.12.617,WTP_SM_Choice,2022.2.1,Win32,59.88023952,,,,,,,,,,,,,,,,,,14,,,,,,,,,,0.03,2,4.1199,0,3,3,3,1,Spend time on the couch with my spouse watch our tv shows,Play some world of warcraft on my gaming computer,0.04,0.03,3.3,0,,,,
,,65b7ba948f5c3052140c24f8,6685aa9113c938e83b4f1ea0,671c4d0c78c1624a723ea69f,2024-10-25_19h00.12.617,WTP_SM_Choice,2022.2.1,Win32,59.88023952,,,,,,,,,,,,,,,,,,15,,,,,,,,,,0.05,1,4.7981,0,4,4,4,1,Watch youtube and gamegrumps on my computer,Spend time on the couch with my spouse watch our tv shows,0.05,0.03,4.4,1,,,,
,,65b7ba948f5c3052140c24f8,6685aa9113c938e83b4f1ea0,671c4d0c78c1624a723ea69f,2024-10-25_19h00.12.617,WTP_SM_Choice,2022.2.1,Win32,59.88023952,,,,,,,NAN,,NAN,0.39,5.61,,0,14,14,14,1,15,Charlie,Acc,Participant_Images/65b7ba948f5c3052140c24f8/65b7ba948f5c3052140c24f8_Images/65b7ba948f5c3052140c24f8_Image_18.jpeg,liked,2.642157193,,,,,,,,,,,,,,,,,,,,,,
,,65b7ba948f5c3052140c24f8,6685aa9113c938e83b4f1ea0,671c4d0c78c1624a723ea69f,2024-10-25_19h00.12.617,WTP_SM_Choice,2022.2.1,Win32,59.88023952,,,,,space,6.4349,NAN,,NAN,0.39,5.61,,0,15,15,15,1,16,Charlie,Acc,Participant_Images/65b7ba948f5c3052140c24f8/65b7ba948f5c3052140c24f8_Images/65b7ba948f5c3052140c24f8_Image_9.jpeg,liked,4.456234322,,,,,,,,,,,,,,,,,,,,,,
,,65b7ba948f5c3052140c24f8,6685aa9113c938e83b4f1ea0,671c4d0c78c1624a723ea69f,2024-10-25_19h00.12.617,WTP_SM_Choice,2022.2.1,Win32,59.88023952,,,,,space,1.9535,NAN,,NAN,0.39,5.61,,0,16,16,16,1,17,Charlie,Acc,Participant_Images/65b7ba948f5c3052140c24f8/65b7ba948f5c3052140c24f8_Images/65b7ba948f5c3052140c24f8_Image_5.jpeg,did not like,4.438512181,,,,,,,,,,,,,,,,,,,,,,
,,65b7ba948f5c3052140c24f8,6685aa9113c938e83b4f1ea0,671c4d0c78c1624a723ea69f,2024-10-25_19h00.12.617,WTP_SM_Choice,2022.2.1,Win32,59.88023952,,,,,space,0.7247,NAN,,NAN,0.39,5.61,,0,17,17,17,1,18,Charlie,Acc,Participant_Images/65b7ba948f5c3052140c24f8/65b7ba948f5c3052140c24f8_Images/65b7ba948f5c3052140c24f8_Image_21.jpeg,liked,2.682944783,,,,,,,,,,,,,,,,,,,,,,
,,65b7ba948f5c3052140c24f8,6685aa9113c938e83b4f1ea0,671c4d0c78c1624a723ea69f,2024-10-25_19h00.12.617,WTP_SM_Choice,2022.2.1,Win32,59.88023952,,,,,space,0.587,NAN,,NAN,0.39,5.61,,0,18,18,18,1,19,Charlie,Acc,Participant_Images/65b7ba948f5c3052140c24f8/65b7ba948f5c3052140c24f8_Images/65b7ba948f5c3052140c24f8_Image_23.jpeg,liked,4.51984296,,,,,,,,,,,,,,,,,,,,,,
,,65b7ba948f5c3052140c24f8,6685aa9113c938e83b4f1ea0,671c4d0c78c1624a723ea69f,2024-10-25_19h00.12.617,WTP_SM_Choice,2022.2.1,Win32,59.88023952,,,,,,,,,,,,,,,,,,16,,,,,,space,16.0684,space,0.7232,0.01,1,3.7539,0,0,0,0,1,"Host a party and play jack box on the TV with my friends, family, and coworkers",Browse tiktok and watching funny videos laying down on my bed,0.01,0.04,1.1,0,,,,
,,65b7ba948f5c3052140c24f8,6685aa9113c938e83b4f1ea0,671c4d0c78c1624a723ea69f,2024-10-25_19h00.12.617,WTP_SM_Choice,2022.2.1,Win32,59.88023952,,,,,,,,,,,,,,,,,,17,,,,,,,,,,0.04,2,5.4152,0,1,1,1,1,Go out with my spouse on dates to our favorite restaurant,Research facts about star wars across the web,0.02,0.04,8.8,0,,,,
,,65b7ba948f5c3052140c24f8,6685aa9113c938e83b4f1ea0,671c4d0c78c1624a723ea69f,2024-10-25_19h00.12.617,WTP_SM_Choice,2022.2.1,Win32,59.88023952,,,,,,,,,,,,,,,,,,18,,,,,,,,,,0.03,1,4.1556,0,2,2,2,1,Go on errands in my car to pick up groceries,Watch movies at the theater with my friends,0.03,0.04,3.3,1,,,,
,,65b7ba948f5c3052140c24f8,6685aa9113c938e83b4f1ea0,671c4d0c78c1624a723ea69f,2024-10-25_19h00.12.617,WTP_SM_Choice,2022.2.1,Win32,59.88023952,,,,,,,,,,,,,,,,,,19,,,,,,,,,,0.04,1,4.1525,0,3,3,3,1,Research facts about star wars across the web,"Host a party and play jack box on the TV with my friends, family, and coworkers",0.04,0.04,3.3,1,,,,
,,65b7ba948f5c3052140c24f8,6685aa9113c938e83b4f1ea0,671c4d0c78c1624a723ea69f,2024-10-25_19h00.12.617,WTP_SM_Choice,2022.2.1,Win32,59.88023952,,,,,,,,,,,,,,,,,,20,,,,,,,,,,0.04,2,6.5827,0,4,4,4,1,Go to the bar with my work colleagues after a shift,Go on errands in my car to pick up groceries,0.05,0.04,1.1,0,,,,
,,65b7ba948f5c3052140c24f8,6685aa9113c938e83b4f1ea0,671c4d0c78c1624a723ea69f,2024-10-25_19h00.12.617,WTP_SM_Choice,2022.2.1,Win32,59.88023952,,,,,,,NAN,,NAN,0.55,5.45,,0,19,19,19,1,20,Charlie,Acc,Participant_Images/65b7ba948f5c3052140c24f8/65b7ba948f5c3052140c24f8_Images/65b7ba948f5c3052140c24f8_Image_2.jpeg,did not like,3.195382774,,,,,,,,,,,,,,,,,,,,,,
,,65b7ba948f5c3052140c24f8,6685aa9113c938e83b4f1ea0,671c4d0c78c1624a723ea69f,2024-10-25_19h00.12.617,WTP_SM_Choice,2022.2.1,Win32,59.88023952,,,,,space,0.5689,NAN,,NAN,0.55,5.45,,0,20,20,20,1,21,Charlie,Acc,Participant_Images/65b7ba948f5c3052140c24f8/65b7ba948f5c3052140c24f8_Images/65b7ba948f5c3052140c24f8_Image_6.jpeg,liked,1.779333479,,,,,,,,,,,,,,,,,,,,,,
,,65b7ba948f5c3052140c24f8,6685aa9113c938e83b4f1ea0,671c4d0c78c1624a723ea69f,2024-10-25_19h00.12.617,WTP_SM_Choice,2022.2.1,Win32,59.88023952,,,,,space,0.7143,NAN,,NAN,0.55,5.45,,0,21,21,21,1,22,Charlie,Acc,Participant_Images/65b7ba948f5c3052140c24f8/65b7ba948f5c3052140c24f8_Images/65b7ba948f5c3052140c24f8_Image_14.jpeg,did not like,4.312468682,,,,,,,,,,,,,,,,,,,,,,
,,65b7ba948f5c3052140c24f8,6685aa9113c938e83b4f1ea0,671c4d0c78c1624a723ea69f,2024-10-25_19h00.12.617,WTP_SM_Choice,2022.2.1,Win32,59.88023952,,,,,space,4.971,NAN,,NAN,0.55,5.45,,0,22,22,22,1,23,Charlie,Acc,Participant_Images/65b7ba948f5c3052140c24f8/65b7ba948f5c3052140c24f8_Images/65b7ba948f5c3052140c24f8_Image_19.jpeg,liked,4.940433059,,,,,,,,,,,,,,,,,,,,,,
,,65b7ba948f5c3052140c24f8,6685aa9113c938e83b4f1ea0,671c4d0c78c1624a723ea69f,2024-10-25_19h00.12.617,WTP_SM_Choice,2022.2.1,Win32,59.88023952,,,,,space,0.6027,NAN,,NAN,0.55,5.45,,0,23,23,23,1,24,Charlie,Acc,Participant_Images/65b7ba948f5c3052140c24f8/65b7ba948f5c3052140c24f8_Images/65b7ba948f5c3052140c24f8_Image_17.jpeg,did not like,2.7105123,,,,,,,,,,,,,,,,,,,,,,
,,65b7ba948f5c3052140c24f8,6685aa9113c938e83b4f1ea0,671c4d0c78c1624a723ea69f,2024-10-25_19h00.12.617,WTP_SM_Choice,2022.2.1,Win32,59.88023952,,,,,,,,,,,,,,,,,,21,,,,,,space,5.5734,space,1.4748,0.05,2,4.4502,0,0,0,0,1,Play fight games with my spouse and friends,Go on errands in my car to pick up groceries,0.01,0.05,8.8,0,,,,
,,65b7ba948f5c3052140c24f8,6685aa9113c938e83b4f1ea0,671c4d0c78c1624a723ea69f,2024-10-25_19h00.12.617,WTP_SM_Choice,2022.2.1,Win32,59.88023952,,,,,,,,,,,,,,,,,,22,,,,,,,,,,0.02,1,3.9228,0,1,1,1,1,Listen to my favorite music with my brother,Watch youtube and gamegrumps on my computer,0.02,0.05,4.4,0,,,,
,,65b7ba948f5c3052140c24f8,6685aa9113c938e83b4f1ea0,671c4d0c78c1624a723ea69f,2024-10-25_19h00.12.617,WTP_SM_Choice,2022.2.1,Win32,59.88023952,,,,,,,,,,,,,,,,,,23,,,,,,,,,,0.03,1,4.4911,0,2,2,2,1,Go to the bar with my work colleagues after a shift,Watch some anime from crunchyroll,0.03,0.05,1.1,0,,,,
,,65b7ba948f5c3052140c24f8,6685aa9113c938e83b4f1ea0,671c4d0c78c1624a723ea69f,2024-10-25_19h00.12.617,WTP_SM_Choice,2022.2.1,Win32,59.88023952,,,,,,,,,,,,,,,,,,24,,,,,,,,,,0.05,2,2.8639,0,3,3,3,1,Have dinner with my family every night ,Learn about new technology from reddit,0.04,0.05,4.4,0,,,,
,,65b7ba948f5c3052140c24f8,6685aa9113c938e83b4f1ea0,671c4d0c78c1624a723ea69f,2024-10-25_19h00.12.617,WTP_SM_Choice,2022.2.1,Win32,59.88023952,,,,,,,,,,,,,,,,,,25,,,,,,,,,,0.05,1,4.276,0,4,4,4,1,Research facts about star wars across the web,Listen to my favorite music with my brother,0.05,0.05,3.3,1,,,,
,,65b7ba948f5c3052140c24f8,6685aa9113c938e83b4f1ea0,671c4d0c78c1624a723ea69f,2024-10-25_19h00.12.617,WTP_SM_Choice,2022.2.1,Win32,59.88023952,,,,,,,2,,2,0.75,5.25,,0,24,24,24,1,25,Charlie,Acc,Participant_Images/65b7ba948f5c3052140c24f8/65b7ba948f5c3052140c24f8_Images/65b7ba948f5c3052140c24f8_Image_16.jpeg,liked,3.602308302,,,,,,,,,,,,,,,,,,,space,1.3103,,
,,65b7ba948f5c3052140c24f8,6685aa9113c938e83b4f1ea0,671c4d0c78c1624a723ea69f,2024-10-25_19h00.12.617,WTP_SM_Choice,2022.2.1,Win32,59.88023952,,,space,1.4496,space,0.6483,NAN,,NAN,0.75,5.25,,0,25,25,25,1,26,Alex,Acc,Participant_Images/65b7ba948f5c3052140c24f8/65b7ba948f5c3052140c24f8_Images/65b7ba948f5c3052140c24f8_Image_2.jpeg,liked,4.106391878,,,,,,,,,,,,,,,,,,,,,,
,,65b7ba948f5c3052140c24f8,6685aa9113c938e83b4f1ea0,671c4d0c78c1624a723ea69f,2024-10-25_19h00.12.617,WTP_SM_Choice,2022.2.1,Win32,59.88023952,,,,,space,4.089,NAN,,NAN,0.75,5.25,,0,26,26,26,1,27,Alex,Acc,Participant_Images/65b7ba948f5c3052140c24f8/65b7ba948f5c3052140c24f8_Images/65b7ba948f5c3052140c24f8_Image_24.jpeg,did not like,3.799433026,,,,,,,,,,,,,,,,,,,,,,
,,65b7ba948f5c3052140c24f8,6685aa9113c938e83b4f1ea0,671c4d0c78c1624a723ea69f,2024-10-25_19h00.12.617,WTP_SM_Choice,2022.2.1,Win32,59.88023952,,,,,space,0.5185,NAN,,NAN,0.75,5.25,,0,27,27,27,1,28,Alex,Acc,Participant_Images/65b7ba948f5c3052140c24f8/65b7ba948f5c3052140c24f8_Images/65b7ba948f5c3052140c24f8_Image_9.jpeg,liked,5.246980764,,,,,,,,,,,,,,,,,,,,,,
,,65b7ba948f5c3052140c24f8,6685aa9113c938e83b4f1ea0,671c4d0c78c1624a723ea69f,2024-10-25_19h00.12.617,WTP_SM_Choice,2022.2.1,Win32,59.88023952,,,,,space,1.0864,NAN,,NAN,0.75,5.25,,0,28,28,28,1,29,Alex,Acc,Participant_Images/65b7ba948f5c3052140c24f8/65b7ba948f5c3052140c24f8_Images/65b7ba948f5c3052140c24f8_Image_10.jpeg,liked,3.30081769,,,,,,,,,,,,,,,,,,,,,,
,,65b7ba948f5c3052140c24f8,6685aa9113c938e83b4f1ea0,671c4d0c78c1624a723ea69f,2024-10-25_19h00.12.617,WTP_SM_Choice,2022.2.1,Win32,59.88023952,,,,,,,,,,,,,,,,,,26,,,,,,space,2.9197,space,0.768,0.01,1,2.7373,0,0,0,0,1,Watch some anime from crunchyroll,Go out with my spouse on dates to our favorite restaurant,0.01,0.01,4.4,1,,,,
,,65b7ba948f5c3052140c24f8,6685aa9113c938e83b4f1ea0,671c4d0c78c1624a723ea69f,2024-10-25_19h00.12.617,WTP_SM_Choice,2022.2.1,Win32,59.88023952,,,,,,,,,,,,,,,,,,27,,,,,,,,,,0.02,1,3.1709,0,1,1,1,1,Play on my phone with some games in my gaming chair,"Host a party and play jack box on the TV with my friends, family, and coworkers",0.02,0.01,3.3,1,,,,
,,65b7ba948f5c3052140c24f8,6685aa9113c938e83b4f1ea0,671c4d0c78c1624a723ea69f,2024-10-25_19h00.12.617,WTP_SM_Choice,2022.2.1,Win32,59.88023952,,,,,,,,,,,,,,,,,,28,,,,,,,,,,0.01,2,4.5216,0,2,2,2,1,Spend time on the couch with my spouse watch our tv shows,Listen to some music with my headphones on my bed,0.03,0.01,3.3,0,,,,
,,65b7ba948f5c3052140c24f8,6685aa9113c938e83b4f1ea0,671c4d0c78c1624a723ea69f,2024-10-25_19h00.12.617,WTP_SM_Choice,2022.2.1,Win32,59.88023952,,,,,,,,,,,,,,,,,,29,,,,,,,,,,0.01,2,3.1284,0,3,3,3,1,Listen to an audiobook with my spouse,Research facts about star wars across the web,0.04,0.01,4.4,0,,,,
,,65b7ba948f5c3052140c24f8,6685aa9113c938e83b4f1ea0,671c4d0c78c1624a723ea69f,2024-10-25_19h00.12.617,WTP_SM_Choice,2022.2.1,Win32,59.88023952,,,,,,,,,,,,,,,,,,30,,,,,,,,,,0.01,2,3.2709,0,4,4,4,1,Spend time on the couch with my spouse watch our tv shows,Play on my phone with some games in my gaming chair,0.05,0.01,8.8,0,,,,
,,65b7ba948f5c3052140c24f8,6685aa9113c938e83b4f1ea0,671c4d0c78c1624a723ea69f,2024-10-25_19h00.12.617,WTP_SM_Choice,2022.2.1,Win32,59.88023952,,,,,,,NAN,,NAN,0.81,5.19,,0,29,29,29,1,30,Alex,Acc,Participant_Images/65b7ba948f5c3052140c24f8/65b7ba948f5c3052140c24f8_Images/65b7ba948f5c3052140c24f8_Image_6.jpeg,liked,1.661473164,,,,,,,,,,,,,,,,,,,,,,
,,65b7ba948f5c3052140c24f8,6685aa9113c938e83b4f1ea0,671c4d0c78c1624a723ea69f,2024-10-25_19h00.12.617,WTP_SM_Choice,2022.2.1,Win32,59.88023952,,,,,space,1.8186,NAN,,NAN,0.81,5.19,,0,30,30,30,1,31,Alex,Acc,Participant_Images/65b7ba948f5c3052140c24f8/65b7ba948f5c3052140c24f8_Images/65b7ba948f5c3052140c24f8_Image_11.jpeg,liked,3.613205605,,,,,,,,,,,,,,,,,,,,,,
,,65b7ba948f5c3052140c24f8,6685aa9113c938e83b4f1ea0,671c4d0c78c1624a723ea69f,2024-10-25_19h00.12.617,WTP_SM_Choice,2022.2.1,Win32,59.88023952,,,,,space,0.2987,NAN,,NAN,0.81,5.19,,0,31,31,31,1,32,Alex,Acc,Participant_Images/65b7ba948f5c3052140c24f8/65b7ba948f5c3052140c24f8_Images/65b7ba948f5c3052140c24f8_Image_16.jpeg,liked,4.988446431,,,,,,,,,,,,,,,,,,,,,,
,,65b7ba948f5c3052140c24f8,6685aa9113c938e83b4f1ea0,671c4d0c78c1624a723ea69f,2024-10-25_19h00.12.617,WTP_SM_Choice,2022.2.1,Win32,59.88023952,,,,,space,0.458,NAN,,NAN,0.81,5.19,,0,32,32,32,1,33,Alex,Acc,Participant_Images/65b7ba948f5c3052140c24f8/65b7ba948f5c3052140c24f8_Images/65b7ba948f5c3052140c24f8_Image_17.jpeg,liked,3.470791822,,,,,,,,,,,,,,,,,,,,,,
,,65b7ba948f5c3052140c24f8,6685aa9113c938e83b4f1ea0,671c4d0c78c1624a723ea69f,2024-10-25_19h00.12.617,WTP_SM_Choice,2022.2.1,Win32,59.88023952,,,,,space,1.5187,NAN,,NAN,0.81,5.19,,0,33,33,33,1,34,Alex,Acc,Participant_Images/65b7ba948f5c3052140c24f8/65b7ba948f5c3052140c24f8_Images/65b7ba948f5c3052140c24f8_Image_25.jpeg,liked,3.820572462,,,,,,,,,,,,,,,,,,,,,,
,,65b7ba948f5c3052140c24f8,6685aa9113c938e83b4f1ea0,671c4d0c78c1624a723ea69f,2024-10-25_19h00.12.617,WTP_SM_Choice,2022.2.1,Win32,59.88023952,,,,,,,,,,,,,,,,,,31,,,,,,space,3.3385,space,1.8737,0.01,1,2.6911,0,0,0,0,1,Play on my phone with some games in my gaming chair,Go on trips with the family to parks for them to play at,0.01,0.02,8.8,1,,,,
,,65b7ba948f5c3052140c24f8,6685aa9113c938e83b4f1ea0,671c4d0c78c1624a723ea69f,2024-10-25_19h00.12.617,WTP_SM_Choice,2022.2.1,Win32,59.88023952,,,,,,,,,,,,,,,,,,32,,,,,,,,,,0.02,1,3.5387,0,1,1,1,1,Learn about new technology from reddit,Go on trips with the family to parks for them to play at,0.02,0.02,1.1,1,,,,
,,65b7ba948f5c3052140c24f8,6685aa9113c938e83b4f1ea0,671c4d0c78c1624a723ea69f,2024-10-25_19h00.12.617,WTP_SM_Choice,2022.2.1,Win32,59.88023952,,,,,,,,,,,,,,,,,,33,,,,,,,,,,0.03,1,3.2213,0,2,2,2,1,Go on errands in my car to pick up groceries,Have dinner with my family every night ,0.03,0.02,4.4,1,,,,
,,65b7ba948f5c3052140c24f8,6685aa9113c938e83b4f1ea0,671c4d0c78c1624a723ea69f,2024-10-25_19h00.12.617,WTP_SM_Choice,2022.2.1,Win32,59.88023952,,,,,,,,,,,,,,,,,,34,,,,,,,,,,0.04,1,3.4218,0,3,3,3,1,Listen to some music with my headphones on my bed,Listen to an audiobook with my spouse,0.04,0.02,3.3,1,,,,
,,65b7ba948f5c3052140c24f8,6685aa9113c938e83b4f1ea0,671c4d0c78c1624a723ea69f,2024-10-25_19h00.12.617,WTP_SM_Choice,2022.2.1,Win32,59.88023952,,,,,,,,,,,,,,,,,,35,,,,,,,,,,0.05,1,2.4444,0,4,4,4,1,Clean the house while blasting my music,Play fight games with my spouse and friends,0.05,0.02,1.1,1,,,,
,,65b7ba948f5c3052140c24f8,6685aa9113c938e83b4f1ea0,671c4d0c78c1624a723ea69f,2024-10-25_19h00.12.617,WTP_SM_Choice,2022.2.1,Win32,59.88023952,,,,,,,NAN,,NAN,0.96,5.04,,0,34,34,34,1,35,Alex,Acc,Participant_Images/65b7ba948f5c3052140c24f8/65b7ba948f5c3052140c24f8_Images/65b7ba948f5c3052140c24f8_Image_21.jpeg,did not like,2.455989137,,,,,,,,,,,,,,,,,,,,,,
,,65b7ba948f5c3052140c24f8,6685aa9113c938e83b4f1ea0,671c4d0c78c1624a723ea69f,2024-10-25_19h00.12.617,WTP_SM_Choice,2022.2.1,Win32,59.88023952,,,,,space,0.5373,NAN,,NAN,0.96,5.04,,0,35,35,35,1,36,Alex,Acc,Participant_Images/65b7ba948f5c3052140c24f8/65b7ba948f5c3052140c24f8_Images/65b7ba948f5c3052140c24f8_Image_15.jpeg,liked,3.79605092,,,,,,,,,,,,,,,,,,,,,,
,,65b7ba948f5c3052140c24f8,6685aa9113c938e83b4f1ea0,671c4d0c78c1624a723ea69f,2024-10-25_19h00.12.617,WTP_SM_Choice,2022.2.1,Win32,59.88023952,,,,,space,50.0657,NAN,,NAN,0.96,5.04,,0,36,36,36,1,37,Alex,Acc,Participant_Images/65b7ba948f5c3052140c24f8/65b7ba948f5c3052140c24f8_Images/65b7ba948f5c3052140c24f8_Image_19.jpeg,liked,3.562416326,,,,,,,,,,,,,,,,,,,,,,
,,65b7ba948f5c3052140c24f8,6685aa9113c938e83b4f1ea0,671c4d0c78c1624a723ea69f,2024-10-25_19h00.12.617,WTP_SM_Choice,2022.2.1,Win32,59.88023952,,,,,space,0.5493,NAN,,NAN,0.96,5.04,,0,37,37,37,1,38,Alex,Acc,Participant_Images/65b7ba948f5c3052140c24f8/65b7ba948f5c3052140c24f8_Images/65b7ba948f5c3052140c24f8_Image_7.jpeg,did not like,2.843822497,,,,,,,,,,,,,,,,,,,,,,
,,65b7ba948f5c3052140c24f8,6685aa9113c938e83b4f1ea0,671c4d0c78c1624a723ea69f,2024-10-25_19h00.12.617,WTP_SM_Choice,2022.2.1,Win32,59.88023952,,,,,space,0.9153,NAN,,NAN,0.96,5.04,,0,38,38,38,1,39,Alex,Acc,Participant_Images/65b7ba948f5c3052140c24f8/65b7ba948f5c3052140c24f8_Images/65b7ba948f5c3052140c24f8_Image_22.jpeg,did not like,3.546495948,,,,,,,,,,,,,,,,,,,,,,
,,65b7ba948f5c3052140c24f8,6685aa9113c938e83b4f1ea0,671c4d0c78c1624a723ea69f,2024-10-25_19h00.12.617,WTP_SM_Choice,2022.2.1,Win32,59.88023952,,,,,,,,,,,,,,,,,,36,,,,,,space,2.2569,space,0.7096,0.01,1,3.8704,0,0,0,0,1,Browse tiktok and watching funny videos laying down on my bed,Listen to an audiobook with my spouse,0.01,0.03,3.3,1,,,,
,,65b7ba948f5c3052140c24f8,6685aa9113c938e83b4f1ea0,671c4d0c78c1624a723ea69f,2024-10-25_19h00.12.617,WTP_SM_Choice,2022.2.1,Win32,59.88023952,,,,,,,,,,,,,,,,,,37,,,,,,,,,,0.02,1,2.9299,0,1,1,1,1,Go on errands in my car to pick up groceries,Listen to my favorite music with my brother,0.02,0.03,1.1,1,,,,
,,65b7ba948f5c3052140c24f8,6685aa9113c938e83b4f1ea0,671c4d0c78c1624a723ea69f,2024-10-25_19h00.12.617,WTP_SM_Choice,2022.2.1,Win32,59.88023952,,,,,,,,,,,,,,,,,,38,,,,,,,,,,0.03,2,3.0717,0,2,2,2,1,Spend time on the couch with my spouse watch our tv shows,Watch some anime from crunchyroll,0.03,0.03,1.1,0,,,,
,,65b7ba948f5c3052140c24f8,6685aa9113c938e83b4f1ea0,671c4d0c78c1624a723ea69f,2024-10-25_19h00.12.617,WTP_SM_Choice,2022.2.1,Win32,59.88023952,,,,,,,,,,,,,,,,,,39,,,,,,,,,,0.04,1,3.5913,0,3,3,3,1,Clean the house while blasting my music,Go out with my spouse on dates to our favorite restaurant,0.04,0.03,3.3,1,,,,
,,65b7ba948f5c3052140c24f8,6685aa9113c938e83b4f1ea0,671c4d0c78c1624a723ea69f,2024-10-25_19h00.12.617,WTP_SM_Choice,2022.2.1,Win32,59.88023952,,,,,,,,,,,,,,,,,,40,,,,,,,,,,0.03,2,4.8872,0,4,4,4,1,Go to the bar with my work colleagues after a shift,Browse tiktok and watching funny videos laying down on my bed,0.05,0.03,4.4,0,,,,
,,65b7ba948f5c3052140c24f8,6685aa9113c938e83b4f1ea0,671c4d0c78c1624a723ea69f,2024-10-25_19h00.12.617,WTP_SM_Choice,2022.2.1,Win32,59.88023952,,,,,,,NAN,,NAN,1.09,4.91,,0,39,39,39,1,40,Alex,Acc,Participant_Images/65b7ba948f5c3052140c24f8/65b7ba948f5c3052140c24f8_Images/65b7ba948f5c3052140c24f8_Image_20.jpeg,liked,1.672012706,,,,,,,,,,,,,,,,,,,,,,
,,65b7ba948f5c3052140c24f8,6685aa9113c938e83b4f1ea0,671c4d0c78c1624a723ea69f,2024-10-25_19h00.12.617,WTP_SM_Choice,2022.2.1,Win32,59.88023952,,,,,space,0.5613,NAN,,NAN,1.09,4.91,,0,40,40,40,1,41,Alex,Acc,Participant_Images/65b7ba948f5c3052140c24f8/65b7ba948f5c3052140c24f8_Images/65b7ba948f5c3052140c24f8_Image_18.jpeg,liked,4.942172136,,,,,,,,,,,,,,,,,,,,,,
,,65b7ba948f5c3052140c24f8,6685aa9113c938e83b4f1ea0,671c4d0c78c1624a723ea69f,2024-10-25_19h00.12.617,WTP_SM_Choice,2022.2.1,Win32,59.88023952,,,,,space,0.5973,NAN,,NAN,1.09,4.91,,0,41,41,41,1,42,Alex,Acc,Participant_Images/65b7ba948f5c3052140c24f8/65b7ba948f5c3052140c24f8_Images/65b7ba948f5c3052140c24f8_Image_1.jpeg,liked,2.50187214,,,,,,,,,,,,,,,,,,,,,,
,,65b7ba948f5c3052140c24f8,6685aa9113c938e83b4f1ea0,671c4d0c78c1624a723ea69f,2024-10-25_19h00.12.617,WTP_SM_Choice,2022.2.1,Win32,59.88023952,,,,,space,70.3801,NAN,,NAN,1.09,4.91,,0,42,42,42,1,43,Alex,Acc,Participant_Images/65b7ba948f5c3052140c24f8/65b7ba948f5c3052140c24f8_Images/65b7ba948f5c3052140c24f8_Image_14.jpeg,did not like,2.071164779,,,,,,,,,,,,,,,,,,,,,,
,,65b7ba948f5c3052140c24f8,6685aa9113c938e83b4f1ea0,671c4d0c78c1624a723ea69f,2024-10-25_19h00.12.617,WTP_SM_Choice,2022.2.1,Win32,59.88023952,,,,,space,2.0552,NAN,,NAN,1.09,4.91,,0,43,43,43,1,44,Alex,Acc,Participant_Images/65b7ba948f5c3052140c24f8/65b7ba948f5c3052140c24f8_Images/65b7ba948f5c3052140c24f8_Image_12.jpeg,liked,5.336503566,,,,,,,,,,,,,,,,,,,,,,
,,65b7ba948f5c3052140c24f8,6685aa9113c938e83b4f1ea0,671c4d0c78c1624a723ea69f,2024-10-25_19h00.12.617,WTP_SM_Choice,2022.2.1,Win32,59.88023952,,,,,,,,,,,,,,,,,,41,,,,,,space,3.574,space,1.5388,0.04,2,2.8397,0,0,0,0,1,Play fight games with my spouse and friends,Browse tiktok and watching funny videos laying down on my bed,0.01,0.04,1.1,0,,,,
,,65b7ba948f5c3052140c24f8,6685aa9113c938e83b4f1ea0,671c4d0c78c1624a723ea69f,2024-10-25_19h00.12.617,WTP_SM_Choice,2022.2.1,Win32,59.88023952,,,,,,,,,,,,,,,,,,42,,,,,,,,,,0.04,2,3.6278,0,1,1,1,1,Listen to an audiobook with my spouse,Watch some anime from crunchyroll,0.02,0.04,3.3,0,,,,
,,65b7ba948f5c3052140c24f8,6685aa9113c938e83b4f1ea0,671c4d0c78c1624a723ea69f,2024-10-25_19h00.12.617,WTP_SM_Choice,2022.2.1,Win32,59.88023952,,,,,,,,,,,,,,,,,,43,,,,,,,,,,0.03,1,3.0077,0,2,2,2,1,Go on errands in my car to pick up groceries,Go out with my spouse on dates to our favorite restaurant,0.03,0.04,1.1,1,,,,
,,65b7ba948f5c3052140c24f8,6685aa9113c938e83b4f1ea0,671c4d0c78c1624a723ea69f,2024-10-25_19h00.12.617,WTP_SM_Choice,2022.2.1,Win32,59.88023952,,,,,,,,,,,,,,,,,,44,,,,,,,,,,0.04,1,2.8874,0,3,3,3,1,Browse tiktok and watching funny videos laying down on my bed,Go out with my spouse on dates to our favorite restaurant,0.04,0.04,1.1,1,,,,
,,65b7ba948f5c3052140c24f8,6685aa9113c938e83b4f1ea0,671c4d0c78c1624a723ea69f,2024-10-25_19h00.12.617,WTP_SM_Choice,2022.2.1,Win32,59.88023952,,,,,,,,,,,,,,,,,,45,,,,,,,,,,0.05,1,3.7564,0,4,4,4,1,Research facts about star wars across the web,Go to the bar with my work colleagues after a shift,0.05,0.04,4.4,1,,,,
,,65b7ba948f5c3052140c24f8,6685aa9113c938e83b4f1ea0,671c4d0c78c1624a723ea69f,2024-10-25_19h00.12.617,WTP_SM_Choice,2022.2.1,Win32,59.88023952,,,,,,,NAN,,NAN,1.29,4.71,,0,44,44,44,1,45,Alex,Acc,Participant_Images/65b7ba948f5c3052140c24f8/65b7ba948f5c3052140c24f8_Images/65b7ba948f5c3052140c24f8_Image_3.jpeg,did not like,2.642157193,,,,,,,,,,,,,,,,,,,,,,
,,65b7ba948f5c3052140c24f8,6685aa9113c938e83b4f1ea0,671c4d0c78c1624a723ea69f,2024-10-25_19h00.12.617,WTP_SM_Choice,2022.2.1,Win32,59.88023952,,,,,space,0.5876,NAN,,NAN,1.29,4.71,,0,45,45,45,1,46,Alex,Acc,Participant_Images/65b7ba948f5c3052140c24f8/65b7ba948f5c3052140c24f8_Images/65b7ba948f5c3052140c24f8_Image_8.jpeg,liked,4.456234322,,,,,,,,,,,,,,,,,,,,,,
,,65b7ba948f5c3052140c24f8,6685aa9113c938e83b4f1ea0,671c4d0c78c1624a723ea69f,2024-10-25_19h00.12.617,WTP_SM_Choice,2022.2.1,Win32,59.88023952,,,,,space,0.8357,NAN,,NAN,1.29,4.71,,0,46,46,46,1,47,Alex,Acc,Participant_Images/65b7ba948f5c3052140c24f8/65b7ba948f5c3052140c24f8_Images/65b7ba948f5c3052140c24f8_Image_5.jpeg,liked,4.438512181,,,,,,,,,,,,,,,,,,,,,,
,,65b7ba948f5c3052140c24f8,6685aa9113c938e83b4f1ea0,671c4d0c78c1624a723ea69f,2024-10-25_19h00.12.617,WTP_SM_Choice,2022.2.1,Win32,59.88023952,,,,,space,0.534,NAN,,NAN,1.29,4.71,,0,47,47,47,1,48,Alex,Acc,Participant_Images/65b7ba948f5c3052140c24f8/65b7ba948f5c3052140c24f8_Images/65b7ba948f5c3052140c24f8_Image_4.jpeg,liked,2.682944783,,,,,,,,,,,,,,,,,,,,,,
,,65b7ba948f5c3052140c24f8,6685aa9113c938e83b4f1ea0,671c4d0c78c1624a723ea69f,2024-10-25_19h00.12.617,WTP_SM_Choice,2022.2.1,Win32,59.88023952,,,,,space,1.5895,NAN,,NAN,1.29,4.71,,0,48,48,48,1,49,Alex,Acc,Participant_Images/65b7ba948f5c3052140c24f8/65b7ba948f5c3052140c24f8_Images/65b7ba948f5c3052140c24f8_Image_23.jpeg,did not like,4.51984296,,,,,,,,,,,,,,,,,,,,,,
,,65b7ba948f5c3052140c24f8,6685aa9113c938e83b4f1ea0,671c4d0c78c1624a723ea69f,2024-10-25_19h00.12.617,WTP_SM_Choice,2022.2.1,Win32,59.88023952,,,,,,,,,,,,,,,,,,46,,,,,,space,15.3648,space,4.1211,0.05,2,3.7706,0,0,0,0,1,Go out with my spouse on dates to our favorite restaurant,Watch youtube and gamegrumps on my computer,0.01,0.05,8.8,0,,,,
,,65b7ba948f5c3052140c24f8,6685aa9113c938e83b4f1ea0,671c4d0c78c1624a723ea69f,2024-10-25_19h00.12.617,WTP_SM_Choice,2022.2.1,Win32,59.88023952,,,,,,,,,,,,,,,,,,47,,,,,,,,,,0.02,1,3.9366,0,1,1,1,1,"Host a party and play jack box on the TV with my friends, family, and coworkers",Play some world of warcraft on my gaming computer,0.02,0.05,1.1,0,,,,
,,65b7ba948f5c3052140c24f8,6685aa9113c938e83b4f1ea0,671c4d0c78c1624a723ea69f,2024-10-25_19h00.12.617,WTP_SM_Choice,2022.2.1,Win32,59.88023952,,,,,,,,,,,,,,,,,,48,,,,,,,,,,0.05,2,4.0903,0,2,2,2,1,Go to the bar with my work colleagues after a shift,Watch youtube and gamegrumps on my computer,0.03,0.05,4.4,0,,,,
,,65b7ba948f5c3052140c24f8,6685aa9113c938e83b4f1ea0,671c4d0c78c1624a723ea69f,2024-10-25_19h00.12.617,WTP_SM_Choice,2022.2.1,Win32,59.88023952,,,,,,,,,,,,,,,,,,49,,,,,,,,,,0.04,1,2.7375,0,3,3,3,1,Clean the house while blasting my music,Listen to an audiobook with my spouse,0.04,0.05,3.3,1,,,,
,,65b7ba948f5c3052140c24f8,6685aa9113c938e83b4f1ea0,671c4d0c78c1624a723ea69f,2024-10-25_19h00.12.617,WTP_SM_Choice,2022.2.1,Win32,59.88023952,,,,,,,,,,,,,,,,,,50,,,,,,,,,,0.05,1,3.9871,0,4,4,4,1,Play some world of warcraft on my gaming computer,Go on trips with the family to parks for them to play at,0.05,0.05,1.1,1,,,,
,,65b7ba948f5c3052140c24f8,6685aa9113c938e83b4f1ea0,671c4d0c78c1624a723ea69f,2024-10-25_19h00.12.617,WTP_SM_Choice,2022.2.1,Win32,59.88023952,,,,,,,3,,3,1.5,4.5,,0,49,49,49,1,50,Alex,Acc,Participant_Images/65b7ba948f5c3052140c24f8/65b7ba948f5c3052140c24f8_Images/65b7ba948f5c3052140c24f8_Image_13.jpeg,liked,3.195382774,,,,,,,,,,,,,,,,,,,space,1.0276,,
,,65b7ba948f5c3052140c24f8,6685aa9113c938e83b4f1ea0,671c4d0c78c1624a723ea69f,2024-10-25_19h00.12.617,WTP_SM_Choice,2022.2.1,Win32,59.88023952,,,space,2.3877,space,0.974,NAN,,NAN,1.5,4.5,,0,50,50,50,1,51,Sam,Rej,Participant_Images/65b7ba948f5c3052140c24f8/65b7ba948f5c3052140c24f8_Images/65b7ba948f5c3052140c24f8_Image_24.jpeg,did not like,1.779333479,,,,,,,,,,,,,,,,,,,,,,
,,65b7ba948f5c3052140c24f8,6685aa9113c938e83b4f1ea0,671c4d0c78c1624a723ea69f,2024-10-25_19h00.12.617,WTP_SM_Choice,2022.2.1,Win32,59.88023952,,,,,space,0.7356,NAN,,NAN,1.5,4.5,,0,51,51,51,1,52,Sam,Rej,Participant_Images/65b7ba948f5c3052140c24f8/65b7ba948f5c3052140c24f8_Images/65b7ba948f5c3052140c24f8_Image_22.jpeg,did not like,4.312468682,,,,,,,,,,,,,,,,,,,,,,
,,65b7ba948f5c3052140c24f8,6685aa9113c938e83b4f1ea0,671c4d0c78c1624a723ea69f,2024-10-25_19h00.12.617,WTP_SM_Choice,2022.2.1,Win32,59.88023952,,,,,space,1.0432,NAN,,NAN,1.5,4.5,,0,52,52,52,1,53,Sam,Rej,Participant_Images/65b7ba948f5c3052140c24f8/65b7ba948f5c3052140c24f8_Images/65b7ba948f5c3052140c24f8_Image_5.jpeg,did not like,4.940433059,,,,,,,,,,,,,,,,,,,,,,
,,65b7ba948f5c3052140c24f8,6685aa9113c938e83b4f1ea0,671c4d0c78c1624a723ea69f,2024-10-25_19h00.12.617,WTP_SM_Choice,2022.2.1,Win32,59.88023952,,,,,space,1.1753,NAN,,NAN,1.5,4.5,,0,53,53,53,1,54,Sam,Rej,Participant_Images/65b7ba948f5c3052140c24f8/65b7ba948f5c3052140c24f8_Images/65b7ba948f5c3052140c24f8_Image_7.jpeg,liked,2.7105123,,,,,,,,,,,,,,,,,,,,,,
,,65b7ba948f5c3052140c24f8,6685aa9113c938e83b4f1ea0,671c4d0c78c1624a723ea69f,2024-10-25_19h00.12.617,WTP_SM_Choice,2022.2.1,Win32,59.88023952,,,,,,,,,,,,,,,,,,51,,,,,,space,3.9144,space,1.1578,0.01,1,2.7201,0,0,0,0,1,Research facts about star wars across the web,Spend time on the couch with my spouse watch our tv shows,0.01,0.01,1.1,1,,,,
,,65b7ba948f5c3052140c24f8,6685aa9113c938e83b4f1ea0,671c4d0c78c1624a723ea69f,2024-10-25_19h00.12.617,WTP_SM_Choice,2022.2.1,Win32,59.88023952,,,,,,,,,,,,,,,,,,52,,,,,,,,,,0.02,1,3.2547,0,1,1,1,1,Learn about new technology from reddit,Play fight games with my spouse and friends,0.02,0.01,3.3,1,,,,
,,65b7ba948f5c3052140c24f8,6685aa9113c938e83b4f1ea0,671c4d0c78c1624a723ea69f,2024-10-25_19h00.12.617,WTP_SM_Choice,2022.2.1,Win32,59.88023952,,,,,,,,,,,,,,,,,,53,,,,,,,,,,0.01,2,2.7207,0,2,2,2,1,Play fight games with my spouse and friends,Research facts about star wars across the web,0.03,0.01,1.1,0,,,,
,,65b7ba948f5c3052140c24f8,6685aa9113c938e83b4f1ea0,671c4d0c78c1624a723ea69f,2024-10-25_19h00.12.617,WTP_SM_Choice,2022.2.1,Win32,59.88023952,,,,,,,,,,,,,,,,,,54,,,,,,,,,,0.01,2,4.1902,0,3,3,3,1,Watch movies at the theater with my friends,Watch youtube and gamegrumps on my computer,0.04,0.01,4.4,0,,,,
,,65b7ba948f5c3052140c24f8,6685aa9113c938e83b4f1ea0,671c4d0c78c1624a723ea69f,2024-10-25_19h00.12.617,WTP_SM_Choice,2022.2.1,Win32,59.88023952,,,,,,,,,,,,,,,,,,55,,,,,,,,,,0.01,2,4.0588,0,4,4,4,1,Listen to an audiobook with my spouse,Watch youtube and gamegrumps on my computer,0.05,0.01,1.1,0,,,,
,,65b7ba948f5c3052140c24f8,6685aa9113c938e83b4f1ea0,671c4d0c78c1624a723ea69f,2024-10-25_19h00.12.617,WTP_SM_Choice,2022.2.1,Win32,59.88023952,,,,,,,NAN,,NAN,1.56,4.44,,0,54,54,54,1,55,Sam,Rej,Participant_Images/65b7ba948f5c3052140c24f8/65b7ba948f5c3052140c24f8_Images/65b7ba948f5c3052140c24f8_Image_20.jpeg,did not like,3.602308302,,,,,,,,,,,,,,,,,,,,,,
,,65b7ba948f5c3052140c24f8,6685aa9113c938e83b4f1ea0,671c4d0c78c1624a723ea69f,2024-10-25_19h00.12.617,WTP_SM_Choice,2022.2.1,Win32,59.88023952,,,,,space,0.75,NAN,,NAN,1.56,4.44,,0,55,55,55,1,56,Sam,Rej,Participant_Images/65b7ba948f5c3052140c24f8/65b7ba948f5c3052140c24f8_Images/65b7ba948f5c3052140c24f8_Image_21.jpeg,did not like,4.106391878,,,,,,,,,,,,,,,,,,,,,,
,,65b7ba948f5c3052140c24f8,6685aa9113c938e83b4f1ea0,671c4d0c78c1624a723ea69f,2024-10-25_19h00.12.617,WTP_SM_Choice,2022.2.1,Win32,59.88023952,,,,,space,1.2832,NAN,,NAN,1.56,4.44,,0,56,56,56,1,57,Sam,Rej,Participant_Images/65b7ba948f5c3052140c24f8/65b7ba948f5c3052140c24f8_Images/65b7ba948f5c3052140c24f8_Image_9.jpeg,liked,3.799433026,,,,,,,,,,,,,,,,,,,,,,
,,65b7ba948f5c3052140c24f8,6685aa9113c938e83b4f1ea0,671c4d0c78c1624a723ea69f,2024-10-25_19h00.12.617,WTP_SM_Choice,2022.2.1,Win32,59.88023952,,,,,space,0.6387,NAN,,NAN,1.56,4.44,,0,57,57,57,1,58,Sam,Rej,Participant_Images/65b7ba948f5c3052140c24f8/65b7ba948f5c3052140c24f8_Images/65b7ba948f5c3052140c24f8_Image_1.jpeg,did not like,5.246980764,,,,,,,,,,,,,,,,,,,,,,
,,65b7ba948f5c3052140c24f8,6685aa9113c938e83b4f1ea0,671c4d0c78c1624a723ea69f,2024-10-25_19h00.12.617,WTP_SM_Choice,2022.2.1,Win32,59.88023952,,,,,space,0.6029,NAN,,NAN,1.56,4.44,,0,58,58,58,1,59,Sam,Rej,Participant_Images/65b7ba948f5c3052140c24f8/65b7ba948f5c3052140c24f8_Images/65b7ba948f5c3052140c24f8_Image_23.jpeg,did not like,3.30081769,,,,,,,,,,,,,,,,,,,,,,
,,65b7ba948f5c3052140c24f8,6685aa9113c938e83b4f1ea0,671c4d0c78c1624a723ea69f,2024-10-25_19h00.12.617,WTP_SM_Choice,2022.2.1,Win32,59.88023952,,,,,,,,,,,,,,,,,,56,,,,,,space,3.1626,space,2.0719,0.01,1,2.073,0,0,0,0,1,Learn about new technology from reddit,Listen to an audiobook with my spouse,0.01,0.02,8.8,1,,,,
,,65b7ba948f5c3052140c24f8,6685aa9113c938e83b4f1ea0,671c4d0c78c1624a723ea69f,2024-10-25_19h00.12.617,WTP_SM_Choice,2022.2.1,Win32,59.88023952,,,,,,,,,,,,,,,,,,57,,,,,,,,,,0.02,2,2.9737,0,1,1,1,1,Have dinner with my family every night ,Watch some anime from crunchyroll,0.02,0.02,4.4,0,,,,
,,65b7ba948f5c3052140c24f8,6685aa9113c938e83b4f1ea0,671c4d0c78c1624a723ea69f,2024-10-25_19h00.12.617,WTP_SM_Choice,2022.2.1,Win32,59.88023952,,,,,,,,,,,,,,,,,,58,,,,,,,,,,0.02,2,5.1586,0,2,2,2,1,Clean the house while blasting my music,Listen to my favorite music with my brother,0.03,0.02,4.4,1,,,,
,,65b7ba948f5c3052140c24f8,6685aa9113c938e83b4f1ea0,671c4d0c78c1624a723ea69f,2024-10-25_19h00.12.617,WTP_SM_Choice,2022.2.1,Win32,59.88023952,,,,,,,,,,,,,,,,,,59,,,,,,,,,,0.04,1,3.295,0,3,3,3,1,Learn about new technology from reddit,Spend time on the couch with my spouse watch our tv shows,0.04,0.02,4.4,1,,,,
,,65b7ba948f5c3052140c24f8,6685aa9113c938e83b4f1ea0,671c4d0c78c1624a723ea69f,2024-10-25_19h00.12.617,WTP_SM_Choice,2022.2.1,Win32,59.88023952,,,,,,,,,,,,,,,,,,60,,,,,,,,,,0.05,1,2.7066,0,4,4,4,1,Research facts about star wars across the web,Have dinner with my family every night ,0.05,0.02,1.1,1,,,,
,,65b7ba948f5c3052140c24f8,6685aa9113c938e83b4f1ea0,671c4d0c78c1624a723ea69f,2024-10-25_19h00.12.617,WTP_SM_Choice,2022.2.1,Win32,59.88023952,,,,,,,NAN,,NAN,1.7,4.3,,0,59,59,59,1,60,Sam,Rej,Participant_Images/65b7ba948f5c3052140c24f8/65b7ba948f5c3052140c24f8_Images/65b7ba948f5c3052140c24f8_Image_19.jpeg,liked,1.661473164,,,,,,,,,,,,,,,,,,,,,,
,,65b7ba948f5c3052140c24f8,6685aa9113c938e83b4f1ea0,671c4d0c78c1624a723ea69f,2024-10-25_19h00.12.617,WTP_SM_Choice,2022.2.1,Win32,59.88023952,,,,,space,0.8435,NAN,,NAN,1.7,4.3,,0,60,60,60,1,61,Sam,Rej,Participant_Images/65b7ba948f5c3052140c24f8/65b7ba948f5c3052140c24f8_Images/65b7ba948f5c3052140c24f8_Image_17.jpeg,did not like,3.613205605,,,,,,,,,,,,,,,,,,,,,,
,,65b7ba948f5c3052140c24f8,6685aa9113c938e83b4f1ea0,671c4d0c78c1624a723ea69f,2024-10-25_19h00.12.617,WTP_SM_Choice,2022.2.1,Win32,59.88023952,,,,,space,0.7679,NAN,,NAN,1.7,4.3,,0,61,61,61,1,62,Sam,Rej,Participant_Images/65b7ba948f5c3052140c24f8/65b7ba948f5c3052140c24f8_Images/65b7ba948f5c3052140c24f8_Image_6.jpeg,did not like,4.988446431,,,,,,,,,,,,,,,,,,,,,,
,,65b7ba948f5c3052140c24f8,6685aa9113c938e83b4f1ea0,671c4d0c78c1624a723ea69f,2024-10-25_19h00.12.617,WTP_SM_Choice,2022.2.1,Win32,59.88023952,,,,,space,1.0489,NAN,,NAN,1.7,4.3,,0,62,62,62,1,63,Sam,Rej,Participant_Images/65b7ba948f5c3052140c24f8/65b7ba948f5c3052140c24f8_Images/65b7ba948f5c3052140c24f8_Image_10.jpeg,did not like,3.470791822,,,,,,,,,,,,,,,,,,,,,,
,,65b7ba948f5c3052140c24f8,6685aa9113c938e83b4f1ea0,671c4d0c78c1624a723ea69f,2024-10-25_19h00.12.617,WTP_SM_Choice,2022.2.1,Win32,59.88023952,,,,,space,0.622,NAN,,NAN,1.7,4.3,,0,63,63,63,1,64,Sam,Rej,Participant_Images/65b7ba948f5c3052140c24f8/65b7ba948f5c3052140c24f8_Images/65b7ba948f5c3052140c24f8_Image_13.jpeg,did not like,3.820572462,,,,,,,,,,,,,,,,,,,,,,
,,65b7ba948f5c3052140c24f8,6685aa9113c938e83b4f1ea0,671c4d0c78c1624a723ea69f,2024-10-25_19h00.12.617,WTP_SM_Choice,2022.2.1,Win32,59.88023952,,,,,,,,,,,,,,,,,,61,,,,,,space,2.4903,space,0.7156,0.03,2,3.8978,0,0,0,0,1,Play fight games with my spouse and friends,Play on my phone with some games in my gaming chair,0.01,0.03,3.3,0,,,,
,,65b7ba948f5c3052140c24f8,6685aa9113c938e83b4f1ea0,671c4d0c78c1624a723ea69f,2024-10-25_19h00.12.617,WTP_SM_Choice,2022.2.1,Win32,59.88023952,,,,,,,,,,,,,,,,,,62,,,,,,,,,,0.02,1,2.5911,0,1,1,1,1,Play some world of warcraft on my gaming computer,Play fight games with my spouse and friends,0.02,0.03,3.3,1,,,,
,,65b7ba948f5c3052140c24f8,6685aa9113c938e83b4f1ea0,671c4d0c78c1624a723ea69f,2024-10-25_19h00.12.617,WTP_SM_Choice,2022.2.1,Win32,59.88023952,,,,,,,,,,,,,,,,,,63,,,,,,,,,,0.03,1,3.1024,0,2,2,2,1,Listen to some music with my headphones on my bed,Play fight games with my spouse and friends,0.03,0.03,3.3,1,,,,
,,65b7ba948f5c3052140c24f8,6685aa9113c938e83b4f1ea0,671c4d0c78c1624a723ea69f,2024-10-25_19h00.12.617,WTP_SM_Choice,2022.2.1,Win32,59.88023952,,,,,,,,,,,,,,,,,,64,,,,,,,,,,0.03,2,4.0713,0,3,3,3,1,Play fight games with my spouse and friends,Watch youtube and gamegrumps on my computer,0.04,0.03,1.1,0,,,,
,,65b7ba948f5c3052140c24f8,6685aa9113c938e83b4f1ea0,671c4d0c78c1624a723ea69f,2024-10-25_19h00.12.617,WTP_SM_Choice,2022.2.1,Win32,59.88023952,,,,,,,,,,,,,,,,,,65,,,,,,,,,,0.05,1,3.0018,0,4,4,4,1,Watch youtube and gamegrumps on my computer,Go on trips with the family to parks for them to play at,0.05,0.03,1.1,1,,,,
,,65b7ba948f5c3052140c24f8,6685aa9113c938e83b4f1ea0,671c4d0c78c1624a723ea69f,2024-10-25_19h00.12.617,WTP_SM_Choice,2022.2.1,Win32,59.88023952,,,,,,,NAN,,NAN,1.86,4.14,,0,64,64,64,1,65,Sam,Rej,Participant_Images/65b7ba948f5c3052140c24f8/65b7ba948f5c3052140c24f8_Images/65b7ba948f5c3052140c24f8_Image_8.jpeg,did not like,2.455989137,,,,,,,,,,,,,,,,,,,,,,
,,65b7ba948f5c3052140c24f8,6685aa9113c938e83b4f1ea0,671c4d0c78c1624a723ea69f,2024-10-25_19h00.12.617,WTP_SM_Choice,2022.2.1,Win32,59.88023952,,,,,space,1.324,NAN,,NAN,1.86,4.14,,0,65,65,65,1,66,Sam,Rej,Participant_Images/65b7ba948f5c3052140c24f8/65b7ba948f5c3052140c24f8_Images/65b7ba948f5c3052140c24f8_Image_4.jpeg,liked,3.79605092,,,,,,,,,,,,,,,,,,,,,,
,,65b7ba948f5c3052140c24f8,6685aa9113c938e83b4f1ea0,671c4d0c78c1624a723ea69f,2024-10-25_19h00.12.617,WTP_SM_Choice,2022.2.1,Win32,59.88023952,,,,,space,0.8513,NAN,,NAN,1.86,4.14,,0,66,66,66,1,67,Sam,Rej,Participant_Images/65b7ba948f5c3052140c24f8/65b7ba948f5c3052140c24f8_Images/65b7ba948f5c3052140c24f8_Image_12.jpeg,liked,3.562416326,,,,,,,,,,,,,,,,,,,,,,
,,65b7ba948f5c3052140c24f8,6685aa9113c938e83b4f1ea0,671c4d0c78c1624a723ea69f,2024-10-25_19h00.12.617,WTP_SM_Choice,2022.2.1,Win32,59.88023952,,,,,space,2.0358,NAN,,NAN,1.86,4.14,,0,67,67,67,1,68,Sam,Rej,Participant_Images/65b7ba948f5c3052140c24f8/65b7ba948f5c3052140c24f8_Images/65b7ba948f5c3052140c24f8_Image_2.jpeg,liked,2.843822497,,,,,,,,,,,,,,,,,,,,,,
,,65b7ba948f5c3052140c24f8,6685aa9113c938e83b4f1ea0,671c4d0c78c1624a723ea69f,2024-10-25_19h00.12.617,WTP_SM_Choice,2022.2.1,Win32,59.88023952,,,,,space,0.7171,NAN,,NAN,1.86,4.14,,0,68,68,68,1,69,Sam,Rej,Participant_Images/65b7ba948f5c3052140c24f8/65b7ba948f5c3052140c24f8_Images/65b7ba948f5c3052140c24f8_Image_18.jpeg,did not like,3.546495948,,,,,,,,,,,,,,,,,,,,,,
,,65b7ba948f5c3052140c24f8,6685aa9113c938e83b4f1ea0,671c4d0c78c1624a723ea69f,2024-10-25_19h00.12.617,WTP_SM_Choice,2022.2.1,Win32,59.88023952,,,,,,,,,,,,,,,,,,66,,,,,,space,1.0566,space,1.543,0.01,1,1.9042,0,0,0,0,1,Go on errands in my car to pick up groceries,Spend time on the couch with my spouse watch our tv shows,0.01,0.04,1.1,1,,,,
,,65b7ba948f5c3052140c24f8,6685aa9113c938e83b4f1ea0,671c4d0c78c1624a723ea69f,2024-10-25_19h00.12.617,WTP_SM_Choice,2022.2.1,Win32,59.88023952,,,,,,,,,,,,,,,,,,67,,,,,,,,,,0.02,1,4.7015,0,1,1,1,1,"Host a party and play jack box on the TV with my friends, family, and coworkers",Watch some anime from crunchyroll,0.02,0.04,8.8,0,,,,
,,65b7ba948f5c3052140c24f8,6685aa9113c938e83b4f1ea0,671c4d0c78c1624a723ea69f,2024-10-25_19h00.12.617,WTP_SM_Choice,2022.2.1,Win32,59.88023952,,,,,,,,,,,,,,,,,,68,,,,,,,,,,0.04,2,2.9168,0,2,2,2,1,Go on trips with the family to parks for them to play at,Research facts about star wars across the web,0.03,0.04,4.4,0,,,,
,,65b7ba948f5c3052140c24f8,6685aa9113c938e83b4f1ea0,671c4d0c78c1624a723ea69f,2024-10-25_19h00.12.617,WTP_SM_Choice,2022.2.1,Win32,59.88023952,,,,,,,,,,,,,,,,,,69,,,,,,,,,,0.04,1,3.7185,0,3,3,3,1,Browse tiktok and watching funny videos laying down on my bed,Spend time on the couch with my spouse watch our tv shows,0.04,0.04,1.1,1,,,,
,,65b7ba948f5c3052140c24f8,6685aa9113c938e83b4f1ea0,671c4d0c78c1624a723ea69f,2024-10-25_19h00.12.617,WTP_SM_Choice,2022.2.1,Win32,59.88023952,,,,,,,,,,,,,,,,,,70,,,,,,,,,,0.05,1,5.7225,0,4,4,4,1,Listen to some music with my headphones on my bed,Watch movies at the theater with my friends,0.05,0.04,1.1,1,,,,
,,65b7ba948f5c3052140c24f8,6685aa9113c938e83b4f1ea0,671c4d0c78c1624a723ea69f,2024-10-25_19h00.12.617,WTP_SM_Choice,2022.2.1,Win32,59.88023952,,,,,,,NAN,,NAN,2.02,3.98,,0,69,69,69,1,70,Sam,Rej,Participant_Images/65b7ba948f5c3052140c24f8/65b7ba948f5c3052140c24f8_Images/65b7ba948f5c3052140c24f8_Image_3.jpeg,did not like,1.672012706,,,,,,,,,,,,,,,,,,,,,,
,,65b7ba948f5c3052140c24f8,6685aa9113c938e83b4f1ea0,671c4d0c78c1624a723ea69f,2024-10-25_19h00.12.617,WTP_SM_Choice,2022.2.1,Win32,59.88023952,,,,,space,0.9182,NAN,,NAN,2.02,3.98,,0,70,70,70,1,71,Sam,Rej,Participant_Images/65b7ba948f5c3052140c24f8/65b7ba948f5c3052140c24f8_Images/65b7ba948f5c3052140c24f8_Image_16.jpeg,did not like,4.942172136,,,,,,,,,,,,,,,,,,,,,,
,,65b7ba948f5c3052140c24f8,6685aa9113c938e83b4f1ea0,671c4d0c78c1624a723ea69f,2024-10-25_19h00.12.617,WTP_SM_Choice,2022.2.1,Win32,59.88023952,,,,,space,1.6446,NAN,,NAN,2.02,3.98,,0,71,71,71,1,72,Sam,Rej,Participant_Images/65b7ba948f5c3052140c24f8/65b7ba948f5c3052140c24f8_Images/65b7ba948f5c3052140c24f8_Image_11.jpeg,did not like,2.50187214,,,,,,,,,,,,,,,,,,,,,,
,,65b7ba948f5c3052140c24f8,6685aa9113c938e83b4f1ea0,671c4d0c78c1624a723ea69f,2024-10-25_19h00.12.617,WTP_SM_Choice,2022.2.1,Win32,59.88023952,,,,,space,0.3889,NAN,,NAN,2.02,3.98,,0,72,72,72,1,73,Sam,Rej,Participant_Images/65b7ba948f5c3052140c24f8/65b7ba948f5c3052140c24f8_Images/65b7ba948f5c3052140c24f8_Image_14.jpeg,did not like,2.071164779,,,,,,,,,,,,,,,,,,,,,,
,,65b7ba948f5c3052140c24f8,6685aa9113c938e83b4f1ea0,671c4d0c78c1624a723ea69f,2024-10-25_19h00.12.617,WTP_SM_Choice,2022.2.1,Win32,59.88023952,,,,,space,1.0839,NAN,,NAN,2.02,3.98,,0,73,73,73,1,74,Sam,Rej,Participant_Images/65b7ba948f5c3052140c24f8/65b7ba948f5c3052140c24f8_Images/65b7ba948f5c3052140c24f8_Image_15.jpeg,did not like,5.336503566,,,,,,,,,,,,,,,,,,,,,,
,,65b7ba948f5c3052140c24f8,6685aa9113c938e83b4f1ea0,671c4d0c78c1624a723ea69f,2024-10-25_19h00.12.617,WTP_SM_Choice,2022.2.1,Win32,59.88023952,,,,,,,,,,,,,,,,,,71,,,,,,space,2.9362,space,1.1207,0.05,2,4.171,0,0,0,0,1,Watch movies at the theater with my friends,Learn about new technology from reddit,0.01,0.05,3.3,0,,,,
,,65b7ba948f5c3052140c24f8,6685aa9113c938e83b4f1ea0,671c4d0c78c1624a723ea69f,2024-10-25_19h00.12.617,WTP_SM_Choice,2022.2.1,Win32,59.88023952,,,,,,,,,,,,,,,,,,72,,,,,,,,,,0.02,1,2.3574,0,1,1,1,1,Play on my phone with some games in my gaming chair,Have dinner with my family every night ,0.02,0.05,8.8,1,,,,
,,65b7ba948f5c3052140c24f8,6685aa9113c938e83b4f1ea0,671c4d0c78c1624a723ea69f,2024-10-25_19h00.12.617,WTP_SM_Choice,2022.2.1,Win32,59.88023952,,,,,,,,,,,,,,,,,,73,,,,,,,,,,0.05,2,3.788,0,2,2,2,1,Go on trips with the family to parks for them to play at,Watch some anime from crunchyroll,0.03,0.05,3.3,0,,,,
,,65b7ba948f5c3052140c24f8,6685aa9113c938e83b4f1ea0,671c4d0c78c1624a723ea69f,2024-10-25_19h00.12.617,WTP_SM_Choice,2022.2.1,Win32,59.88023952,,,,,,,,,,,,,,,,,,74,,,,,,,,,,0.05,2,6.4985,0,3,3,3,1,Have dinner with my family every night ,Listen to some music with my headphones on my bed,0.04,0.05,4.4,0,,,,
,,65b7ba948f5c3052140c24f8,6685aa9113c938e83b4f1ea0,671c4d0c78c1624a723ea69f,2024-10-25_19h00.12.617,WTP_SM_Choice,2022.2.1,Win32,59.88023952,,,,,,,,,,,,,,,,,,75,,,,,,,,,,0.05,2,5.2263,0,4,4,4,1,Play some world of warcraft on my gaming computer,Listen to my favorite music with my brother,0.05,0.05,3.3,1,,,,
,,65b7ba948f5c3052140c24f8,6685aa9113c938e83b4f1ea0,671c4d0c78c1624a723ea69f,2024-10-25_19h00.12.617,WTP_SM_Choice,2022.2.1,Win32,59.88023952,,,,,,,1,,5,2.24,3.76,,0,74,74,74,1,75,Sam,Rej,Participant_Images/65b7ba948f5c3052140c24f8/65b7ba948f5c3052140c24f8_Images/65b7ba948f5c3052140c24f8_Image_25.jpeg,liked,2.642157193,,,,,,,,,,,,,,,,,,,space,1.3509,,
,,65b7ba948f5c3052140c24f8,6685aa9113c938e83b4f1ea0,671c4d0c78c1624a723ea69f,2024-10-25_19h00.12.617,WTP_SM_Choice,2022.2.1,Win32,59.88023952,,,space,1.1138,space,3.6743,NAN,,NAN,2.24,3.76,,0,75,75,75,1,76,Riley,Rej,Participant_Images/65b7ba948f5c3052140c24f8/65b7ba948f5c3052140c24f8_Images/65b7ba948f5c3052140c24f8_Image_2.jpeg,did not like,4.456234322,,,,,,,,,,,,,,,,,,,,,,
,,65b7ba948f5c3052140c24f8,6685aa9113c938e83b4f1ea0,671c4d0c78c1624a723ea69f,2024-10-25_19h00.12.617,WTP_SM_Choice,2022.2.1,Win32,59.88023952,,,,,space,1.4285,NAN,,NAN,2.24,3.76,,0,76,76,76,1,77,Riley,Rej,Participant_Images/65b7ba948f5c3052140c24f8/65b7ba948f5c3052140c24f8_Images/65b7ba948f5c3052140c24f8_Image_11.jpeg,did not like,4.438512181,,,,,,,,,,,,,,,,,,,,,,
,,65b7ba948f5c3052140c24f8,6685aa9113c938e83b4f1ea0,671c4d0c78c1624a723ea69f,2024-10-25_19h00.12.617,WTP_SM_Choice,2022.2.1,Win32,59.88023952,,,,,space,1.4751,NAN,,NAN,2.24,3.76,,0,77,77,77,1,78,Riley,Rej,Participant_Images/65b7ba948f5c3052140c24f8/65b7ba948f5c3052140c24f8_Images/65b7ba948f5c3052140c24f8_Image_6.jpeg,liked,2.682944783,,,,,,,,,,,,,,,,,,,,,,
,,65b7ba948f5c3052140c24f8,6685aa9113c938e83b4f1ea0,671c4d0c78c1624a723ea69f,2024-10-25_19h00.12.617,WTP_SM_Choice,2022.2.1,Win32,59.88023952,,,,,space,0.9202,NAN,,NAN,2.24,3.76,,0,78,78,78,1,79,Riley,Rej,Participant_Images/65b7ba948f5c3052140c24f8/65b7ba948f5c3052140c24f8_Images/65b7ba948f5c3052140c24f8_Image_14.jpeg,liked,4.51984296,,,,,,,,,,,,,,,,,,,,,,
,,65b7ba948f5c3052140c24f8,6685aa9113c938e83b4f1ea0,671c4d0c78c1624a723ea69f,2024-10-25_19h00.12.617,WTP_SM_Choice,2022.2.1,Win32,59.88023952,,,,,,,,,,,,,,,,,,76,,,,,,space,2.7722,space,1.8192,0.01,2,2.2583,0,0,0,0,1,Go out with my spouse on dates to our favorite restaurant,Play on my phone with some games in my gaming chair,0.01,0.01,1.1,0,,,,
,,65b7ba948f5c3052140c24f8,6685aa9113c938e83b4f1ea0,671c4d0c78c1624a723ea69f,2024-10-25_19h00.12.617,WTP_SM_Choice,2022.2.1,Win32,59.88023952,,,,,,,,,,,,,,,,,,77,,,,,,,,,,0.01,2,3.2902,0,1,1,1,1,"Host a party and play jack box on the TV with my friends, family, and coworkers",Learn about new technology from reddit,0.02,0.01,8.8,0,,,,
,,65b7ba948f5c3052140c24f8,6685aa9113c938e83b4f1ea0,671c4d0c78c1624a723ea69f,2024-10-25_19h00.12.617,WTP_SM_Choice,2022.2.1,Win32,59.88023952,,,,,,,,,,,,,,,,,,78,,,,,,,,,,0.01,2,3.6379,0,2,2,2,1,Watch movies at the theater with my friends,Play on my phone with some games in my gaming chair,0.03,0.01,1.1,0,,,,
,,65b7ba948f5c3052140c24f8,6685aa9113c938e83b4f1ea0,671c4d0c78c1624a723ea69f,2024-10-25_19h00.12.617,WTP_SM_Choice,2022.2.1,Win32,59.88023952,,,,,,,,,,,,,,,,,,79,,,,,,,,,,0.04,1,3.1569,0,3,3,3,1,Play some world of warcraft on my gaming computer,Listen to an audiobook with my spouse,0.04,0.01,1.1,1,,,,
,,65b7ba948f5c3052140c24f8,6685aa9113c938e83b4f1ea0,671c4d0c78c1624a723ea69f,2024-10-25_19h00.12.617,WTP_SM_Choice,2022.2.1,Win32,59.88023952,,,,,,,,,,,,,,,,,,80,,,,,,,,,,0.01,2,4.7703,0,4,4,4,1,Listen to some music with my headphones on my bed,"Host a party and play jack box on the TV with my friends, family, and coworkers",0.05,0.01,4.4,1,,,,
,,65b7ba948f5c3052140c24f8,6685aa9113c938e83b4f1ea0,671c4d0c78c1624a723ea69f,2024-10-25_19h00.12.617,WTP_SM_Choice,2022.2.1,Win32,59.88023952,,,,,,,NAN,,NAN,2.32,3.68,,0,79,79,79,1,80,Riley,Rej,Participant_Images/65b7ba948f5c3052140c24f8/65b7ba948f5c3052140c24f8_Images/65b7ba948f5c3052140c24f8_Image_10.jpeg,did not like,3.195382774,,,,,,,,,,,,,,,,,,,,,,
,,65b7ba948f5c3052140c24f8,6685aa9113c938e83b4f1ea0,671c4d0c78c1624a723ea69f,2024-10-25_19h00.12.617,WTP_SM_Choice,2022.2.1,Win32,59.88023952,,,,,space,1.82,NAN,,NAN,2.32,3.68,,0,80,80,80,1,81,Riley,Rej,Participant_Images/65b7ba948f5c3052140c24f8/65b7ba948f5c3052140c24f8_Images/65b7ba948f5c3052140c24f8_Image_3.jpeg,liked,1.779333479,,,,,,,,,,,,,,,,,,,,,,
,,65b7ba948f5c3052140c24f8,6685aa9113c938e83b4f1ea0,671c4d0c78c1624a723ea69f,2024-10-25_19h00.12.617,WTP_SM_Choice,2022.2.1,Win32,59.88023952,,,,,space,0.8428,NAN,,NAN,2.32,3.68,,0,81,81,81,1,82,Riley,Rej,Participant_Images/65b7ba948f5c3052140c24f8/65b7ba948f5c3052140c24f8_Images/65b7ba948f5c3052140c24f8_Image_18.jpeg,did not like,4.312468682,,,,,,,,,,,,,,,,,,,,,,
,,65b7ba948f5c3052140c24f8,6685aa9113c938e83b4f1ea0,671c4d0c78c1624a723ea69f,2024-10-25_19h00.12.617,WTP_SM_Choice,2022.2.1,Win32,59.88023952,,,,,space,0.888,NAN,,NAN,2.32,3.68,,0,82,82,82,1,83,Riley,Rej,Participant_Images/65b7ba948f5c3052140c24f8/65b7ba948f5c3052140c24f8_Images/65b7ba948f5c3052140c24f8_Image_17.jpeg,did not like,4.940433059,,,,,,,,,,,,,,,,,,,,,,
,,65b7ba948f5c3052140c24f8,6685aa9113c938e83b4f1ea0,671c4d0c78c1624a723ea69f,2024-10-25_19h00.12.617,WTP_SM_Choice,2022.2.1,Win32,59.88023952,,,,,space,2.333,NAN,,NAN,2.32,3.68,,0,83,83,83,1,84,Riley,Rej,Participant_Images/65b7ba948f5c3052140c24f8/65b7ba948f5c3052140c24f8_Images/65b7ba948f5c3052140c24f8_Image_16.jpeg,did not like,2.7105123,,,,,,,,,,,,,,,,,,,,,,
,,65b7ba948f5c3052140c24f8,6685aa9113c938e83b4f1ea0,671c4d0c78c1624a723ea69f,2024-10-25_19h00.12.617,WTP_SM_Choice,2022.2.1,Win32,59.88023952,,,,,,,,,,,,,,,,,,81,,,,,,space,4.5946,space,1.1234,0.01,1,5.5201,0,0,0,0,1,Go to the bar with my work colleagues after a shift,Play some world of warcraft on my gaming computer,0.01,0.02,3.3,0,,,,
,,65b7ba948f5c3052140c24f8,6685aa9113c938e83b4f1ea0,671c4d0c78c1624a723ea69f,2024-10-25_19h00.12.617,WTP_SM_Choice,2022.2.1,Win32,59.88023952,,,,,,,,,,,,,,,,,,82,,,,,,,,,,0.02,2,2.1193,0,1,1,1,1,Go on trips with the family to parks for them to play at,Clean the house while blasting my music,0.02,0.02,4.4,0,,,,
,,65b7ba948f5c3052140c24f8,6685aa9113c938e83b4f1ea0,671c4d0c78c1624a723ea69f,2024-10-25_19h00.12.617,WTP_SM_Choice,2022.2.1,Win32,59.88023952,,,,,,,,,,,,,,,,,,83,,,,,,,,,,0.02,2,2.4594,0,2,2,2,1,Go on trips with the family to parks for them to play at,Browse tiktok and watching funny videos laying down on my bed,0.03,0.02,1.1,0,,,,
,,65b7ba948f5c3052140c24f8,6685aa9113c938e83b4f1ea0,671c4d0c78c1624a723ea69f,2024-10-25_19h00.12.617,WTP_SM_Choice,2022.2.1,Win32,59.88023952,,,,,,,,,,,,,,,,,,84,,,,,,,,,,0.02,2,5.7354,0,3,3,3,1,Play some world of warcraft on my gaming computer,Watch movies at the theater with my friends,0.04,0.02,3.3,1,,,,
,,65b7ba948f5c3052140c24f8,6685aa9113c938e83b4f1ea0,671c4d0c78c1624a723ea69f,2024-10-25_19h00.12.617,WTP_SM_Choice,2022.2.1,Win32,59.88023952,,,,,,,,,,,,,,,,,,85,,,,,,,,,,0.05,1,3.9506,0,4,4,4,1,Clean the house while blasting my music,Go to the bar with my work colleagues after a shift,0.05,0.02,3.3,1,,,,
,,65b7ba948f5c3052140c24f8,6685aa9113c938e83b4f1ea0,671c4d0c78c1624a723ea69f,2024-10-25_19h00.12.617,WTP_SM_Choice,2022.2.1,Win32,59.88023952,,,,,,,NAN,,NAN,2.44,3.56,,0,84,84,84,1,85,Riley,Rej,Participant_Images/65b7ba948f5c3052140c24f8/65b7ba948f5c3052140c24f8_Images/65b7ba948f5c3052140c24f8_Image_1.jpeg,liked,3.602308302,,,,,,,,,,,,,,,,,,,,,,
,,65b7ba948f5c3052140c24f8,6685aa9113c938e83b4f1ea0,671c4d0c78c1624a723ea69f,2024-10-25_19h00.12.617,WTP_SM_Choice,2022.2.1,Win32,59.88023952,,,,,space,1.7729,NAN,,NAN,2.44,3.56,,0,85,85,85,1,86,Riley,Rej,Participant_Images/65b7ba948f5c3052140c24f8/65b7ba948f5c3052140c24f8_Images/65b7ba948f5c3052140c24f8_Image_13.jpeg,did not like,4.106391878,,,,,,,,,,,,,,,,,,,,,,
,,65b7ba948f5c3052140c24f8,6685aa9113c938e83b4f1ea0,671c4d0c78c1624a723ea69f,2024-10-25_19h00.12.617,WTP_SM_Choice,2022.2.1,Win32,59.88023952,,,,,space,0.5869,NAN,,NAN,2.44,3.56,,0,86,86,86,1,87,Riley,Rej,Participant_Images/65b7ba948f5c3052140c24f8/65b7ba948f5c3052140c24f8_Images/65b7ba948f5c3052140c24f8_Image_19.jpeg,did not like,3.799433026,,,,,,,,,,,,,,,,,,,,,,
,,65b7ba948f5c3052140c24f8,6685aa9113c938e83b4f1ea0,671c4d0c78c1624a723ea69f,2024-10-25_19h00.12.617,WTP_SM_Choice,2022.2.1,Win32,59.88023952,,,,,space,0.427,NAN,,NAN,2.44,3.56,,0,87,87,87,1,88,Riley,Rej,Participant_Images/65b7ba948f5c3052140c24f8/65b7ba948f5c3052140c24f8_Images/65b7ba948f5c3052140c24f8_Image_4.jpeg,did not like,5.246980764,,,,,,,,,,,,,,,,,,,,,,
,,65b7ba948f5c3052140c24f8,6685aa9113c938e83b4f1ea0,671c4d0c78c1624a723ea69f,2024-10-25_19h00.12.617,WTP_SM_Choice,2022.2.1,Win32,59.88023952,,,,,space,0.6196,NAN,,NAN,2.44,3.56,,0,88,88,88,1,89,Riley,Rej,Participant_Images/65b7ba948f5c3052140c24f8/65b7ba948f5c3052140c24f8_Images/65b7ba948f5c3052140c24f8_Image_23.jpeg,liked,3.30081769,,,,,,,,,,,,,,,,,,,,,,
,,65b7ba948f5c3052140c24f8,6685aa9113c938e83b4f1ea0,671c4d0c78c1624a723ea69f,2024-10-25_19h00.12.617,WTP_SM_Choice,2022.2.1,Win32,59.88023952,,,,,,,,,,,,,,,,,,86,,,,,,space,1.8024,space,1.9451,0.03,2,3.9346,0,0,0,0,1,Go to the bar with my work colleagues after a shift,Learn about new technology from reddit,0.01,0.03,1.1,0,,,,
,,65b7ba948f5c3052140c24f8,6685aa9113c938e83b4f1ea0,671c4d0c78c1624a723ea69f,2024-10-25_19h00.12.617,WTP_SM_Choice,2022.2.1,Win32,59.88023952,,,,,,,,,,,,,,,,,,87,,,,,,,,,,0.02,1,2.8508,0,1,1,1,1,Listen to some music with my headphones on my bed,Go out with my spouse on dates to our favorite restaurant,0.02,0.03,4.4,1,,,,
,,65b7ba948f5c3052140c24f8,6685aa9113c938e83b4f1ea0,671c4d0c78c1624a723ea69f,2024-10-25_19h00.12.617,WTP_SM_Choice,2022.2.1,Win32,59.88023952,,,,,,,,,,,,,,,,,,88,,,,,,,,,,0.03,1,3.668,0,2,2,2,1,Play on my phone with some games in my gaming chair,Listen to an audiobook with my spouse,0.03,0.03,1.1,1,,,,
,,65b7ba948f5c3052140c24f8,6685aa9113c938e83b4f1ea0,671c4d0c78c1624a723ea69f,2024-10-25_19h00.12.617,WTP_SM_Choice,2022.2.1,Win32,59.88023952,,,,,,,,,,,,,,,,,,89,,,,,,,,,,0.04,1,3.5092,0,3,3,3,1,Listen to some music with my headphones on my bed,Go on trips with the family to parks for them to play at,0.04,0.03,3.3,1,,,,
,,65b7ba948f5c3052140c24f8,6685aa9113c938e83b4f1ea0,671c4d0c78c1624a723ea69f,2024-10-25_19h00.12.617,WTP_SM_Choice,2022.2.1,Win32,59.88023952,,,,,,,,,,,,,,,,,,90,,,,,,,,,,0.05,1,6.7424,0,4,4,4,1,Go to the bar with my work colleagues after a shift,Play on my phone with some games in my gaming chair,0.05,0.03,8.8,0,,,,
,,65b7ba948f5c3052140c24f8,6685aa9113c938e83b4f1ea0,671c4d0c78c1624a723ea69f,2024-10-25_19h00.12.617,WTP_SM_Choice,2022.2.1,Win32,59.88023952,,,,,,,NAN,,NAN,2.61,3.39,,0,89,89,89,1,90,Riley,Rej,Participant_Images/65b7ba948f5c3052140c24f8/65b7ba948f5c3052140c24f8_Images/65b7ba948f5c3052140c24f8_Image_24.jpeg,did not like,1.661473164,,,,,,,,,,,,,,,,,,,,,,
,,65b7ba948f5c3052140c24f8,6685aa9113c938e83b4f1ea0,671c4d0c78c1624a723ea69f,2024-10-25_19h00.12.617,WTP_SM_Choice,2022.2.1,Win32,59.88023952,,,,,space,0.9027,NAN,,NAN,2.61,3.39,,0,90,90,90,1,91,Riley,Rej,Participant_Images/65b7ba948f5c3052140c24f8/65b7ba948f5c3052140c24f8_Images/65b7ba948f5c3052140c24f8_Image_20.jpeg,did not like,3.613205605,,,,,,,,,,,,,,,,,,,,,,
,,65b7ba948f5c3052140c24f8,6685aa9113c938e83b4f1ea0,671c4d0c78c1624a723ea69f,2024-10-25_19h00.12.617,WTP_SM_Choice,2022.2.1,Win32,59.88023952,,,,,space,1.1235,NAN,,NAN,2.61,3.39,,0,91,91,91,1,92,Riley,Rej,Participant_Images/65b7ba948f5c3052140c24f8/65b7ba948f5c3052140c24f8_Images/65b7ba948f5c3052140c24f8_Image_9.jpeg,did not like,4.988446431,,,,,,,,,,,,,,,,,,,,,,
,,65b7ba948f5c3052140c24f8,6685aa9113c938e83b4f1ea0,671c4d0c78c1624a723ea69f,2024-10-25_19h00.12.617,WTP_SM_Choice,2022.2.1,Win32,59.88023952,,,,,space,1.7352,NAN,,NAN,2.61,3.39,,0,92,92,92,1,93,Riley,Rej,Participant_Images/65b7ba948f5c3052140c24f8/65b7ba948f5c3052140c24f8_Images/65b7ba948f5c3052140c24f8_Image_21.jpeg,did not like,3.470791822,,,,,,,,,,,,,,,,,,,,,,
,,65b7ba948f5c3052140c24f8,6685aa9113c938e83b4f1ea0,671c4d0c78c1624a723ea69f,2024-10-25_19h00.12.617,WTP_SM_Choice,2022.2.1,Win32,59.88023952,,,,,space,2.3413,NAN,,NAN,2.61,3.39,,0,93,93,93,1,94,Riley,Rej,Participant_Images/65b7ba948f5c3052140c24f8/65b7ba948f5c3052140c24f8_Images/65b7ba948f5c3052140c24f8_Image_25.jpeg,did not like,3.820572462,,,,,,,,,,,,,,,,,,,,,,
,,65b7ba948f5c3052140c24f8,6685aa9113c938e83b4f1ea0,671c4d0c78c1624a723ea69f,2024-10-25_19h00.12.617,WTP_SM_Choice,2022.2.1,Win32,59.88023952,,,,,,,,,,,,,,,,,,91,,,,,,space,2.2431,space,2.4761,0.01,1,3.5716,0,0,0,0,1,Listen to my favorite music with my brother,Play on my phone with some games in my gaming chair,0.01,0.04,3.3,0,,,,
,,65b7ba948f5c3052140c24f8,6685aa9113c938e83b4f1ea0,671c4d0c78c1624a723ea69f,2024-10-25_19h00.12.617,WTP_SM_Choice,2022.2.1,Win32,59.88023952,,,,,,,,,,,,,,,,,,92,,,,,,,,,,0.04,2,5.1372,0,1,1,1,1,Play fight games with my spouse and friends,Watch some anime from crunchyroll,0.02,0.04,8.8,0,,,,
,,65b7ba948f5c3052140c24f8,6685aa9113c938e83b4f1ea0,671c4d0c78c1624a723ea69f,2024-10-25_19h00.12.617,WTP_SM_Choice,2022.2.1,Win32,59.88023952,,,,,,,,,,,,,,,,,,93,,,,,,,,,,0.03,1,5.5112,0,2,2,2,1,Research facts about star wars across the web,Watch movies at the theater with my friends,0.03,0.04,1.1,1,,,,
,,65b7ba948f5c3052140c24f8,6685aa9113c938e83b4f1ea0,671c4d0c78c1624a723ea69f,2024-10-25_19h00.12.617,WTP_SM_Choice,2022.2.1,Win32,59.88023952,,,,,,,,,,,,,,,,,,94,,,,,,,,,,,,,0,3,3,3,1,Browse tiktok and watching funny videos laying down on my bed,Have dinner with my family every night ,0.04,0.04,4.4,1,,,,
,,65b7ba948f5c3052140c24f8,6685aa9113c938e83b4f1ea0,671c4d0c78c1624a723ea69f,2024-10-25_19h00.12.617,WTP_SM_Choice,2022.2.1,Win32,59.88023952,,,,,,,,,,,,,,,,,,95,,,,,,,,,,0.04,2,3.6073,0,4,4,4,1,"Host a party and play jack box on the TV with my friends, family, and coworkers",Watch youtube and gamegrumps on my computer,0.05,0.04,4.4,0,,,,
,,65b7ba948f5c3052140c24f8,6685aa9113c938e83b4f1ea0,671c4d0c78c1624a723ea69f,2024-10-25_19h00.12.617,WTP_SM_Choice,2022.2.1,Win32,59.88023952,,,,,,,NAN,,NAN,2.73,3.27,,0,94,94,94,1,95,Riley,Rej,Participant_Images/65b7ba948f5c3052140c24f8/65b7ba948f5c3052140c24f8_Images/65b7ba948f5c3052140c24f8_Image_5.jpeg,liked,2.455989137,,,,,,,,,,,,,,,,,,,,,,
,,65b7ba948f5c3052140c24f8,6685aa9113c938e83b4f1ea0,671c4d0c78c1624a723ea69f,2024-10-25_19h00.12.617,WTP_SM_Choice,2022.2.1,Win32,59.88023952,,,,,space,0.9901,NAN,,NAN,2.73,3.27,,0,95,95,95,1,96,Riley,Rej,Participant_Images/65b7ba948f5c3052140c24f8/65b7ba948f5c3052140c24f8_Images/65b7ba948f5c3052140c24f8_Image_7.jpeg,did not like,3.79605092,,,,,,,,,,,,,,,,,,,,,,
,,65b7ba948f5c3052140c24f8,6685aa9113c938e83b4f1ea0,671c4d0c78c1624a723ea69f,2024-10-25_19h00.12.617,WTP_SM_Choice,2022.2.1,Win32,59.88023952,,,,,space,2.8228,NAN,,NAN,2.73,3.27,,0,96,96,96,1,97,Riley,Rej,Participant_Images/65b7ba948f5c3052140c24f8/65b7ba948f5c3052140c24f8_Images/65b7ba948f5c3052140c24f8_Image_15.jpeg,did not like,3.562416326,,,,,,,,,,,,,,,,,,,,,,
,,65b7ba948f5c3052140c24f8,6685aa9113c938e83b4f1ea0,671c4d0c78c1624a723ea69f,2024-10-25_19h00.12.617,WTP_SM_Choice,2022.2.1,Win32,59.88023952,,,,,space,0.5357,NAN,,NAN,2.73,3.27,,0,97,97,97,1,98,Riley,Rej,Participant_Images/65b7ba948f5c3052140c24f8/65b7ba948f5c3052140c24f8_Images/65b7ba948f5c3052140c24f8_Image_22.jpeg,did not like,2.843822497,,,,,,,,,,,,,,,,,,,,,,
,,65b7ba948f5c3052140c24f8,6685aa9113c938e83b4f1ea0,671c4d0c78c1624a723ea69f,2024-10-25_19h00.12.617,WTP_SM_Choice,2022.2.1,Win32,59.88023952,,,,,space,0.9702,NAN,,NAN,2.73,3.27,,0,98,98,98,1,99,Riley,Rej,Participant_Images/65b7ba948f5c3052140c24f8/65b7ba948f5c3052140c24f8_Images/65b7ba948f5c3052140c24f8_Image_12.jpeg,did not like,3.546495948,,,,,,,,,,,,,,,,,,,,,,
,,65b7ba948f5c3052140c24f8,6685aa9113c938e83b4f1ea0,671c4d0c78c1624a723ea69f,2024-10-25_19h00.12.617,WTP_SM_Choice,2022.2.1,Win32,59.88023952,,,,,,,,,,,,,,,,,,96,,,,,,space,3.2207,space,2.1045,0.01,1,3.5027,0,0,0,0,1,Listen to some music with my headphones on my bed,Go to the bar with my work colleagues after a shift,0.01,0.05,3.3,1,,,,
,,65b7ba948f5c3052140c24f8,6685aa9113c938e83b4f1ea0,671c4d0c78c1624a723ea69f,2024-10-25_19h00.12.617,WTP_SM_Choice,2022.2.1,Win32,59.88023952,,,,,,,,,,,,,,,,,,97,,,,,,,,,,0.02,1,1.9841,0,1,1,1,1,Go on errands in my car to pick up groceries,Listen to an audiobook with my spouse,0.02,0.05,1.1,1,,,,
,,65b7ba948f5c3052140c24f8,6685aa9113c938e83b4f1ea0,671c4d0c78c1624a723ea69f,2024-10-25_19h00.12.617,WTP_SM_Choice,2022.2.1,Win32,59.88023952,,,,,,,,,,,,,,,,,,98,,,,,,,,,,0.03,1,3.7071,0,2,2,2,1,Listen to my favorite music with my brother,Watch some anime from crunchyroll,0.03,0.05,1.1,0,,,,
,,65b7ba948f5c3052140c24f8,6685aa9113c938e83b4f1ea0,671c4d0c78c1624a723ea69f,2024-10-25_19h00.12.617,WTP_SM_Choice,2022.2.1,Win32,59.88023952,,,,,,,,,,,,,,,,,,99,,,,,,,,,,0.05,2,2.6546,0,3,3,3,1,Go out with my spouse on dates to our favorite restaurant,Learn about new technology from reddit,0.04,0.05,3.3,0,,,,
,,65b7ba948f5c3052140c24f8,6685aa9113c938e83b4f1ea0,671c4d0c78c1624a723ea69f,2024-10-25_19h00.12.617,WTP_SM_Choice,2022.2.1,Win32,59.88023952,,,,,,,,,,,,,,,,,,100,,,,,,,,,,0.05,2,6.4894,0,4,4,4,1,Watch movies at the theater with my friends,Clean the house while blasting my music,0.05,0.05,4.4,0,,,,
,,65b7ba948f5c3052140c24f8,6685aa9113c938e83b4f1ea0,671c4d0c78c1624a723ea69f,2024-10-25_19h00.12.617,WTP_SM_Choice,2022.2.1,Win32,59.88023952,,,,,,,1,,5,2.89,3.11,,0,99,99,99,1,100,Riley,Rej,Participant_Images/65b7ba948f5c3052140c24f8/65b7ba948f5c3052140c24f8_Images/65b7ba948f5c3052140c24f8_Image_8.jpeg,liked,1.672012706,,,,,,,,,,,,,,,,,,,space,3.054,,
,,65b7ba948f5c3052140c24f8,6685aa9113c938e83b4f1ea0,671c4d0c78c1624a723ea69f,2024-10-25_19h00.12.617,WTP_SM_Choice,2022.2.1,Win32,59.88023952,,,,,,,,,,,,,,,,,,,,,,,,,,,,,,,,,,,,,,,,,,,,space,2.5678
