endwelcomescreen_keys.keys,endwelcomescreen_keys.rt,participant,STUDY_ID,SESSION_ID,date,expName,psychopyVersion,OS,frameRate,endinstructionscreen_keys.keys,endinstructionscreen_keys.rt,endpartnermatch_keys.keys,endpartnermatch_keys.rt,sharenextphoto_key.keys,sharenextphoto_key.rt,salience_rating,key_resp.keys,stress_level,subtract_bonus,TOTAL_TASK_BONUS,stresslevel_keypress.keys,entiretaskloop.thisRepN,entiretaskloop.thisTrialN,entiretaskloop.thisN,entiretaskloop.thisIndex,entiretaskloop.ran,TrialNumber,Partner,Condition,Photos,Feedback,FeedbackWait,WTP_ins_keys1.keys,WTP_ins_keys1.rt,WTP_ins_keys2.keys,WTP_ins_keys2.rt,decision_price,responses.keys,responses.rt,WTPTaskLoop.thisRepN,WTPTaskLoop.thisTrialN,WTPTaskLoop.thisN,WTPTaskLoop.thisIndex,WTPTaskLoop.ran,right,left,leftmoney,rightmoney,WTP_ITI,social_left,Resume_keys.keys,Resume_keys.rt,end_screen_keys.keys,end_screen_keys.rt
space,5.1692,65c14027646a9bbfa89584c8,6685aa9113c938e83b4f1ea0,66bcad79edb4b8a6de639bbe,2024-08-14_08h29.42.413,WTP_SM_Choice,2022.2.1,Linux x86_64,59.88023952,,,,,,,,,,,,,,,,,,,,,,,,,,,,,,,,,,,,,,,,,,,,,
,,65c14027646a9bbfa89584c8,6685aa9113c938e83b4f1ea0,66bcad79edb4b8a6de639bbe,2024-08-14_08h29.42.413,WTP_SM_Choice,2022.2.1,Linux x86_64,59.88023952,space,17.6847,,,,,,,,,,,,,,,,,,,,,,,,,,,,,,,,,,,,,,,,,,,
,,65c14027646a9bbfa89584c8,6685aa9113c938e83b4f1ea0,66bcad79edb4b8a6de639bbe,2024-08-14_08h29.42.413,WTP_SM_Choice,2022.2.1,Linux x86_64,59.88023952,,,space,3.8582,space,2.1057,NAN,,NAN,0,6,,0,0,0,0,1,1,Sam,Acc,Participant_Images/65c14027646a9bbfa89584c8/65c14027646a9bbfa89584c8_Images/65c14027646a9bbfa89584c8_Image_18.jpeg,liked,3.613205605,,,,,,,,,,,,,,,,,,,,,,
,,65c14027646a9bbfa89584c8,6685aa9113c938e83b4f1ea0,66bcad79edb4b8a6de639bbe,2024-08-14_08h29.42.413,WTP_SM_Choice,2022.2.1,Linux x86_64,59.88023952,,,,,space,9.2945,NAN,,NAN,0,6,,0,1,1,1,1,2,Sam,Acc,Participant_Images/65c14027646a9bbfa89584c8/65c14027646a9bbfa89584c8_Images/65c14027646a9bbfa89584c8_Image_15.jpeg,liked,4.988446431,,,,,,,,,,,,,,,,,,,,,,
,,65c14027646a9bbfa89584c8,6685aa9113c938e83b4f1ea0,66bcad79edb4b8a6de639bbe,2024-08-14_08h29.42.413,WTP_SM_Choice,2022.2.1,Linux x86_64,59.88023952,,,,,space,1.7695,NAN,,NAN,0,6,,0,2,2,2,1,3,Sam,Acc,Participant_Images/65c14027646a9bbfa89584c8/65c14027646a9bbfa89584c8_Images/65c14027646a9bbfa89584c8_Image_13.jpeg,liked,3.470791822,,,,,,,,,,,,,,,,,,,,,,
,,65c14027646a9bbfa89584c8,6685aa9113c938e83b4f1ea0,66bcad79edb4b8a6de639bbe,2024-08-14_08h29.42.413,WTP_SM_Choice,2022.2.1,Linux x86_64,59.88023952,,,,,space,0.9676,NAN,,NAN,0,6,,0,3,3,3,1,4,Sam,Acc,Participant_Images/65c14027646a9bbfa89584c8/65c14027646a9bbfa89584c8_Images/65c14027646a9bbfa89584c8_Image_11.jpeg,liked,3.820572462,,,,,,,,,,,,,,,,,,,,,,
,,65c14027646a9bbfa89584c8,6685aa9113c938e83b4f1ea0,66bcad79edb4b8a6de639bbe,2024-08-14_08h29.42.413,WTP_SM_Choice,2022.2.1,Linux x86_64,59.88023952,,,,,,,,,,,,,,,,,,1,,,,,,space,21.5053,space,274.9606,0.01,1,2.7893,0,0,0,0,1,talking on the phone with my grandmother,take a nap,0.01,0.01,4.4,0,,,,
,,65c14027646a9bbfa89584c8,6685aa9113c938e83b4f1ea0,66bcad79edb4b8a6de639bbe,2024-08-14_08h29.42.413,WTP_SM_Choice,2022.2.1,Linux x86_64,59.88023952,,,,,,,,,,,,,,,,,,2,,,,,,,,,,0.02,1,3.0123,0,1,1,1,1,sit outside,go to the movies with my significant other,0.02,0.01,8.8,1,,,,
,,65c14027646a9bbfa89584c8,6685aa9113c938e83b4f1ea0,66bcad79edb4b8a6de639bbe,2024-08-14_08h29.42.413,WTP_SM_Choice,2022.2.1,Linux x86_64,59.88023952,,,,,,,,,,,,,,,,,,3,,,,,,,,,,0.03,1,3.5195,0,2,2,2,1,watch tiktok videos at home,go on vacation with my significant other,0.03,0.01,3.3,1,,,,
,,65c14027646a9bbfa89584c8,6685aa9113c938e83b4f1ea0,66bcad79edb4b8a6de639bbe,2024-08-14_08h29.42.413,WTP_SM_Choice,2022.2.1,Linux x86_64,59.88023952,,,,,,,,,,,,,,,,,,4,,,,,,,,,,0.04,1,2.6895,0,3,3,3,1,go to parties with friends,watch tiktok videos at home,0.04,0.01,1.1,0,,,,
,,65c14027646a9bbfa89584c8,6685aa9113c938e83b4f1ea0,66bcad79edb4b8a6de639bbe,2024-08-14_08h29.42.413,WTP_SM_Choice,2022.2.1,Linux x86_64,59.88023952,,,,,,,,,,,,,,,,,,5,,,,,,,,,,0.05,1,2.4752,0,4,4,4,1,go to parties with friends,read books at home,0.05,0.01,1.1,0,,,,
,,65c14027646a9bbfa89584c8,6685aa9113c938e83b4f1ea0,66bcad79edb4b8a6de639bbe,2024-08-14_08h29.42.413,WTP_SM_Choice,2022.2.1,Linux x86_64,59.88023952,,,,,,,NAN,,NAN,0.15,5.85,,0,4,4,4,1,5,Sam,Acc,Participant_Images/65c14027646a9bbfa89584c8/65c14027646a9bbfa89584c8_Images/65c14027646a9bbfa89584c8_Image_1.jpeg,did not like,2.455989137,,,,,,,,,,,,,,,,,,,,,,
,,65c14027646a9bbfa89584c8,6685aa9113c938e83b4f1ea0,66bcad79edb4b8a6de639bbe,2024-08-14_08h29.42.413,WTP_SM_Choice,2022.2.1,Linux x86_64,59.88023952,,,,,space,4.3113,NAN,,NAN,0.15,5.85,,0,5,5,5,1,6,Sam,Acc,Participant_Images/65c14027646a9bbfa89584c8/65c14027646a9bbfa89584c8_Images/65c14027646a9bbfa89584c8_Image_9.jpeg,liked,3.79605092,,,,,,,,,,,,,,,,,,,,,,
,,65c14027646a9bbfa89584c8,6685aa9113c938e83b4f1ea0,66bcad79edb4b8a6de639bbe,2024-08-14_08h29.42.413,WTP_SM_Choice,2022.2.1,Linux x86_64,59.88023952,,,,,space,6.1309,NAN,,NAN,0.15,5.85,,0,6,6,6,1,7,Sam,Acc,Participant_Images/65c14027646a9bbfa89584c8/65c14027646a9bbfa89584c8_Images/65c14027646a9bbfa89584c8_Image_12.jpeg,did not like,3.562416326,,,,,,,,,,,,,,,,,,,,,,
,,65c14027646a9bbfa89584c8,6685aa9113c938e83b4f1ea0,66bcad79edb4b8a6de639bbe,2024-08-14_08h29.42.413,WTP_SM_Choice,2022.2.1,Linux x86_64,59.88023952,,,,,space,1.9217,NAN,,NAN,0.15,5.85,,0,7,7,7,1,8,Sam,Acc,Participant_Images/65c14027646a9bbfa89584c8/65c14027646a9bbfa89584c8_Images/65c14027646a9bbfa89584c8_Image_21.jpeg,did not like,2.843822497,,,,,,,,,,,,,,,,,,,,,,
,,65c14027646a9bbfa89584c8,6685aa9113c938e83b4f1ea0,66bcad79edb4b8a6de639bbe,2024-08-14_08h29.42.413,WTP_SM_Choice,2022.2.1,Linux x86_64,59.88023952,,,,,space,1.9665,NAN,,NAN,0.15,5.85,,0,8,8,8,1,9,Sam,Acc,Participant_Images/65c14027646a9bbfa89584c8/65c14027646a9bbfa89584c8_Images/65c14027646a9bbfa89584c8_Image_10.jpeg,liked,3.546495948,,,,,,,,,,,,,,,,,,,,,,
,,65c14027646a9bbfa89584c8,6685aa9113c938e83b4f1ea0,66bcad79edb4b8a6de639bbe,2024-08-14_08h29.42.413,WTP_SM_Choice,2022.2.1,Linux x86_64,59.88023952,,,,,,,,,,,,,,,,,,6,,,,,,space,27.7138,space,4.7218,0.01,1,2.9493,0,0,0,0,1,take trips with friends,go to the park,0.01,0.02,3.3,0,,,,
,,65c14027646a9bbfa89584c8,6685aa9113c938e83b4f1ea0,66bcad79edb4b8a6de639bbe,2024-08-14_08h29.42.413,WTP_SM_Choice,2022.2.1,Linux x86_64,59.88023952,,,,,,,,,,,,,,,,,,7,,,,,,,,,,0.02,2,2.478,0,1,1,1,1,watch youtube at home,go to a bar with friends,0.02,0.02,1.1,1,,,,
,,65c14027646a9bbfa89584c8,6685aa9113c938e83b4f1ea0,66bcad79edb4b8a6de639bbe,2024-08-14_08h29.42.413,WTP_SM_Choice,2022.2.1,Linux x86_64,59.88023952,,,,,,,,,,,,,,,,,,8,,,,,,,,,,0.02,2,4.1698,0,2,2,2,1,take trips with friends,read books at home,0.03,0.02,1.1,0,,,,
,,65c14027646a9bbfa89584c8,6685aa9113c938e83b4f1ea0,66bcad79edb4b8a6de639bbe,2024-08-14_08h29.42.413,WTP_SM_Choice,2022.2.1,Linux x86_64,59.88023952,,,,,,,,,,,,,,,,,,9,,,,,,,,,,0.02,2,4.4256,0,3,3,3,1,take trips with friends,cook at home,0.04,0.02,4.4,0,,,,
,,65c14027646a9bbfa89584c8,6685aa9113c938e83b4f1ea0,66bcad79edb4b8a6de639bbe,2024-08-14_08h29.42.413,WTP_SM_Choice,2022.2.1,Linux x86_64,59.88023952,,,,,,,,,,,,,,,,,,10,,,,,,,,,,0.02,2,2.0492,0,4,4,4,1,listen to a podcast,go to parties with friends,0.05,0.02,1.1,1,,,,
,,65c14027646a9bbfa89584c8,6685aa9113c938e83b4f1ea0,66bcad79edb4b8a6de639bbe,2024-08-14_08h29.42.413,WTP_SM_Choice,2022.2.1,Linux x86_64,59.88023952,,,,,,,NAN,,NAN,0.24,5.76,,0,9,9,9,1,10,Sam,Acc,Participant_Images/65c14027646a9bbfa89584c8/65c14027646a9bbfa89584c8_Images/65c14027646a9bbfa89584c8_Image_3.jpeg,liked,1.672012706,,,,,,,,,,,,,,,,,,,,,,
,,65c14027646a9bbfa89584c8,6685aa9113c938e83b4f1ea0,66bcad79edb4b8a6de639bbe,2024-08-14_08h29.42.413,WTP_SM_Choice,2022.2.1,Linux x86_64,59.88023952,,,,,space,1.8673,NAN,,NAN,0.24,5.76,,0,10,10,10,1,11,Sam,Acc,Participant_Images/65c14027646a9bbfa89584c8/65c14027646a9bbfa89584c8_Images/65c14027646a9bbfa89584c8_Image_7.jpeg,liked,4.942172136,,,,,,,,,,,,,,,,,,,,,,
,,65c14027646a9bbfa89584c8,6685aa9113c938e83b4f1ea0,66bcad79edb4b8a6de639bbe,2024-08-14_08h29.42.413,WTP_SM_Choice,2022.2.1,Linux x86_64,59.88023952,,,,,space,8.6621,NAN,,NAN,0.24,5.76,,0,11,11,11,1,12,Sam,Acc,Participant_Images/65c14027646a9bbfa89584c8/65c14027646a9bbfa89584c8_Images/65c14027646a9bbfa89584c8_Image_6.jpeg,liked,2.50187214,,,,,,,,,,,,,,,,,,,,,,
,,65c14027646a9bbfa89584c8,6685aa9113c938e83b4f1ea0,66bcad79edb4b8a6de639bbe,2024-08-14_08h29.42.413,WTP_SM_Choice,2022.2.1,Linux x86_64,59.88023952,,,,,space,3.9646,NAN,,NAN,0.24,5.76,,0,12,12,12,1,13,Sam,Acc,Participant_Images/65c14027646a9bbfa89584c8/65c14027646a9bbfa89584c8_Images/65c14027646a9bbfa89584c8_Image_25.jpeg,liked,2.071164779,,,,,,,,,,,,,,,,,,,,,,
,,65c14027646a9bbfa89584c8,6685aa9113c938e83b4f1ea0,66bcad79edb4b8a6de639bbe,2024-08-14_08h29.42.413,WTP_SM_Choice,2022.2.1,Linux x86_64,59.88023952,,,,,space,8.7091,NAN,,NAN,0.24,5.76,,0,13,13,13,1,14,Sam,Acc,Participant_Images/65c14027646a9bbfa89584c8/65c14027646a9bbfa89584c8_Images/65c14027646a9bbfa89584c8_Image_8.jpeg,liked,5.336503566,,,,,,,,,,,,,,,,,,,,,,
,,65c14027646a9bbfa89584c8,6685aa9113c938e83b4f1ea0,66bcad79edb4b8a6de639bbe,2024-08-14_08h29.42.413,WTP_SM_Choice,2022.2.1,Linux x86_64,59.88023952,,,,,,,,,,,,,,,,,,11,,,,,,space,65.7052,space,296.1878,0.03,2,2.4562,0,0,0,0,1,go out to eat with my significant other,cook at home,0.01,0.03,3.3,0,,,,
,,65c14027646a9bbfa89584c8,6685aa9113c938e83b4f1ea0,66bcad79edb4b8a6de639bbe,2024-08-14_08h29.42.413,WTP_SM_Choice,2022.2.1,Linux x86_64,59.88023952,,,,,,,,,,,,,,,,,,12,,,,,,,,,,0.02,1,2.7742,0,1,1,1,1,talk on the phone with my sister,go to the park,0.02,0.03,4.4,0,,,,
,,65c14027646a9bbfa89584c8,6685aa9113c938e83b4f1ea0,66bcad79edb4b8a6de639bbe,2024-08-14_08h29.42.413,WTP_SM_Choice,2022.2.1,Linux x86_64,59.88023952,,,,,,,,,,,,,,,,,,13,,,,,,,,,,0.03,2,2.2104,0,2,2,2,1,read books at home,talking on the phone with my grandmother,0.03,0.03,1.1,1,,,,
,,65c14027646a9bbfa89584c8,6685aa9113c938e83b4f1ea0,66bcad79edb4b8a6de639bbe,2024-08-14_08h29.42.413,WTP_SM_Choice,2022.2.1,Linux x86_64,59.88023952,,,,,,,,,,,,,,,,,,14,,,,,,,,,,0.04,1,3.4251,0,3,3,3,1,take a walk with my significant other,take a nap,0.04,0.03,3.3,0,,,,
,,65c14027646a9bbfa89584c8,6685aa9113c938e83b4f1ea0,66bcad79edb4b8a6de639bbe,2024-08-14_08h29.42.413,WTP_SM_Choice,2022.2.1,Linux x86_64,59.88023952,,,,,,,,,,,,,,,,,,15,,,,,,,,,,0.05,1,2.203,0,4,4,4,1,go to parties with friends,cook at home,0.05,0.03,4.4,0,,,,
,,65c14027646a9bbfa89584c8,6685aa9113c938e83b4f1ea0,66bcad79edb4b8a6de639bbe,2024-08-14_08h29.42.413,WTP_SM_Choice,2022.2.1,Linux x86_64,59.88023952,,,,,,,NAN,,NAN,0.41,5.59,,0,14,14,14,1,15,Sam,Acc,Participant_Images/65c14027646a9bbfa89584c8/65c14027646a9bbfa89584c8_Images/65c14027646a9bbfa89584c8_Image_22.jpeg,did not like,2.642157193,,,,,,,,,,,,,,,,,,,,,,
,,65c14027646a9bbfa89584c8,6685aa9113c938e83b4f1ea0,66bcad79edb4b8a6de639bbe,2024-08-14_08h29.42.413,WTP_SM_Choice,2022.2.1,Linux x86_64,59.88023952,,,,,space,5.2809,NAN,,NAN,0.41,5.59,,0,15,15,15,1,16,Sam,Acc,Participant_Images/65c14027646a9bbfa89584c8/65c14027646a9bbfa89584c8_Images/65c14027646a9bbfa89584c8_Image_2.jpeg,liked,4.456234322,,,,,,,,,,,,,,,,,,,,,,
,,65c14027646a9bbfa89584c8,6685aa9113c938e83b4f1ea0,66bcad79edb4b8a6de639bbe,2024-08-14_08h29.42.413,WTP_SM_Choice,2022.2.1,Linux x86_64,59.88023952,,,,,space,1.8825,NAN,,NAN,0.41,5.59,,0,16,16,16,1,17,Sam,Acc,Participant_Images/65c14027646a9bbfa89584c8/65c14027646a9bbfa89584c8_Images/65c14027646a9bbfa89584c8_Image_20.jpeg,liked,4.438512181,,,,,,,,,,,,,,,,,,,,,,
,,65c14027646a9bbfa89584c8,6685aa9113c938e83b4f1ea0,66bcad79edb4b8a6de639bbe,2024-08-14_08h29.42.413,WTP_SM_Choice,2022.2.1,Linux x86_64,59.88023952,,,,,space,8.2611,NAN,,NAN,0.41,5.59,,0,17,17,17,1,18,Sam,Acc,Participant_Images/65c14027646a9bbfa89584c8/65c14027646a9bbfa89584c8_Images/65c14027646a9bbfa89584c8_Image_14.jpeg,liked,2.682944783,,,,,,,,,,,,,,,,,,,,,,
,,65c14027646a9bbfa89584c8,6685aa9113c938e83b4f1ea0,66bcad79edb4b8a6de639bbe,2024-08-14_08h29.42.413,WTP_SM_Choice,2022.2.1,Linux x86_64,59.88023952,,,,,space,0.6177,NAN,,NAN,0.41,5.59,,0,18,18,18,1,19,Sam,Acc,Participant_Images/65c14027646a9bbfa89584c8/65c14027646a9bbfa89584c8_Images/65c14027646a9bbfa89584c8_Image_24.jpeg,did not like,4.51984296,,,,,,,,,,,,,,,,,,,,,,
,,65c14027646a9bbfa89584c8,6685aa9113c938e83b4f1ea0,66bcad79edb4b8a6de639bbe,2024-08-14_08h29.42.413,WTP_SM_Choice,2022.2.1,Linux x86_64,59.88023952,,,,,,,,,,,,,,,,,,16,,,,,,space,2.1568,space,2.2417,0.01,1,2.8206,0,0,0,0,1,listen to music with my friend,read books at home,0.01,0.04,1.1,0,,,,
,,65c14027646a9bbfa89584c8,6685aa9113c938e83b4f1ea0,66bcad79edb4b8a6de639bbe,2024-08-14_08h29.42.413,WTP_SM_Choice,2022.2.1,Linux x86_64,59.88023952,,,,,,,,,,,,,,,,,,17,,,,,,,,,,0.04,2,3.2919,0,1,1,1,1,take trips with friends,listen to a podcast,0.02,0.04,8.8,0,,,,
,,65c14027646a9bbfa89584c8,6685aa9113c938e83b4f1ea0,66bcad79edb4b8a6de639bbe,2024-08-14_08h29.42.413,WTP_SM_Choice,2022.2.1,Linux x86_64,59.88023952,,,,,,,,,,,,,,,,,,18,,,,,,,,,,0.04,2,3.423,0,2,2,2,1,go on vacation with my significant other,go to the park,0.03,0.04,3.3,0,,,,
,,65c14027646a9bbfa89584c8,6685aa9113c938e83b4f1ea0,66bcad79edb4b8a6de639bbe,2024-08-14_08h29.42.413,WTP_SM_Choice,2022.2.1,Linux x86_64,59.88023952,,,,,,,,,,,,,,,,,,19,,,,,,,,,,0.04,2,1.9561,0,3,3,3,1,read books at home,talk on the phone with my sister,0.04,0.04,3.3,1,,,,
,,65c14027646a9bbfa89584c8,6685aa9113c938e83b4f1ea0,66bcad79edb4b8a6de639bbe,2024-08-14_08h29.42.413,WTP_SM_Choice,2022.2.1,Linux x86_64,59.88023952,,,,,,,,,,,,,,,,,,20,,,,,,,,,,0.04,2,2.2491,0,4,4,4,1,go to the park,talking on the phone with my grandmother,0.05,0.04,1.1,1,,,,
,,65c14027646a9bbfa89584c8,6685aa9113c938e83b4f1ea0,66bcad79edb4b8a6de639bbe,2024-08-14_08h29.42.413,WTP_SM_Choice,2022.2.1,Linux x86_64,59.88023952,,,,,,,NAN,,NAN,0.58,5.42,,0,19,19,19,1,20,Sam,Acc,Participant_Images/65c14027646a9bbfa89584c8/65c14027646a9bbfa89584c8_Images/65c14027646a9bbfa89584c8_Image_19.jpeg,liked,3.195382774,,,,,,,,,,,,,,,,,,,,,,
,,65c14027646a9bbfa89584c8,6685aa9113c938e83b4f1ea0,66bcad79edb4b8a6de639bbe,2024-08-14_08h29.42.413,WTP_SM_Choice,2022.2.1,Linux x86_64,59.88023952,,,,,space,0.6557,NAN,,NAN,0.58,5.42,,0,20,20,20,1,21,Sam,Acc,Participant_Images/65c14027646a9bbfa89584c8/65c14027646a9bbfa89584c8_Images/65c14027646a9bbfa89584c8_Image_17.jpeg,liked,1.779333479,,,,,,,,,,,,,,,,,,,,,,
,,65c14027646a9bbfa89584c8,6685aa9113c938e83b4f1ea0,66bcad79edb4b8a6de639bbe,2024-08-14_08h29.42.413,WTP_SM_Choice,2022.2.1,Linux x86_64,59.88023952,,,,,space,1.3827,NAN,,NAN,0.58,5.42,,0,21,21,21,1,22,Sam,Acc,Participant_Images/65c14027646a9bbfa89584c8/65c14027646a9bbfa89584c8_Images/65c14027646a9bbfa89584c8_Image_5.jpeg,liked,4.312468682,,,,,,,,,,,,,,,,,,,,,,
,,65c14027646a9bbfa89584c8,6685aa9113c938e83b4f1ea0,66bcad79edb4b8a6de639bbe,2024-08-14_08h29.42.413,WTP_SM_Choice,2022.2.1,Linux x86_64,59.88023952,,,,,space,0.9461,NAN,,NAN,0.58,5.42,,0,22,22,22,1,23,Sam,Acc,Participant_Images/65c14027646a9bbfa89584c8/65c14027646a9bbfa89584c8_Images/65c14027646a9bbfa89584c8_Image_16.jpeg,liked,4.940433059,,,,,,,,,,,,,,,,,,,,,,
,,65c14027646a9bbfa89584c8,6685aa9113c938e83b4f1ea0,66bcad79edb4b8a6de639bbe,2024-08-14_08h29.42.413,WTP_SM_Choice,2022.2.1,Linux x86_64,59.88023952,,,,,space,7.2466,NAN,,NAN,0.58,5.42,,0,23,23,23,1,24,Sam,Acc,Participant_Images/65c14027646a9bbfa89584c8/65c14027646a9bbfa89584c8_Images/65c14027646a9bbfa89584c8_Image_23.jpeg,did not like,2.7105123,,,,,,,,,,,,,,,,,,,,,,
,,65c14027646a9bbfa89584c8,6685aa9113c938e83b4f1ea0,66bcad79edb4b8a6de639bbe,2024-08-14_08h29.42.413,WTP_SM_Choice,2022.2.1,Linux x86_64,59.88023952,,,,,,,,,,,,,,,,,,21,,,,,,space,1.9541,space,1.5815,0.05,2,2.1203,0,0,0,0,1,take a walk,listen to music with my friend,0.01,0.05,8.8,1,,,,
,,65c14027646a9bbfa89584c8,6685aa9113c938e83b4f1ea0,66bcad79edb4b8a6de639bbe,2024-08-14_08h29.42.413,WTP_SM_Choice,2022.2.1,Linux x86_64,59.88023952,,,,,,,,,,,,,,,,,,22,,,,,,,,,,0.05,2,4.17,0,1,1,1,1,cook at home,take a walk with my significant other,0.02,0.05,4.4,1,,,,
,,65c14027646a9bbfa89584c8,6685aa9113c938e83b4f1ea0,66bcad79edb4b8a6de639bbe,2024-08-14_08h29.42.413,WTP_SM_Choice,2022.2.1,Linux x86_64,59.88023952,,,,,,,,,,,,,,,,,,23,,,,,,,,,,0.03,1,2.6845,0,2,2,2,1,meditate at home,go to the movies with my significant other,0.03,0.05,1.1,1,,,,
,,65c14027646a9bbfa89584c8,6685aa9113c938e83b4f1ea0,66bcad79edb4b8a6de639bbe,2024-08-14_08h29.42.413,WTP_SM_Choice,2022.2.1,Linux x86_64,59.88023952,,,,,,,,,,,,,,,,,,24,,,,,,,,,,0.05,2,1.6558,0,3,3,3,1,listen to a podcast,talking on the phone with my grandmother,0.04,0.05,4.4,1,,,,
,,65c14027646a9bbfa89584c8,6685aa9113c938e83b4f1ea0,66bcad79edb4b8a6de639bbe,2024-08-14_08h29.42.413,WTP_SM_Choice,2022.2.1,Linux x86_64,59.88023952,,,,,,,,,,,,,,,,,,25,,,,,,,,,,0.05,1,3.0621,0,4,4,4,1,take a walk with my significant other,read books at home,0.05,0.05,3.3,0,,,,
,,65c14027646a9bbfa89584c8,6685aa9113c938e83b4f1ea0,66bcad79edb4b8a6de639bbe,2024-08-14_08h29.42.413,WTP_SM_Choice,2022.2.1,Linux x86_64,59.88023952,,,,,,,4,,7,0.81,5.19,,0,24,24,24,1,25,Sam,Acc,Participant_Images/65c14027646a9bbfa89584c8/65c14027646a9bbfa89584c8_Images/65c14027646a9bbfa89584c8_Image_4.jpeg,did not like,3.602308302,,,,,,,,,,,,,,,,,,,space,2.0619,,
,,65c14027646a9bbfa89584c8,6685aa9113c938e83b4f1ea0,66bcad79edb4b8a6de639bbe,2024-08-14_08h29.42.413,WTP_SM_Choice,2022.2.1,Linux x86_64,59.88023952,,,space,2.5008,space,1.8457,NAN,,NAN,0.81,5.19,,0,25,25,25,1,26,Alex,Rej,Participant_Images/65c14027646a9bbfa89584c8/65c14027646a9bbfa89584c8_Images/65c14027646a9bbfa89584c8_Image_25.jpeg,did not like,4.106391878,,,,,,,,,,,,,,,,,,,,,,
,,65c14027646a9bbfa89584c8,6685aa9113c938e83b4f1ea0,66bcad79edb4b8a6de639bbe,2024-08-14_08h29.42.413,WTP_SM_Choice,2022.2.1,Linux x86_64,59.88023952,,,,,space,0.7505,NAN,,NAN,0.81,5.19,,0,26,26,26,1,27,Alex,Rej,Participant_Images/65c14027646a9bbfa89584c8/65c14027646a9bbfa89584c8_Images/65c14027646a9bbfa89584c8_Image_22.jpeg,did not like,3.799433026,,,,,,,,,,,,,,,,,,,,,,
,,65c14027646a9bbfa89584c8,6685aa9113c938e83b4f1ea0,66bcad79edb4b8a6de639bbe,2024-08-14_08h29.42.413,WTP_SM_Choice,2022.2.1,Linux x86_64,59.88023952,,,,,space,1.1693,NAN,,NAN,0.81,5.19,,0,27,27,27,1,28,Alex,Rej,Participant_Images/65c14027646a9bbfa89584c8/65c14027646a9bbfa89584c8_Images/65c14027646a9bbfa89584c8_Image_1.jpeg,did not like,5.246980764,,,,,,,,,,,,,,,,,,,,,,
,,65c14027646a9bbfa89584c8,6685aa9113c938e83b4f1ea0,66bcad79edb4b8a6de639bbe,2024-08-14_08h29.42.413,WTP_SM_Choice,2022.2.1,Linux x86_64,59.88023952,,,,,space,0.8894,NAN,,NAN,0.81,5.19,,0,28,28,28,1,29,Alex,Rej,Participant_Images/65c14027646a9bbfa89584c8/65c14027646a9bbfa89584c8_Images/65c14027646a9bbfa89584c8_Image_21.jpeg,did not like,3.30081769,,,,,,,,,,,,,,,,,,,,,,
,,65c14027646a9bbfa89584c8,6685aa9113c938e83b4f1ea0,66bcad79edb4b8a6de639bbe,2024-08-14_08h29.42.413,WTP_SM_Choice,2022.2.1,Linux x86_64,59.88023952,,,,,,,,,,,,,,,,,,26,,,,,,space,3.616,space,1.4308,0.01,1,2.026,0,0,0,0,1,take a nap,go on vacation with my significant other,0.01,0.01,4.4,1,,,,
,,65c14027646a9bbfa89584c8,6685aa9113c938e83b4f1ea0,66bcad79edb4b8a6de639bbe,2024-08-14_08h29.42.413,WTP_SM_Choice,2022.2.1,Linux x86_64,59.88023952,,,,,,,,,,,,,,,,,,27,,,,,,,,,,0.02,1,2.415,0,1,1,1,1,watch youtube at home,go out to eat with my significant other,0.02,0.01,3.3,1,,,,
,,65c14027646a9bbfa89584c8,6685aa9113c938e83b4f1ea0,66bcad79edb4b8a6de639bbe,2024-08-14_08h29.42.413,WTP_SM_Choice,2022.2.1,Linux x86_64,59.88023952,,,,,,,,,,,,,,,,,,28,,,,,,,,,,0.03,1,2.6863,0,2,2,2,1,take a walk,go out to eat with my significant other,0.03,0.01,3.3,1,,,,
,,65c14027646a9bbfa89584c8,6685aa9113c938e83b4f1ea0,66bcad79edb4b8a6de639bbe,2024-08-14_08h29.42.413,WTP_SM_Choice,2022.2.1,Linux x86_64,59.88023952,,,,,,,,,,,,,,,,,,29,,,,,,,,,,0.04,1,2.5756,0,3,3,3,1,listen to music with my friend,go to the park,0.04,0.01,4.4,0,,,,
,,65c14027646a9bbfa89584c8,6685aa9113c938e83b4f1ea0,66bcad79edb4b8a6de639bbe,2024-08-14_08h29.42.413,WTP_SM_Choice,2022.2.1,Linux x86_64,59.88023952,,,,,,,,,,,,,,,,,,30,,,,,,,,,,0.05,1,2.072,0,4,4,4,1,go to parties with friends,sit outside,0.05,0.01,8.8,0,,,,
,,65c14027646a9bbfa89584c8,6685aa9113c938e83b4f1ea0,66bcad79edb4b8a6de639bbe,2024-08-14_08h29.42.413,WTP_SM_Choice,2022.2.1,Linux x86_64,59.88023952,,,,,,,NAN,,NAN,0.96,5.04,,0,29,29,29,1,30,Alex,Rej,Participant_Images/65c14027646a9bbfa89584c8/65c14027646a9bbfa89584c8_Images/65c14027646a9bbfa89584c8_Image_19.jpeg,did not like,1.661473164,,,,,,,,,,,,,,,,,,,,,,
,,65c14027646a9bbfa89584c8,6685aa9113c938e83b4f1ea0,66bcad79edb4b8a6de639bbe,2024-08-14_08h29.42.413,WTP_SM_Choice,2022.2.1,Linux x86_64,59.88023952,,,,,space,2.4509,NAN,,NAN,0.96,5.04,,0,30,30,30,1,31,Alex,Rej,Participant_Images/65c14027646a9bbfa89584c8/65c14027646a9bbfa89584c8_Images/65c14027646a9bbfa89584c8_Image_20.jpeg,liked,3.613205605,,,,,,,,,,,,,,,,,,,,,,
,,65c14027646a9bbfa89584c8,6685aa9113c938e83b4f1ea0,66bcad79edb4b8a6de639bbe,2024-08-14_08h29.42.413,WTP_SM_Choice,2022.2.1,Linux x86_64,59.88023952,,,,,space,1.2967,NAN,,NAN,0.96,5.04,,0,31,31,31,1,32,Alex,Rej,Participant_Images/65c14027646a9bbfa89584c8/65c14027646a9bbfa89584c8_Images/65c14027646a9bbfa89584c8_Image_11.jpeg,did not like,4.988446431,,,,,,,,,,,,,,,,,,,,,,
,,65c14027646a9bbfa89584c8,6685aa9113c938e83b4f1ea0,66bcad79edb4b8a6de639bbe,2024-08-14_08h29.42.413,WTP_SM_Choice,2022.2.1,Linux x86_64,59.88023952,,,,,space,1.523,NAN,,NAN,0.96,5.04,,0,32,32,32,1,33,Alex,Rej,Participant_Images/65c14027646a9bbfa89584c8/65c14027646a9bbfa89584c8_Images/65c14027646a9bbfa89584c8_Image_5.jpeg,did not like,3.470791822,,,,,,,,,,,,,,,,,,,,,,
,,65c14027646a9bbfa89584c8,6685aa9113c938e83b4f1ea0,66bcad79edb4b8a6de639bbe,2024-08-14_08h29.42.413,WTP_SM_Choice,2022.2.1,Linux x86_64,59.88023952,,,,,space,1.6215,NAN,,NAN,0.96,5.04,,0,33,33,33,1,34,Alex,Rej,Participant_Images/65c14027646a9bbfa89584c8/65c14027646a9bbfa89584c8_Images/65c14027646a9bbfa89584c8_Image_15.jpeg,did not like,3.820572462,,,,,,,,,,,,,,,,,,,,,,
,,65c14027646a9bbfa89584c8,6685aa9113c938e83b4f1ea0,66bcad79edb4b8a6de639bbe,2024-08-14_08h29.42.413,WTP_SM_Choice,2022.2.1,Linux x86_64,59.88023952,,,,,,,,,,,,,,,,,,31,,,,,,space,16.5907,space,4.7427,0.02,2,2.174,0,0,0,0,1,read books at home,go to a bar with friends,0.01,0.02,8.8,1,,,,
,,65c14027646a9bbfa89584c8,6685aa9113c938e83b4f1ea0,66bcad79edb4b8a6de639bbe,2024-08-14_08h29.42.413,WTP_SM_Choice,2022.2.1,Linux x86_64,59.88023952,,,,,,,,,,,,,,,,,,32,,,,,,,,,,0.02,2,3.1135,0,1,1,1,1,listen to a podcast,take a walk with my significant other,0.02,0.02,1.1,1,,,,
,,65c14027646a9bbfa89584c8,6685aa9113c938e83b4f1ea0,66bcad79edb4b8a6de639bbe,2024-08-14_08h29.42.413,WTP_SM_Choice,2022.2.1,Linux x86_64,59.88023952,,,,,,,,,,,,,,,,,,33,,,,,,,,,,0.03,1,4.669,0,2,2,2,1,go to parties with friends,meditate at home,0.03,0.02,4.4,0,,,,
,,65c14027646a9bbfa89584c8,6685aa9113c938e83b4f1ea0,66bcad79edb4b8a6de639bbe,2024-08-14_08h29.42.413,WTP_SM_Choice,2022.2.1,Linux x86_64,59.88023952,,,,,,,,,,,,,,,,,,34,,,,,,,,,,0.04,1,2.5353,0,3,3,3,1,talking on the phone with my grandmother,watch youtube at home,0.04,0.02,3.3,0,,,,
,,65c14027646a9bbfa89584c8,6685aa9113c938e83b4f1ea0,66bcad79edb4b8a6de639bbe,2024-08-14_08h29.42.413,WTP_SM_Choice,2022.2.1,Linux x86_64,59.88023952,,,,,,,,,,,,,,,,,,35,,,,,,,,,,0.05,1,2.723,0,4,4,4,1,talk on the phone with my sister,listen to a podcast,0.05,0.02,1.1,0,,,,
,,65c14027646a9bbfa89584c8,6685aa9113c938e83b4f1ea0,66bcad79edb4b8a6de639bbe,2024-08-14_08h29.42.413,WTP_SM_Choice,2022.2.1,Linux x86_64,59.88023952,,,,,,,NAN,,NAN,1.12,4.88,,0,34,34,34,1,35,Alex,Rej,Participant_Images/65c14027646a9bbfa89584c8/65c14027646a9bbfa89584c8_Images/65c14027646a9bbfa89584c8_Image_24.jpeg,did not like,2.455989137,,,,,,,,,,,,,,,,,,,,,,
,,65c14027646a9bbfa89584c8,6685aa9113c938e83b4f1ea0,66bcad79edb4b8a6de639bbe,2024-08-14_08h29.42.413,WTP_SM_Choice,2022.2.1,Linux x86_64,59.88023952,,,,,space,2.2991,NAN,,NAN,1.12,4.88,,0,35,35,35,1,36,Alex,Rej,Participant_Images/65c14027646a9bbfa89584c8/65c14027646a9bbfa89584c8_Images/65c14027646a9bbfa89584c8_Image_23.jpeg,did not like,3.79605092,,,,,,,,,,,,,,,,,,,,,,
,,65c14027646a9bbfa89584c8,6685aa9113c938e83b4f1ea0,66bcad79edb4b8a6de639bbe,2024-08-14_08h29.42.413,WTP_SM_Choice,2022.2.1,Linux x86_64,59.88023952,,,,,space,1.1913,NAN,,NAN,1.12,4.88,,0,36,36,36,1,37,Alex,Rej,Participant_Images/65c14027646a9bbfa89584c8/65c14027646a9bbfa89584c8_Images/65c14027646a9bbfa89584c8_Image_14.jpeg,did not like,3.562416326,,,,,,,,,,,,,,,,,,,,,,
,,65c14027646a9bbfa89584c8,6685aa9113c938e83b4f1ea0,66bcad79edb4b8a6de639bbe,2024-08-14_08h29.42.413,WTP_SM_Choice,2022.2.1,Linux x86_64,59.88023952,,,,,space,2.0516,NAN,,NAN,1.12,4.88,,0,37,37,37,1,38,Alex,Rej,Participant_Images/65c14027646a9bbfa89584c8/65c14027646a9bbfa89584c8_Images/65c14027646a9bbfa89584c8_Image_4.jpeg,did not like,2.843822497,,,,,,,,,,,,,,,,,,,,,,
,,65c14027646a9bbfa89584c8,6685aa9113c938e83b4f1ea0,66bcad79edb4b8a6de639bbe,2024-08-14_08h29.42.413,WTP_SM_Choice,2022.2.1,Linux x86_64,59.88023952,,,,,space,2.6177,NAN,,NAN,1.12,4.88,,0,38,38,38,1,39,Alex,Rej,Participant_Images/65c14027646a9bbfa89584c8/65c14027646a9bbfa89584c8_Images/65c14027646a9bbfa89584c8_Image_10.jpeg,liked,3.546495948,,,,,,,,,,,,,,,,,,,,,,
,,65c14027646a9bbfa89584c8,6685aa9113c938e83b4f1ea0,66bcad79edb4b8a6de639bbe,2024-08-14_08h29.42.413,WTP_SM_Choice,2022.2.1,Linux x86_64,59.88023952,,,,,,,,,,,,,,,,,,36,,,,,,space,12.7021,space,1.6702,0.01,1,2.4099,0,0,0,0,1,listen to music with my friend,meditate at home,0.01,0.03,3.3,0,,,,
,,65c14027646a9bbfa89584c8,6685aa9113c938e83b4f1ea0,66bcad79edb4b8a6de639bbe,2024-08-14_08h29.42.413,WTP_SM_Choice,2022.2.1,Linux x86_64,59.88023952,,,,,,,,,,,,,,,,,,37,,,,,,,,,,0.03,2,2.1295,0,1,1,1,1,go on vacation with my significant other,meditate at home,0.02,0.03,1.1,0,,,,
,,65c14027646a9bbfa89584c8,6685aa9113c938e83b4f1ea0,66bcad79edb4b8a6de639bbe,2024-08-14_08h29.42.413,WTP_SM_Choice,2022.2.1,Linux x86_64,59.88023952,,,,,,,,,,,,,,,,,,38,,,,,,,,,,0.03,2,2.9085,0,2,2,2,1,go to the movies with my significant other,cook at home,0.03,0.03,1.1,0,,,,
,,65c14027646a9bbfa89584c8,6685aa9113c938e83b4f1ea0,66bcad79edb4b8a6de639bbe,2024-08-14_08h29.42.413,WTP_SM_Choice,2022.2.1,Linux x86_64,59.88023952,,,,,,,,,,,,,,,,,,39,,,,,,,,,,0.03,2,2.5423,0,3,3,3,1,take a walk,take a walk with my significant other,0.04,0.03,3.3,1,,,,
,,65c14027646a9bbfa89584c8,6685aa9113c938e83b4f1ea0,66bcad79edb4b8a6de639bbe,2024-08-14_08h29.42.413,WTP_SM_Choice,2022.2.1,Linux x86_64,59.88023952,,,,,,,,,,,,,,,,,,40,,,,,,,,,,0.05,1,2.5051,0,4,4,4,1,meditate at home,go out to eat with my significant other,0.05,0.03,4.4,1,,,,
,,65c14027646a9bbfa89584c8,6685aa9113c938e83b4f1ea0,66bcad79edb4b8a6de639bbe,2024-08-14_08h29.42.413,WTP_SM_Choice,2022.2.1,Linux x86_64,59.88023952,,,,,,,NAN,,NAN,1.27,4.73,,0,39,39,39,1,40,Alex,Rej,Participant_Images/65c14027646a9bbfa89584c8/65c14027646a9bbfa89584c8_Images/65c14027646a9bbfa89584c8_Image_17.jpeg,liked,1.672012706,,,,,,,,,,,,,,,,,,,,,,
,,65c14027646a9bbfa89584c8,6685aa9113c938e83b4f1ea0,66bcad79edb4b8a6de639bbe,2024-08-14_08h29.42.413,WTP_SM_Choice,2022.2.1,Linux x86_64,59.88023952,,,,,space,1.2442,NAN,,NAN,1.27,4.73,,0,40,40,40,1,41,Alex,Rej,Participant_Images/65c14027646a9bbfa89584c8/65c14027646a9bbfa89584c8_Images/65c14027646a9bbfa89584c8_Image_12.jpeg,did not like,4.942172136,,,,,,,,,,,,,,,,,,,,,,
,,65c14027646a9bbfa89584c8,6685aa9113c938e83b4f1ea0,66bcad79edb4b8a6de639bbe,2024-08-14_08h29.42.413,WTP_SM_Choice,2022.2.1,Linux x86_64,59.88023952,,,,,space,1.5079,NAN,,NAN,1.27,4.73,,0,41,41,41,1,42,Alex,Rej,Participant_Images/65c14027646a9bbfa89584c8/65c14027646a9bbfa89584c8_Images/65c14027646a9bbfa89584c8_Image_6.jpeg,did not like,2.50187214,,,,,,,,,,,,,,,,,,,,,,
,,65c14027646a9bbfa89584c8,6685aa9113c938e83b4f1ea0,66bcad79edb4b8a6de639bbe,2024-08-14_08h29.42.413,WTP_SM_Choice,2022.2.1,Linux x86_64,59.88023952,,,,,space,4.678,NAN,,NAN,1.27,4.73,,0,42,42,42,1,43,Alex,Rej,Participant_Images/65c14027646a9bbfa89584c8/65c14027646a9bbfa89584c8_Images/65c14027646a9bbfa89584c8_Image_18.jpeg,liked,2.071164779,,,,,,,,,,,,,,,,,,,,,,
,,65c14027646a9bbfa89584c8,6685aa9113c938e83b4f1ea0,66bcad79edb4b8a6de639bbe,2024-08-14_08h29.42.413,WTP_SM_Choice,2022.2.1,Linux x86_64,59.88023952,,,,,space,2.5088,NAN,,NAN,1.27,4.73,,0,43,43,43,1,44,Alex,Rej,Participant_Images/65c14027646a9bbfa89584c8/65c14027646a9bbfa89584c8_Images/65c14027646a9bbfa89584c8_Image_9.jpeg,liked,5.336503566,,,,,,,,,,,,,,,,,,,,,,
,,65c14027646a9bbfa89584c8,6685aa9113c938e83b4f1ea0,66bcad79edb4b8a6de639bbe,2024-08-14_08h29.42.413,WTP_SM_Choice,2022.2.1,Linux x86_64,59.88023952,,,,,,,,,,,,,,,,,,41,,,,,,space,3.6305,space,1.5174,0.01,1,1.6587,0,0,0,0,1,go to a bar with friends,meditate at home,0.01,0.04,1.1,0,,,,
,,65c14027646a9bbfa89584c8,6685aa9113c938e83b4f1ea0,66bcad79edb4b8a6de639bbe,2024-08-14_08h29.42.413,WTP_SM_Choice,2022.2.1,Linux x86_64,59.88023952,,,,,,,,,,,,,,,,,,42,,,,,,,,,,0.04,2,1.4144,0,1,1,1,1,take a walk,talking on the phone with my grandmother,0.02,0.04,3.3,1,,,,
,,65c14027646a9bbfa89584c8,6685aa9113c938e83b4f1ea0,66bcad79edb4b8a6de639bbe,2024-08-14_08h29.42.413,WTP_SM_Choice,2022.2.1,Linux x86_64,59.88023952,,,,,,,,,,,,,,,,,,43,,,,,,,,,,0.04,2,1.6829,0,2,2,2,1,go to the park,go to a bar with friends,0.03,0.04,1.1,1,,,,
,,65c14027646a9bbfa89584c8,6685aa9113c938e83b4f1ea0,66bcad79edb4b8a6de639bbe,2024-08-14_08h29.42.413,WTP_SM_Choice,2022.2.1,Linux x86_64,59.88023952,,,,,,,,,,,,,,,,,,44,,,,,,,,,,0.04,1,2.0368,0,3,3,3,1,talk on the phone with my sister,watch tiktok videos at home,0.04,0.04,1.1,0,,,,
,,65c14027646a9bbfa89584c8,6685aa9113c938e83b4f1ea0,66bcad79edb4b8a6de639bbe,2024-08-14_08h29.42.413,WTP_SM_Choice,2022.2.1,Linux x86_64,59.88023952,,,,,,,,,,,,,,,,,,45,,,,,,,,,,0.04,2,3.8728,0,4,4,4,1,watch tiktok videos at home,listen to music with my friend,0.05,0.04,4.4,1,,,,
,,65c14027646a9bbfa89584c8,6685aa9113c938e83b4f1ea0,66bcad79edb4b8a6de639bbe,2024-08-14_08h29.42.413,WTP_SM_Choice,2022.2.1,Linux x86_64,59.88023952,,,,,,,NAN,,NAN,1.44,4.56,,0,44,44,44,1,45,Alex,Rej,Participant_Images/65c14027646a9bbfa89584c8/65c14027646a9bbfa89584c8_Images/65c14027646a9bbfa89584c8_Image_13.jpeg,liked,2.642157193,,,,,,,,,,,,,,,,,,,,,,
,,65c14027646a9bbfa89584c8,6685aa9113c938e83b4f1ea0,66bcad79edb4b8a6de639bbe,2024-08-14_08h29.42.413,WTP_SM_Choice,2022.2.1,Linux x86_64,59.88023952,,,,,space,3.3327,NAN,,NAN,1.44,4.56,,0,45,45,45,1,46,Alex,Rej,Participant_Images/65c14027646a9bbfa89584c8/65c14027646a9bbfa89584c8_Images/65c14027646a9bbfa89584c8_Image_7.jpeg,did not like,4.456234322,,,,,,,,,,,,,,,,,,,,,,
,,65c14027646a9bbfa89584c8,6685aa9113c938e83b4f1ea0,66bcad79edb4b8a6de639bbe,2024-08-14_08h29.42.413,WTP_SM_Choice,2022.2.1,Linux x86_64,59.88023952,,,,,space,6.4612,NAN,,NAN,1.44,4.56,,0,46,46,46,1,47,Alex,Rej,Participant_Images/65c14027646a9bbfa89584c8/65c14027646a9bbfa89584c8_Images/65c14027646a9bbfa89584c8_Image_8.jpeg,liked,4.438512181,,,,,,,,,,,,,,,,,,,,,,
,,65c14027646a9bbfa89584c8,6685aa9113c938e83b4f1ea0,66bcad79edb4b8a6de639bbe,2024-08-14_08h29.42.413,WTP_SM_Choice,2022.2.1,Linux x86_64,59.88023952,,,,,space,9.7766,NAN,,NAN,1.44,4.56,,0,47,47,47,1,48,Alex,Rej,Participant_Images/65c14027646a9bbfa89584c8/65c14027646a9bbfa89584c8_Images/65c14027646a9bbfa89584c8_Image_16.jpeg,did not like,2.682944783,,,,,,,,,,,,,,,,,,,,,,
,,65c14027646a9bbfa89584c8,6685aa9113c938e83b4f1ea0,66bcad79edb4b8a6de639bbe,2024-08-14_08h29.42.413,WTP_SM_Choice,2022.2.1,Linux x86_64,59.88023952,,,,,space,2.3314,NAN,,NAN,1.44,4.56,,0,48,48,48,1,49,Alex,Rej,Participant_Images/65c14027646a9bbfa89584c8/65c14027646a9bbfa89584c8_Images/65c14027646a9bbfa89584c8_Image_3.jpeg,did not like,4.51984296,,,,,,,,,,,,,,,,,,,,,,
,,65c14027646a9bbfa89584c8,6685aa9113c938e83b4f1ea0,66bcad79edb4b8a6de639bbe,2024-08-14_08h29.42.413,WTP_SM_Choice,2022.2.1,Linux x86_64,59.88023952,,,,,,,,,,,,,,,,,,46,,,,,,space,6.798,space,1.6109,0.01,1,2.4295,0,0,0,0,1,sit outside,take a walk with my significant other,0.01,0.05,8.8,1,,,,
,,65c14027646a9bbfa89584c8,6685aa9113c938e83b4f1ea0,66bcad79edb4b8a6de639bbe,2024-08-14_08h29.42.413,WTP_SM_Choice,2022.2.1,Linux x86_64,59.88023952,,,,,,,,,,,,,,,,,,47,,,,,,,,,,0.02,1,2.6935,0,1,1,1,1,take a walk,go on vacation with my significant other,0.02,0.05,1.1,1,,,,
,,65c14027646a9bbfa89584c8,6685aa9113c938e83b4f1ea0,66bcad79edb4b8a6de639bbe,2024-08-14_08h29.42.413,WTP_SM_Choice,2022.2.1,Linux x86_64,59.88023952,,,,,,,,,,,,,,,,,,48,,,,,,,,,,0.03,1,3.254,0,2,2,2,1,go to a bar with friends,take a walk,0.03,0.05,4.4,0,,,,
,,65c14027646a9bbfa89584c8,6685aa9113c938e83b4f1ea0,66bcad79edb4b8a6de639bbe,2024-08-14_08h29.42.413,WTP_SM_Choice,2022.2.1,Linux x86_64,59.88023952,,,,,,,,,,,,,,,,,,49,,,,,,,,,,0.04,1,2.9789,0,3,3,3,1,go to a bar with friends,cook at home,0.04,0.05,3.3,0,,,,
,,65c14027646a9bbfa89584c8,6685aa9113c938e83b4f1ea0,66bcad79edb4b8a6de639bbe,2024-08-14_08h29.42.413,WTP_SM_Choice,2022.2.1,Linux x86_64,59.88023952,,,,,,,,,,,,,,,,,,50,,,,,,,,,,0.05,2,4.1223,0,4,4,4,1,go to the movies with my significant other,watch tiktok videos at home,0.05,0.05,1.1,0,,,,
,,65c14027646a9bbfa89584c8,6685aa9113c938e83b4f1ea0,66bcad79edb4b8a6de639bbe,2024-08-14_08h29.42.413,WTP_SM_Choice,2022.2.1,Linux x86_64,59.88023952,,,,,,,1,,7,1.59,4.41,,0,49,49,49,1,50,Alex,Rej,Participant_Images/65c14027646a9bbfa89584c8/65c14027646a9bbfa89584c8_Images/65c14027646a9bbfa89584c8_Image_2.jpeg,did not like,3.195382774,,,,,,,,,,,,,,,,,,,space,1.6665,,
,,65c14027646a9bbfa89584c8,6685aa9113c938e83b4f1ea0,66bcad79edb4b8a6de639bbe,2024-08-14_08h29.42.413,WTP_SM_Choice,2022.2.1,Linux x86_64,59.88023952,,,space,3.8008,space,3.6859,NAN,,NAN,1.59,4.41,,0,50,50,50,1,51,Riley,Rej,Participant_Images/65c14027646a9bbfa89584c8/65c14027646a9bbfa89584c8_Images/65c14027646a9bbfa89584c8_Image_1.jpeg,liked,1.779333479,,,,,,,,,,,,,,,,,,,,,,
,,65c14027646a9bbfa89584c8,6685aa9113c938e83b4f1ea0,66bcad79edb4b8a6de639bbe,2024-08-14_08h29.42.413,WTP_SM_Choice,2022.2.1,Linux x86_64,59.88023952,,,,,space,5.1038,NAN,,NAN,1.59,4.41,,0,51,51,51,1,52,Riley,Rej,Participant_Images/65c14027646a9bbfa89584c8/65c14027646a9bbfa89584c8_Images/65c14027646a9bbfa89584c8_Image_4.jpeg,did not like,4.312468682,,,,,,,,,,,,,,,,,,,,,,
,,65c14027646a9bbfa89584c8,6685aa9113c938e83b4f1ea0,66bcad79edb4b8a6de639bbe,2024-08-14_08h29.42.413,WTP_SM_Choice,2022.2.1,Linux x86_64,59.88023952,,,,,space,2.1534,NAN,,NAN,1.59,4.41,,0,52,52,52,1,53,Riley,Rej,Participant_Images/65c14027646a9bbfa89584c8/65c14027646a9bbfa89584c8_Images/65c14027646a9bbfa89584c8_Image_13.jpeg,did not like,4.940433059,,,,,,,,,,,,,,,,,,,,,,
,,65c14027646a9bbfa89584c8,6685aa9113c938e83b4f1ea0,66bcad79edb4b8a6de639bbe,2024-08-14_08h29.42.413,WTP_SM_Choice,2022.2.1,Linux x86_64,59.88023952,,,,,space,1.7672,NAN,,NAN,1.59,4.41,,0,53,53,53,1,54,Riley,Rej,Participant_Images/65c14027646a9bbfa89584c8/65c14027646a9bbfa89584c8_Images/65c14027646a9bbfa89584c8_Image_9.jpeg,liked,2.7105123,,,,,,,,,,,,,,,,,,,,,,
,,65c14027646a9bbfa89584c8,6685aa9113c938e83b4f1ea0,66bcad79edb4b8a6de639bbe,2024-08-14_08h29.42.413,WTP_SM_Choice,2022.2.1,Linux x86_64,59.88023952,,,,,,,,,,,,,,,,,,51,,,,,,space,13.7179,space,1.2824,0.01,1,2.309,0,0,0,0,1,go to the park,go to the movies with my significant other,0.01,0.01,1.1,1,,,,
,,65c14027646a9bbfa89584c8,6685aa9113c938e83b4f1ea0,66bcad79edb4b8a6de639bbe,2024-08-14_08h29.42.413,WTP_SM_Choice,2022.2.1,Linux x86_64,59.88023952,,,,,,,,,,,,,,,,,,52,,,,,,,,,,0.02,1,2.462,0,1,1,1,1,talking on the phone with my grandmother,sit outside,0.02,0.01,3.3,0,,,,
,,65c14027646a9bbfa89584c8,6685aa9113c938e83b4f1ea0,66bcad79edb4b8a6de639bbe,2024-08-14_08h29.42.413,WTP_SM_Choice,2022.2.1,Linux x86_64,59.88023952,,,,,,,,,,,,,,,,,,53,,,,,,,,,,0.03,1,2.0531,0,2,2,2,1,talking on the phone with my grandmother,cook at home,0.03,0.01,1.1,0,,,,
,,65c14027646a9bbfa89584c8,6685aa9113c938e83b4f1ea0,66bcad79edb4b8a6de639bbe,2024-08-14_08h29.42.413,WTP_SM_Choice,2022.2.1,Linux x86_64,59.88023952,,,,,,,,,,,,,,,,,,54,,,,,,,,,,0.01,2,3.1687,0,3,3,3,1,go out to eat with my significant other,go to the park,0.04,0.01,4.4,0,,,,
,,65c14027646a9bbfa89584c8,6685aa9113c938e83b4f1ea0,66bcad79edb4b8a6de639bbe,2024-08-14_08h29.42.413,WTP_SM_Choice,2022.2.1,Linux x86_64,59.88023952,,,,,,,,,,,,,,,,,,55,,,,,,,,,,0.01,2,3.6068,0,4,4,4,1,sit outside,listen to music with my friend,0.05,0.01,1.1,1,,,,
,,65c14027646a9bbfa89584c8,6685aa9113c938e83b4f1ea0,66bcad79edb4b8a6de639bbe,2024-08-14_08h29.42.413,WTP_SM_Choice,2022.2.1,Linux x86_64,59.88023952,,,,,,,NAN,,NAN,1.67,4.33,,0,54,54,54,1,55,Riley,Rej,Participant_Images/65c14027646a9bbfa89584c8/65c14027646a9bbfa89584c8_Images/65c14027646a9bbfa89584c8_Image_24.jpeg,did not like,3.602308302,,,,,,,,,,,,,,,,,,,,,,
,,65c14027646a9bbfa89584c8,6685aa9113c938e83b4f1ea0,66bcad79edb4b8a6de639bbe,2024-08-14_08h29.42.413,WTP_SM_Choice,2022.2.1,Linux x86_64,59.88023952,,,,,space,21.2343,NAN,,NAN,1.67,4.33,,0,55,55,55,1,56,Riley,Rej,Participant_Images/65c14027646a9bbfa89584c8/65c14027646a9bbfa89584c8_Images/65c14027646a9bbfa89584c8_Image_2.jpeg,did not like,4.106391878,,,,,,,,,,,,,,,,,,,,,,
,,65c14027646a9bbfa89584c8,6685aa9113c938e83b4f1ea0,66bcad79edb4b8a6de639bbe,2024-08-14_08h29.42.413,WTP_SM_Choice,2022.2.1,Linux x86_64,59.88023952,,,,,space,7.3676,NAN,,NAN,1.67,4.33,,0,56,56,56,1,57,Riley,Rej,Participant_Images/65c14027646a9bbfa89584c8/65c14027646a9bbfa89584c8_Images/65c14027646a9bbfa89584c8_Image_6.jpeg,did not like,3.799433026,,,,,,,,,,,,,,,,,,,,,,
,,65c14027646a9bbfa89584c8,6685aa9113c938e83b4f1ea0,66bcad79edb4b8a6de639bbe,2024-08-14_08h29.42.413,WTP_SM_Choice,2022.2.1,Linux x86_64,59.88023952,,,,,space,12.1391,NAN,,NAN,1.67,4.33,,0,57,57,57,1,58,Riley,Rej,Participant_Images/65c14027646a9bbfa89584c8/65c14027646a9bbfa89584c8_Images/65c14027646a9bbfa89584c8_Image_5.jpeg,liked,5.246980764,,,,,,,,,,,,,,,,,,,,,,
,,65c14027646a9bbfa89584c8,6685aa9113c938e83b4f1ea0,66bcad79edb4b8a6de639bbe,2024-08-14_08h29.42.413,WTP_SM_Choice,2022.2.1,Linux x86_64,59.88023952,,,,,space,20.9068,NAN,,NAN,1.67,4.33,,0,58,58,58,1,59,Riley,Rej,Participant_Images/65c14027646a9bbfa89584c8/65c14027646a9bbfa89584c8_Images/65c14027646a9bbfa89584c8_Image_14.jpeg,did not like,3.30081769,,,,,,,,,,,,,,,,,,,,,,
,,65c14027646a9bbfa89584c8,6685aa9113c938e83b4f1ea0,66bcad79edb4b8a6de639bbe,2024-08-14_08h29.42.413,WTP_SM_Choice,2022.2.1,Linux x86_64,59.88023952,,,,,,,,,,,,,,,,,,56,,,,,,space,105.2493,space,2.8303,0.02,2,2.3682,0,0,0,0,1,take trips with friends,sit outside,0.01,0.02,8.8,0,,,,
,,65c14027646a9bbfa89584c8,6685aa9113c938e83b4f1ea0,66bcad79edb4b8a6de639bbe,2024-08-14_08h29.42.413,WTP_SM_Choice,2022.2.1,Linux x86_64,59.88023952,,,,,,,,,,,,,,,,,,57,,,,,,,,,,0.02,1,2.4861,0,1,1,1,1,watch tiktok videos at home,go out to eat with my significant other,0.02,0.02,4.4,1,,,,
,,65c14027646a9bbfa89584c8,6685aa9113c938e83b4f1ea0,66bcad79edb4b8a6de639bbe,2024-08-14_08h29.42.413,WTP_SM_Choice,2022.2.1,Linux x86_64,59.88023952,,,,,,,,,,,,,,,,,,58,,,,,,,,,,0.03,1,2.5125,0,2,2,2,1,go to a bar with friends,take a nap,0.03,0.02,4.4,0,,,,
,,65c14027646a9bbfa89584c8,6685aa9113c938e83b4f1ea0,66bcad79edb4b8a6de639bbe,2024-08-14_08h29.42.413,WTP_SM_Choice,2022.2.1,Linux x86_64,59.88023952,,,,,,,,,,,,,,,,,,59,,,,,,,,,,0.02,2,2.3089,0,3,3,3,1,watch tiktok videos at home,talking on the phone with my grandmother,0.04,0.02,4.4,1,,,,
,,65c14027646a9bbfa89584c8,6685aa9113c938e83b4f1ea0,66bcad79edb4b8a6de639bbe,2024-08-14_08h29.42.413,WTP_SM_Choice,2022.2.1,Linux x86_64,59.88023952,,,,,,,,,,,,,,,,,,60,,,,,,,,,,0.05,1,1.7638,0,4,4,4,1,talk on the phone with my sister,take a walk,0.05,0.02,1.1,0,,,,
,,65c14027646a9bbfa89584c8,6685aa9113c938e83b4f1ea0,66bcad79edb4b8a6de639bbe,2024-08-14_08h29.42.413,WTP_SM_Choice,2022.2.1,Linux x86_64,59.88023952,,,,,,,NAN,,NAN,1.81,4.19,,0,59,59,59,1,60,Riley,Rej,Participant_Images/65c14027646a9bbfa89584c8/65c14027646a9bbfa89584c8_Images/65c14027646a9bbfa89584c8_Image_23.jpeg,did not like,1.661473164,,,,,,,,,,,,,,,,,,,,,,
,,65c14027646a9bbfa89584c8,6685aa9113c938e83b4f1ea0,66bcad79edb4b8a6de639bbe,2024-08-14_08h29.42.413,WTP_SM_Choice,2022.2.1,Linux x86_64,59.88023952,,,,,space,1.6843,NAN,,NAN,1.81,4.19,,0,60,60,60,1,61,Riley,Rej,Participant_Images/65c14027646a9bbfa89584c8/65c14027646a9bbfa89584c8_Images/65c14027646a9bbfa89584c8_Image_19.jpeg,did not like,3.613205605,,,,,,,,,,,,,,,,,,,,,,
,,65c14027646a9bbfa89584c8,6685aa9113c938e83b4f1ea0,66bcad79edb4b8a6de639bbe,2024-08-14_08h29.42.413,WTP_SM_Choice,2022.2.1,Linux x86_64,59.88023952,,,,,space,0.7845,NAN,,NAN,1.81,4.19,,0,61,61,61,1,62,Riley,Rej,Participant_Images/65c14027646a9bbfa89584c8/65c14027646a9bbfa89584c8_Images/65c14027646a9bbfa89584c8_Image_20.jpeg,did not like,4.988446431,,,,,,,,,,,,,,,,,,,,,,
,,65c14027646a9bbfa89584c8,6685aa9113c938e83b4f1ea0,66bcad79edb4b8a6de639bbe,2024-08-14_08h29.42.413,WTP_SM_Choice,2022.2.1,Linux x86_64,59.88023952,,,,,space,0.8191,NAN,,NAN,1.81,4.19,,0,62,62,62,1,63,Riley,Rej,Participant_Images/65c14027646a9bbfa89584c8/65c14027646a9bbfa89584c8_Images/65c14027646a9bbfa89584c8_Image_16.jpeg,did not like,3.470791822,,,,,,,,,,,,,,,,,,,,,,
,,65c14027646a9bbfa89584c8,6685aa9113c938e83b4f1ea0,66bcad79edb4b8a6de639bbe,2024-08-14_08h29.42.413,WTP_SM_Choice,2022.2.1,Linux x86_64,59.88023952,,,,,space,1.1335,NAN,,NAN,1.81,4.19,,0,63,63,63,1,64,Riley,Rej,Participant_Images/65c14027646a9bbfa89584c8/65c14027646a9bbfa89584c8_Images/65c14027646a9bbfa89584c8_Image_3.jpeg,liked,3.820572462,,,,,,,,,,,,,,,,,,,,,,
,,65c14027646a9bbfa89584c8,6685aa9113c938e83b4f1ea0,66bcad79edb4b8a6de639bbe,2024-08-14_08h29.42.413,WTP_SM_Choice,2022.2.1,Linux x86_64,59.88023952,,,,,,,,,,,,,,,,,,61,,,,,,space,1.3651,space,1.3458,0.03,2,1.7424,0,0,0,0,1,sit outside,talk on the phone with my sister,0.01,0.03,3.3,1,,,,
,,65c14027646a9bbfa89584c8,6685aa9113c938e83b4f1ea0,66bcad79edb4b8a6de639bbe,2024-08-14_08h29.42.413,WTP_SM_Choice,2022.2.1,Linux x86_64,59.88023952,,,,,,,,,,,,,,,,,,62,,,,,,,,,,0.03,2,2.3486,0,1,1,1,1,go to the park,go to parties with friends,0.02,0.03,3.3,1,,,,
,,65c14027646a9bbfa89584c8,6685aa9113c938e83b4f1ea0,66bcad79edb4b8a6de639bbe,2024-08-14_08h29.42.413,WTP_SM_Choice,2022.2.1,Linux x86_64,59.88023952,,,,,,,,,,,,,,,,,,63,,,,,,,,,,0.03,1,2.4677,0,2,2,2,1,go to parties with friends,watch youtube at home,0.03,0.03,3.3,0,,,,
,,65c14027646a9bbfa89584c8,6685aa9113c938e83b4f1ea0,66bcad79edb4b8a6de639bbe,2024-08-14_08h29.42.413,WTP_SM_Choice,2022.2.1,Linux x86_64,59.88023952,,,,,,,,,,,,,,,,,,64,,,,,,,,,,0.04,1,2.2056,0,3,3,3,1,listen to music with my friend,take a nap,0.04,0.03,1.1,0,,,,
,,65c14027646a9bbfa89584c8,6685aa9113c938e83b4f1ea0,66bcad79edb4b8a6de639bbe,2024-08-14_08h29.42.413,WTP_SM_Choice,2022.2.1,Linux x86_64,59.88023952,,,,,,,,,,,,,,,,,,65,,,,,,,,,,0.03,2,4.8267,0,4,4,4,1,take a walk with my significant other,watch youtube at home,0.05,0.03,1.1,0,,,,
,,65c14027646a9bbfa89584c8,6685aa9113c938e83b4f1ea0,66bcad79edb4b8a6de639bbe,2024-08-14_08h29.42.413,WTP_SM_Choice,2022.2.1,Linux x86_64,59.88023952,,,,,,,NAN,,NAN,1.97,4.03,,0,64,64,64,1,65,Riley,Rej,Participant_Images/65c14027646a9bbfa89584c8/65c14027646a9bbfa89584c8_Images/65c14027646a9bbfa89584c8_Image_22.jpeg,did not like,2.455989137,,,,,,,,,,,,,,,,,,,,,,
,,65c14027646a9bbfa89584c8,6685aa9113c938e83b4f1ea0,66bcad79edb4b8a6de639bbe,2024-08-14_08h29.42.413,WTP_SM_Choice,2022.2.1,Linux x86_64,59.88023952,,,,,space,2.0977,NAN,,NAN,1.97,4.03,,0,65,65,65,1,66,Riley,Rej,Participant_Images/65c14027646a9bbfa89584c8/65c14027646a9bbfa89584c8_Images/65c14027646a9bbfa89584c8_Image_25.jpeg,did not like,3.79605092,,,,,,,,,,,,,,,,,,,,,,
,,65c14027646a9bbfa89584c8,6685aa9113c938e83b4f1ea0,66bcad79edb4b8a6de639bbe,2024-08-14_08h29.42.413,WTP_SM_Choice,2022.2.1,Linux x86_64,59.88023952,,,,,space,2.1708,NAN,,NAN,1.97,4.03,,0,66,66,66,1,67,Riley,Rej,Participant_Images/65c14027646a9bbfa89584c8/65c14027646a9bbfa89584c8_Images/65c14027646a9bbfa89584c8_Image_18.jpeg,liked,3.562416326,,,,,,,,,,,,,,,,,,,,,,
,,65c14027646a9bbfa89584c8,6685aa9113c938e83b4f1ea0,66bcad79edb4b8a6de639bbe,2024-08-14_08h29.42.413,WTP_SM_Choice,2022.2.1,Linux x86_64,59.88023952,,,,,space,2.0564,NAN,,NAN,1.97,4.03,,0,67,67,67,1,68,Riley,Rej,Participant_Images/65c14027646a9bbfa89584c8/65c14027646a9bbfa89584c8_Images/65c14027646a9bbfa89584c8_Image_12.jpeg,did not like,2.843822497,,,,,,,,,,,,,,,,,,,,,,
,,65c14027646a9bbfa89584c8,6685aa9113c938e83b4f1ea0,66bcad79edb4b8a6de639bbe,2024-08-14_08h29.42.413,WTP_SM_Choice,2022.2.1,Linux x86_64,59.88023952,,,,,space,0.8485,NAN,,NAN,1.97,4.03,,0,68,68,68,1,69,Riley,Rej,Participant_Images/65c14027646a9bbfa89584c8/65c14027646a9bbfa89584c8_Images/65c14027646a9bbfa89584c8_Image_15.jpeg,liked,3.546495948,,,,,,,,,,,,,,,,,,,,,,
,,65c14027646a9bbfa89584c8,6685aa9113c938e83b4f1ea0,66bcad79edb4b8a6de639bbe,2024-08-14_08h29.42.413,WTP_SM_Choice,2022.2.1,Linux x86_64,59.88023952,,,,,,,,,,,,,,,,,,66,,,,,,space,4.5692,space,1.9357,0.01,1,3.6938,0,0,0,0,1,sit outside,go out to eat with my significant other,0.01,0.04,1.1,1,,,,
,,65c14027646a9bbfa89584c8,6685aa9113c938e83b4f1ea0,66bcad79edb4b8a6de639bbe,2024-08-14_08h29.42.413,WTP_SM_Choice,2022.2.1,Linux x86_64,59.88023952,,,,,,,,,,,,,,,,,,67,,,,,,,,,,0.04,2,3.3927,0,1,1,1,1,listen to a podcast,listen to music with my friend,0.02,0.04,8.8,1,,,,
,,65c14027646a9bbfa89584c8,6685aa9113c938e83b4f1ea0,66bcad79edb4b8a6de639bbe,2024-08-14_08h29.42.413,WTP_SM_Choice,2022.2.1,Linux x86_64,59.88023952,,,,,,,,,,,,,,,,,,68,,,,,,,,,,0.04,2,2.7963,0,2,2,2,1,take a walk with my significant other,watch tiktok videos at home,0.03,0.04,4.4,0,,,,
,,65c14027646a9bbfa89584c8,6685aa9113c938e83b4f1ea0,66bcad79edb4b8a6de639bbe,2024-08-14_08h29.42.413,WTP_SM_Choice,2022.2.1,Linux x86_64,59.88023952,,,,,,,,,,,,,,,,,,69,,,,,,,,,,0.04,1,1.8089,0,3,3,3,1,talking on the phone with my grandmother,meditate at home,0.04,0.04,1.1,0,,,,
,,65c14027646a9bbfa89584c8,6685aa9113c938e83b4f1ea0,66bcad79edb4b8a6de639bbe,2024-08-14_08h29.42.413,WTP_SM_Choice,2022.2.1,Linux x86_64,59.88023952,,,,,,,,,,,,,,,,,,70,,,,,,,,,,0.05,1,4.8391,0,4,4,4,1,go to parties with friends,take a walk,0.05,0.04,1.1,0,,,,
,,65c14027646a9bbfa89584c8,6685aa9113c938e83b4f1ea0,66bcad79edb4b8a6de639bbe,2024-08-14_08h29.42.413,WTP_SM_Choice,2022.2.1,Linux x86_64,59.88023952,,,,,,,NAN,,NAN,2.15,3.85,,0,69,69,69,1,70,Riley,Rej,Participant_Images/65c14027646a9bbfa89584c8/65c14027646a9bbfa89584c8_Images/65c14027646a9bbfa89584c8_Image_17.jpeg,did not like,1.672012706,,,,,,,,,,,,,,,,,,,,,,
,,65c14027646a9bbfa89584c8,6685aa9113c938e83b4f1ea0,66bcad79edb4b8a6de639bbe,2024-08-14_08h29.42.413,WTP_SM_Choice,2022.2.1,Linux x86_64,59.88023952,,,,,space,1.1908,NAN,,NAN,2.15,3.85,,0,70,70,70,1,71,Riley,Rej,Participant_Images/65c14027646a9bbfa89584c8/65c14027646a9bbfa89584c8_Images/65c14027646a9bbfa89584c8_Image_11.jpeg,did not like,4.942172136,,,,,,,,,,,,,,,,,,,,,,
,,65c14027646a9bbfa89584c8,6685aa9113c938e83b4f1ea0,66bcad79edb4b8a6de639bbe,2024-08-14_08h29.42.413,WTP_SM_Choice,2022.2.1,Linux x86_64,59.88023952,,,,,space,3.3973,NAN,,NAN,2.15,3.85,,0,71,71,71,1,72,Riley,Rej,Participant_Images/65c14027646a9bbfa89584c8/65c14027646a9bbfa89584c8_Images/65c14027646a9bbfa89584c8_Image_7.jpeg,liked,2.50187214,,,,,,,,,,,,,,,,,,,,,,
,,65c14027646a9bbfa89584c8,6685aa9113c938e83b4f1ea0,66bcad79edb4b8a6de639bbe,2024-08-14_08h29.42.413,WTP_SM_Choice,2022.2.1,Linux x86_64,59.88023952,,,,,space,4.3827,NAN,,NAN,2.15,3.85,,0,72,72,72,1,73,Riley,Rej,Participant_Images/65c14027646a9bbfa89584c8/65c14027646a9bbfa89584c8_Images/65c14027646a9bbfa89584c8_Image_8.jpeg,did not like,2.071164779,,,,,,,,,,,,,,,,,,,,,,
,,65c14027646a9bbfa89584c8,6685aa9113c938e83b4f1ea0,66bcad79edb4b8a6de639bbe,2024-08-14_08h29.42.413,WTP_SM_Choice,2022.2.1,Linux x86_64,59.88023952,,,,,space,5.8323,NAN,,NAN,2.15,3.85,,0,73,73,73,1,74,Riley,Rej,Participant_Images/65c14027646a9bbfa89584c8/65c14027646a9bbfa89584c8_Images/65c14027646a9bbfa89584c8_Image_10.jpeg,did not like,5.336503566,,,,,,,,,,,,,,,,,,,,,,
,,65c14027646a9bbfa89584c8,6685aa9113c938e83b4f1ea0,66bcad79edb4b8a6de639bbe,2024-08-14_08h29.42.413,WTP_SM_Choice,2022.2.1,Linux x86_64,59.88023952,,,,,,,,,,,,,,,,,,71,,,,,,space,1.6655,space,6.3218,0.01,1,1.8713,0,0,0,0,1,cook at home,go on vacation with my significant other,0.01,0.05,3.3,1,,,,
,,65c14027646a9bbfa89584c8,6685aa9113c938e83b4f1ea0,66bcad79edb4b8a6de639bbe,2024-08-14_08h29.42.413,WTP_SM_Choice,2022.2.1,Linux x86_64,59.88023952,,,,,,,,,,,,,,,,,,72,,,,,,,,,,0.02,1,1.7912,0,1,1,1,1,talk on the phone with my sister,watch youtube at home,0.02,0.05,8.8,0,,,,
,,65c14027646a9bbfa89584c8,6685aa9113c938e83b4f1ea0,66bcad79edb4b8a6de639bbe,2024-08-14_08h29.42.413,WTP_SM_Choice,2022.2.1,Linux x86_64,59.88023952,,,,,,,,,,,,,,,,,,73,,,,,,,,,,0.03,1,4.7085,0,2,2,2,1,read books at home,go to the movies with my significant other,0.03,0.05,3.3,1,,,,
,,65c14027646a9bbfa89584c8,6685aa9113c938e83b4f1ea0,66bcad79edb4b8a6de639bbe,2024-08-14_08h29.42.413,WTP_SM_Choice,2022.2.1,Linux x86_64,59.88023952,,,,,,,,,,,,,,,,,,74,,,,,,,,,,0.05,2,2.6115,0,3,3,3,1,listen to a podcast,go to a bar with friends,0.04,0.05,4.4,1,,,,
,,65c14027646a9bbfa89584c8,6685aa9113c938e83b4f1ea0,66bcad79edb4b8a6de639bbe,2024-08-14_08h29.42.413,WTP_SM_Choice,2022.2.1,Linux x86_64,59.88023952,,,,,,,,,,,,,,,,,,75,,,,,,,,,,0.05,1,2.7141,0,4,4,4,1,watch youtube at home,go on vacation with my significant other,0.05,0.05,3.3,1,,,,
,,65c14027646a9bbfa89584c8,6685aa9113c938e83b4f1ea0,66bcad79edb4b8a6de639bbe,2024-08-14_08h29.42.413,WTP_SM_Choice,2022.2.1,Linux x86_64,59.88023952,,,,,,,1,,7,2.31,3.69,,0,74,74,74,1,75,Riley,Rej,Participant_Images/65c14027646a9bbfa89584c8/65c14027646a9bbfa89584c8_Images/65c14027646a9bbfa89584c8_Image_21.jpeg,did not like,2.642157193,,,,,,,,,,,,,,,,,,,space,1.5714,,
,,65c14027646a9bbfa89584c8,6685aa9113c938e83b4f1ea0,66bcad79edb4b8a6de639bbe,2024-08-14_08h29.42.413,WTP_SM_Choice,2022.2.1,Linux x86_64,59.88023952,,,space,7.1087,space,1.7931,NAN,,NAN,2.31,3.69,,0,75,75,75,1,76,Charlie,Acc,Participant_Images/65c14027646a9bbfa89584c8/65c14027646a9bbfa89584c8_Images/65c14027646a9bbfa89584c8_Image_17.jpeg,did not like,4.456234322,,,,,,,,,,,,,,,,,,,,,,
,,65c14027646a9bbfa89584c8,6685aa9113c938e83b4f1ea0,66bcad79edb4b8a6de639bbe,2024-08-14_08h29.42.413,WTP_SM_Choice,2022.2.1,Linux x86_64,59.88023952,,,,,space,0.8626,NAN,,NAN,2.31,3.69,,0,76,76,76,1,77,Charlie,Acc,Participant_Images/65c14027646a9bbfa89584c8/65c14027646a9bbfa89584c8_Images/65c14027646a9bbfa89584c8_Image_20.jpeg,liked,4.438512181,,,,,,,,,,,,,,,,,,,,,,
,,65c14027646a9bbfa89584c8,6685aa9113c938e83b4f1ea0,66bcad79edb4b8a6de639bbe,2024-08-14_08h29.42.413,WTP_SM_Choice,2022.2.1,Linux x86_64,59.88023952,,,,,space,1.368,NAN,,NAN,2.31,3.69,,0,77,77,77,1,78,Charlie,Acc,Participant_Images/65c14027646a9bbfa89584c8/65c14027646a9bbfa89584c8_Images/65c14027646a9bbfa89584c8_Image_12.jpeg,did not like,2.682944783,,,,,,,,,,,,,,,,,,,,,,
,,65c14027646a9bbfa89584c8,6685aa9113c938e83b4f1ea0,66bcad79edb4b8a6de639bbe,2024-08-14_08h29.42.413,WTP_SM_Choice,2022.2.1,Linux x86_64,59.88023952,,,,,space,0.9515,NAN,,NAN,2.31,3.69,,0,78,78,78,1,79,Charlie,Acc,Participant_Images/65c14027646a9bbfa89584c8/65c14027646a9bbfa89584c8_Images/65c14027646a9bbfa89584c8_Image_14.jpeg,liked,4.51984296,,,,,,,,,,,,,,,,,,,,,,
,,65c14027646a9bbfa89584c8,6685aa9113c938e83b4f1ea0,66bcad79edb4b8a6de639bbe,2024-08-14_08h29.42.413,WTP_SM_Choice,2022.2.1,Linux x86_64,59.88023952,,,,,,,,,,,,,,,,,,76,,,,,,space,2.6206,space,4.1326,0.01,1,2.0009,0,0,0,0,1,take a nap,go to the movies with my significant other,0.01,0.01,1.1,1,,,,
,,65c14027646a9bbfa89584c8,6685aa9113c938e83b4f1ea0,66bcad79edb4b8a6de639bbe,2024-08-14_08h29.42.413,WTP_SM_Choice,2022.2.1,Linux x86_64,59.88023952,,,,,,,,,,,,,,,,,,77,,,,,,,,,,0.02,1,2.6615,0,1,1,1,1,take a nap,take trips with friends,0.02,0.01,8.8,1,,,,
,,65c14027646a9bbfa89584c8,6685aa9113c938e83b4f1ea0,66bcad79edb4b8a6de639bbe,2024-08-14_08h29.42.413,WTP_SM_Choice,2022.2.1,Linux x86_64,59.88023952,,,,,,,,,,,,,,,,,,78,,,,,,,,,,0.03,1,3.1693,0,2,2,2,1,listen to a podcast,go on vacation with my significant other,0.03,0.01,1.1,1,,,,
,,65c14027646a9bbfa89584c8,6685aa9113c938e83b4f1ea0,66bcad79edb4b8a6de639bbe,2024-08-14_08h29.42.413,WTP_SM_Choice,2022.2.1,Linux x86_64,59.88023952,,,,,,,,,,,,,,,,,,79,,,,,,,,,,0.04,1,3.659,0,3,3,3,1,go to the park,take a walk with my significant other,0.04,0.01,1.1,1,,,,
,,65c14027646a9bbfa89584c8,6685aa9113c938e83b4f1ea0,66bcad79edb4b8a6de639bbe,2024-08-14_08h29.42.413,WTP_SM_Choice,2022.2.1,Linux x86_64,59.88023952,,,,,,,,,,,,,,,,,,80,,,,,,,,,,0.05,1,3.5906,0,4,4,4,1,go to parties with friends,take a nap,0.05,0.01,4.4,0,,,,
,,65c14027646a9bbfa89584c8,6685aa9113c938e83b4f1ea0,66bcad79edb4b8a6de639bbe,2024-08-14_08h29.42.413,WTP_SM_Choice,2022.2.1,Linux x86_64,59.88023952,,,,,,,NAN,,NAN,2.46,3.54,,0,79,79,79,1,80,Charlie,Acc,Participant_Images/65c14027646a9bbfa89584c8/65c14027646a9bbfa89584c8_Images/65c14027646a9bbfa89584c8_Image_10.jpeg,liked,3.195382774,,,,,,,,,,,,,,,,,,,,,,
,,65c14027646a9bbfa89584c8,6685aa9113c938e83b4f1ea0,66bcad79edb4b8a6de639bbe,2024-08-14_08h29.42.413,WTP_SM_Choice,2022.2.1,Linux x86_64,59.88023952,,,,,space,1.0461,NAN,,NAN,2.46,3.54,,0,80,80,80,1,81,Charlie,Acc,Participant_Images/65c14027646a9bbfa89584c8/65c14027646a9bbfa89584c8_Images/65c14027646a9bbfa89584c8_Image_5.jpeg,liked,1.779333479,,,,,,,,,,,,,,,,,,,,,,
,,65c14027646a9bbfa89584c8,6685aa9113c938e83b4f1ea0,66bcad79edb4b8a6de639bbe,2024-08-14_08h29.42.413,WTP_SM_Choice,2022.2.1,Linux x86_64,59.88023952,,,,,space,1.6905,NAN,,NAN,2.46,3.54,,0,81,81,81,1,82,Charlie,Acc,Participant_Images/65c14027646a9bbfa89584c8/65c14027646a9bbfa89584c8_Images/65c14027646a9bbfa89584c8_Image_13.jpeg,did not like,4.312468682,,,,,,,,,,,,,,,,,,,,,,
,,65c14027646a9bbfa89584c8,6685aa9113c938e83b4f1ea0,66bcad79edb4b8a6de639bbe,2024-08-14_08h29.42.413,WTP_SM_Choice,2022.2.1,Linux x86_64,59.88023952,,,,,space,1.5885,NAN,,NAN,2.46,3.54,,0,82,82,82,1,83,Charlie,Acc,Participant_Images/65c14027646a9bbfa89584c8/65c14027646a9bbfa89584c8_Images/65c14027646a9bbfa89584c8_Image_7.jpeg,did not like,4.940433059,,,,,,,,,,,,,,,,,,,,,,
,,65c14027646a9bbfa89584c8,6685aa9113c938e83b4f1ea0,66bcad79edb4b8a6de639bbe,2024-08-14_08h29.42.413,WTP_SM_Choice,2022.2.1,Linux x86_64,59.88023952,,,,,space,0.9857,NAN,,NAN,2.46,3.54,,0,83,83,83,1,84,Charlie,Acc,Participant_Images/65c14027646a9bbfa89584c8/65c14027646a9bbfa89584c8_Images/65c14027646a9bbfa89584c8_Image_18.jpeg,liked,2.7105123,,,,,,,,,,,,,,,,,,,,,,
,,65c14027646a9bbfa89584c8,6685aa9113c938e83b4f1ea0,66bcad79edb4b8a6de639bbe,2024-08-14_08h29.42.413,WTP_SM_Choice,2022.2.1,Linux x86_64,59.88023952,,,,,,,,,,,,,,,,,,81,,,,,,space,28.7268,space,1.7963,0.01,1,1.5202,0,0,0,0,1,talk on the phone with my sister,meditate at home,0.01,0.02,3.3,0,,,,
,,65c14027646a9bbfa89584c8,6685aa9113c938e83b4f1ea0,66bcad79edb4b8a6de639bbe,2024-08-14_08h29.42.413,WTP_SM_Choice,2022.2.1,Linux x86_64,59.88023952,,,,,,,,,,,,,,,,,,82,,,,,,,,,,0.02,2,2.7215,0,1,1,1,1,go to the movies with my significant other,listen to a podcast,0.02,0.02,4.4,0,,,,
,,65c14027646a9bbfa89584c8,6685aa9113c938e83b4f1ea0,66bcad79edb4b8a6de639bbe,2024-08-14_08h29.42.413,WTP_SM_Choice,2022.2.1,Linux x86_64,59.88023952,,,,,,,,,,,,,,,,,,83,,,,,,,,,,0.03,1,2.7003,0,2,2,2,1,listen to music with my friend,cook at home,0.03,0.02,1.1,0,,,,
,,65c14027646a9bbfa89584c8,6685aa9113c938e83b4f1ea0,66bcad79edb4b8a6de639bbe,2024-08-14_08h29.42.413,WTP_SM_Choice,2022.2.1,Linux x86_64,59.88023952,,,,,,,,,,,,,,,,,,84,,,,,,,,,,0.04,1,3.4447,0,3,3,3,1,take a walk,go to the movies with my significant other,0.04,0.02,3.3,1,,,,
,,65c14027646a9bbfa89584c8,6685aa9113c938e83b4f1ea0,66bcad79edb4b8a6de639bbe,2024-08-14_08h29.42.413,WTP_SM_Choice,2022.2.1,Linux x86_64,59.88023952,,,,,,,,,,,,,,,,,,85,,,,,,,,,,0.02,2,4.4205,0,4,4,4,1,meditate at home,take trips with friends,0.05,0.02,3.3,1,,,,
,,65c14027646a9bbfa89584c8,6685aa9113c938e83b4f1ea0,66bcad79edb4b8a6de639bbe,2024-08-14_08h29.42.413,WTP_SM_Choice,2022.2.1,Linux x86_64,59.88023952,,,,,,,NAN,,NAN,2.58,3.42,,0,84,84,84,1,85,Charlie,Acc,Participant_Images/65c14027646a9bbfa89584c8/65c14027646a9bbfa89584c8_Images/65c14027646a9bbfa89584c8_Image_22.jpeg,liked,3.602308302,,,,,,,,,,,,,,,,,,,,,,
,,65c14027646a9bbfa89584c8,6685aa9113c938e83b4f1ea0,66bcad79edb4b8a6de639bbe,2024-08-14_08h29.42.413,WTP_SM_Choice,2022.2.1,Linux x86_64,59.88023952,,,,,space,1.9533,NAN,,NAN,2.58,3.42,,0,85,85,85,1,86,Charlie,Acc,Participant_Images/65c14027646a9bbfa89584c8/65c14027646a9bbfa89584c8_Images/65c14027646a9bbfa89584c8_Image_15.jpeg,liked,4.106391878,,,,,,,,,,,,,,,,,,,,,,
,,65c14027646a9bbfa89584c8,6685aa9113c938e83b4f1ea0,66bcad79edb4b8a6de639bbe,2024-08-14_08h29.42.413,WTP_SM_Choice,2022.2.1,Linux x86_64,59.88023952,,,,,space,3.8512,NAN,,NAN,2.58,3.42,,0,86,86,86,1,87,Charlie,Acc,Participant_Images/65c14027646a9bbfa89584c8/65c14027646a9bbfa89584c8_Images/65c14027646a9bbfa89584c8_Image_25.jpeg,liked,3.799433026,,,,,,,,,,,,,,,,,,,,,,
,,65c14027646a9bbfa89584c8,6685aa9113c938e83b4f1ea0,66bcad79edb4b8a6de639bbe,2024-08-14_08h29.42.413,WTP_SM_Choice,2022.2.1,Linux x86_64,59.88023952,,,,,space,3.3014,NAN,,NAN,2.58,3.42,,0,87,87,87,1,88,Charlie,Acc,Participant_Images/65c14027646a9bbfa89584c8/65c14027646a9bbfa89584c8_Images/65c14027646a9bbfa89584c8_Image_2.jpeg,liked,5.246980764,,,,,,,,,,,,,,,,,,,,,,
,,65c14027646a9bbfa89584c8,6685aa9113c938e83b4f1ea0,66bcad79edb4b8a6de639bbe,2024-08-14_08h29.42.413,WTP_SM_Choice,2022.2.1,Linux x86_64,59.88023952,,,,,space,2.0696,NAN,,NAN,2.58,3.42,,0,88,88,88,1,89,Charlie,Acc,Participant_Images/65c14027646a9bbfa89584c8/65c14027646a9bbfa89584c8_Images/65c14027646a9bbfa89584c8_Image_23.jpeg,liked,3.30081769,,,,,,,,,,,,,,,,,,,,,,
,,65c14027646a9bbfa89584c8,6685aa9113c938e83b4f1ea0,66bcad79edb4b8a6de639bbe,2024-08-14_08h29.42.413,WTP_SM_Choice,2022.2.1,Linux x86_64,59.88023952,,,,,,,,,,,,,,,,,,86,,,,,,space,2.1655,space,17.4705,0.03,2,2.0122,0,0,0,0,1,cook at home,talk on the phone with my sister,0.01,0.03,1.1,1,,,,
,,65c14027646a9bbfa89584c8,6685aa9113c938e83b4f1ea0,66bcad79edb4b8a6de639bbe,2024-08-14_08h29.42.413,WTP_SM_Choice,2022.2.1,Linux x86_64,59.88023952,,,,,,,,,,,,,,,,,,87,,,,,,,,,,0.02,1,4.0894,0,1,1,1,1,watch youtube at home,take trips with friends,0.02,0.03,4.4,1,,,,
,,65c14027646a9bbfa89584c8,6685aa9113c938e83b4f1ea0,66bcad79edb4b8a6de639bbe,2024-08-14_08h29.42.413,WTP_SM_Choice,2022.2.1,Linux x86_64,59.88023952,,,,,,,,,,,,,,,,,,88,,,,,,,,,,0.03,2,3.1178,0,2,2,2,1,take trips with friends,take a walk,0.03,0.03,1.1,0,,,,
,,65c14027646a9bbfa89584c8,6685aa9113c938e83b4f1ea0,66bcad79edb4b8a6de639bbe,2024-08-14_08h29.42.413,WTP_SM_Choice,2022.2.1,Linux x86_64,59.88023952,,,,,,,,,,,,,,,,,,89,,,,,,,,,,0.03,2,2.876,0,3,3,3,1,go out to eat with my significant other,read books at home,0.04,0.03,3.3,0,,,,
,,65c14027646a9bbfa89584c8,6685aa9113c938e83b4f1ea0,66bcad79edb4b8a6de639bbe,2024-08-14_08h29.42.413,WTP_SM_Choice,2022.2.1,Linux x86_64,59.88023952,,,,,,,,,,,,,,,,,,90,,,,,,,,,,0.05,1,1.6696,0,4,4,4,1,take a nap,go out to eat with my significant other,0.05,0.03,8.8,1,,,,
,,65c14027646a9bbfa89584c8,6685aa9113c938e83b4f1ea0,66bcad79edb4b8a6de639bbe,2024-08-14_08h29.42.413,WTP_SM_Choice,2022.2.1,Linux x86_64,59.88023952,,,,,,,NAN,,NAN,2.74,3.26,,0,89,89,89,1,90,Charlie,Acc,Participant_Images/65c14027646a9bbfa89584c8/65c14027646a9bbfa89584c8_Images/65c14027646a9bbfa89584c8_Image_16.jpeg,did not like,1.661473164,,,,,,,,,,,,,,,,,,,,,,
,,65c14027646a9bbfa89584c8,6685aa9113c938e83b4f1ea0,66bcad79edb4b8a6de639bbe,2024-08-14_08h29.42.413,WTP_SM_Choice,2022.2.1,Linux x86_64,59.88023952,,,,,space,1.7205,NAN,,NAN,2.74,3.26,,0,90,90,90,1,91,Charlie,Acc,Participant_Images/65c14027646a9bbfa89584c8/65c14027646a9bbfa89584c8_Images/65c14027646a9bbfa89584c8_Image_9.jpeg,liked,3.613205605,,,,,,,,,,,,,,,,,,,,,,
,,65c14027646a9bbfa89584c8,6685aa9113c938e83b4f1ea0,66bcad79edb4b8a6de639bbe,2024-08-14_08h29.42.413,WTP_SM_Choice,2022.2.1,Linux x86_64,59.88023952,,,,,space,0.8353,NAN,,NAN,2.74,3.26,,0,91,91,91,1,92,Charlie,Acc,Participant_Images/65c14027646a9bbfa89584c8/65c14027646a9bbfa89584c8_Images/65c14027646a9bbfa89584c8_Image_1.jpeg,liked,4.988446431,,,,,,,,,,,,,,,,,,,,,,
,,65c14027646a9bbfa89584c8,6685aa9113c938e83b4f1ea0,66bcad79edb4b8a6de639bbe,2024-08-14_08h29.42.413,WTP_SM_Choice,2022.2.1,Linux x86_64,59.88023952,,,,,space,1.0586,NAN,,NAN,2.74,3.26,,0,92,92,92,1,93,Charlie,Acc,Participant_Images/65c14027646a9bbfa89584c8/65c14027646a9bbfa89584c8_Images/65c14027646a9bbfa89584c8_Image_6.jpeg,did not like,3.470791822,,,,,,,,,,,,,,,,,,,,,,
,,65c14027646a9bbfa89584c8,6685aa9113c938e83b4f1ea0,66bcad79edb4b8a6de639bbe,2024-08-14_08h29.42.413,WTP_SM_Choice,2022.2.1,Linux x86_64,59.88023952,,,,,space,1.9837,NAN,,NAN,2.74,3.26,,0,93,93,93,1,94,Charlie,Acc,Participant_Images/65c14027646a9bbfa89584c8/65c14027646a9bbfa89584c8_Images/65c14027646a9bbfa89584c8_Image_3.jpeg,liked,3.820572462,,,,,,,,,,,,,,,,,,,,,,
,,65c14027646a9bbfa89584c8,6685aa9113c938e83b4f1ea0,66bcad79edb4b8a6de639bbe,2024-08-14_08h29.42.413,WTP_SM_Choice,2022.2.1,Linux x86_64,59.88023952,,,,,,,,,,,,,,,,,,91,,,,,,space,6.6446,space,1.8486,0.01,1,2.0788,0,0,0,0,1,sit outside,go on vacation with my significant other,0.01,0.04,3.3,1,,,,
,,65c14027646a9bbfa89584c8,6685aa9113c938e83b4f1ea0,66bcad79edb4b8a6de639bbe,2024-08-14_08h29.42.413,WTP_SM_Choice,2022.2.1,Linux x86_64,59.88023952,,,,,,,,,,,,,,,,,,92,,,,,,,,,,0.02,1,1.997,0,1,1,1,1,watch youtube at home,go to the movies with my significant other,0.02,0.04,8.8,1,,,,
,,65c14027646a9bbfa89584c8,6685aa9113c938e83b4f1ea0,66bcad79edb4b8a6de639bbe,2024-08-14_08h29.42.413,WTP_SM_Choice,2022.2.1,Linux x86_64,59.88023952,,,,,,,,,,,,,,,,,,93,,,,,,,,,,0.04,2,5.0116,0,2,2,2,1,take a walk with my significant other,meditate at home,0.03,0.04,1.1,0,,,,
,,65c14027646a9bbfa89584c8,6685aa9113c938e83b4f1ea0,66bcad79edb4b8a6de639bbe,2024-08-14_08h29.42.413,WTP_SM_Choice,2022.2.1,Linux x86_64,59.88023952,,,,,,,,,,,,,,,,,,94,,,,,,,,,,0.04,1,2.2254,0,3,3,3,1,listen to a podcast,go out to eat with my significant other,0.04,0.04,4.4,1,,,,
,,65c14027646a9bbfa89584c8,6685aa9113c938e83b4f1ea0,66bcad79edb4b8a6de639bbe,2024-08-14_08h29.42.413,WTP_SM_Choice,2022.2.1,Linux x86_64,59.88023952,,,,,,,,,,,,,,,,,,95,,,,,,,,,,0.04,2,1.9052,0,4,4,4,1,go on vacation with my significant other,read books at home,0.05,0.04,4.4,0,,,,
,,65c14027646a9bbfa89584c8,6685aa9113c938e83b4f1ea0,66bcad79edb4b8a6de639bbe,2024-08-14_08h29.42.413,WTP_SM_Choice,2022.2.1,Linux x86_64,59.88023952,,,,,,,NAN,,NAN,2.89,3.11,,0,94,94,94,1,95,Charlie,Acc,Participant_Images/65c14027646a9bbfa89584c8/65c14027646a9bbfa89584c8_Images/65c14027646a9bbfa89584c8_Image_24.jpeg,liked,2.455989137,,,,,,,,,,,,,,,,,,,,,,
,,65c14027646a9bbfa89584c8,6685aa9113c938e83b4f1ea0,66bcad79edb4b8a6de639bbe,2024-08-14_08h29.42.413,WTP_SM_Choice,2022.2.1,Linux x86_64,59.88023952,,,,,space,1.2837,NAN,,NAN,2.89,3.11,,0,95,95,95,1,96,Charlie,Acc,Participant_Images/65c14027646a9bbfa89584c8/65c14027646a9bbfa89584c8_Images/65c14027646a9bbfa89584c8_Image_11.jpeg,liked,3.79605092,,,,,,,,,,,,,,,,,,,,,,
,,65c14027646a9bbfa89584c8,6685aa9113c938e83b4f1ea0,66bcad79edb4b8a6de639bbe,2024-08-14_08h29.42.413,WTP_SM_Choice,2022.2.1,Linux x86_64,59.88023952,,,,,space,2.5969,NAN,,NAN,2.89,3.11,,0,96,96,96,1,97,Charlie,Acc,Participant_Images/65c14027646a9bbfa89584c8/65c14027646a9bbfa89584c8_Images/65c14027646a9bbfa89584c8_Image_21.jpeg,liked,3.562416326,,,,,,,,,,,,,,,,,,,,,,
,,65c14027646a9bbfa89584c8,6685aa9113c938e83b4f1ea0,66bcad79edb4b8a6de639bbe,2024-08-14_08h29.42.413,WTP_SM_Choice,2022.2.1,Linux x86_64,59.88023952,,,,,space,4.8943,NAN,,NAN,2.89,3.11,,0,97,97,97,1,98,Charlie,Acc,Participant_Images/65c14027646a9bbfa89584c8/65c14027646a9bbfa89584c8_Images/65c14027646a9bbfa89584c8_Image_19.jpeg,liked,2.843822497,,,,,,,,,,,,,,,,,,,,,,
,,65c14027646a9bbfa89584c8,6685aa9113c938e83b4f1ea0,66bcad79edb4b8a6de639bbe,2024-08-14_08h29.42.413,WTP_SM_Choice,2022.2.1,Linux x86_64,59.88023952,,,,,space,1.1377,NAN,,NAN,2.89,3.11,,0,98,98,98,1,99,Charlie,Acc,Participant_Images/65c14027646a9bbfa89584c8/65c14027646a9bbfa89584c8_Images/65c14027646a9bbfa89584c8_Image_8.jpeg,did not like,3.546495948,,,,,,,,,,,,,,,,,,,,,,
,,65c14027646a9bbfa89584c8,6685aa9113c938e83b4f1ea0,66bcad79edb4b8a6de639bbe,2024-08-14_08h29.42.413,WTP_SM_Choice,2022.2.1,Linux x86_64,59.88023952,,,,,,,,,,,,,,,,,,96,,,,,,space,1.8595,space,1.9166,0.01,1,3.2006,0,0,0,0,1,talk on the phone with my sister,take a nap,0.01,0.05,3.3,0,,,,
,,65c14027646a9bbfa89584c8,6685aa9113c938e83b4f1ea0,66bcad79edb4b8a6de639bbe,2024-08-14_08h29.42.413,WTP_SM_Choice,2022.2.1,Linux x86_64,59.88023952,,,,,,,,,,,,,,,,,,97,,,,,,,,,,0.02,1,1.9023,0,1,1,1,1,listen to music with my friend,watch youtube at home,0.02,0.05,1.1,0,,,,
,,65c14027646a9bbfa89584c8,6685aa9113c938e83b4f1ea0,66bcad79edb4b8a6de639bbe,2024-08-14_08h29.42.413,WTP_SM_Choice,2022.2.1,Linux x86_64,59.88023952,,,,,,,,,,,,,,,,,,98,,,,,,,,,,0.03,1,2.9913,0,2,2,2,1,watch tiktok videos at home,take trips with friends,0.03,0.05,1.1,1,,,,
,,65c14027646a9bbfa89584c8,6685aa9113c938e83b4f1ea0,66bcad79edb4b8a6de639bbe,2024-08-14_08h29.42.413,WTP_SM_Choice,2022.2.1,Linux x86_64,59.88023952,,,,,,,,,,,,,,,,,,99,,,,,,,,,,0.05,2,1.6083,0,3,3,3,1,sit outside,go to a bar with friends,0.04,0.05,3.3,1,,,,
,,65c14027646a9bbfa89584c8,6685aa9113c938e83b4f1ea0,66bcad79edb4b8a6de639bbe,2024-08-14_08h29.42.413,WTP_SM_Choice,2022.2.1,Linux x86_64,59.88023952,,,,,,,,,,,,,,,,,,100,,,,,,,,,,0.05,2,2.5384,0,4,4,4,1,watch tiktok videos at home,go to a bar with friends,0.05,0.05,4.4,1,,,,
,,65c14027646a9bbfa89584c8,6685aa9113c938e83b4f1ea0,66bcad79edb4b8a6de639bbe,2024-08-14_08h29.42.413,WTP_SM_Choice,2022.2.1,Linux x86_64,59.88023952,,,,,,,3,,7,3.05,2.95,,0,99,99,99,1,100,Charlie,Acc,Participant_Images/65c14027646a9bbfa89584c8/65c14027646a9bbfa89584c8_Images/65c14027646a9bbfa89584c8_Image_4.jpeg,liked,1.672012706,,,,,,,,,,,,,,,,,,,space,1.6803,,
,,65c14027646a9bbfa89584c8,6685aa9113c938e83b4f1ea0,66bcad79edb4b8a6de639bbe,2024-08-14_08h29.42.413,WTP_SM_Choice,2022.2.1,Linux x86_64,59.88023952,,,,,,,,,,,,,,,,,,,,,,,,,,,,,,,,,,,,,,,,,,,,space,8.1388
