endwelcomescreen_keys.keys,endwelcomescreen_keys.rt,participant,STUDY_ID,SESSION_ID,date,expName,psychopyVersion,OS,frameRate,endinstructionscreen_keys.keys,endinstructionscreen_keys.rt,endpartnermatch_keys.keys,endpartnermatch_keys.rt,sharenextphoto_key.keys,sharenextphoto_key.rt,salience_rating,key_resp.keys,stress_level,subtract_bonus,TOTAL_TASK_BONUS,stresslevel_keypress.keys,entiretaskloop.thisRepN,entiretaskloop.thisTrialN,entiretaskloop.thisN,entiretaskloop.thisIndex,entiretaskloop.ran,TrialNumber,Partner,Condition,Photos,Feedback,FeedbackWait,WTP_ins_keys1.keys,WTP_ins_keys1.rt,WTP_ins_keys2.keys,WTP_ins_keys2.rt,decision_price,responses.keys,responses.rt,WTPTaskLoop.thisRepN,WTPTaskLoop.thisTrialN,WTPTaskLoop.thisN,WTPTaskLoop.thisIndex,WTPTaskLoop.ran,right,left,leftmoney,rightmoney,WTP_ITI,social_left,Resume_keys.keys,Resume_keys.rt,end_screen_keys.keys,end_screen_keys.rt
space,2.8218,65d65821b5e4f4fb6de9076c,6685aa9113c938e83b4f1ea0,66c0ad49e50a233a262c2131,2024-08-17_09h02.37.976,WTP_SM_Choice,2022.2.1,MacIntel,60.97560976,,,,,,,,,,,,,,,,,,,,,,,,,,,,,,,,,,,,,,,,,,,,,
,,65d65821b5e4f4fb6de9076c,6685aa9113c938e83b4f1ea0,66c0ad49e50a233a262c2131,2024-08-17_09h02.37.976,WTP_SM_Choice,2022.2.1,MacIntel,60.97560976,space,7.2056,,,,,,,,,,,,,,,,,,,,,,,,,,,,,,,,,,,,,,,,,,,
,,65d65821b5e4f4fb6de9076c,6685aa9113c938e83b4f1ea0,66c0ad49e50a233a262c2131,2024-08-17_09h02.37.976,WTP_SM_Choice,2022.2.1,MacIntel,60.97560976,,,space,2.5331,space,0.9077,NAN,,NAN,0,6,,0,0,0,0,1,1,Sam,Acc,Participant_Images/65d65821b5e4f4fb6de9076c/65d65821b5e4f4fb6de9076c_Images/65d65821b5e4f4fb6de9076c_Image_25.jpeg,liked,3.613205605,,,,,,,,,,,,,,,,,,,,,,
,,65d65821b5e4f4fb6de9076c,6685aa9113c938e83b4f1ea0,66c0ad49e50a233a262c2131,2024-08-17_09h02.37.976,WTP_SM_Choice,2022.2.1,MacIntel,60.97560976,,,,,space,1.3663,NAN,,NAN,0,6,,0,1,1,1,1,2,Sam,Acc,Participant_Images/65d65821b5e4f4fb6de9076c/65d65821b5e4f4fb6de9076c_Images/65d65821b5e4f4fb6de9076c_Image_14.jpeg,liked,4.988446431,,,,,,,,,,,,,,,,,,,,,,
,,65d65821b5e4f4fb6de9076c,6685aa9113c938e83b4f1ea0,66c0ad49e50a233a262c2131,2024-08-17_09h02.37.976,WTP_SM_Choice,2022.2.1,MacIntel,60.97560976,,,,,space,1.3792,NAN,,NAN,0,6,,0,2,2,2,1,3,Sam,Acc,Participant_Images/65d65821b5e4f4fb6de9076c/65d65821b5e4f4fb6de9076c_Images/65d65821b5e4f4fb6de9076c_Image_21.jpeg,did not like,3.470791822,,,,,,,,,,,,,,,,,,,,,,
,,65d65821b5e4f4fb6de9076c,6685aa9113c938e83b4f1ea0,66c0ad49e50a233a262c2131,2024-08-17_09h02.37.976,WTP_SM_Choice,2022.2.1,MacIntel,60.97560976,,,,,space,1.3688,NAN,,NAN,0,6,,0,3,3,3,1,4,Sam,Acc,Participant_Images/65d65821b5e4f4fb6de9076c/65d65821b5e4f4fb6de9076c_Images/65d65821b5e4f4fb6de9076c_Image_18.jpeg,liked,3.820572462,,,,,,,,,,,,,,,,,,,,,,
,,65d65821b5e4f4fb6de9076c,6685aa9113c938e83b4f1ea0,66c0ad49e50a233a262c2131,2024-08-17_09h02.37.976,WTP_SM_Choice,2022.2.1,MacIntel,60.97560976,,,,,,,,,,,,,,,,,,1,,,,,,space,12.807,space,4.9227,0.01,2,3.0249,0,0,0,0,1,Walking around outside on campus,Walking around with my mom,0.01,0.01,4.4,1,,,,
,,65d65821b5e4f4fb6de9076c,6685aa9113c938e83b4f1ea0,66c0ad49e50a233a262c2131,2024-08-17_09h02.37.976,WTP_SM_Choice,2022.2.1,MacIntel,60.97560976,,,,,,,,,,,,,,,,,,2,,,,,,,,,,0.02,1,1.9441,0,1,1,1,1,Sewing new clothes to wear,Going out to the bars with my friends on the weekend,0.02,0.01,8.8,1,,,,
,,65d65821b5e4f4fb6de9076c,6685aa9113c938e83b4f1ea0,66c0ad49e50a233a262c2131,2024-08-17_09h02.37.976,WTP_SM_Choice,2022.2.1,MacIntel,60.97560976,,,,,,,,,,,,,,,,,,3,,,,,,,,,,0.03,1,3.6286,0,2,2,2,1,Doing weekly line dancing at local bars,Working from home to earn money,0.03,0.01,3.3,0,,,,
,,65d65821b5e4f4fb6de9076c,6685aa9113c938e83b4f1ea0,66c0ad49e50a233a262c2131,2024-08-17_09h02.37.976,WTP_SM_Choice,2022.2.1,MacIntel,60.97560976,,,,,,,,,,,,,,,,,,4,,,,,,,,,,0.04,1,2.1253,0,3,3,3,1,Taking my sister to get coffee,Sewing new clothes to wear,0.04,0.01,1.1,0,,,,
,,65d65821b5e4f4fb6de9076c,6685aa9113c938e83b4f1ea0,66c0ad49e50a233a262c2131,2024-08-17_09h02.37.976,WTP_SM_Choice,2022.2.1,MacIntel,60.97560976,,,,,,,,,,,,,,,,,,5,,,,,,,,,,0.05,1,1.9201,0,4,4,4,1,Learning how to do a new craft so I feel productive,Going to weekly trivia nights with my friends,0.05,0.01,1.1,1,,,,
,,65d65821b5e4f4fb6de9076c,6685aa9113c938e83b4f1ea0,66c0ad49e50a233a262c2131,2024-08-17_09h02.37.976,WTP_SM_Choice,2022.2.1,MacIntel,60.97560976,,,,,,,NAN,,NAN,0.15,5.85,,0,4,4,4,1,5,Sam,Acc,Participant_Images/65d65821b5e4f4fb6de9076c/65d65821b5e4f4fb6de9076c_Images/65d65821b5e4f4fb6de9076c_Image_3.jpeg,did not like,2.455989137,,,,,,,,,,,,,,,,,,,,,,
,,65d65821b5e4f4fb6de9076c,6685aa9113c938e83b4f1ea0,66c0ad49e50a233a262c2131,2024-08-17_09h02.37.976,WTP_SM_Choice,2022.2.1,MacIntel,60.97560976,,,,,space,1.5972,NAN,,NAN,0.15,5.85,,0,5,5,5,1,6,Sam,Acc,Participant_Images/65d65821b5e4f4fb6de9076c/65d65821b5e4f4fb6de9076c_Images/65d65821b5e4f4fb6de9076c_Image_2.jpeg,did not like,3.79605092,,,,,,,,,,,,,,,,,,,,,,
,,65d65821b5e4f4fb6de9076c,6685aa9113c938e83b4f1ea0,66c0ad49e50a233a262c2131,2024-08-17_09h02.37.976,WTP_SM_Choice,2022.2.1,MacIntel,60.97560976,,,,,space,1.3359,NAN,,NAN,0.15,5.85,,0,6,6,6,1,7,Sam,Acc,Participant_Images/65d65821b5e4f4fb6de9076c/65d65821b5e4f4fb6de9076c_Images/65d65821b5e4f4fb6de9076c_Image_23.jpeg,liked,3.562416326,,,,,,,,,,,,,,,,,,,,,,
,,65d65821b5e4f4fb6de9076c,6685aa9113c938e83b4f1ea0,66c0ad49e50a233a262c2131,2024-08-17_09h02.37.976,WTP_SM_Choice,2022.2.1,MacIntel,60.97560976,,,,,space,0.7284,NAN,,NAN,0.15,5.85,,0,7,7,7,1,8,Sam,Acc,Participant_Images/65d65821b5e4f4fb6de9076c/65d65821b5e4f4fb6de9076c_Images/65d65821b5e4f4fb6de9076c_Image_15.jpeg,did not like,2.843822497,,,,,,,,,,,,,,,,,,,,,,
,,65d65821b5e4f4fb6de9076c,6685aa9113c938e83b4f1ea0,66c0ad49e50a233a262c2131,2024-08-17_09h02.37.976,WTP_SM_Choice,2022.2.1,MacIntel,60.97560976,,,,,space,0.7334,NAN,,NAN,0.15,5.85,,0,8,8,8,1,9,Sam,Acc,Participant_Images/65d65821b5e4f4fb6de9076c/65d65821b5e4f4fb6de9076c_Images/65d65821b5e4f4fb6de9076c_Image_10.jpeg,did not like,3.546495948,,,,,,,,,,,,,,,,,,,,,,
,,65d65821b5e4f4fb6de9076c,6685aa9113c938e83b4f1ea0,66c0ad49e50a233a262c2131,2024-08-17_09h02.37.976,WTP_SM_Choice,2022.2.1,MacIntel,60.97560976,,,,,,,,,,,,,,,,,,6,,,,,,space,1.2497,space,1.0507,0.02,2,3.1559,0,0,0,0,1,Browsing the internet for furniture that I need,Walking around with my mom,0.01,0.02,3.3,1,,,,
,,65d65821b5e4f4fb6de9076c,6685aa9113c938e83b4f1ea0,66c0ad49e50a233a262c2131,2024-08-17_09h02.37.976,WTP_SM_Choice,2022.2.1,MacIntel,60.97560976,,,,,,,,,,,,,,,,,,7,,,,,,,,,,0.02,2,4.078,0,1,1,1,1,Watching a new show in my room at night,Watching basketball games with my friends,0.02,0.02,1.1,1,,,,
,,65d65821b5e4f4fb6de9076c,6685aa9113c938e83b4f1ea0,66c0ad49e50a233a262c2131,2024-08-17_09h02.37.976,WTP_SM_Choice,2022.2.1,MacIntel,60.97560976,,,,,,,,,,,,,,,,,,8,,,,,,,,,,0.03,1,2.137,0,2,2,2,1,Showering after a long hectic day,Going out to the bars with my friends on the weekend,0.03,0.02,1.1,1,,,,
,,65d65821b5e4f4fb6de9076c,6685aa9113c938e83b4f1ea0,66c0ad49e50a233a262c2131,2024-08-17_09h02.37.976,WTP_SM_Choice,2022.2.1,MacIntel,60.97560976,,,,,,,,,,,,,,,,,,9,,,,,,,,,,0.04,1,2.62,0,3,3,3,1,Organizing my room for a fresh start,Talking about what is going on in our lives with my friends,0.04,0.02,4.4,1,,,,
,,65d65821b5e4f4fb6de9076c,6685aa9113c938e83b4f1ea0,66c0ad49e50a233a262c2131,2024-08-17_09h02.37.976,WTP_SM_Choice,2022.2.1,MacIntel,60.97560976,,,,,,,,,,,,,,,,,,10,,,,,,,,,,0.05,1,1.5615,0,4,4,4,1,Shopping at the mall when I need something new to wear,Playing games with my dad and little sister,0.05,0.02,1.1,1,,,,
,,65d65821b5e4f4fb6de9076c,6685aa9113c938e83b4f1ea0,66c0ad49e50a233a262c2131,2024-08-17_09h02.37.976,WTP_SM_Choice,2022.2.1,MacIntel,60.97560976,,,,,,,NAN,,NAN,0.31,5.69,,0,9,9,9,1,10,Sam,Acc,Participant_Images/65d65821b5e4f4fb6de9076c/65d65821b5e4f4fb6de9076c_Images/65d65821b5e4f4fb6de9076c_Image_11.jpeg,liked,1.672012706,,,,,,,,,,,,,,,,,,,,,,
,,65d65821b5e4f4fb6de9076c,6685aa9113c938e83b4f1ea0,66c0ad49e50a233a262c2131,2024-08-17_09h02.37.976,WTP_SM_Choice,2022.2.1,MacIntel,60.97560976,,,,,space,0.8343,NAN,,NAN,0.31,5.69,,0,10,10,10,1,11,Sam,Acc,Participant_Images/65d65821b5e4f4fb6de9076c/65d65821b5e4f4fb6de9076c_Images/65d65821b5e4f4fb6de9076c_Image_17.jpeg,liked,4.942172136,,,,,,,,,,,,,,,,,,,,,,
,,65d65821b5e4f4fb6de9076c,6685aa9113c938e83b4f1ea0,66c0ad49e50a233a262c2131,2024-08-17_09h02.37.976,WTP_SM_Choice,2022.2.1,MacIntel,60.97560976,,,,,space,0.8337,NAN,,NAN,0.31,5.69,,0,11,11,11,1,12,Sam,Acc,Participant_Images/65d65821b5e4f4fb6de9076c/65d65821b5e4f4fb6de9076c_Images/65d65821b5e4f4fb6de9076c_Image_5.jpeg,liked,2.50187214,,,,,,,,,,,,,,,,,,,,,,
,,65d65821b5e4f4fb6de9076c,6685aa9113c938e83b4f1ea0,66c0ad49e50a233a262c2131,2024-08-17_09h02.37.976,WTP_SM_Choice,2022.2.1,MacIntel,60.97560976,,,,,space,1.3848,NAN,,NAN,0.31,5.69,,0,12,12,12,1,13,Sam,Acc,Participant_Images/65d65821b5e4f4fb6de9076c/65d65821b5e4f4fb6de9076c_Images/65d65821b5e4f4fb6de9076c_Image_7.jpeg,liked,2.071164779,,,,,,,,,,,,,,,,,,,,,,
,,65d65821b5e4f4fb6de9076c,6685aa9113c938e83b4f1ea0,66c0ad49e50a233a262c2131,2024-08-17_09h02.37.976,WTP_SM_Choice,2022.2.1,MacIntel,60.97560976,,,,,space,1.8012,NAN,,NAN,0.31,5.69,,0,13,13,13,1,14,Sam,Acc,Participant_Images/65d65821b5e4f4fb6de9076c/65d65821b5e4f4fb6de9076c_Images/65d65821b5e4f4fb6de9076c_Image_24.jpeg,did not like,5.336503566,,,,,,,,,,,,,,,,,,,,,,
,,65d65821b5e4f4fb6de9076c,6685aa9113c938e83b4f1ea0,66c0ad49e50a233a262c2131,2024-08-17_09h02.37.976,WTP_SM_Choice,2022.2.1,MacIntel,60.97560976,,,,,,,,,,,,,,,,,,11,,,,,,space,2.0543,space,0.5531,0.03,2,1.6348,0,0,0,0,1,Showering after a long hectic day,Walking around with my mom,0.01,0.03,3.3,1,,,,
,,65d65821b5e4f4fb6de9076c,6685aa9113c938e83b4f1ea0,66c0ad49e50a233a262c2131,2024-08-17_09h02.37.976,WTP_SM_Choice,2022.2.1,MacIntel,60.97560976,,,,,,,,,,,,,,,,,,12,,,,,,,,,,0.02,1,2.9302,0,1,1,1,1,Taking my sister to get coffee,Exercising at the gym in the morning,0.02,0.03,4.4,0,,,,
,,65d65821b5e4f4fb6de9076c,6685aa9113c938e83b4f1ea0,66c0ad49e50a233a262c2131,2024-08-17_09h02.37.976,WTP_SM_Choice,2022.2.1,MacIntel,60.97560976,,,,,,,,,,,,,,,,,,13,,,,,,,,,,0.03,2,5.1127,0,2,2,2,1,Playing basketball with my friends during the summer,Learning how to do a new craft so I feel productive,0.03,0.03,1.1,0,,,,
,,65d65821b5e4f4fb6de9076c,6685aa9113c938e83b4f1ea0,66c0ad49e50a233a262c2131,2024-08-17_09h02.37.976,WTP_SM_Choice,2022.2.1,MacIntel,60.97560976,,,,,,,,,,,,,,,,,,14,,,,,,,,,,0.04,1,4.4658,0,3,3,3,1,Organizing my room for a fresh start,Playing games with my dad and little sister,0.04,0.03,3.3,1,,,,
,,65d65821b5e4f4fb6de9076c,6685aa9113c938e83b4f1ea0,66c0ad49e50a233a262c2131,2024-08-17_09h02.37.976,WTP_SM_Choice,2022.2.1,MacIntel,60.97560976,,,,,,,,,,,,,,,,,,15,,,,,,,,,,0.05,1,1.2045,0,4,4,4,1,Showering after a long hectic day,Watching funny internet videos with my friends,0.05,0.03,4.4,1,,,,
,,65d65821b5e4f4fb6de9076c,6685aa9113c938e83b4f1ea0,66c0ad49e50a233a262c2131,2024-08-17_09h02.37.976,WTP_SM_Choice,2022.2.1,MacIntel,60.97560976,,,,,,,NAN,,NAN,0.48,5.52,,0,14,14,14,1,15,Sam,Acc,Participant_Images/65d65821b5e4f4fb6de9076c/65d65821b5e4f4fb6de9076c_Images/65d65821b5e4f4fb6de9076c_Image_1.jpeg,liked,2.642157193,,,,,,,,,,,,,,,,,,,,,,
,,65d65821b5e4f4fb6de9076c,6685aa9113c938e83b4f1ea0,66c0ad49e50a233a262c2131,2024-08-17_09h02.37.976,WTP_SM_Choice,2022.2.1,MacIntel,60.97560976,,,,,space,0.9948,NAN,,NAN,0.48,5.52,,0,15,15,15,1,16,Sam,Acc,Participant_Images/65d65821b5e4f4fb6de9076c/65d65821b5e4f4fb6de9076c_Images/65d65821b5e4f4fb6de9076c_Image_20.jpeg,liked,4.456234322,,,,,,,,,,,,,,,,,,,,,,
,,65d65821b5e4f4fb6de9076c,6685aa9113c938e83b4f1ea0,66c0ad49e50a233a262c2131,2024-08-17_09h02.37.976,WTP_SM_Choice,2022.2.1,MacIntel,60.97560976,,,,,space,0.7501,NAN,,NAN,0.48,5.52,,0,16,16,16,1,17,Sam,Acc,Participant_Images/65d65821b5e4f4fb6de9076c/65d65821b5e4f4fb6de9076c_Images/65d65821b5e4f4fb6de9076c_Image_8.jpeg,liked,4.438512181,,,,,,,,,,,,,,,,,,,,,,
,,65d65821b5e4f4fb6de9076c,6685aa9113c938e83b4f1ea0,66c0ad49e50a233a262c2131,2024-08-17_09h02.37.976,WTP_SM_Choice,2022.2.1,MacIntel,60.97560976,,,,,space,1.0177,NAN,,NAN,0.48,5.52,,0,17,17,17,1,18,Sam,Acc,Participant_Images/65d65821b5e4f4fb6de9076c/65d65821b5e4f4fb6de9076c_Images/65d65821b5e4f4fb6de9076c_Image_16.jpeg,liked,2.682944783,,,,,,,,,,,,,,,,,,,,,,
,,65d65821b5e4f4fb6de9076c,6685aa9113c938e83b4f1ea0,66c0ad49e50a233a262c2131,2024-08-17_09h02.37.976,WTP_SM_Choice,2022.2.1,MacIntel,60.97560976,,,,,space,0.669,NAN,,NAN,0.48,5.52,,0,18,18,18,1,19,Sam,Acc,Participant_Images/65d65821b5e4f4fb6de9076c/65d65821b5e4f4fb6de9076c_Images/65d65821b5e4f4fb6de9076c_Image_4.jpeg,did not like,4.51984296,,,,,,,,,,,,,,,,,,,,,,
,,65d65821b5e4f4fb6de9076c,6685aa9113c938e83b4f1ea0,66c0ad49e50a233a262c2131,2024-08-17_09h02.37.976,WTP_SM_Choice,2022.2.1,MacIntel,60.97560976,,,,,,,,,,,,,,,,,,16,,,,,,space,0.6134,space,0.5672,0.04,2,1.4692,0,0,0,0,1,Sewing new clothes to wear,Watching funny internet videos with my friends,0.01,0.04,1.1,1,,,,
,,65d65821b5e4f4fb6de9076c,6685aa9113c938e83b4f1ea0,66c0ad49e50a233a262c2131,2024-08-17_09h02.37.976,WTP_SM_Choice,2022.2.1,MacIntel,60.97560976,,,,,,,,,,,,,,,,,,17,,,,,,,,,,0.04,2,1.4884,0,1,1,1,1,Talking about what is going on in our lives with my friends,Learning how to do a new craft so I feel productive,0.02,0.04,8.8,0,,,,
,,65d65821b5e4f4fb6de9076c,6685aa9113c938e83b4f1ea0,66c0ad49e50a233a262c2131,2024-08-17_09h02.37.976,WTP_SM_Choice,2022.2.1,MacIntel,60.97560976,,,,,,,,,,,,,,,,,,18,,,,,,,,,,0.04,2,1.4784,0,2,2,2,1,Going to weekly trivia nights with my friends,Browsing the internet for furniture that I need,0.03,0.04,3.3,0,,,,
,,65d65821b5e4f4fb6de9076c,6685aa9113c938e83b4f1ea0,66c0ad49e50a233a262c2131,2024-08-17_09h02.37.976,WTP_SM_Choice,2022.2.1,MacIntel,60.97560976,,,,,,,,,,,,,,,,,,19,,,,,,,,,,0.04,1,1.0281,0,3,3,3,1,Browsing the internet for furniture that I need,Watching basketball games with my friends,0.04,0.04,3.3,1,,,,
,,65d65821b5e4f4fb6de9076c,6685aa9113c938e83b4f1ea0,66c0ad49e50a233a262c2131,2024-08-17_09h02.37.976,WTP_SM_Choice,2022.2.1,MacIntel,60.97560976,,,,,,,,,,,,,,,,,,20,,,,,,,,,,0.05,1,1.1951,0,4,4,4,1,Doing weekly line dancing at local bars,Watching a new show in my room at night,0.05,0.04,1.1,0,,,,
,,65d65821b5e4f4fb6de9076c,6685aa9113c938e83b4f1ea0,66c0ad49e50a233a262c2131,2024-08-17_09h02.37.976,WTP_SM_Choice,2022.2.1,MacIntel,60.97560976,,,,,,,NAN,,NAN,0.69,5.31,,0,19,19,19,1,20,Sam,Acc,Participant_Images/65d65821b5e4f4fb6de9076c/65d65821b5e4f4fb6de9076c_Images/65d65821b5e4f4fb6de9076c_Image_19.jpeg,liked,3.195382774,,,,,,,,,,,,,,,,,,,,,,
,,65d65821b5e4f4fb6de9076c,6685aa9113c938e83b4f1ea0,66c0ad49e50a233a262c2131,2024-08-17_09h02.37.976,WTP_SM_Choice,2022.2.1,MacIntel,60.97560976,,,,,space,1.0527,NAN,,NAN,0.69,5.31,,0,20,20,20,1,21,Sam,Acc,Participant_Images/65d65821b5e4f4fb6de9076c/65d65821b5e4f4fb6de9076c_Images/65d65821b5e4f4fb6de9076c_Image_22.jpeg,liked,1.779333479,,,,,,,,,,,,,,,,,,,,,,
,,65d65821b5e4f4fb6de9076c,6685aa9113c938e83b4f1ea0,66c0ad49e50a233a262c2131,2024-08-17_09h02.37.976,WTP_SM_Choice,2022.2.1,MacIntel,60.97560976,,,,,space,0.8347,NAN,,NAN,0.69,5.31,,0,21,21,21,1,22,Sam,Acc,Participant_Images/65d65821b5e4f4fb6de9076c/65d65821b5e4f4fb6de9076c_Images/65d65821b5e4f4fb6de9076c_Image_13.jpeg,liked,4.312468682,,,,,,,,,,,,,,,,,,,,,,
,,65d65821b5e4f4fb6de9076c,6685aa9113c938e83b4f1ea0,66c0ad49e50a233a262c2131,2024-08-17_09h02.37.976,WTP_SM_Choice,2022.2.1,MacIntel,60.97560976,,,,,space,0.8332,NAN,,NAN,0.69,5.31,,0,22,22,22,1,23,Sam,Acc,Participant_Images/65d65821b5e4f4fb6de9076c/65d65821b5e4f4fb6de9076c_Images/65d65821b5e4f4fb6de9076c_Image_12.jpeg,liked,4.940433059,,,,,,,,,,,,,,,,,,,,,,
,,65d65821b5e4f4fb6de9076c,6685aa9113c938e83b4f1ea0,66c0ad49e50a233a262c2131,2024-08-17_09h02.37.976,WTP_SM_Choice,2022.2.1,MacIntel,60.97560976,,,,,space,0.8211,NAN,,NAN,0.69,5.31,,0,23,23,23,1,24,Sam,Acc,Participant_Images/65d65821b5e4f4fb6de9076c/65d65821b5e4f4fb6de9076c_Images/65d65821b5e4f4fb6de9076c_Image_6.jpeg,liked,2.7105123,,,,,,,,,,,,,,,,,,,,,,
,,65d65821b5e4f4fb6de9076c,6685aa9113c938e83b4f1ea0,66c0ad49e50a233a262c2131,2024-08-17_09h02.37.976,WTP_SM_Choice,2022.2.1,MacIntel,60.97560976,,,,,,,,,,,,,,,,,,21,,,,,,space,2.2848,space,0.4826,0.05,2,1.3009,0,0,0,0,1,Walking around outside on campus,Playing games with my dad and little sister,0.01,0.05,8.8,1,,,,
,,65d65821b5e4f4fb6de9076c,6685aa9113c938e83b4f1ea0,66c0ad49e50a233a262c2131,2024-08-17_09h02.37.976,WTP_SM_Choice,2022.2.1,MacIntel,60.97560976,,,,,,,,,,,,,,,,,,22,,,,,,,,,,0.05,2,1.5061,0,1,1,1,1,Going out to the bars with my friends on the weekend,Watching a new show in my room at night,0.02,0.05,4.4,0,,,,
,,65d65821b5e4f4fb6de9076c,6685aa9113c938e83b4f1ea0,66c0ad49e50a233a262c2131,2024-08-17_09h02.37.976,WTP_SM_Choice,2022.2.1,MacIntel,60.97560976,,,,,,,,,,,,,,,,,,23,,,,,,,,,,0.05,2,0.9442,0,2,2,2,1,Sewing new clothes to wear,Playing basketball with my friends during the summer,0.03,0.05,1.1,1,,,,
,,65d65821b5e4f4fb6de9076c,6685aa9113c938e83b4f1ea0,66c0ad49e50a233a262c2131,2024-08-17_09h02.37.976,WTP_SM_Choice,2022.2.1,MacIntel,60.97560976,,,,,,,,,,,,,,,,,,24,,,,,,,,,,0.05,2,1.8979,0,3,3,3,1,Playing basketball with my friends during the summer,Watching a new show in my room at night,0.04,0.05,4.4,0,,,,
,,65d65821b5e4f4fb6de9076c,6685aa9113c938e83b4f1ea0,66c0ad49e50a233a262c2131,2024-08-17_09h02.37.976,WTP_SM_Choice,2022.2.1,MacIntel,60.97560976,,,,,,,,,,,,,,,,,,25,,,,,,,,,,0.05,2,1.8137,0,4,4,4,1,Browsing the internet for furniture that I need,Going out to the bars with my friends on the weekend,0.05,0.05,3.3,1,,,,
,,65d65821b5e4f4fb6de9076c,6685aa9113c938e83b4f1ea0,66c0ad49e50a233a262c2131,2024-08-17_09h02.37.976,WTP_SM_Choice,2022.2.1,MacIntel,60.97560976,,,,,,,3,,2,0.94,5.06,,0,24,24,24,1,25,Sam,Acc,Participant_Images/65d65821b5e4f4fb6de9076c/65d65821b5e4f4fb6de9076c_Images/65d65821b5e4f4fb6de9076c_Image_9.jpeg,liked,3.602308302,,,,,,,,,,,,,,,,,,,space,1.0166,,
,,65d65821b5e4f4fb6de9076c,6685aa9113c938e83b4f1ea0,66c0ad49e50a233a262c2131,2024-08-17_09h02.37.976,WTP_SM_Choice,2022.2.1,MacIntel,60.97560976,,,space,2.2061,space,1.8817,NAN,,NAN,0.94,5.06,,0,25,25,25,1,26,Charlie,Rej,Participant_Images/65d65821b5e4f4fb6de9076c/65d65821b5e4f4fb6de9076c_Images/65d65821b5e4f4fb6de9076c_Image_18.jpeg,did not like,4.106391878,,,,,,,,,,,,,,,,,,,,,,
,,65d65821b5e4f4fb6de9076c,6685aa9113c938e83b4f1ea0,66c0ad49e50a233a262c2131,2024-08-17_09h02.37.976,WTP_SM_Choice,2022.2.1,MacIntel,60.97560976,,,,,space,1.3425,NAN,,NAN,0.94,5.06,,0,26,26,26,1,27,Charlie,Rej,Participant_Images/65d65821b5e4f4fb6de9076c/65d65821b5e4f4fb6de9076c_Images/65d65821b5e4f4fb6de9076c_Image_22.jpeg,did not like,3.799433026,,,,,,,,,,,,,,,,,,,,,,
,,65d65821b5e4f4fb6de9076c,6685aa9113c938e83b4f1ea0,66c0ad49e50a233a262c2131,2024-08-17_09h02.37.976,WTP_SM_Choice,2022.2.1,MacIntel,60.97560976,,,,,space,0.4675,NAN,,NAN,0.94,5.06,,0,27,27,27,1,28,Charlie,Rej,Participant_Images/65d65821b5e4f4fb6de9076c/65d65821b5e4f4fb6de9076c_Images/65d65821b5e4f4fb6de9076c_Image_5.jpeg,did not like,5.246980764,,,,,,,,,,,,,,,,,,,,,,
,,65d65821b5e4f4fb6de9076c,6685aa9113c938e83b4f1ea0,66c0ad49e50a233a262c2131,2024-08-17_09h02.37.976,WTP_SM_Choice,2022.2.1,MacIntel,60.97560976,,,,,space,0.8338,NAN,,NAN,0.94,5.06,,0,28,28,28,1,29,Charlie,Rej,Participant_Images/65d65821b5e4f4fb6de9076c/65d65821b5e4f4fb6de9076c_Images/65d65821b5e4f4fb6de9076c_Image_8.jpeg,did not like,3.30081769,,,,,,,,,,,,,,,,,,,,,,
,,65d65821b5e4f4fb6de9076c,6685aa9113c938e83b4f1ea0,66c0ad49e50a233a262c2131,2024-08-17_09h02.37.976,WTP_SM_Choice,2022.2.1,MacIntel,60.97560976,,,,,,,,,,,,,,,,,,26,,,,,,space,1.1632,space,2.4337,0.01,1,1.9411,0,0,0,0,1,Learning how to do a new craft so I feel productive,Watching basketball games with my friends,0.01,0.01,4.4,1,,,,
,,65d65821b5e4f4fb6de9076c,6685aa9113c938e83b4f1ea0,66c0ad49e50a233a262c2131,2024-08-17_09h02.37.976,WTP_SM_Choice,2022.2.1,MacIntel,60.97560976,,,,,,,,,,,,,,,,,,27,,,,,,,,,,0.02,1,1.4283,0,1,1,1,1,Watching funny internet videos with my friends,Browsing the internet for furniture that I need,0.02,0.01,3.3,0,,,,
,,65d65821b5e4f4fb6de9076c,6685aa9113c938e83b4f1ea0,66c0ad49e50a233a262c2131,2024-08-17_09h02.37.976,WTP_SM_Choice,2022.2.1,MacIntel,60.97560976,,,,,,,,,,,,,,,,,,28,,,,,,,,,,0.03,1,1.4677,0,2,2,2,1,Taking my sister to get coffee,Showering after a long hectic day,0.03,0.01,3.3,0,,,,
,,65d65821b5e4f4fb6de9076c,6685aa9113c938e83b4f1ea0,66c0ad49e50a233a262c2131,2024-08-17_09h02.37.976,WTP_SM_Choice,2022.2.1,MacIntel,60.97560976,,,,,,,,,,,,,,,,,,29,,,,,,,,,,0.04,1,1.0408,0,3,3,3,1,Taking my sister to get coffee,Watching a new show in my room at night,0.04,0.01,4.4,0,,,,
,,65d65821b5e4f4fb6de9076c,6685aa9113c938e83b4f1ea0,66c0ad49e50a233a262c2131,2024-08-17_09h02.37.976,WTP_SM_Choice,2022.2.1,MacIntel,60.97560976,,,,,,,,,,,,,,,,,,30,,,,,,,,,,0.05,1,0.9241,0,4,4,4,1,Exercising at the gym in the morning,Playing games with my dad and little sister,0.05,0.01,8.8,1,,,,
,,65d65821b5e4f4fb6de9076c,6685aa9113c938e83b4f1ea0,66c0ad49e50a233a262c2131,2024-08-17_09h02.37.976,WTP_SM_Choice,2022.2.1,MacIntel,60.97560976,,,,,,,NAN,,NAN,1.09,4.91,,0,29,29,29,1,30,Charlie,Rej,Participant_Images/65d65821b5e4f4fb6de9076c/65d65821b5e4f4fb6de9076c_Images/65d65821b5e4f4fb6de9076c_Image_16.jpeg,did not like,1.661473164,,,,,,,,,,,,,,,,,,,,,,
,,65d65821b5e4f4fb6de9076c,6685aa9113c938e83b4f1ea0,66c0ad49e50a233a262c2131,2024-08-17_09h02.37.976,WTP_SM_Choice,2022.2.1,MacIntel,60.97560976,,,,,space,1.6821,NAN,,NAN,1.09,4.91,,0,30,30,30,1,31,Charlie,Rej,Participant_Images/65d65821b5e4f4fb6de9076c/65d65821b5e4f4fb6de9076c_Images/65d65821b5e4f4fb6de9076c_Image_23.jpeg,liked,3.613205605,,,,,,,,,,,,,,,,,,,,,,
,,65d65821b5e4f4fb6de9076c,6685aa9113c938e83b4f1ea0,66c0ad49e50a233a262c2131,2024-08-17_09h02.37.976,WTP_SM_Choice,2022.2.1,MacIntel,60.97560976,,,,,space,0.7016,NAN,,NAN,1.09,4.91,,0,31,31,31,1,32,Charlie,Rej,Participant_Images/65d65821b5e4f4fb6de9076c/65d65821b5e4f4fb6de9076c_Images/65d65821b5e4f4fb6de9076c_Image_17.jpeg,did not like,4.988446431,,,,,,,,,,,,,,,,,,,,,,
,,65d65821b5e4f4fb6de9076c,6685aa9113c938e83b4f1ea0,66c0ad49e50a233a262c2131,2024-08-17_09h02.37.976,WTP_SM_Choice,2022.2.1,MacIntel,60.97560976,,,,,space,0.6492,NAN,,NAN,1.09,4.91,,0,32,32,32,1,33,Charlie,Rej,Participant_Images/65d65821b5e4f4fb6de9076c/65d65821b5e4f4fb6de9076c_Images/65d65821b5e4f4fb6de9076c_Image_24.jpeg,liked,3.470791822,,,,,,,,,,,,,,,,,,,,,,
,,65d65821b5e4f4fb6de9076c,6685aa9113c938e83b4f1ea0,66c0ad49e50a233a262c2131,2024-08-17_09h02.37.976,WTP_SM_Choice,2022.2.1,MacIntel,60.97560976,,,,,space,0.7781,NAN,,NAN,1.09,4.91,,0,33,33,33,1,34,Charlie,Rej,Participant_Images/65d65821b5e4f4fb6de9076c/65d65821b5e4f4fb6de9076c_Images/65d65821b5e4f4fb6de9076c_Image_6.jpeg,did not like,3.820572462,,,,,,,,,,,,,,,,,,,,,,
,,65d65821b5e4f4fb6de9076c,6685aa9113c938e83b4f1ea0,66c0ad49e50a233a262c2131,2024-08-17_09h02.37.976,WTP_SM_Choice,2022.2.1,MacIntel,60.97560976,,,,,,,,,,,,,,,,,,31,,,,,,space,1.5866,space,0.8532,0.01,1,2.0665,0,0,0,0,1,Watching basketball games with my friends,Working from home to earn money,0.01,0.02,8.8,0,,,,
,,65d65821b5e4f4fb6de9076c,6685aa9113c938e83b4f1ea0,66c0ad49e50a233a262c2131,2024-08-17_09h02.37.976,WTP_SM_Choice,2022.2.1,MacIntel,60.97560976,,,,,,,,,,,,,,,,,,32,,,,,,,,,,0.02,2,1.7442,0,1,1,1,1,Playing games with my dad and little sister,Showering after a long hectic day,0.02,0.02,1.1,0,,,,
,,65d65821b5e4f4fb6de9076c,6685aa9113c938e83b4f1ea0,66c0ad49e50a233a262c2131,2024-08-17_09h02.37.976,WTP_SM_Choice,2022.2.1,MacIntel,60.97560976,,,,,,,,,,,,,,,,,,33,,,,,,,,,,0.02,2,1.2656,0,2,2,2,1,Walking around outside on campus,Taking my sister to get coffee,0.03,0.02,4.4,1,,,,
,,65d65821b5e4f4fb6de9076c,6685aa9113c938e83b4f1ea0,66c0ad49e50a233a262c2131,2024-08-17_09h02.37.976,WTP_SM_Choice,2022.2.1,MacIntel,60.97560976,,,,,,,,,,,,,,,,,,34,,,,,,,,,,0.02,2,1.6976,0,3,3,3,1,Talking about what is going on in our lives with my friends,Sewing new clothes to wear,0.04,0.02,3.3,0,,,,
,,65d65821b5e4f4fb6de9076c,6685aa9113c938e83b4f1ea0,66c0ad49e50a233a262c2131,2024-08-17_09h02.37.976,WTP_SM_Choice,2022.2.1,MacIntel,60.97560976,,,,,,,,,,,,,,,,,,35,,,,,,,,,,0.02,2,1.6075,0,4,4,4,1,Talking about what is going on in our lives with my friends,Working from home to earn money,0.05,0.02,1.1,0,,,,
,,65d65821b5e4f4fb6de9076c,6685aa9113c938e83b4f1ea0,66c0ad49e50a233a262c2131,2024-08-17_09h02.37.976,WTP_SM_Choice,2022.2.1,MacIntel,60.97560976,,,,,,,NAN,,NAN,1.18,4.82,,0,34,34,34,1,35,Charlie,Rej,Participant_Images/65d65821b5e4f4fb6de9076c/65d65821b5e4f4fb6de9076c_Images/65d65821b5e4f4fb6de9076c_Image_1.jpeg,did not like,2.455989137,,,,,,,,,,,,,,,,,,,,,,
,,65d65821b5e4f4fb6de9076c,6685aa9113c938e83b4f1ea0,66c0ad49e50a233a262c2131,2024-08-17_09h02.37.976,WTP_SM_Choice,2022.2.1,MacIntel,60.97560976,,,,,space,0.7702,NAN,,NAN,1.18,4.82,,0,35,35,35,1,36,Charlie,Rej,Participant_Images/65d65821b5e4f4fb6de9076c/65d65821b5e4f4fb6de9076c_Images/65d65821b5e4f4fb6de9076c_Image_12.jpeg,did not like,3.79605092,,,,,,,,,,,,,,,,,,,,,,
,,65d65821b5e4f4fb6de9076c,6685aa9113c938e83b4f1ea0,66c0ad49e50a233a262c2131,2024-08-17_09h02.37.976,WTP_SM_Choice,2022.2.1,MacIntel,60.97560976,,,,,space,0.8172,NAN,,NAN,1.18,4.82,,0,36,36,36,1,37,Charlie,Rej,Participant_Images/65d65821b5e4f4fb6de9076c/65d65821b5e4f4fb6de9076c_Images/65d65821b5e4f4fb6de9076c_Image_3.jpeg,liked,3.562416326,,,,,,,,,,,,,,,,,,,,,,
,,65d65821b5e4f4fb6de9076c,6685aa9113c938e83b4f1ea0,66c0ad49e50a233a262c2131,2024-08-17_09h02.37.976,WTP_SM_Choice,2022.2.1,MacIntel,60.97560976,,,,,space,0.6338,NAN,,NAN,1.18,4.82,,0,37,37,37,1,38,Charlie,Rej,Participant_Images/65d65821b5e4f4fb6de9076c/65d65821b5e4f4fb6de9076c_Images/65d65821b5e4f4fb6de9076c_Image_21.jpeg,did not like,2.843822497,,,,,,,,,,,,,,,,,,,,,,
,,65d65821b5e4f4fb6de9076c,6685aa9113c938e83b4f1ea0,66c0ad49e50a233a262c2131,2024-08-17_09h02.37.976,WTP_SM_Choice,2022.2.1,MacIntel,60.97560976,,,,,space,0.5007,NAN,,NAN,1.18,4.82,,0,38,38,38,1,39,Charlie,Rej,Participant_Images/65d65821b5e4f4fb6de9076c/65d65821b5e4f4fb6de9076c_Images/65d65821b5e4f4fb6de9076c_Image_25.jpeg,liked,3.546495948,,,,,,,,,,,,,,,,,,,,,,
,,65d65821b5e4f4fb6de9076c,6685aa9113c938e83b4f1ea0,66c0ad49e50a233a262c2131,2024-08-17_09h02.37.976,WTP_SM_Choice,2022.2.1,MacIntel,60.97560976,,,,,,,,,,,,,,,,,,36,,,,,,space,11.774,space,2.4837,0.01,1,1.1236,0,0,0,0,1,Shopping at the mall when I need something new to wear,Going to weekly trivia nights with my friends,0.01,0.03,3.3,1,,,,
,,65d65821b5e4f4fb6de9076c,6685aa9113c938e83b4f1ea0,66c0ad49e50a233a262c2131,2024-08-17_09h02.37.976,WTP_SM_Choice,2022.2.1,MacIntel,60.97560976,,,,,,,,,,,,,,,,,,37,,,,,,,,,,0.02,1,1.0308,0,1,1,1,1,Shopping at the mall when I need something new to wear,Walking around with my mom,0.02,0.03,1.1,1,,,,
,,65d65821b5e4f4fb6de9076c,6685aa9113c938e83b4f1ea0,66c0ad49e50a233a262c2131,2024-08-17_09h02.37.976,WTP_SM_Choice,2022.2.1,MacIntel,60.97560976,,,,,,,,,,,,,,,,,,38,,,,,,,,,,0.03,2,2.2544,0,2,2,2,1,Playing basketball with my friends during the summer,Walking around outside on campus,0.03,0.03,1.1,0,,,,
,,65d65821b5e4f4fb6de9076c,6685aa9113c938e83b4f1ea0,66c0ad49e50a233a262c2131,2024-08-17_09h02.37.976,WTP_SM_Choice,2022.2.1,MacIntel,60.97560976,,,,,,,,,,,,,,,,,,39,,,,,,,,,,0.03,2,1.3853,0,3,3,3,1,Organizing my room for a fresh start,Watching funny internet videos with my friends,0.04,0.03,3.3,1,,,,
,,65d65821b5e4f4fb6de9076c,6685aa9113c938e83b4f1ea0,66c0ad49e50a233a262c2131,2024-08-17_09h02.37.976,WTP_SM_Choice,2022.2.1,MacIntel,60.97560976,,,,,,,,,,,,,,,,,,40,,,,,,,,,,0.03,2,0.8971,0,4,4,4,1,Organizing my room for a fresh start,Walking around with my mom,0.05,0.03,4.4,1,,,,
,,65d65821b5e4f4fb6de9076c,6685aa9113c938e83b4f1ea0,66c0ad49e50a233a262c2131,2024-08-17_09h02.37.976,WTP_SM_Choice,2022.2.1,MacIntel,60.97560976,,,,,,,NAN,,NAN,1.3,4.7,,0,39,39,39,1,40,Charlie,Rej,Participant_Images/65d65821b5e4f4fb6de9076c/65d65821b5e4f4fb6de9076c_Images/65d65821b5e4f4fb6de9076c_Image_15.jpeg,did not like,1.672012706,,,,,,,,,,,,,,,,,,,,,,
,,65d65821b5e4f4fb6de9076c,6685aa9113c938e83b4f1ea0,66c0ad49e50a233a262c2131,2024-08-17_09h02.37.976,WTP_SM_Choice,2022.2.1,MacIntel,60.97560976,,,,,space,0.8025,NAN,,NAN,1.3,4.7,,0,40,40,40,1,41,Charlie,Rej,Participant_Images/65d65821b5e4f4fb6de9076c/65d65821b5e4f4fb6de9076c_Images/65d65821b5e4f4fb6de9076c_Image_20.jpeg,did not like,4.942172136,,,,,,,,,,,,,,,,,,,,,,
,,65d65821b5e4f4fb6de9076c,6685aa9113c938e83b4f1ea0,66c0ad49e50a233a262c2131,2024-08-17_09h02.37.976,WTP_SM_Choice,2022.2.1,MacIntel,60.97560976,,,,,space,0.7441,NAN,,NAN,1.3,4.7,,0,41,41,41,1,42,Charlie,Rej,Participant_Images/65d65821b5e4f4fb6de9076c/65d65821b5e4f4fb6de9076c_Images/65d65821b5e4f4fb6de9076c_Image_13.jpeg,liked,2.50187214,,,,,,,,,,,,,,,,,,,,,,
,,65d65821b5e4f4fb6de9076c,6685aa9113c938e83b4f1ea0,66c0ad49e50a233a262c2131,2024-08-17_09h02.37.976,WTP_SM_Choice,2022.2.1,MacIntel,60.97560976,,,,,space,0.4338,NAN,,NAN,1.3,4.7,,0,42,42,42,1,43,Charlie,Rej,Participant_Images/65d65821b5e4f4fb6de9076c/65d65821b5e4f4fb6de9076c_Images/65d65821b5e4f4fb6de9076c_Image_9.jpeg,did not like,2.071164779,,,,,,,,,,,,,,,,,,,,,,
,,65d65821b5e4f4fb6de9076c,6685aa9113c938e83b4f1ea0,66c0ad49e50a233a262c2131,2024-08-17_09h02.37.976,WTP_SM_Choice,2022.2.1,MacIntel,60.97560976,,,,,space,0.5174,NAN,,NAN,1.3,4.7,,0,43,43,43,1,44,Charlie,Rej,Participant_Images/65d65821b5e4f4fb6de9076c/65d65821b5e4f4fb6de9076c_Images/65d65821b5e4f4fb6de9076c_Image_14.jpeg,did not like,5.336503566,,,,,,,,,,,,,,,,,,,,,,
,,65d65821b5e4f4fb6de9076c,6685aa9113c938e83b4f1ea0,66c0ad49e50a233a262c2131,2024-08-17_09h02.37.976,WTP_SM_Choice,2022.2.1,MacIntel,60.97560976,,,,,,,,,,,,,,,,,,41,,,,,,space,1.0768,space,2.5354,0.01,1,0.8397,0,0,0,0,1,Playing basketball with my friends during the summer,Browsing the internet for furniture that I need,0.01,0.04,1.1,0,,,,
,,65d65821b5e4f4fb6de9076c,6685aa9113c938e83b4f1ea0,66c0ad49e50a233a262c2131,2024-08-17_09h02.37.976,WTP_SM_Choice,2022.2.1,MacIntel,60.97560976,,,,,,,,,,,,,,,,,,42,,,,,,,,,,0.02,1,1.6715,0,1,1,1,1,Working from home to earn money,Walking around with my mom,0.02,0.04,3.3,1,,,,
,,65d65821b5e4f4fb6de9076c,6685aa9113c938e83b4f1ea0,66c0ad49e50a233a262c2131,2024-08-17_09h02.37.976,WTP_SM_Choice,2022.2.1,MacIntel,60.97560976,,,,,,,,,,,,,,,,,,43,,,,,,,,,,0.03,1,1.4763,0,2,2,2,1,Organizing my room for a fresh start,Doing weekly line dancing at local bars,0.03,0.04,1.1,1,,,,
,,65d65821b5e4f4fb6de9076c,6685aa9113c938e83b4f1ea0,66c0ad49e50a233a262c2131,2024-08-17_09h02.37.976,WTP_SM_Choice,2022.2.1,MacIntel,60.97560976,,,,,,,,,,,,,,,,,,44,,,,,,,,,,0.04,1,2.2743,0,3,3,3,1,Walking around outside on campus,Doing weekly line dancing at local bars,0.04,0.04,1.1,1,,,,
,,65d65821b5e4f4fb6de9076c,6685aa9113c938e83b4f1ea0,66c0ad49e50a233a262c2131,2024-08-17_09h02.37.976,WTP_SM_Choice,2022.2.1,MacIntel,60.97560976,,,,,,,,,,,,,,,,,,45,,,,,,,,,,0.04,2,1.6077,0,4,4,4,1,Doing weekly line dancing at local bars,Showering after a long hectic day,0.05,0.04,4.4,0,,,,
,,65d65821b5e4f4fb6de9076c,6685aa9113c938e83b4f1ea0,66c0ad49e50a233a262c2131,2024-08-17_09h02.37.976,WTP_SM_Choice,2022.2.1,MacIntel,60.97560976,,,,,,,NAN,,NAN,1.44,4.56,,0,44,44,44,1,45,Charlie,Rej,Participant_Images/65d65821b5e4f4fb6de9076c/65d65821b5e4f4fb6de9076c_Images/65d65821b5e4f4fb6de9076c_Image_4.jpeg,liked,2.642157193,,,,,,,,,,,,,,,,,,,,,,
,,65d65821b5e4f4fb6de9076c,6685aa9113c938e83b4f1ea0,66c0ad49e50a233a262c2131,2024-08-17_09h02.37.976,WTP_SM_Choice,2022.2.1,MacIntel,60.97560976,,,,,space,1.0174,NAN,,NAN,1.44,4.56,,0,45,45,45,1,46,Charlie,Rej,Participant_Images/65d65821b5e4f4fb6de9076c/65d65821b5e4f4fb6de9076c_Images/65d65821b5e4f4fb6de9076c_Image_10.jpeg,liked,4.456234322,,,,,,,,,,,,,,,,,,,,,,
,,65d65821b5e4f4fb6de9076c,6685aa9113c938e83b4f1ea0,66c0ad49e50a233a262c2131,2024-08-17_09h02.37.976,WTP_SM_Choice,2022.2.1,MacIntel,60.97560976,,,,,space,0.7006,NAN,,NAN,1.44,4.56,,0,46,46,46,1,47,Charlie,Rej,Participant_Images/65d65821b5e4f4fb6de9076c/65d65821b5e4f4fb6de9076c_Images/65d65821b5e4f4fb6de9076c_Image_7.jpeg,did not like,4.438512181,,,,,,,,,,,,,,,,,,,,,,
,,65d65821b5e4f4fb6de9076c,6685aa9113c938e83b4f1ea0,66c0ad49e50a233a262c2131,2024-08-17_09h02.37.976,WTP_SM_Choice,2022.2.1,MacIntel,60.97560976,,,,,space,0.7994,NAN,,NAN,1.44,4.56,,0,47,47,47,1,48,Charlie,Rej,Participant_Images/65d65821b5e4f4fb6de9076c/65d65821b5e4f4fb6de9076c_Images/65d65821b5e4f4fb6de9076c_Image_19.jpeg,did not like,2.682944783,,,,,,,,,,,,,,,,,,,,,,
,,65d65821b5e4f4fb6de9076c,6685aa9113c938e83b4f1ea0,66c0ad49e50a233a262c2131,2024-08-17_09h02.37.976,WTP_SM_Choice,2022.2.1,MacIntel,60.97560976,,,,,space,0.6996,NAN,,NAN,1.44,4.56,,0,48,48,48,1,49,Charlie,Rej,Participant_Images/65d65821b5e4f4fb6de9076c/65d65821b5e4f4fb6de9076c_Images/65d65821b5e4f4fb6de9076c_Image_11.jpeg,did not like,4.51984296,,,,,,,,,,,,,,,,,,,,,,
,,65d65821b5e4f4fb6de9076c,6685aa9113c938e83b4f1ea0,66c0ad49e50a233a262c2131,2024-08-17_09h02.37.976,WTP_SM_Choice,2022.2.1,MacIntel,60.97560976,,,,,,,,,,,,,,,,,,46,,,,,,space,0.7516,space,0.4336,0.01,1,1.0379,0,0,0,0,1,Working from home to earn money,Going to weekly trivia nights with my friends,0.01,0.05,8.8,1,,,,
,,65d65821b5e4f4fb6de9076c,6685aa9113c938e83b4f1ea0,66c0ad49e50a233a262c2131,2024-08-17_09h02.37.976,WTP_SM_Choice,2022.2.1,MacIntel,60.97560976,,,,,,,,,,,,,,,,,,47,,,,,,,,,,0.02,1,1.282,0,1,1,1,1,Doing weekly line dancing at local bars,Sewing new clothes to wear,0.02,0.05,1.1,0,,,,
,,65d65821b5e4f4fb6de9076c,6685aa9113c938e83b4f1ea0,66c0ad49e50a233a262c2131,2024-08-17_09h02.37.976,WTP_SM_Choice,2022.2.1,MacIntel,60.97560976,,,,,,,,,,,,,,,,,,48,,,,,,,,,,0.03,1,1.2034,0,2,2,2,1,Walking around outside on campus,Talking about what is going on in our lives with my friends,0.03,0.05,4.4,1,,,,
,,65d65821b5e4f4fb6de9076c,6685aa9113c938e83b4f1ea0,66c0ad49e50a233a262c2131,2024-08-17_09h02.37.976,WTP_SM_Choice,2022.2.1,MacIntel,60.97560976,,,,,,,,,,,,,,,,,,49,,,,,,,,,,0.04,1,1.314,0,3,3,3,1,Going to weekly trivia nights with my friends,Showering after a long hectic day,0.04,0.05,3.3,0,,,,
,,65d65821b5e4f4fb6de9076c,6685aa9113c938e83b4f1ea0,66c0ad49e50a233a262c2131,2024-08-17_09h02.37.976,WTP_SM_Choice,2022.2.1,MacIntel,60.97560976,,,,,,,,,,,,,,,,,,50,,,,,,,,,,0.05,2,1.4293,0,4,4,4,1,Watching a new show in my room at night,Going to weekly trivia nights with my friends,0.05,0.05,1.1,1,,,,
,,65d65821b5e4f4fb6de9076c,6685aa9113c938e83b4f1ea0,66c0ad49e50a233a262c2131,2024-08-17_09h02.37.976,WTP_SM_Choice,2022.2.1,MacIntel,60.97560976,,,,,,,2,,2,1.59,4.41,,0,49,49,49,1,50,Charlie,Rej,Participant_Images/65d65821b5e4f4fb6de9076c/65d65821b5e4f4fb6de9076c_Images/65d65821b5e4f4fb6de9076c_Image_2.jpeg,did not like,3.195382774,,,,,,,,,,,,,,,,,,,space,2.8227,,
,,65d65821b5e4f4fb6de9076c,6685aa9113c938e83b4f1ea0,66c0ad49e50a233a262c2131,2024-08-17_09h02.37.976,WTP_SM_Choice,2022.2.1,MacIntel,60.97560976,,,space,0.8918,space,1.2659,NAN,,NAN,1.59,4.41,,0,50,50,50,1,51,Riley,Acc,Participant_Images/65d65821b5e4f4fb6de9076c/65d65821b5e4f4fb6de9076c_Images/65d65821b5e4f4fb6de9076c_Image_20.jpeg,liked,1.779333479,,,,,,,,,,,,,,,,,,,,,,
,,65d65821b5e4f4fb6de9076c,6685aa9113c938e83b4f1ea0,66c0ad49e50a233a262c2131,2024-08-17_09h02.37.976,WTP_SM_Choice,2022.2.1,MacIntel,60.97560976,,,,,space,1.1345,NAN,,NAN,1.59,4.41,,0,51,51,51,1,52,Riley,Acc,Participant_Images/65d65821b5e4f4fb6de9076c/65d65821b5e4f4fb6de9076c_Images/65d65821b5e4f4fb6de9076c_Image_7.jpeg,did not like,4.312468682,,,,,,,,,,,,,,,,,,,,,,
,,65d65821b5e4f4fb6de9076c,6685aa9113c938e83b4f1ea0,66c0ad49e50a233a262c2131,2024-08-17_09h02.37.976,WTP_SM_Choice,2022.2.1,MacIntel,60.97560976,,,,,space,0.4507,NAN,,NAN,1.59,4.41,,0,52,52,52,1,53,Riley,Acc,Participant_Images/65d65821b5e4f4fb6de9076c/65d65821b5e4f4fb6de9076c_Images/65d65821b5e4f4fb6de9076c_Image_25.jpeg,liked,4.940433059,,,,,,,,,,,,,,,,,,,,,,
,,65d65821b5e4f4fb6de9076c,6685aa9113c938e83b4f1ea0,66c0ad49e50a233a262c2131,2024-08-17_09h02.37.976,WTP_SM_Choice,2022.2.1,MacIntel,60.97560976,,,,,space,0.7448,NAN,,NAN,1.59,4.41,,0,53,53,53,1,54,Riley,Acc,Participant_Images/65d65821b5e4f4fb6de9076c/65d65821b5e4f4fb6de9076c_Images/65d65821b5e4f4fb6de9076c_Image_22.jpeg,did not like,2.7105123,,,,,,,,,,,,,,,,,,,,,,
,,65d65821b5e4f4fb6de9076c,6685aa9113c938e83b4f1ea0,66c0ad49e50a233a262c2131,2024-08-17_09h02.37.976,WTP_SM_Choice,2022.2.1,MacIntel,60.97560976,,,,,,,,,,,,,,,,,,51,,,,,,space,0.5449,space,0.4412,0.01,1,0.9148,0,0,0,0,1,Going to weekly trivia nights with my friends,Organizing my room for a fresh start,0.01,0.01,1.1,0,,,,
,,65d65821b5e4f4fb6de9076c,6685aa9113c938e83b4f1ea0,66c0ad49e50a233a262c2131,2024-08-17_09h02.37.976,WTP_SM_Choice,2022.2.1,MacIntel,60.97560976,,,,,,,,,,,,,,,,,,52,,,,,,,,,,0.01,2,3.5741,0,1,1,1,1,Organizing my room for a fresh start,Playing basketball with my friends during the summer,0.02,0.01,3.3,1,,,,
,,65d65821b5e4f4fb6de9076c,6685aa9113c938e83b4f1ea0,66c0ad49e50a233a262c2131,2024-08-17_09h02.37.976,WTP_SM_Choice,2022.2.1,MacIntel,60.97560976,,,,,,,,,,,,,,,,,,53,,,,,,,,,,0.01,2,0.9535,0,2,2,2,1,Watching basketball games with my friends,Shopping at the mall when I need something new to wear,0.03,0.01,1.1,0,,,,
,,65d65821b5e4f4fb6de9076c,6685aa9113c938e83b4f1ea0,66c0ad49e50a233a262c2131,2024-08-17_09h02.37.976,WTP_SM_Choice,2022.2.1,MacIntel,60.97560976,,,,,,,,,,,,,,,,,,54,,,,,,,,,,0.01,2,4.8538,0,3,3,3,1,Going out to the bars with my friends on the weekend,Exercising at the gym in the morning,0.04,0.01,4.4,0,,,,
,,65d65821b5e4f4fb6de9076c,6685aa9113c938e83b4f1ea0,66c0ad49e50a233a262c2131,2024-08-17_09h02.37.976,WTP_SM_Choice,2022.2.1,MacIntel,60.97560976,,,,,,,,,,,,,,,,,,55,,,,,,,,,,0.01,2,0.8332,0,4,4,4,1,Going out to the bars with my friends on the weekend,Organizing my room for a fresh start,0.05,0.01,1.1,0,,,,
,,65d65821b5e4f4fb6de9076c,6685aa9113c938e83b4f1ea0,66c0ad49e50a233a262c2131,2024-08-17_09h02.37.976,WTP_SM_Choice,2022.2.1,MacIntel,60.97560976,,,,,,,NAN,,NAN,1.64,4.36,,0,54,54,54,1,55,Riley,Acc,Participant_Images/65d65821b5e4f4fb6de9076c/65d65821b5e4f4fb6de9076c_Images/65d65821b5e4f4fb6de9076c_Image_17.jpeg,liked,3.602308302,,,,,,,,,,,,,,,,,,,,,,
,,65d65821b5e4f4fb6de9076c,6685aa9113c938e83b4f1ea0,66c0ad49e50a233a262c2131,2024-08-17_09h02.37.976,WTP_SM_Choice,2022.2.1,MacIntel,60.97560976,,,,,space,0.6837,NAN,,NAN,1.64,4.36,,0,55,55,55,1,56,Riley,Acc,Participant_Images/65d65821b5e4f4fb6de9076c/65d65821b5e4f4fb6de9076c_Images/65d65821b5e4f4fb6de9076c_Image_1.jpeg,liked,4.106391878,,,,,,,,,,,,,,,,,,,,,,
,,65d65821b5e4f4fb6de9076c,6685aa9113c938e83b4f1ea0,66c0ad49e50a233a262c2131,2024-08-17_09h02.37.976,WTP_SM_Choice,2022.2.1,MacIntel,60.97560976,,,,,space,0.8327,NAN,,NAN,1.64,4.36,,0,56,56,56,1,57,Riley,Acc,Participant_Images/65d65821b5e4f4fb6de9076c/65d65821b5e4f4fb6de9076c_Images/65d65821b5e4f4fb6de9076c_Image_3.jpeg,liked,3.799433026,,,,,,,,,,,,,,,,,,,,,,
,,65d65821b5e4f4fb6de9076c,6685aa9113c938e83b4f1ea0,66c0ad49e50a233a262c2131,2024-08-17_09h02.37.976,WTP_SM_Choice,2022.2.1,MacIntel,60.97560976,,,,,space,1.133,NAN,,NAN,1.64,4.36,,0,57,57,57,1,58,Riley,Acc,Participant_Images/65d65821b5e4f4fb6de9076c/65d65821b5e4f4fb6de9076c_Images/65d65821b5e4f4fb6de9076c_Image_14.jpeg,did not like,5.246980764,,,,,,,,,,,,,,,,,,,,,,
,,65d65821b5e4f4fb6de9076c,6685aa9113c938e83b4f1ea0,66c0ad49e50a233a262c2131,2024-08-17_09h02.37.976,WTP_SM_Choice,2022.2.1,MacIntel,60.97560976,,,,,space,1.3019,NAN,,NAN,1.64,4.36,,0,58,58,58,1,59,Riley,Acc,Participant_Images/65d65821b5e4f4fb6de9076c/65d65821b5e4f4fb6de9076c_Images/65d65821b5e4f4fb6de9076c_Image_15.jpeg,liked,3.30081769,,,,,,,,,,,,,,,,,,,,,,
,,65d65821b5e4f4fb6de9076c,6685aa9113c938e83b4f1ea0,66c0ad49e50a233a262c2131,2024-08-17_09h02.37.976,WTP_SM_Choice,2022.2.1,MacIntel,60.97560976,,,,,,,,,,,,,,,,,,56,,,,,,space,1.15,space,1.4605,0.01,1,2.0602,0,0,0,0,1,Going out to the bars with my friends on the weekend,Walking around outside on campus,0.01,0.02,8.8,0,,,,
,,65d65821b5e4f4fb6de9076c,6685aa9113c938e83b4f1ea0,66c0ad49e50a233a262c2131,2024-08-17_09h02.37.976,WTP_SM_Choice,2022.2.1,MacIntel,60.97560976,,,,,,,,,,,,,,,,,,57,,,,,,,,,,0.02,1,1.196,0,1,1,1,1,Going out to the bars with my friends on the weekend,Learning how to do a new craft so I feel productive,0.02,0.02,4.4,0,,,,
,,65d65821b5e4f4fb6de9076c,6685aa9113c938e83b4f1ea0,66c0ad49e50a233a262c2131,2024-08-17_09h02.37.976,WTP_SM_Choice,2022.2.1,MacIntel,60.97560976,,,,,,,,,,,,,,,,,,58,,,,,,,,,,0.03,1,0.9126,0,2,2,2,1,Showering after a long hectic day,Watching basketball games with my friends,0.03,0.02,4.4,1,,,,
,,65d65821b5e4f4fb6de9076c,6685aa9113c938e83b4f1ea0,66c0ad49e50a233a262c2131,2024-08-17_09h02.37.976,WTP_SM_Choice,2022.2.1,MacIntel,60.97560976,,,,,,,,,,,,,,,,,,59,,,,,,,,,,,,,0,3,3,3,1,Playing basketball with my friends during the summer,Exercising at the gym in the morning,0.04,0.02,4.4,0,,,,
,,65d65821b5e4f4fb6de9076c,6685aa9113c938e83b4f1ea0,66c0ad49e50a233a262c2131,2024-08-17_09h02.37.976,WTP_SM_Choice,2022.2.1,MacIntel,60.97560976,,,,,,,,,,,,,,,,,,60,,,,,,,,,,0.05,1,1.8637,0,4,4,4,1,Doing weekly line dancing at local bars,Exercising at the gym in the morning,0.05,0.02,1.1,0,,,,
,,65d65821b5e4f4fb6de9076c,6685aa9113c938e83b4f1ea0,66c0ad49e50a233a262c2131,2024-08-17_09h02.37.976,WTP_SM_Choice,2022.2.1,MacIntel,60.97560976,,,,,,,NAN,,NAN,1.75,4.25,,0,59,59,59,1,60,Riley,Acc,Participant_Images/65d65821b5e4f4fb6de9076c/65d65821b5e4f4fb6de9076c_Images/65d65821b5e4f4fb6de9076c_Image_16.jpeg,liked,1.661473164,,,,,,,,,,,,,,,,,,,,,,
,,65d65821b5e4f4fb6de9076c,6685aa9113c938e83b4f1ea0,66c0ad49e50a233a262c2131,2024-08-17_09h02.37.976,WTP_SM_Choice,2022.2.1,MacIntel,60.97560976,,,,,space,1.0823,NAN,,NAN,1.75,4.25,,0,60,60,60,1,61,Riley,Acc,Participant_Images/65d65821b5e4f4fb6de9076c/65d65821b5e4f4fb6de9076c_Images/65d65821b5e4f4fb6de9076c_Image_4.jpeg,liked,3.613205605,,,,,,,,,,,,,,,,,,,,,,
,,65d65821b5e4f4fb6de9076c,6685aa9113c938e83b4f1ea0,66c0ad49e50a233a262c2131,2024-08-17_09h02.37.976,WTP_SM_Choice,2022.2.1,MacIntel,60.97560976,,,,,space,10.7676,NAN,,NAN,1.75,4.25,,0,61,61,61,1,62,Riley,Acc,Participant_Images/65d65821b5e4f4fb6de9076c/65d65821b5e4f4fb6de9076c_Images/65d65821b5e4f4fb6de9076c_Image_10.jpeg,liked,4.988446431,,,,,,,,,,,,,,,,,,,,,,
,,65d65821b5e4f4fb6de9076c,6685aa9113c938e83b4f1ea0,66c0ad49e50a233a262c2131,2024-08-17_09h02.37.976,WTP_SM_Choice,2022.2.1,MacIntel,60.97560976,,,,,space,0.6841,NAN,,NAN,1.75,4.25,,0,62,62,62,1,63,Riley,Acc,Participant_Images/65d65821b5e4f4fb6de9076c/65d65821b5e4f4fb6de9076c_Images/65d65821b5e4f4fb6de9076c_Image_9.jpeg,liked,3.470791822,,,,,,,,,,,,,,,,,,,,,,
,,65d65821b5e4f4fb6de9076c,6685aa9113c938e83b4f1ea0,66c0ad49e50a233a262c2131,2024-08-17_09h02.37.976,WTP_SM_Choice,2022.2.1,MacIntel,60.97560976,,,,,space,1.6661,NAN,,NAN,1.75,4.25,,0,63,63,63,1,64,Riley,Acc,Participant_Images/65d65821b5e4f4fb6de9076c/65d65821b5e4f4fb6de9076c_Images/65d65821b5e4f4fb6de9076c_Image_19.jpeg,liked,3.820572462,,,,,,,,,,,,,,,,,,,,,,
,,65d65821b5e4f4fb6de9076c,6685aa9113c938e83b4f1ea0,66c0ad49e50a233a262c2131,2024-08-17_09h02.37.976,WTP_SM_Choice,2022.2.1,MacIntel,60.97560976,,,,,,,,,,,,,,,,,,61,,,,,,space,0.5634,space,0.4492,0.01,1,1.317,0,0,0,0,1,Shopping at the mall when I need something new to wear,Talking about what is going on in our lives with my friends,0.01,0.03,3.3,1,,,,
,,65d65821b5e4f4fb6de9076c,6685aa9113c938e83b4f1ea0,66c0ad49e50a233a262c2131,2024-08-17_09h02.37.976,WTP_SM_Choice,2022.2.1,MacIntel,60.97560976,,,,,,,,,,,,,,,,,,62,,,,,,,,,,0.02,1,0.9463,0,1,1,1,1,Browsing the internet for furniture that I need,Playing games with my dad and little sister,0.02,0.03,3.3,1,,,,
,,65d65821b5e4f4fb6de9076c,6685aa9113c938e83b4f1ea0,66c0ad49e50a233a262c2131,2024-08-17_09h02.37.976,WTP_SM_Choice,2022.2.1,MacIntel,60.97560976,,,,,,,,,,,,,,,,,,63,,,,,,,,,,0.03,1,1.8179,0,2,2,2,1,Working from home to earn money,Taking my sister to get coffee,0.03,0.03,3.3,1,,,,
,,65d65821b5e4f4fb6de9076c,6685aa9113c938e83b4f1ea0,66c0ad49e50a233a262c2131,2024-08-17_09h02.37.976,WTP_SM_Choice,2022.2.1,MacIntel,60.97560976,,,,,,,,,,,,,,,,,,64,,,,,,,,,,0.03,2,0.755,0,3,3,3,1,Playing basketball with my friends during the summer,Working from home to earn money,0.04,0.03,1.1,0,,,,
,,65d65821b5e4f4fb6de9076c,6685aa9113c938e83b4f1ea0,66c0ad49e50a233a262c2131,2024-08-17_09h02.37.976,WTP_SM_Choice,2022.2.1,MacIntel,60.97560976,,,,,,,,,,,,,,,,,,65,,,,,,,,,,0.03,2,0.954,0,4,4,4,1,Talking about what is going on in our lives with my friends,Showering after a long hectic day,0.05,0.03,1.1,0,,,,
,,65d65821b5e4f4fb6de9076c,6685aa9113c938e83b4f1ea0,66c0ad49e50a233a262c2131,2024-08-17_09h02.37.976,WTP_SM_Choice,2022.2.1,MacIntel,60.97560976,,,,,,,NAN,,NAN,1.87,4.13,,0,64,64,64,1,65,Riley,Acc,Participant_Images/65d65821b5e4f4fb6de9076c/65d65821b5e4f4fb6de9076c_Images/65d65821b5e4f4fb6de9076c_Image_23.jpeg,liked,2.455989137,,,,,,,,,,,,,,,,,,,,,,
,,65d65821b5e4f4fb6de9076c,6685aa9113c938e83b4f1ea0,66c0ad49e50a233a262c2131,2024-08-17_09h02.37.976,WTP_SM_Choice,2022.2.1,MacIntel,60.97560976,,,,,space,0.5525,NAN,,NAN,1.87,4.13,,0,65,65,65,1,66,Riley,Acc,Participant_Images/65d65821b5e4f4fb6de9076c/65d65821b5e4f4fb6de9076c_Images/65d65821b5e4f4fb6de9076c_Image_2.jpeg,did not like,3.79605092,,,,,,,,,,,,,,,,,,,,,,
,,65d65821b5e4f4fb6de9076c,6685aa9113c938e83b4f1ea0,66c0ad49e50a233a262c2131,2024-08-17_09h02.37.976,WTP_SM_Choice,2022.2.1,MacIntel,60.97560976,,,,,space,1.5174,NAN,,NAN,1.87,4.13,,0,66,66,66,1,67,Riley,Acc,Participant_Images/65d65821b5e4f4fb6de9076c/65d65821b5e4f4fb6de9076c_Images/65d65821b5e4f4fb6de9076c_Image_18.jpeg,liked,3.562416326,,,,,,,,,,,,,,,,,,,,,,
,,65d65821b5e4f4fb6de9076c,6685aa9113c938e83b4f1ea0,66c0ad49e50a233a262c2131,2024-08-17_09h02.37.976,WTP_SM_Choice,2022.2.1,MacIntel,60.97560976,,,,,space,0.8001,NAN,,NAN,1.87,4.13,,0,67,67,67,1,68,Riley,Acc,Participant_Images/65d65821b5e4f4fb6de9076c/65d65821b5e4f4fb6de9076c_Images/65d65821b5e4f4fb6de9076c_Image_12.jpeg,did not like,2.843822497,,,,,,,,,,,,,,,,,,,,,,
,,65d65821b5e4f4fb6de9076c,6685aa9113c938e83b4f1ea0,66c0ad49e50a233a262c2131,2024-08-17_09h02.37.976,WTP_SM_Choice,2022.2.1,MacIntel,60.97560976,,,,,space,1.0363,NAN,,NAN,1.87,4.13,,0,68,68,68,1,69,Riley,Acc,Participant_Images/65d65821b5e4f4fb6de9076c/65d65821b5e4f4fb6de9076c_Images/65d65821b5e4f4fb6de9076c_Image_24.jpeg,liked,3.546495948,,,,,,,,,,,,,,,,,,,,,,
,,65d65821b5e4f4fb6de9076c,6685aa9113c938e83b4f1ea0,66c0ad49e50a233a262c2131,2024-08-17_09h02.37.976,WTP_SM_Choice,2022.2.1,MacIntel,60.97560976,,,,,,,,,,,,,,,,,,66,,,,,,space,0.6648,space,0.5679,0.01,1,0.985,0,0,0,0,1,Playing games with my dad and little sister,Watching a new show in my room at night,0.01,0.04,1.1,0,,,,
,,65d65821b5e4f4fb6de9076c,6685aa9113c938e83b4f1ea0,66c0ad49e50a233a262c2131,2024-08-17_09h02.37.976,WTP_SM_Choice,2022.2.1,MacIntel,60.97560976,,,,,,,,,,,,,,,,,,67,,,,,,,,,,0.02,1,1.4212,0,1,1,1,1,Watching basketball games with my friends,Organizing my room for a fresh start,0.02,0.04,8.8,0,,,,
,,65d65821b5e4f4fb6de9076c,6685aa9113c938e83b4f1ea0,66c0ad49e50a233a262c2131,2024-08-17_09h02.37.976,WTP_SM_Choice,2022.2.1,MacIntel,60.97560976,,,,,,,,,,,,,,,,,,68,,,,,,,,,,0.03,1,0.9535,0,2,2,2,1,Walking around with my mom,Learning how to do a new craft so I feel productive,0.03,0.04,4.4,0,,,,
,,65d65821b5e4f4fb6de9076c,6685aa9113c938e83b4f1ea0,66c0ad49e50a233a262c2131,2024-08-17_09h02.37.976,WTP_SM_Choice,2022.2.1,MacIntel,60.97560976,,,,,,,,,,,,,,,,,,69,,,,,,,,,,0.04,2,1.2462,0,3,3,3,1,Playing games with my dad and little sister,Working from home to earn money,0.04,0.04,1.1,0,,,,
,,65d65821b5e4f4fb6de9076c,6685aa9113c938e83b4f1ea0,66c0ad49e50a233a262c2131,2024-08-17_09h02.37.976,WTP_SM_Choice,2022.2.1,MacIntel,60.97560976,,,,,,,,,,,,,,,,,,70,,,,,,,,,,0.04,2,1.1511,0,4,4,4,1,Watching funny internet videos with my friends,Walking around outside on campus,0.05,0.04,1.1,0,,,,
,,65d65821b5e4f4fb6de9076c,6685aa9113c938e83b4f1ea0,66c0ad49e50a233a262c2131,2024-08-17_09h02.37.976,WTP_SM_Choice,2022.2.1,MacIntel,60.97560976,,,,,,,NAN,,NAN,2.01,3.99,,0,69,69,69,1,70,Riley,Acc,Participant_Images/65d65821b5e4f4fb6de9076c/65d65821b5e4f4fb6de9076c_Images/65d65821b5e4f4fb6de9076c_Image_21.jpeg,liked,1.672012706,,,,,,,,,,,,,,,,,,,,,,
,,65d65821b5e4f4fb6de9076c,6685aa9113c938e83b4f1ea0,66c0ad49e50a233a262c2131,2024-08-17_09h02.37.976,WTP_SM_Choice,2022.2.1,MacIntel,60.97560976,,,,,space,1.0177,NAN,,NAN,2.01,3.99,,0,70,70,70,1,71,Riley,Acc,Participant_Images/65d65821b5e4f4fb6de9076c/65d65821b5e4f4fb6de9076c_Images/65d65821b5e4f4fb6de9076c_Image_13.jpeg,liked,4.942172136,,,,,,,,,,,,,,,,,,,,,,
,,65d65821b5e4f4fb6de9076c,6685aa9113c938e83b4f1ea0,66c0ad49e50a233a262c2131,2024-08-17_09h02.37.976,WTP_SM_Choice,2022.2.1,MacIntel,60.97560976,,,,,space,0.6673,NAN,,NAN,2.01,3.99,,0,71,71,71,1,72,Riley,Acc,Participant_Images/65d65821b5e4f4fb6de9076c/65d65821b5e4f4fb6de9076c_Images/65d65821b5e4f4fb6de9076c_Image_6.jpeg,liked,2.50187214,,,,,,,,,,,,,,,,,,,,,,
,,65d65821b5e4f4fb6de9076c,6685aa9113c938e83b4f1ea0,66c0ad49e50a233a262c2131,2024-08-17_09h02.37.976,WTP_SM_Choice,2022.2.1,MacIntel,60.97560976,,,,,space,0.9839,NAN,,NAN,2.01,3.99,,0,72,72,72,1,73,Riley,Acc,Participant_Images/65d65821b5e4f4fb6de9076c/65d65821b5e4f4fb6de9076c_Images/65d65821b5e4f4fb6de9076c_Image_8.jpeg,liked,2.071164779,,,,,,,,,,,,,,,,,,,,,,
,,65d65821b5e4f4fb6de9076c,6685aa9113c938e83b4f1ea0,66c0ad49e50a233a262c2131,2024-08-17_09h02.37.976,WTP_SM_Choice,2022.2.1,MacIntel,60.97560976,,,,,space,0.6369,NAN,,NAN,2.01,3.99,,0,73,73,73,1,74,Riley,Acc,Participant_Images/65d65821b5e4f4fb6de9076c/65d65821b5e4f4fb6de9076c_Images/65d65821b5e4f4fb6de9076c_Image_11.jpeg,did not like,5.336503566,,,,,,,,,,,,,,,,,,,,,,
,,65d65821b5e4f4fb6de9076c,6685aa9113c938e83b4f1ea0,66c0ad49e50a233a262c2131,2024-08-17_09h02.37.976,WTP_SM_Choice,2022.2.1,MacIntel,60.97560976,,,,,,,,,,,,,,,,,,71,,,,,,space,0.4667,space,0.3944,0.01,1,0.9177,0,0,0,0,1,Taking my sister to get coffee,Browsing the internet for furniture that I need,0.01,0.05,3.3,0,,,,
,,65d65821b5e4f4fb6de9076c,6685aa9113c938e83b4f1ea0,66c0ad49e50a233a262c2131,2024-08-17_09h02.37.976,WTP_SM_Choice,2022.2.1,MacIntel,60.97560976,,,,,,,,,,,,,,,,,,72,,,,,,,,,,0.02,1,1.2766,0,1,1,1,1,Watching funny internet videos with my friends,Exercising at the gym in the morning,0.02,0.05,8.8,0,,,,
,,65d65821b5e4f4fb6de9076c,6685aa9113c938e83b4f1ea0,66c0ad49e50a233a262c2131,2024-08-17_09h02.37.976,WTP_SM_Choice,2022.2.1,MacIntel,60.97560976,,,,,,,,,,,,,,,,,,73,,,,,,,,,,0.03,1,0.862,0,2,2,2,1,Shopping at the mall when I need something new to wear,Going out to the bars with my friends on the weekend,0.03,0.05,3.3,1,,,,
,,65d65821b5e4f4fb6de9076c,6685aa9113c938e83b4f1ea0,66c0ad49e50a233a262c2131,2024-08-17_09h02.37.976,WTP_SM_Choice,2022.2.1,MacIntel,60.97560976,,,,,,,,,,,,,,,,,,74,,,,,,,,,,0.04,1,1.2451,0,3,3,3,1,Watching basketball games with my friends,Walking around outside on campus,0.04,0.05,4.4,0,,,,
,,65d65821b5e4f4fb6de9076c,6685aa9113c938e83b4f1ea0,66c0ad49e50a233a262c2131,2024-08-17_09h02.37.976,WTP_SM_Choice,2022.2.1,MacIntel,60.97560976,,,,,,,,,,,,,,,,,,75,,,,,,,,,,0.05,1,0.8795,0,4,4,4,1,Going to weekly trivia nights with my friends,Exercising at the gym in the morning,0.05,0.05,3.3,0,,,,
,,65d65821b5e4f4fb6de9076c,6685aa9113c938e83b4f1ea0,66c0ad49e50a233a262c2131,2024-08-17_09h02.37.976,WTP_SM_Choice,2022.2.1,MacIntel,60.97560976,,,,,,,2,,2,2.16,3.84,,0,74,74,74,1,75,Riley,Acc,Participant_Images/65d65821b5e4f4fb6de9076c/65d65821b5e4f4fb6de9076c_Images/65d65821b5e4f4fb6de9076c_Image_5.jpeg,did not like,2.642157193,,,,,,,,,,,,,,,,,,,space,0.5965,,
,,65d65821b5e4f4fb6de9076c,6685aa9113c938e83b4f1ea0,66c0ad49e50a233a262c2131,2024-08-17_09h02.37.976,WTP_SM_Choice,2022.2.1,MacIntel,60.97560976,,,space,1.0426,space,2.7583,NAN,,NAN,2.16,3.84,,0,75,75,75,1,76,Alex,Rej,Participant_Images/65d65821b5e4f4fb6de9076c/65d65821b5e4f4fb6de9076c_Images/65d65821b5e4f4fb6de9076c_Image_25.jpeg,liked,4.456234322,,,,,,,,,,,,,,,,,,,,,,
,,65d65821b5e4f4fb6de9076c,6685aa9113c938e83b4f1ea0,66c0ad49e50a233a262c2131,2024-08-17_09h02.37.976,WTP_SM_Choice,2022.2.1,MacIntel,60.97560976,,,,,space,0.9661,NAN,,NAN,2.16,3.84,,0,76,76,76,1,77,Alex,Rej,Participant_Images/65d65821b5e4f4fb6de9076c/65d65821b5e4f4fb6de9076c_Images/65d65821b5e4f4fb6de9076c_Image_23.jpeg,liked,4.438512181,,,,,,,,,,,,,,,,,,,,,,
,,65d65821b5e4f4fb6de9076c,6685aa9113c938e83b4f1ea0,66c0ad49e50a233a262c2131,2024-08-17_09h02.37.976,WTP_SM_Choice,2022.2.1,MacIntel,60.97560976,,,,,space,0.9671,NAN,,NAN,2.16,3.84,,0,77,77,77,1,78,Alex,Rej,Participant_Images/65d65821b5e4f4fb6de9076c/65d65821b5e4f4fb6de9076c_Images/65d65821b5e4f4fb6de9076c_Image_3.jpeg,did not like,2.682944783,,,,,,,,,,,,,,,,,,,,,,
,,65d65821b5e4f4fb6de9076c,6685aa9113c938e83b4f1ea0,66c0ad49e50a233a262c2131,2024-08-17_09h02.37.976,WTP_SM_Choice,2022.2.1,MacIntel,60.97560976,,,,,space,2.383,NAN,,NAN,2.16,3.84,,0,78,78,78,1,79,Alex,Rej,Participant_Images/65d65821b5e4f4fb6de9076c/65d65821b5e4f4fb6de9076c_Images/65d65821b5e4f4fb6de9076c_Image_4.jpeg,did not like,4.51984296,,,,,,,,,,,,,,,,,,,,,,
,,65d65821b5e4f4fb6de9076c,6685aa9113c938e83b4f1ea0,66c0ad49e50a233a262c2131,2024-08-17_09h02.37.976,WTP_SM_Choice,2022.2.1,MacIntel,60.97560976,,,,,,,,,,,,,,,,,,76,,,,,,space,1.1822,space,0.5326,0.01,1,0.8369,0,0,0,0,1,Sewing new clothes to wear,Walking around with my mom,0.01,0.01,1.1,1,,,,
,,65d65821b5e4f4fb6de9076c,6685aa9113c938e83b4f1ea0,66c0ad49e50a233a262c2131,2024-08-17_09h02.37.976,WTP_SM_Choice,2022.2.1,MacIntel,60.97560976,,,,,,,,,,,,,,,,,,77,,,,,,,,,,0.01,2,0.8527,0,1,1,1,1,Going out to the bars with my friends on the weekend,Working from home to earn money,0.02,0.01,8.8,0,,,,
,,65d65821b5e4f4fb6de9076c,6685aa9113c938e83b4f1ea0,66c0ad49e50a233a262c2131,2024-08-17_09h02.37.976,WTP_SM_Choice,2022.2.1,MacIntel,60.97560976,,,,,,,,,,,,,,,,,,78,,,,,,,,,,0.01,2,0.629,0,2,2,2,1,Taking my sister to get coffee,Learning how to do a new craft so I feel productive,0.03,0.01,1.1,0,,,,
,,65d65821b5e4f4fb6de9076c,6685aa9113c938e83b4f1ea0,66c0ad49e50a233a262c2131,2024-08-17_09h02.37.976,WTP_SM_Choice,2022.2.1,MacIntel,60.97560976,,,,,,,,,,,,,,,,,,79,,,,,,,,,,0.01,2,0.7718,0,3,3,3,1,Shopping at the mall when I need something new to wear,Taking my sister to get coffee,0.04,0.01,1.1,1,,,,
,,65d65821b5e4f4fb6de9076c,6685aa9113c938e83b4f1ea0,66c0ad49e50a233a262c2131,2024-08-17_09h02.37.976,WTP_SM_Choice,2022.2.1,MacIntel,60.97560976,,,,,,,,,,,,,,,,,,80,,,,,,,,,,0.01,2,0.7715,0,4,4,4,1,Watching a new show in my room at night,Watching funny internet videos with my friends,0.05,0.01,4.4,1,,,,
,,65d65821b5e4f4fb6de9076c,6685aa9113c938e83b4f1ea0,66c0ad49e50a233a262c2131,2024-08-17_09h02.37.976,WTP_SM_Choice,2022.2.1,MacIntel,60.97560976,,,,,,,NAN,,NAN,2.21,3.79,,0,79,79,79,1,80,Alex,Rej,Participant_Images/65d65821b5e4f4fb6de9076c/65d65821b5e4f4fb6de9076c_Images/65d65821b5e4f4fb6de9076c_Image_1.jpeg,liked,3.195382774,,,,,,,,,,,,,,,,,,,,,,
,,65d65821b5e4f4fb6de9076c,6685aa9113c938e83b4f1ea0,66c0ad49e50a233a262c2131,2024-08-17_09h02.37.976,WTP_SM_Choice,2022.2.1,MacIntel,60.97560976,,,,,space,1.2667,NAN,,NAN,2.21,3.79,,0,80,80,80,1,81,Alex,Rej,Participant_Images/65d65821b5e4f4fb6de9076c/65d65821b5e4f4fb6de9076c_Images/65d65821b5e4f4fb6de9076c_Image_9.jpeg,did not like,1.779333479,,,,,,,,,,,,,,,,,,,,,,
,,65d65821b5e4f4fb6de9076c,6685aa9113c938e83b4f1ea0,66c0ad49e50a233a262c2131,2024-08-17_09h02.37.976,WTP_SM_Choice,2022.2.1,MacIntel,60.97560976,,,,,space,0.9695,NAN,,NAN,2.21,3.79,,0,81,81,81,1,82,Alex,Rej,Participant_Images/65d65821b5e4f4fb6de9076c/65d65821b5e4f4fb6de9076c_Images/65d65821b5e4f4fb6de9076c_Image_13.jpeg,did not like,4.312468682,,,,,,,,,,,,,,,,,,,,,,
,,65d65821b5e4f4fb6de9076c,6685aa9113c938e83b4f1ea0,66c0ad49e50a233a262c2131,2024-08-17_09h02.37.976,WTP_SM_Choice,2022.2.1,MacIntel,60.97560976,,,,,space,0.6332,NAN,,NAN,2.21,3.79,,0,82,82,82,1,83,Alex,Rej,Participant_Images/65d65821b5e4f4fb6de9076c/65d65821b5e4f4fb6de9076c_Images/65d65821b5e4f4fb6de9076c_Image_15.jpeg,did not like,4.940433059,,,,,,,,,,,,,,,,,,,,,,
,,65d65821b5e4f4fb6de9076c,6685aa9113c938e83b4f1ea0,66c0ad49e50a233a262c2131,2024-08-17_09h02.37.976,WTP_SM_Choice,2022.2.1,MacIntel,60.97560976,,,,,space,0.8172,NAN,,NAN,2.21,3.79,,0,83,83,83,1,84,Alex,Rej,Participant_Images/65d65821b5e4f4fb6de9076c/65d65821b5e4f4fb6de9076c_Images/65d65821b5e4f4fb6de9076c_Image_20.jpeg,did not like,2.7105123,,,,,,,,,,,,,,,,,,,,,,
,,65d65821b5e4f4fb6de9076c,6685aa9113c938e83b4f1ea0,66c0ad49e50a233a262c2131,2024-08-17_09h02.37.976,WTP_SM_Choice,2022.2.1,MacIntel,60.97560976,,,,,,,,,,,,,,,,,,81,,,,,,space,0.57,space,0.5662,0.01,1,1.2191,0,0,0,0,1,Walking around outside on campus,Going to weekly trivia nights with my friends,0.01,0.02,3.3,1,,,,
,,65d65821b5e4f4fb6de9076c,6685aa9113c938e83b4f1ea0,66c0ad49e50a233a262c2131,2024-08-17_09h02.37.976,WTP_SM_Choice,2022.2.1,MacIntel,60.97560976,,,,,,,,,,,,,,,,,,82,,,,,,,,,,0.02,2,1.6547,0,1,1,1,1,Showering after a long hectic day,Playing basketball with my friends during the summer,0.02,0.02,4.4,1,,,,
,,65d65821b5e4f4fb6de9076c,6685aa9113c938e83b4f1ea0,66c0ad49e50a233a262c2131,2024-08-17_09h02.37.976,WTP_SM_Choice,2022.2.1,MacIntel,60.97560976,,,,,,,,,,,,,,,,,,83,,,,,,,,,,0.02,2,1.1289,0,2,2,2,1,Shopping at the mall when I need something new to wear,Doing weekly line dancing at local bars,0.03,0.02,1.1,1,,,,
,,65d65821b5e4f4fb6de9076c,6685aa9113c938e83b4f1ea0,66c0ad49e50a233a262c2131,2024-08-17_09h02.37.976,WTP_SM_Choice,2022.2.1,MacIntel,60.97560976,,,,,,,,,,,,,,,,,,84,,,,,,,,,,0.02,2,1.9082,0,3,3,3,1,Browsing the internet for furniture that I need,Talking about what is going on in our lives with my friends,0.04,0.02,3.3,1,,,,
,,65d65821b5e4f4fb6de9076c,6685aa9113c938e83b4f1ea0,66c0ad49e50a233a262c2131,2024-08-17_09h02.37.976,WTP_SM_Choice,2022.2.1,MacIntel,60.97560976,,,,,,,,,,,,,,,,,,85,,,,,,,,,,0.02,2,0.994,0,4,4,4,1,Organizing my room for a fresh start,Taking my sister to get coffee,0.05,0.02,3.3,1,,,,
,,65d65821b5e4f4fb6de9076c,6685aa9113c938e83b4f1ea0,66c0ad49e50a233a262c2131,2024-08-17_09h02.37.976,WTP_SM_Choice,2022.2.1,MacIntel,60.97560976,,,,,,,NAN,,NAN,2.3,3.7,,0,84,84,84,1,85,Alex,Rej,Participant_Images/65d65821b5e4f4fb6de9076c/65d65821b5e4f4fb6de9076c_Images/65d65821b5e4f4fb6de9076c_Image_6.jpeg,did not like,3.602308302,,,,,,,,,,,,,,,,,,,,,,
,,65d65821b5e4f4fb6de9076c,6685aa9113c938e83b4f1ea0,66c0ad49e50a233a262c2131,2024-08-17_09h02.37.976,WTP_SM_Choice,2022.2.1,MacIntel,60.97560976,,,,,space,1.2538,NAN,,NAN,2.3,3.7,,0,85,85,85,1,86,Alex,Rej,Participant_Images/65d65821b5e4f4fb6de9076c/65d65821b5e4f4fb6de9076c_Images/65d65821b5e4f4fb6de9076c_Image_22.jpeg,did not like,4.106391878,,,,,,,,,,,,,,,,,,,,,,
,,65d65821b5e4f4fb6de9076c,6685aa9113c938e83b4f1ea0,66c0ad49e50a233a262c2131,2024-08-17_09h02.37.976,WTP_SM_Choice,2022.2.1,MacIntel,60.97560976,,,,,space,0.9285,NAN,,NAN,2.3,3.7,,0,86,86,86,1,87,Alex,Rej,Participant_Images/65d65821b5e4f4fb6de9076c/65d65821b5e4f4fb6de9076c_Images/65d65821b5e4f4fb6de9076c_Image_8.jpeg,did not like,3.799433026,,,,,,,,,,,,,,,,,,,,,,
,,65d65821b5e4f4fb6de9076c,6685aa9113c938e83b4f1ea0,66c0ad49e50a233a262c2131,2024-08-17_09h02.37.976,WTP_SM_Choice,2022.2.1,MacIntel,60.97560976,,,,,space,1.5053,NAN,,NAN,2.3,3.7,,0,87,87,87,1,88,Alex,Rej,Participant_Images/65d65821b5e4f4fb6de9076c/65d65821b5e4f4fb6de9076c_Images/65d65821b5e4f4fb6de9076c_Image_5.jpeg,liked,5.246980764,,,,,,,,,,,,,,,,,,,,,,
,,65d65821b5e4f4fb6de9076c,6685aa9113c938e83b4f1ea0,66c0ad49e50a233a262c2131,2024-08-17_09h02.37.976,WTP_SM_Choice,2022.2.1,MacIntel,60.97560976,,,,,space,1.0007,NAN,,NAN,2.3,3.7,,0,88,88,88,1,89,Alex,Rej,Participant_Images/65d65821b5e4f4fb6de9076c/65d65821b5e4f4fb6de9076c_Images/65d65821b5e4f4fb6de9076c_Image_2.jpeg,did not like,3.30081769,,,,,,,,,,,,,,,,,,,,,,
,,65d65821b5e4f4fb6de9076c,6685aa9113c938e83b4f1ea0,66c0ad49e50a233a262c2131,2024-08-17_09h02.37.976,WTP_SM_Choice,2022.2.1,MacIntel,60.97560976,,,,,,,,,,,,,,,,,,86,,,,,,space,0.5342,space,0.467,0.01,1,1.1359,0,0,0,0,1,Playing games with my dad and little sister,Sewing new clothes to wear,0.01,0.03,1.1,0,,,,
,,65d65821b5e4f4fb6de9076c,6685aa9113c938e83b4f1ea0,66c0ad49e50a233a262c2131,2024-08-17_09h02.37.976,WTP_SM_Choice,2022.2.1,MacIntel,60.97560976,,,,,,,,,,,,,,,,,,87,,,,,,,,,,0.02,1,1.3885,0,1,1,1,1,Watching funny internet videos with my friends,Working from home to earn money,0.02,0.03,4.4,0,,,,
,,65d65821b5e4f4fb6de9076c,6685aa9113c938e83b4f1ea0,66c0ad49e50a233a262c2131,2024-08-17_09h02.37.976,WTP_SM_Choice,2022.2.1,MacIntel,60.97560976,,,,,,,,,,,,,,,,,,88,,,,,,,,,,0.03,1,1.0668,0,2,2,2,1,Watching funny internet videos with my friends,Learning how to do a new craft so I feel productive,0.03,0.03,1.1,0,,,,
,,65d65821b5e4f4fb6de9076c,6685aa9113c938e83b4f1ea0,66c0ad49e50a233a262c2131,2024-08-17_09h02.37.976,WTP_SM_Choice,2022.2.1,MacIntel,60.97560976,,,,,,,,,,,,,,,,,,89,,,,,,,,,,0.04,1,1.006,0,3,3,3,1,Talking about what is going on in our lives with my friends,Watching a new show in my room at night,0.04,0.03,3.3,0,,,,
,,65d65821b5e4f4fb6de9076c,6685aa9113c938e83b4f1ea0,66c0ad49e50a233a262c2131,2024-08-17_09h02.37.976,WTP_SM_Choice,2022.2.1,MacIntel,60.97560976,,,,,,,,,,,,,,,,,,90,,,,,,,,,,0.03,2,0.7294,0,4,4,4,1,Sewing new clothes to wear,Going to weekly trivia nights with my friends,0.05,0.03,8.8,1,,,,
,,65d65821b5e4f4fb6de9076c,6685aa9113c938e83b4f1ea0,66c0ad49e50a233a262c2131,2024-08-17_09h02.37.976,WTP_SM_Choice,2022.2.1,MacIntel,60.97560976,,,,,,,NAN,,NAN,2.43,3.57,,0,89,89,89,1,90,Alex,Rej,Participant_Images/65d65821b5e4f4fb6de9076c/65d65821b5e4f4fb6de9076c_Images/65d65821b5e4f4fb6de9076c_Image_21.jpeg,liked,1.661473164,,,,,,,,,,,,,,,,,,,,,,
,,65d65821b5e4f4fb6de9076c,6685aa9113c938e83b4f1ea0,66c0ad49e50a233a262c2131,2024-08-17_09h02.37.976,WTP_SM_Choice,2022.2.1,MacIntel,60.97560976,,,,,space,1.384,NAN,,NAN,2.43,3.57,,0,90,90,90,1,91,Alex,Rej,Participant_Images/65d65821b5e4f4fb6de9076c/65d65821b5e4f4fb6de9076c_Images/65d65821b5e4f4fb6de9076c_Image_16.jpeg,did not like,3.613205605,,,,,,,,,,,,,,,,,,,,,,
,,65d65821b5e4f4fb6de9076c,6685aa9113c938e83b4f1ea0,66c0ad49e50a233a262c2131,2024-08-17_09h02.37.976,WTP_SM_Choice,2022.2.1,MacIntel,60.97560976,,,,,space,1.2352,NAN,,NAN,2.43,3.57,,0,91,91,91,1,92,Alex,Rej,Participant_Images/65d65821b5e4f4fb6de9076c/65d65821b5e4f4fb6de9076c_Images/65d65821b5e4f4fb6de9076c_Image_14.jpeg,did not like,4.988446431,,,,,,,,,,,,,,,,,,,,,,
,,65d65821b5e4f4fb6de9076c,6685aa9113c938e83b4f1ea0,66c0ad49e50a233a262c2131,2024-08-17_09h02.37.976,WTP_SM_Choice,2022.2.1,MacIntel,60.97560976,,,,,space,1.9654,NAN,,NAN,2.43,3.57,,0,92,92,92,1,93,Alex,Rej,Participant_Images/65d65821b5e4f4fb6de9076c/65d65821b5e4f4fb6de9076c_Images/65d65821b5e4f4fb6de9076c_Image_12.jpeg,did not like,3.470791822,,,,,,,,,,,,,,,,,,,,,,
,,65d65821b5e4f4fb6de9076c,6685aa9113c938e83b4f1ea0,66c0ad49e50a233a262c2131,2024-08-17_09h02.37.976,WTP_SM_Choice,2022.2.1,MacIntel,60.97560976,,,,,space,3.2495,NAN,,NAN,2.43,3.57,,0,93,93,93,1,94,Alex,Rej,Participant_Images/65d65821b5e4f4fb6de9076c/65d65821b5e4f4fb6de9076c_Images/65d65821b5e4f4fb6de9076c_Image_11.jpeg,did not like,3.820572462,,,,,,,,,,,,,,,,,,,,,,
,,65d65821b5e4f4fb6de9076c,6685aa9113c938e83b4f1ea0,66c0ad49e50a233a262c2131,2024-08-17_09h02.37.976,WTP_SM_Choice,2022.2.1,MacIntel,60.97560976,,,,,,,,,,,,,,,,,,91,,,,,,space,0.6329,space,0.432,0.01,1,1.5504,0,0,0,0,1,Watching basketball games with my friends,Sewing new clothes to wear,0.01,0.04,3.3,0,,,,
,,65d65821b5e4f4fb6de9076c,6685aa9113c938e83b4f1ea0,66c0ad49e50a233a262c2131,2024-08-17_09h02.37.976,WTP_SM_Choice,2022.2.1,MacIntel,60.97560976,,,,,,,,,,,,,,,,,,92,,,,,,,,,,0.02,1,1.1129,0,1,1,1,1,Playing games with my dad and little sister,Learning how to do a new craft so I feel productive,0.02,0.04,8.8,0,,,,
,,65d65821b5e4f4fb6de9076c,6685aa9113c938e83b4f1ea0,66c0ad49e50a233a262c2131,2024-08-17_09h02.37.976,WTP_SM_Choice,2022.2.1,MacIntel,60.97560976,,,,,,,,,,,,,,,,,,93,,,,,,,,,,0.03,1,1.2454,0,2,2,2,1,Browsing the internet for furniture that I need,Doing weekly line dancing at local bars,0.03,0.04,1.1,1,,,,
,,65d65821b5e4f4fb6de9076c,6685aa9113c938e83b4f1ea0,66c0ad49e50a233a262c2131,2024-08-17_09h02.37.976,WTP_SM_Choice,2022.2.1,MacIntel,60.97560976,,,,,,,,,,,,,,,,,,94,,,,,,,,,,0.04,1,1.591,0,3,3,3,1,Exercising at the gym in the morning,Walking around with my mom,0.04,0.04,4.4,1,,,,
,,65d65821b5e4f4fb6de9076c,6685aa9113c938e83b4f1ea0,66c0ad49e50a233a262c2131,2024-08-17_09h02.37.976,WTP_SM_Choice,2022.2.1,MacIntel,60.97560976,,,,,,,,,,,,,,,,,,95,,,,,,,,,,0.04,2,1.4799,0,4,4,4,1,Shopping at the mall when I need something new to wear,Playing basketball with my friends during the summer,0.05,0.04,4.4,1,,,,
,,65d65821b5e4f4fb6de9076c,6685aa9113c938e83b4f1ea0,66c0ad49e50a233a262c2131,2024-08-17_09h02.37.976,WTP_SM_Choice,2022.2.1,MacIntel,60.97560976,,,,,,,NAN,,NAN,2.57,3.43,,0,94,94,94,1,95,Alex,Rej,Participant_Images/65d65821b5e4f4fb6de9076c/65d65821b5e4f4fb6de9076c_Images/65d65821b5e4f4fb6de9076c_Image_19.jpeg,liked,2.455989137,,,,,,,,,,,,,,,,,,,,,,
,,65d65821b5e4f4fb6de9076c,6685aa9113c938e83b4f1ea0,66c0ad49e50a233a262c2131,2024-08-17_09h02.37.976,WTP_SM_Choice,2022.2.1,MacIntel,60.97560976,,,,,space,1.581,NAN,,NAN,2.57,3.43,,0,95,95,95,1,96,Alex,Rej,Participant_Images/65d65821b5e4f4fb6de9076c/65d65821b5e4f4fb6de9076c_Images/65d65821b5e4f4fb6de9076c_Image_7.jpeg,did not like,3.79605092,,,,,,,,,,,,,,,,,,,,,,
,,65d65821b5e4f4fb6de9076c,6685aa9113c938e83b4f1ea0,66c0ad49e50a233a262c2131,2024-08-17_09h02.37.976,WTP_SM_Choice,2022.2.1,MacIntel,60.97560976,,,,,space,1.9672,NAN,,NAN,2.57,3.43,,0,96,96,96,1,97,Alex,Rej,Participant_Images/65d65821b5e4f4fb6de9076c/65d65821b5e4f4fb6de9076c_Images/65d65821b5e4f4fb6de9076c_Image_18.jpeg,did not like,3.562416326,,,,,,,,,,,,,,,,,,,,,,
,,65d65821b5e4f4fb6de9076c,6685aa9113c938e83b4f1ea0,66c0ad49e50a233a262c2131,2024-08-17_09h02.37.976,WTP_SM_Choice,2022.2.1,MacIntel,60.97560976,,,,,space,0.4362,NAN,,NAN,2.57,3.43,,0,97,97,97,1,98,Alex,Rej,Participant_Images/65d65821b5e4f4fb6de9076c/65d65821b5e4f4fb6de9076c_Images/65d65821b5e4f4fb6de9076c_Image_24.jpeg,did not like,2.843822497,,,,,,,,,,,,,,,,,,,,,,
,,65d65821b5e4f4fb6de9076c,6685aa9113c938e83b4f1ea0,66c0ad49e50a233a262c2131,2024-08-17_09h02.37.976,WTP_SM_Choice,2022.2.1,MacIntel,60.97560976,,,,,space,0.289,NAN,,NAN,2.57,3.43,,0,98,98,98,1,99,Alex,Rej,Participant_Images/65d65821b5e4f4fb6de9076c/65d65821b5e4f4fb6de9076c_Images/65d65821b5e4f4fb6de9076c_Image_17.jpeg,did not like,3.546495948,,,,,,,,,,,,,,,,,,,,,,
,,65d65821b5e4f4fb6de9076c,6685aa9113c938e83b4f1ea0,66c0ad49e50a233a262c2131,2024-08-17_09h02.37.976,WTP_SM_Choice,2022.2.1,MacIntel,60.97560976,,,,,,,,,,,,,,,,,,96,,,,,,space,2.487,space,3.5662,0.01,1,1.1263,0,0,0,0,1,Exercising at the gym in the morning,Talking about what is going on in our lives with my friends,0.01,0.05,3.3,1,,,,
,,65d65821b5e4f4fb6de9076c,6685aa9113c938e83b4f1ea0,66c0ad49e50a233a262c2131,2024-08-17_09h02.37.976,WTP_SM_Choice,2022.2.1,MacIntel,60.97560976,,,,,,,,,,,,,,,,,,97,,,,,,,,,,0.02,1,0.9978,0,1,1,1,1,Shopping at the mall when I need something new to wear,Watching funny internet videos with my friends,0.02,0.05,1.1,1,,,,
,,65d65821b5e4f4fb6de9076c,6685aa9113c938e83b4f1ea0,66c0ad49e50a233a262c2131,2024-08-17_09h02.37.976,WTP_SM_Choice,2022.2.1,MacIntel,60.97560976,,,,,,,,,,,,,,,,,,98,,,,,,,,,,0.03,1,0.7877,0,2,2,2,1,Walking around with my mom,Watching a new show in my room at night,0.03,0.05,1.1,0,,,,
,,65d65821b5e4f4fb6de9076c,6685aa9113c938e83b4f1ea0,66c0ad49e50a233a262c2131,2024-08-17_09h02.37.976,WTP_SM_Choice,2022.2.1,MacIntel,60.97560976,,,,,,,,,,,,,,,,,,99,,,,,,,,,,0.04,1,1.0714,0,3,3,3,1,Watching basketball games with my friends,Exercising at the gym in the morning,0.04,0.05,3.3,0,,,,
,,65d65821b5e4f4fb6de9076c,6685aa9113c938e83b4f1ea0,66c0ad49e50a233a262c2131,2024-08-17_09h02.37.976,WTP_SM_Choice,2022.2.1,MacIntel,60.97560976,,,,,,,,,,,,,,,,,,100,,,,,,,,,,0.05,1,1.1589,0,4,4,4,1,Learning how to do a new craft so I feel productive,Doing weekly line dancing at local bars,0.05,0.05,4.4,1,,,,
,,65d65821b5e4f4fb6de9076c,6685aa9113c938e83b4f1ea0,66c0ad49e50a233a262c2131,2024-08-17_09h02.37.976,WTP_SM_Choice,2022.2.1,MacIntel,60.97560976,,,,,,,2,,2,2.72,3.28,,0,99,99,99,1,100,Alex,Rej,Participant_Images/65d65821b5e4f4fb6de9076c/65d65821b5e4f4fb6de9076c_Images/65d65821b5e4f4fb6de9076c_Image_10.jpeg,liked,1.672012706,,,,,,,,,,,,,,,,,,,space,1.1137,,
,,65d65821b5e4f4fb6de9076c,6685aa9113c938e83b4f1ea0,66c0ad49e50a233a262c2131,2024-08-17_09h02.37.976,WTP_SM_Choice,2022.2.1,MacIntel,60.97560976,,,,,,,,,,,,,,,,,,,,,,,,,,,,,,,,,,,,,,,,,,,,space,2.7237
