endwelcomescreen_keys.keys,endwelcomescreen_keys.rt,participant,STUDY_ID,SESSION_ID,date,expName,psychopyVersion,OS,frameRate,endinstructionscreen_keys.keys,endinstructionscreen_keys.rt,endpartnermatch_keys.keys,endpartnermatch_keys.rt,sharenextphoto_key.keys,sharenextphoto_key.rt,salience_rating,key_resp.keys,stress_level,subtract_bonus,TOTAL_TASK_BONUS,stresslevel_keypress.keys,entiretaskloop.thisRepN,entiretaskloop.thisTrialN,entiretaskloop.thisN,entiretaskloop.thisIndex,entiretaskloop.ran,TrialNumber,Partner,Condition,Photos,Feedback,FeedbackWait,WTP_ins_keys1.keys,WTP_ins_keys1.rt,WTP_ins_keys2.keys,WTP_ins_keys2.rt,decision_price,responses.keys,responses.rt,WTPTaskLoop.thisRepN,WTPTaskLoop.thisTrialN,WTPTaskLoop.thisN,WTPTaskLoop.thisIndex,WTPTaskLoop.ran,right,left,leftmoney,rightmoney,WTP_ITI,social_left,Resume_keys.keys,Resume_keys.rt,end_screen_keys.keys,end_screen_keys.rt
space,54.093,65d659edd2fb402f9170d123,6685aa9113c938e83b4f1ea0,671122269940491190642581,2024-10-17_10h46.16.303,WTP_SM_Choice,2022.2.1,Win32,60.24096386,,,,,,,,,,,,,,,,,,,,,,,,,,,,,,,,,,,,,,,,,,,,,
,,65d659edd2fb402f9170d123,6685aa9113c938e83b4f1ea0,671122269940491190642581,2024-10-17_10h46.16.303,WTP_SM_Choice,2022.2.1,Win32,60.24096386,space,17.2157,,,,,,,,,,,,,,,,,,,,,,,,,,,,,,,,,,,,,,,,,,,
,,65d659edd2fb402f9170d123,6685aa9113c938e83b4f1ea0,671122269940491190642581,2024-10-17_10h46.16.303,WTP_SM_Choice,2022.2.1,Win32,60.24096386,,,space,4.1554,space,1.6016,NAN,,NAN,0,6,,0,0,0,0,1,1,Sam,Rej,Participant_Images/65d659edd2fb402f9170d123/65d659edd2fb402f9170d123_Images/65d659edd2fb402f9170d123_Image_3.jpeg,liked,3.613205605,,,,,,,,,,,,,,,,,,,,,,
,,65d659edd2fb402f9170d123,6685aa9113c938e83b4f1ea0,671122269940491190642581,2024-10-17_10h46.16.303,WTP_SM_Choice,2022.2.1,Win32,60.24096386,,,,,space,1.3592,NAN,,NAN,0,6,,0,1,1,1,1,2,Sam,Rej,Participant_Images/65d659edd2fb402f9170d123/65d659edd2fb402f9170d123_Images/65d659edd2fb402f9170d123_Image_14.jpeg,did not like,4.988446431,,,,,,,,,,,,,,,,,,,,,,
,,65d659edd2fb402f9170d123,6685aa9113c938e83b4f1ea0,671122269940491190642581,2024-10-17_10h46.16.303,WTP_SM_Choice,2022.2.1,Win32,60.24096386,,,,,space,2.9185,NAN,,NAN,0,6,,0,2,2,2,1,3,Sam,Rej,Participant_Images/65d659edd2fb402f9170d123/65d659edd2fb402f9170d123_Images/65d659edd2fb402f9170d123_Image_23.jpeg,did not like,3.470791822,,,,,,,,,,,,,,,,,,,,,,
,,65d659edd2fb402f9170d123,6685aa9113c938e83b4f1ea0,671122269940491190642581,2024-10-17_10h46.16.303,WTP_SM_Choice,2022.2.1,Win32,60.24096386,,,,,space,1.394,NAN,,NAN,0,6,,0,3,3,3,1,4,Sam,Rej,Participant_Images/65d659edd2fb402f9170d123/65d659edd2fb402f9170d123_Images/65d659edd2fb402f9170d123_Image_11.jpeg,did not like,3.820572462,,,,,,,,,,,,,,,,,,,,,,
,,65d659edd2fb402f9170d123,6685aa9113c938e83b4f1ea0,671122269940491190642581,2024-10-17_10h46.16.303,WTP_SM_Choice,2022.2.1,Win32,60.24096386,,,,,,,,,,,,,,,,,,1,,,,,,space,16.077,space,6.642,0.01,2,3.5286,0,0,0,0,1,Watch new movies and shows on television,go out to eat with my spouse,0.01,0.01,4.4,1,,,,
,,65d659edd2fb402f9170d123,6685aa9113c938e83b4f1ea0,671122269940491190642581,2024-10-17_10h46.16.303,WTP_SM_Choice,2022.2.1,Win32,60.24096386,,,,,,,,,,,,,,,,,,2,,,,,,,,,,0.01,2,2.3247,0,1,1,1,1,Shop online,Go on dates with my spouse,0.02,0.01,8.8,1,,,,
,,65d659edd2fb402f9170d123,6685aa9113c938e83b4f1ea0,671122269940491190642581,2024-10-17_10h46.16.303,WTP_SM_Choice,2022.2.1,Win32,60.24096386,,,,,,,,,,,,,,,,,,3,,,,,,,,,,0.03,1,1.4102,0,2,2,2,1,go fishing with friends,Shop online,0.03,0.01,3.3,0,,,,
,,65d659edd2fb402f9170d123,6685aa9113c938e83b4f1ea0,671122269940491190642581,2024-10-17_10h46.16.303,WTP_SM_Choice,2022.2.1,Win32,60.24096386,,,,,,,,,,,,,,,,,,4,,,,,,,,,,0.01,2,2.1753,0,3,3,3,1,have family movie nights,Watch music videos,0.04,0.01,1.1,0,,,,
,,65d659edd2fb402f9170d123,6685aa9113c938e83b4f1ea0,671122269940491190642581,2024-10-17_10h46.16.303,WTP_SM_Choice,2022.2.1,Win32,60.24096386,,,,,,,,,,,,,,,,,,5,,,,,,,,,,0.05,1,3.1652,0,4,4,4,1,Go on dates with my spouse,Watch new movies and shows on television,0.05,0.01,1.1,0,,,,
,,65d659edd2fb402f9170d123,6685aa9113c938e83b4f1ea0,671122269940491190642581,2024-10-17_10h46.16.303,WTP_SM_Choice,2022.2.1,Win32,60.24096386,,,,,,,NAN,,NAN,0.11,5.89,,0,4,4,4,1,5,Sam,Rej,Participant_Images/65d659edd2fb402f9170d123/65d659edd2fb402f9170d123_Images/65d659edd2fb402f9170d123_Image_5.jpeg,did not like,2.455989137,,,,,,,,,,,,,,,,,,,,,,
,,65d659edd2fb402f9170d123,6685aa9113c938e83b4f1ea0,671122269940491190642581,2024-10-17_10h46.16.303,WTP_SM_Choice,2022.2.1,Win32,60.24096386,,,,,space,1.2487,NAN,,NAN,0.11,5.89,,0,5,5,5,1,6,Sam,Rej,Participant_Images/65d659edd2fb402f9170d123/65d659edd2fb402f9170d123_Images/65d659edd2fb402f9170d123_Image_2.jpeg,did not like,3.79605092,,,,,,,,,,,,,,,,,,,,,,
,,65d659edd2fb402f9170d123,6685aa9113c938e83b4f1ea0,671122269940491190642581,2024-10-17_10h46.16.303,WTP_SM_Choice,2022.2.1,Win32,60.24096386,,,,,space,8.4508,NAN,,NAN,0.11,5.89,,0,6,6,6,1,7,Sam,Rej,Participant_Images/65d659edd2fb402f9170d123/65d659edd2fb402f9170d123_Images/65d659edd2fb402f9170d123_Image_12.jpeg,liked,3.562416326,,,,,,,,,,,,,,,,,,,,,,
,,65d659edd2fb402f9170d123,6685aa9113c938e83b4f1ea0,671122269940491190642581,2024-10-17_10h46.16.303,WTP_SM_Choice,2022.2.1,Win32,60.24096386,,,,,space,0.8771,NAN,,NAN,0.11,5.89,,0,7,7,7,1,8,Sam,Rej,Participant_Images/65d659edd2fb402f9170d123/65d659edd2fb402f9170d123_Images/65d659edd2fb402f9170d123_Image_22.jpeg,did not like,2.843822497,,,,,,,,,,,,,,,,,,,,,,
,,65d659edd2fb402f9170d123,6685aa9113c938e83b4f1ea0,671122269940491190642581,2024-10-17_10h46.16.303,WTP_SM_Choice,2022.2.1,Win32,60.24096386,,,,,space,4.6637,NAN,,NAN,0.11,5.89,,0,8,8,8,1,9,Sam,Rej,Participant_Images/65d659edd2fb402f9170d123/65d659edd2fb402f9170d123_Images/65d659edd2fb402f9170d123_Image_13.jpeg,liked,3.546495948,,,,,,,,,,,,,,,,,,,,,,
,,65d659edd2fb402f9170d123,6685aa9113c938e83b4f1ea0,671122269940491190642581,2024-10-17_10h46.16.303,WTP_SM_Choice,2022.2.1,Win32,60.24096386,,,,,,,,,,,,,,,,,,6,,,,,,space,10.4155,space,6.7457,0.02,2,2.5657,0,0,0,0,1,Watch movies with my significant other,Sit outside for fresh air,0.01,0.02,3.3,0,,,,
,,65d659edd2fb402f9170d123,6685aa9113c938e83b4f1ea0,671122269940491190642581,2024-10-17_10h46.16.303,WTP_SM_Choice,2022.2.1,Win32,60.24096386,,,,,,,,,,,,,,,,,,7,,,,,,,,,,0.02,2,2.4289,0,1,1,1,1,Paint in my room,go out to eat with my spouse,0.02,0.02,1.1,1,,,,
,,65d659edd2fb402f9170d123,6685aa9113c938e83b4f1ea0,671122269940491190642581,2024-10-17_10h46.16.303,WTP_SM_Choice,2022.2.1,Win32,60.24096386,,,,,,,,,,,,,,,,,,8,,,,,,,,,,0.02,2,1.7623,0,2,2,2,1,Paint in my room,go fishing with friends,0.03,0.02,1.1,1,,,,
,,65d659edd2fb402f9170d123,6685aa9113c938e83b4f1ea0,671122269940491190642581,2024-10-17_10h46.16.303,WTP_SM_Choice,2022.2.1,Win32,60.24096386,,,,,,,,,,,,,,,,,,9,,,,,,,,,,0.02,2,2.6594,0,3,3,3,1,Go to bars with my spouse,Learn about information technology,0.04,0.02,4.4,0,,,,
,,65d659edd2fb402f9170d123,6685aa9113c938e83b4f1ea0,671122269940491190642581,2024-10-17_10h46.16.303,WTP_SM_Choice,2022.2.1,Win32,60.24096386,,,,,,,,,,,,,,,,,,10,,,,,,,,,,0.02,2,1.844,0,4,4,4,1,Sketch art in my sketchbook,go on trips with friends,0.05,0.02,1.1,1,,,,
,,65d659edd2fb402f9170d123,6685aa9113c938e83b4f1ea0,671122269940491190642581,2024-10-17_10h46.16.303,WTP_SM_Choice,2022.2.1,Win32,60.24096386,,,,,,,NAN,,NAN,0.21,5.79,,0,9,9,9,1,10,Sam,Rej,Participant_Images/65d659edd2fb402f9170d123/65d659edd2fb402f9170d123_Images/65d659edd2fb402f9170d123_Image_15.jpeg,did not like,1.672012706,,,,,,,,,,,,,,,,,,,,,,
,,65d659edd2fb402f9170d123,6685aa9113c938e83b4f1ea0,671122269940491190642581,2024-10-17_10h46.16.303,WTP_SM_Choice,2022.2.1,Win32,60.24096386,,,,,space,1.0582,NAN,,NAN,0.21,5.79,,0,10,10,10,1,11,Sam,Rej,Participant_Images/65d659edd2fb402f9170d123/65d659edd2fb402f9170d123_Images/65d659edd2fb402f9170d123_Image_1.jpeg,did not like,4.942172136,,,,,,,,,,,,,,,,,,,,,,
,,65d659edd2fb402f9170d123,6685aa9113c938e83b4f1ea0,671122269940491190642581,2024-10-17_10h46.16.303,WTP_SM_Choice,2022.2.1,Win32,60.24096386,,,,,space,0.6702,NAN,,NAN,0.21,5.79,,0,11,11,11,1,12,Sam,Rej,Participant_Images/65d659edd2fb402f9170d123/65d659edd2fb402f9170d123_Images/65d659edd2fb402f9170d123_Image_16.jpeg,did not like,2.50187214,,,,,,,,,,,,,,,,,,,,,,
,,65d659edd2fb402f9170d123,6685aa9113c938e83b4f1ea0,671122269940491190642581,2024-10-17_10h46.16.303,WTP_SM_Choice,2022.2.1,Win32,60.24096386,,,,,space,1.1029,NAN,,NAN,0.21,5.79,,0,12,12,12,1,13,Sam,Rej,Participant_Images/65d659edd2fb402f9170d123/65d659edd2fb402f9170d123_Images/65d659edd2fb402f9170d123_Image_4.jpeg,liked,2.071164779,,,,,,,,,,,,,,,,,,,,,,
,,65d659edd2fb402f9170d123,6685aa9113c938e83b4f1ea0,671122269940491190642581,2024-10-17_10h46.16.303,WTP_SM_Choice,2022.2.1,Win32,60.24096386,,,,,space,1.0317,NAN,,NAN,0.21,5.79,,0,13,13,13,1,14,Sam,Rej,Participant_Images/65d659edd2fb402f9170d123/65d659edd2fb402f9170d123_Images/65d659edd2fb402f9170d123_Image_8.jpeg,liked,5.336503566,,,,,,,,,,,,,,,,,,,,,,
,,65d659edd2fb402f9170d123,6685aa9113c938e83b4f1ea0,671122269940491190642581,2024-10-17_10h46.16.303,WTP_SM_Choice,2022.2.1,Win32,60.24096386,,,,,,,,,,,,,,,,,,11,,,,,,space,7.1233,space,3.5074,0.03,2,2.326,0,0,0,0,1,Sit outside for fresh air,Go to bars with my spouse,0.01,0.03,3.3,1,,,,
,,65d659edd2fb402f9170d123,6685aa9113c938e83b4f1ea0,671122269940491190642581,2024-10-17_10h46.16.303,WTP_SM_Choice,2022.2.1,Win32,60.24096386,,,,,,,,,,,,,,,,,,12,,,,,,,,,,0.02,1,1.8591,0,1,1,1,1,Sit outside for fresh air,have family movie nights,0.02,0.03,4.4,1,,,,
,,65d659edd2fb402f9170d123,6685aa9113c938e83b4f1ea0,671122269940491190642581,2024-10-17_10h46.16.303,WTP_SM_Choice,2022.2.1,Win32,60.24096386,,,,,,,,,,,,,,,,,,13,,,,,,,,,,0.03,1,1.8479,0,2,2,2,1,Watch new movies and shows on television,Watch reality tv shows with friends,0.03,0.03,1.1,1,,,,
,,65d659edd2fb402f9170d123,6685aa9113c938e83b4f1ea0,671122269940491190642581,2024-10-17_10h46.16.303,WTP_SM_Choice,2022.2.1,Win32,60.24096386,,,,,,,,,,,,,,,,,,14,,,,,,,,,,0.04,1,2.6825,0,3,3,3,1,Watch new movies and shows on television,Watch movies with my significant other,0.04,0.03,3.3,1,,,,
,,65d659edd2fb402f9170d123,6685aa9113c938e83b4f1ea0,671122269940491190642581,2024-10-17_10h46.16.303,WTP_SM_Choice,2022.2.1,Win32,60.24096386,,,,,,,,,,,,,,,,,,15,,,,,,,,,,0.05,1,2.6909,0,4,4,4,1,Go to the bar with friends,Sit outside for fresh air,0.05,0.03,4.4,0,,,,
,,65d659edd2fb402f9170d123,6685aa9113c938e83b4f1ea0,671122269940491190642581,2024-10-17_10h46.16.303,WTP_SM_Choice,2022.2.1,Win32,60.24096386,,,,,,,NAN,,NAN,0.38,5.62,,0,14,14,14,1,15,Sam,Rej,Participant_Images/65d659edd2fb402f9170d123/65d659edd2fb402f9170d123_Images/65d659edd2fb402f9170d123_Image_24.jpeg,did not like,2.642157193,,,,,,,,,,,,,,,,,,,,,,
,,65d659edd2fb402f9170d123,6685aa9113c938e83b4f1ea0,671122269940491190642581,2024-10-17_10h46.16.303,WTP_SM_Choice,2022.2.1,Win32,60.24096386,,,,,space,0.7299,NAN,,NAN,0.38,5.62,,0,15,15,15,1,16,Sam,Rej,Participant_Images/65d659edd2fb402f9170d123/65d659edd2fb402f9170d123_Images/65d659edd2fb402f9170d123_Image_17.jpeg,did not like,4.456234322,,,,,,,,,,,,,,,,,,,,,,
,,65d659edd2fb402f9170d123,6685aa9113c938e83b4f1ea0,671122269940491190642581,2024-10-17_10h46.16.303,WTP_SM_Choice,2022.2.1,Win32,60.24096386,,,,,space,1.0217,NAN,,NAN,0.38,5.62,,0,16,16,16,1,17,Sam,Rej,Participant_Images/65d659edd2fb402f9170d123/65d659edd2fb402f9170d123_Images/65d659edd2fb402f9170d123_Image_19.jpeg,did not like,4.438512181,,,,,,,,,,,,,,,,,,,,,,
,,65d659edd2fb402f9170d123,6685aa9113c938e83b4f1ea0,671122269940491190642581,2024-10-17_10h46.16.303,WTP_SM_Choice,2022.2.1,Win32,60.24096386,,,,,space,0.6937,NAN,,NAN,0.38,5.62,,0,17,17,17,1,18,Sam,Rej,Participant_Images/65d659edd2fb402f9170d123/65d659edd2fb402f9170d123_Images/65d659edd2fb402f9170d123_Image_10.jpeg,did not like,2.682944783,,,,,,,,,,,,,,,,,,,,,,
,,65d659edd2fb402f9170d123,6685aa9113c938e83b4f1ea0,671122269940491190642581,2024-10-17_10h46.16.303,WTP_SM_Choice,2022.2.1,Win32,60.24096386,,,,,space,1.0262,NAN,,NAN,0.38,5.62,,0,18,18,18,1,19,Sam,Rej,Participant_Images/65d659edd2fb402f9170d123/65d659edd2fb402f9170d123_Images/65d659edd2fb402f9170d123_Image_21.jpeg,did not like,4.51984296,,,,,,,,,,,,,,,,,,,,,,
,,65d659edd2fb402f9170d123,6685aa9113c938e83b4f1ea0,671122269940491190642581,2024-10-17_10h46.16.303,WTP_SM_Choice,2022.2.1,Win32,60.24096386,,,,,,,,,,,,,,,,,,16,,,,,,space,2.1331,space,0.9577,0.04,2,3.7486,0,0,0,0,1,Watch new movies and shows on television,Go to bars with my spouse,0.01,0.04,1.1,1,,,,
,,65d659edd2fb402f9170d123,6685aa9113c938e83b4f1ea0,671122269940491190642581,2024-10-17_10h46.16.303,WTP_SM_Choice,2022.2.1,Win32,60.24096386,,,,,,,,,,,,,,,,,,17,,,,,,,,,,0.04,2,2.3882,0,1,1,1,1,Sketch art in my sketchbook,cook together with my family,0.02,0.04,8.8,1,,,,
,,65d659edd2fb402f9170d123,6685aa9113c938e83b4f1ea0,671122269940491190642581,2024-10-17_10h46.16.303,WTP_SM_Choice,2022.2.1,Win32,60.24096386,,,,,,,,,,,,,,,,,,18,,,,,,,,,,0.04,2,2.8334,0,2,2,2,1,Go on dates with my spouse,Read Magazines and Articles,0.03,0.04,3.3,0,,,,
,,65d659edd2fb402f9170d123,6685aa9113c938e83b4f1ea0,671122269940491190642581,2024-10-17_10h46.16.303,WTP_SM_Choice,2022.2.1,Win32,60.24096386,,,,,,,,,,,,,,,,,,19,,,,,,,,,,0.04,1,2.8,0,3,3,3,1,Go on dates with my spouse,Paint in my room,0.04,0.04,3.3,0,,,,
,,65d659edd2fb402f9170d123,6685aa9113c938e83b4f1ea0,671122269940491190642581,2024-10-17_10h46.16.303,WTP_SM_Choice,2022.2.1,Win32,60.24096386,,,,,,,,,,,,,,,,,,20,,,,,,,,,,0.04,2,3.4532,0,4,4,4,1,Learn about information technology,Watch reality tv shows with friends,0.05,0.04,1.1,1,,,,
,,65d659edd2fb402f9170d123,6685aa9113c938e83b4f1ea0,671122269940491190642581,2024-10-17_10h46.16.303,WTP_SM_Choice,2022.2.1,Win32,60.24096386,,,,,,,NAN,,NAN,0.58,5.42,,0,19,19,19,1,20,Sam,Rej,Participant_Images/65d659edd2fb402f9170d123/65d659edd2fb402f9170d123_Images/65d659edd2fb402f9170d123_Image_20.jpeg,did not like,3.195382774,,,,,,,,,,,,,,,,,,,,,,
,,65d659edd2fb402f9170d123,6685aa9113c938e83b4f1ea0,671122269940491190642581,2024-10-17_10h46.16.303,WTP_SM_Choice,2022.2.1,Win32,60.24096386,,,,,space,2.5347,NAN,,NAN,0.58,5.42,,0,20,20,20,1,21,Sam,Rej,Participant_Images/65d659edd2fb402f9170d123/65d659edd2fb402f9170d123_Images/65d659edd2fb402f9170d123_Image_7.jpeg,did not like,1.779333479,,,,,,,,,,,,,,,,,,,,,,
,,65d659edd2fb402f9170d123,6685aa9113c938e83b4f1ea0,671122269940491190642581,2024-10-17_10h46.16.303,WTP_SM_Choice,2022.2.1,Win32,60.24096386,,,,,space,0.672,NAN,,NAN,0.58,5.42,,0,21,21,21,1,22,Sam,Rej,Participant_Images/65d659edd2fb402f9170d123/65d659edd2fb402f9170d123_Images/65d659edd2fb402f9170d123_Image_9.jpeg,liked,4.312468682,,,,,,,,,,,,,,,,,,,,,,
,,65d659edd2fb402f9170d123,6685aa9113c938e83b4f1ea0,671122269940491190642581,2024-10-17_10h46.16.303,WTP_SM_Choice,2022.2.1,Win32,60.24096386,,,,,space,0.8666,NAN,,NAN,0.58,5.42,,0,22,22,22,1,23,Sam,Rej,Participant_Images/65d659edd2fb402f9170d123/65d659edd2fb402f9170d123_Images/65d659edd2fb402f9170d123_Image_18.jpeg,did not like,4.940433059,,,,,,,,,,,,,,,,,,,,,,
,,65d659edd2fb402f9170d123,6685aa9113c938e83b4f1ea0,671122269940491190642581,2024-10-17_10h46.16.303,WTP_SM_Choice,2022.2.1,Win32,60.24096386,,,,,space,1.2022,NAN,,NAN,0.58,5.42,,0,23,23,23,1,24,Sam,Rej,Participant_Images/65d659edd2fb402f9170d123/65d659edd2fb402f9170d123_Images/65d659edd2fb402f9170d123_Image_6.jpeg,liked,2.7105123,,,,,,,,,,,,,,,,,,,,,,
,,65d659edd2fb402f9170d123,6685aa9113c938e83b4f1ea0,671122269940491190642581,2024-10-17_10h46.16.303,WTP_SM_Choice,2022.2.1,Win32,60.24096386,,,,,,,,,,,,,,,,,,21,,,,,,space,1.1147,space,1.3351,0.05,2,1.6578,0,0,0,0,1,Watch reality tv shows with friends,Sketch art in my sketchbook,0.01,0.05,8.8,0,,,,
,,65d659edd2fb402f9170d123,6685aa9113c938e83b4f1ea0,671122269940491190642581,2024-10-17_10h46.16.303,WTP_SM_Choice,2022.2.1,Win32,60.24096386,,,,,,,,,,,,,,,,,,22,,,,,,,,,,0.05,2,2.7168,0,1,1,1,1,Cook different kinds of foods,have family movie nights,0.02,0.05,4.4,1,,,,
,,65d659edd2fb402f9170d123,6685aa9113c938e83b4f1ea0,671122269940491190642581,2024-10-17_10h46.16.303,WTP_SM_Choice,2022.2.1,Win32,60.24096386,,,,,,,,,,,,,,,,,,23,,,,,,,,,,0.03,1,2.9127,0,2,2,2,1,go fishing with friends,Sit outside for fresh air,0.03,0.05,1.1,0,,,,
,,65d659edd2fb402f9170d123,6685aa9113c938e83b4f1ea0,671122269940491190642581,2024-10-17_10h46.16.303,WTP_SM_Choice,2022.2.1,Win32,60.24096386,,,,,,,,,,,,,,,,,,24,,,,,,,,,,0.04,1,2.9445,0,3,3,3,1,Go to bars with my spouse,Cook different kinds of foods,0.04,0.05,4.4,0,,,,
,,65d659edd2fb402f9170d123,6685aa9113c938e83b4f1ea0,671122269940491190642581,2024-10-17_10h46.16.303,WTP_SM_Choice,2022.2.1,Win32,60.24096386,,,,,,,,,,,,,,,,,,25,,,,,,,,,,0.05,1,2.8662,0,4,4,4,1,Listen to music,go out to eat with my spouse,0.05,0.05,3.3,1,,,,
,,65d659edd2fb402f9170d123,6685aa9113c938e83b4f1ea0,671122269940491190642581,2024-10-17_10h46.16.303,WTP_SM_Choice,2022.2.1,Win32,60.24096386,,,,,,,2,,3,0.8,5.2,,0,24,24,24,1,25,Sam,Rej,Participant_Images/65d659edd2fb402f9170d123/65d659edd2fb402f9170d123_Images/65d659edd2fb402f9170d123_Image_25.jpeg,did not like,3.602308302,,,,,,,,,,,,,,,,,,,space,1.0166,,
,,65d659edd2fb402f9170d123,6685aa9113c938e83b4f1ea0,671122269940491190642581,2024-10-17_10h46.16.303,WTP_SM_Choice,2022.2.1,Win32,60.24096386,,,space,2.064,space,0.7893,NAN,,NAN,0.8,5.2,,0,25,25,25,1,26,Charlie,Acc,Participant_Images/65d659edd2fb402f9170d123/65d659edd2fb402f9170d123_Images/65d659edd2fb402f9170d123_Image_3.jpeg,liked,4.106391878,,,,,,,,,,,,,,,,,,,,,,
,,65d659edd2fb402f9170d123,6685aa9113c938e83b4f1ea0,671122269940491190642581,2024-10-17_10h46.16.303,WTP_SM_Choice,2022.2.1,Win32,60.24096386,,,,,space,0.6851,NAN,,NAN,0.8,5.2,,0,26,26,26,1,27,Charlie,Acc,Participant_Images/65d659edd2fb402f9170d123/65d659edd2fb402f9170d123_Images/65d659edd2fb402f9170d123_Image_5.jpeg,liked,3.799433026,,,,,,,,,,,,,,,,,,,,,,
,,65d659edd2fb402f9170d123,6685aa9113c938e83b4f1ea0,671122269940491190642581,2024-10-17_10h46.16.303,WTP_SM_Choice,2022.2.1,Win32,60.24096386,,,,,space,1.3074,NAN,,NAN,0.8,5.2,,0,27,27,27,1,28,Charlie,Acc,Participant_Images/65d659edd2fb402f9170d123/65d659edd2fb402f9170d123_Images/65d659edd2fb402f9170d123_Image_6.jpeg,did not like,5.246980764,,,,,,,,,,,,,,,,,,,,,,
,,65d659edd2fb402f9170d123,6685aa9113c938e83b4f1ea0,671122269940491190642581,2024-10-17_10h46.16.303,WTP_SM_Choice,2022.2.1,Win32,60.24096386,,,,,space,1.423,NAN,,NAN,0.8,5.2,,0,28,28,28,1,29,Charlie,Acc,Participant_Images/65d659edd2fb402f9170d123/65d659edd2fb402f9170d123_Images/65d659edd2fb402f9170d123_Image_12.jpeg,liked,3.30081769,,,,,,,,,,,,,,,,,,,,,,
,,65d659edd2fb402f9170d123,6685aa9113c938e83b4f1ea0,671122269940491190642581,2024-10-17_10h46.16.303,WTP_SM_Choice,2022.2.1,Win32,60.24096386,,,,,,,,,,,,,,,,,,26,,,,,,space,0.7102,space,0.8227,0.01,1,3.0904,0,0,0,0,1,Read Magazines and Articles,cook together with my family,0.01,0.01,4.4,1,,,,
,,65d659edd2fb402f9170d123,6685aa9113c938e83b4f1ea0,671122269940491190642581,2024-10-17_10h46.16.303,WTP_SM_Choice,2022.2.1,Win32,60.24096386,,,,,,,,,,,,,,,,,,27,,,,,,,,,,0.01,2,3.1746,0,1,1,1,1,Learn about information technology,go fishing with friends,0.02,0.01,3.3,1,,,,
,,65d659edd2fb402f9170d123,6685aa9113c938e83b4f1ea0,671122269940491190642581,2024-10-17_10h46.16.303,WTP_SM_Choice,2022.2.1,Win32,60.24096386,,,,,,,,,,,,,,,,,,28,,,,,,,,,,0.03,1,2.3152,0,2,2,2,1,go on trips with friends,Watch new movies and shows on television,0.03,0.01,3.3,0,,,,
,,65d659edd2fb402f9170d123,6685aa9113c938e83b4f1ea0,671122269940491190642581,2024-10-17_10h46.16.303,WTP_SM_Choice,2022.2.1,Win32,60.24096386,,,,,,,,,,,,,,,,,,29,,,,,,,,,,0.01,2,2.2854,0,3,3,3,1,Shop online,Watch movies with my significant other,0.04,0.01,4.4,1,,,,
,,65d659edd2fb402f9170d123,6685aa9113c938e83b4f1ea0,671122269940491190642581,2024-10-17_10h46.16.303,WTP_SM_Choice,2022.2.1,Win32,60.24096386,,,,,,,,,,,,,,,,,,30,,,,,,,,,,0.05,1,2.1641,0,4,4,4,1,cook together with my family,Watch music videos,0.05,0.01,8.8,0,,,,
,,65d659edd2fb402f9170d123,6685aa9113c938e83b4f1ea0,671122269940491190642581,2024-10-17_10h46.16.303,WTP_SM_Choice,2022.2.1,Win32,60.24096386,,,,,,,NAN,,NAN,0.91,5.09,,0,29,29,29,1,30,Charlie,Acc,Participant_Images/65d659edd2fb402f9170d123/65d659edd2fb402f9170d123_Images/65d659edd2fb402f9170d123_Image_18.jpeg,liked,1.661473164,,,,,,,,,,,,,,,,,,,,,,
,,65d659edd2fb402f9170d123,6685aa9113c938e83b4f1ea0,671122269940491190642581,2024-10-17_10h46.16.303,WTP_SM_Choice,2022.2.1,Win32,60.24096386,,,,,space,0.7297,NAN,,NAN,0.91,5.09,,0,30,30,30,1,31,Charlie,Acc,Participant_Images/65d659edd2fb402f9170d123/65d659edd2fb402f9170d123_Images/65d659edd2fb402f9170d123_Image_1.jpeg,liked,3.613205605,,,,,,,,,,,,,,,,,,,,,,
,,65d659edd2fb402f9170d123,6685aa9113c938e83b4f1ea0,671122269940491190642581,2024-10-17_10h46.16.303,WTP_SM_Choice,2022.2.1,Win32,60.24096386,,,,,space,1.4145,NAN,,NAN,0.91,5.09,,0,31,31,31,1,32,Charlie,Acc,Participant_Images/65d659edd2fb402f9170d123/65d659edd2fb402f9170d123_Images/65d659edd2fb402f9170d123_Image_23.jpeg,did not like,4.988446431,,,,,,,,,,,,,,,,,,,,,,
,,65d659edd2fb402f9170d123,6685aa9113c938e83b4f1ea0,671122269940491190642581,2024-10-17_10h46.16.303,WTP_SM_Choice,2022.2.1,Win32,60.24096386,,,,,space,1.164,NAN,,NAN,0.91,5.09,,0,32,32,32,1,33,Charlie,Acc,Participant_Images/65d659edd2fb402f9170d123/65d659edd2fb402f9170d123_Images/65d659edd2fb402f9170d123_Image_10.jpeg,liked,3.470791822,,,,,,,,,,,,,,,,,,,,,,
,,65d659edd2fb402f9170d123,6685aa9113c938e83b4f1ea0,671122269940491190642581,2024-10-17_10h46.16.303,WTP_SM_Choice,2022.2.1,Win32,60.24096386,,,,,space,0.6763,NAN,,NAN,0.91,5.09,,0,33,33,33,1,34,Charlie,Acc,Participant_Images/65d659edd2fb402f9170d123/65d659edd2fb402f9170d123_Images/65d659edd2fb402f9170d123_Image_17.jpeg,liked,3.820572462,,,,,,,,,,,,,,,,,,,,,,
,,65d659edd2fb402f9170d123,6685aa9113c938e83b4f1ea0,671122269940491190642581,2024-10-17_10h46.16.303,WTP_SM_Choice,2022.2.1,Win32,60.24096386,,,,,,,,,,,,,,,,,,31,,,,,,space,2.056,space,13.2298,0.01,1,1.4612,0,0,0,0,1,Go to the bar with friends,Paint in my room,0.01,0.02,8.8,0,,,,
,,65d659edd2fb402f9170d123,6685aa9113c938e83b4f1ea0,671122269940491190642581,2024-10-17_10h46.16.303,WTP_SM_Choice,2022.2.1,Win32,60.24096386,,,,,,,,,,,,,,,,,,32,,,,,,,,,,0.02,2,2.6141,0,1,1,1,1,go out to eat with my spouse,Sit outside for fresh air,0.02,0.02,1.1,0,,,,
,,65d659edd2fb402f9170d123,6685aa9113c938e83b4f1ea0,671122269940491190642581,2024-10-17_10h46.16.303,WTP_SM_Choice,2022.2.1,Win32,60.24096386,,,,,,,,,,,,,,,,,,33,,,,,,,,,,0.02,2,2.1305,0,2,2,2,1,cook together with my family,Sit outside for fresh air,0.03,0.02,4.4,0,,,,
,,65d659edd2fb402f9170d123,6685aa9113c938e83b4f1ea0,671122269940491190642581,2024-10-17_10h46.16.303,WTP_SM_Choice,2022.2.1,Win32,60.24096386,,,,,,,,,,,,,,,,,,34,,,,,,,,,,0.02,2,3.0789,0,3,3,3,1,Paint in my room,have family movie nights,0.04,0.02,3.3,1,,,,
,,65d659edd2fb402f9170d123,6685aa9113c938e83b4f1ea0,671122269940491190642581,2024-10-17_10h46.16.303,WTP_SM_Choice,2022.2.1,Win32,60.24096386,,,,,,,,,,,,,,,,,,35,,,,,,,,,,0.02,2,3.2649,0,4,4,4,1,cook together with my family,Learn about information technology,0.05,0.02,1.1,0,,,,
,,65d659edd2fb402f9170d123,6685aa9113c938e83b4f1ea0,671122269940491190642581,2024-10-17_10h46.16.303,WTP_SM_Choice,2022.2.1,Win32,60.24096386,,,,,,,NAN,,NAN,1,5,,0,34,34,34,1,35,Charlie,Acc,Participant_Images/65d659edd2fb402f9170d123/65d659edd2fb402f9170d123_Images/65d659edd2fb402f9170d123_Image_15.jpeg,liked,2.455989137,,,,,,,,,,,,,,,,,,,,,,
,,65d659edd2fb402f9170d123,6685aa9113c938e83b4f1ea0,671122269940491190642581,2024-10-17_10h46.16.303,WTP_SM_Choice,2022.2.1,Win32,60.24096386,,,,,space,0.8528,NAN,,NAN,1,5,,0,35,35,35,1,36,Charlie,Acc,Participant_Images/65d659edd2fb402f9170d123/65d659edd2fb402f9170d123_Images/65d659edd2fb402f9170d123_Image_4.jpeg,did not like,3.79605092,,,,,,,,,,,,,,,,,,,,,,
,,65d659edd2fb402f9170d123,6685aa9113c938e83b4f1ea0,671122269940491190642581,2024-10-17_10h46.16.303,WTP_SM_Choice,2022.2.1,Win32,60.24096386,,,,,space,1.761,NAN,,NAN,1,5,,0,36,36,36,1,37,Charlie,Acc,Participant_Images/65d659edd2fb402f9170d123/65d659edd2fb402f9170d123_Images/65d659edd2fb402f9170d123_Image_25.jpeg,liked,3.562416326,,,,,,,,,,,,,,,,,,,,,,
,,65d659edd2fb402f9170d123,6685aa9113c938e83b4f1ea0,671122269940491190642581,2024-10-17_10h46.16.303,WTP_SM_Choice,2022.2.1,Win32,60.24096386,,,,,space,0.7453,NAN,,NAN,1,5,,0,37,37,37,1,38,Charlie,Acc,Participant_Images/65d659edd2fb402f9170d123/65d659edd2fb402f9170d123_Images/65d659edd2fb402f9170d123_Image_7.jpeg,did not like,2.843822497,,,,,,,,,,,,,,,,,,,,,,
,,65d659edd2fb402f9170d123,6685aa9113c938e83b4f1ea0,671122269940491190642581,2024-10-17_10h46.16.303,WTP_SM_Choice,2022.2.1,Win32,60.24096386,,,,,space,1.568,NAN,,NAN,1,5,,0,38,38,38,1,39,Charlie,Acc,Participant_Images/65d659edd2fb402f9170d123/65d659edd2fb402f9170d123_Images/65d659edd2fb402f9170d123_Image_9.jpeg,did not like,3.546495948,,,,,,,,,,,,,,,,,,,,,,
,,65d659edd2fb402f9170d123,6685aa9113c938e83b4f1ea0,671122269940491190642581,2024-10-17_10h46.16.303,WTP_SM_Choice,2022.2.1,Win32,60.24096386,,,,,,,,,,,,,,,,,,36,,,,,,space,1.6635,space,1.33,0.01,1,3.6208,0,0,0,0,1,go on trips with friends,Learn about information technology,0.01,0.03,3.3,0,,,,
,,65d659edd2fb402f9170d123,6685aa9113c938e83b4f1ea0,671122269940491190642581,2024-10-17_10h46.16.303,WTP_SM_Choice,2022.2.1,Win32,60.24096386,,,,,,,,,,,,,,,,,,37,,,,,,,,,,0.02,1,1.7893,0,1,1,1,1,go on trips with friends,Sit outside for fresh air,0.02,0.03,1.1,0,,,,
,,65d659edd2fb402f9170d123,6685aa9113c938e83b4f1ea0,671122269940491190642581,2024-10-17_10h46.16.303,WTP_SM_Choice,2022.2.1,Win32,60.24096386,,,,,,,,,,,,,,,,,,38,,,,,,,,,,0.03,1,2.2643,0,2,2,2,1,go out to eat with my spouse,Sketch art in my sketchbook,0.03,0.03,1.1,0,,,,
,,65d659edd2fb402f9170d123,6685aa9113c938e83b4f1ea0,671122269940491190642581,2024-10-17_10h46.16.303,WTP_SM_Choice,2022.2.1,Win32,60.24096386,,,,,,,,,,,,,,,,,,39,,,,,,,,,,0.03,2,2.734,0,3,3,3,1,Watch music videos,Watch movies with my significant other,0.04,0.03,3.3,1,,,,
,,65d659edd2fb402f9170d123,6685aa9113c938e83b4f1ea0,671122269940491190642581,2024-10-17_10h46.16.303,WTP_SM_Choice,2022.2.1,Win32,60.24096386,,,,,,,,,,,,,,,,,,40,,,,,,,,,,0.03,2,1.7506,0,4,4,4,1,Go on dates with my spouse,Sketch art in my sketchbook,0.05,0.03,4.4,0,,,,
,,65d659edd2fb402f9170d123,6685aa9113c938e83b4f1ea0,671122269940491190642581,2024-10-17_10h46.16.303,WTP_SM_Choice,2022.2.1,Win32,60.24096386,,,,,,,NAN,,NAN,1.12,4.88,,0,39,39,39,1,40,Charlie,Acc,Participant_Images/65d659edd2fb402f9170d123/65d659edd2fb402f9170d123_Images/65d659edd2fb402f9170d123_Image_19.jpeg,liked,1.672012706,,,,,,,,,,,,,,,,,,,,,,
,,65d659edd2fb402f9170d123,6685aa9113c938e83b4f1ea0,671122269940491190642581,2024-10-17_10h46.16.303,WTP_SM_Choice,2022.2.1,Win32,60.24096386,,,,,space,0.7278,NAN,,NAN,1.12,4.88,,0,40,40,40,1,41,Charlie,Acc,Participant_Images/65d659edd2fb402f9170d123/65d659edd2fb402f9170d123_Images/65d659edd2fb402f9170d123_Image_14.jpeg,liked,4.942172136,,,,,,,,,,,,,,,,,,,,,,
,,65d659edd2fb402f9170d123,6685aa9113c938e83b4f1ea0,671122269940491190642581,2024-10-17_10h46.16.303,WTP_SM_Choice,2022.2.1,Win32,60.24096386,,,,,space,0.6444,NAN,,NAN,1.12,4.88,,0,41,41,41,1,42,Charlie,Acc,Participant_Images/65d659edd2fb402f9170d123/65d659edd2fb402f9170d123_Images/65d659edd2fb402f9170d123_Image_8.jpeg,liked,2.50187214,,,,,,,,,,,,,,,,,,,,,,
,,65d659edd2fb402f9170d123,6685aa9113c938e83b4f1ea0,671122269940491190642581,2024-10-17_10h46.16.303,WTP_SM_Choice,2022.2.1,Win32,60.24096386,,,,,space,0.687,NAN,,NAN,1.12,4.88,,0,42,42,42,1,43,Charlie,Acc,Participant_Images/65d659edd2fb402f9170d123/65d659edd2fb402f9170d123_Images/65d659edd2fb402f9170d123_Image_22.jpeg,liked,2.071164779,,,,,,,,,,,,,,,,,,,,,,
,,65d659edd2fb402f9170d123,6685aa9113c938e83b4f1ea0,671122269940491190642581,2024-10-17_10h46.16.303,WTP_SM_Choice,2022.2.1,Win32,60.24096386,,,,,space,0.6214,NAN,,NAN,1.12,4.88,,0,43,43,43,1,44,Charlie,Acc,Participant_Images/65d659edd2fb402f9170d123/65d659edd2fb402f9170d123_Images/65d659edd2fb402f9170d123_Image_20.jpeg,liked,5.336503566,,,,,,,,,,,,,,,,,,,,,,
,,65d659edd2fb402f9170d123,6685aa9113c938e83b4f1ea0,671122269940491190642581,2024-10-17_10h46.16.303,WTP_SM_Choice,2022.2.1,Win32,60.24096386,,,,,,,,,,,,,,,,,,41,,,,,,space,1.3081,space,1.2506,0.01,1,2.1886,0,0,0,0,1,Watch movies with my significant other,Paint in my room,0.01,0.04,1.1,0,,,,
,,65d659edd2fb402f9170d123,6685aa9113c938e83b4f1ea0,671122269940491190642581,2024-10-17_10h46.16.303,WTP_SM_Choice,2022.2.1,Win32,60.24096386,,,,,,,,,,,,,,,,,,42,,,,,,,,,,0.04,2,2.0767,0,1,1,1,1,Watch music videos,Watch reality tv shows with friends,0.02,0.04,3.3,1,,,,
,,65d659edd2fb402f9170d123,6685aa9113c938e83b4f1ea0,671122269940491190642581,2024-10-17_10h46.16.303,WTP_SM_Choice,2022.2.1,Win32,60.24096386,,,,,,,,,,,,,,,,,,43,,,,,,,,,,0.03,1,2.8859,0,2,2,2,1,Sketch art in my sketchbook,Go to the bar with friends,0.03,0.04,1.1,1,,,,
,,65d659edd2fb402f9170d123,6685aa9113c938e83b4f1ea0,671122269940491190642581,2024-10-17_10h46.16.303,WTP_SM_Choice,2022.2.1,Win32,60.24096386,,,,,,,,,,,,,,,,,,44,,,,,,,,,,0.04,1,1.803,0,3,3,3,1,Go to the bar with friends,Watch music videos,0.04,0.04,1.1,0,,,,
,,65d659edd2fb402f9170d123,6685aa9113c938e83b4f1ea0,671122269940491190642581,2024-10-17_10h46.16.303,WTP_SM_Choice,2022.2.1,Win32,60.24096386,,,,,,,,,,,,,,,,,,45,,,,,,,,,,0.04,2,2.5312,0,4,4,4,1,Sit outside for fresh air,Go on dates with my spouse,0.05,0.04,4.4,1,,,,
,,65d659edd2fb402f9170d123,6685aa9113c938e83b4f1ea0,671122269940491190642581,2024-10-17_10h46.16.303,WTP_SM_Choice,2022.2.1,Win32,60.24096386,,,,,,,NAN,,NAN,1.28,4.72,,0,44,44,44,1,45,Charlie,Acc,Participant_Images/65d659edd2fb402f9170d123/65d659edd2fb402f9170d123_Images/65d659edd2fb402f9170d123_Image_13.jpeg,did not like,2.642157193,,,,,,,,,,,,,,,,,,,,,,
,,65d659edd2fb402f9170d123,6685aa9113c938e83b4f1ea0,671122269940491190642581,2024-10-17_10h46.16.303,WTP_SM_Choice,2022.2.1,Win32,60.24096386,,,,,space,0.6091,NAN,,NAN,1.28,4.72,,0,45,45,45,1,46,Charlie,Acc,Participant_Images/65d659edd2fb402f9170d123/65d659edd2fb402f9170d123_Images/65d659edd2fb402f9170d123_Image_11.jpeg,liked,4.456234322,,,,,,,,,,,,,,,,,,,,,,
,,65d659edd2fb402f9170d123,6685aa9113c938e83b4f1ea0,671122269940491190642581,2024-10-17_10h46.16.303,WTP_SM_Choice,2022.2.1,Win32,60.24096386,,,,,space,0.8807,NAN,,NAN,1.28,4.72,,0,46,46,46,1,47,Charlie,Acc,Participant_Images/65d659edd2fb402f9170d123/65d659edd2fb402f9170d123_Images/65d659edd2fb402f9170d123_Image_2.jpeg,liked,4.438512181,,,,,,,,,,,,,,,,,,,,,,
,,65d659edd2fb402f9170d123,6685aa9113c938e83b4f1ea0,671122269940491190642581,2024-10-17_10h46.16.303,WTP_SM_Choice,2022.2.1,Win32,60.24096386,,,,,space,0.6365,NAN,,NAN,1.28,4.72,,0,47,47,47,1,48,Charlie,Acc,Participant_Images/65d659edd2fb402f9170d123/65d659edd2fb402f9170d123_Images/65d659edd2fb402f9170d123_Image_16.jpeg,liked,2.682944783,,,,,,,,,,,,,,,,,,,,,,
,,65d659edd2fb402f9170d123,6685aa9113c938e83b4f1ea0,671122269940491190642581,2024-10-17_10h46.16.303,WTP_SM_Choice,2022.2.1,Win32,60.24096386,,,,,space,0.8213,NAN,,NAN,1.28,4.72,,0,48,48,48,1,49,Charlie,Acc,Participant_Images/65d659edd2fb402f9170d123/65d659edd2fb402f9170d123_Images/65d659edd2fb402f9170d123_Image_21.jpeg,did not like,4.51984296,,,,,,,,,,,,,,,,,,,,,,
,,65d659edd2fb402f9170d123,6685aa9113c938e83b4f1ea0,671122269940491190642581,2024-10-17_10h46.16.303,WTP_SM_Choice,2022.2.1,Win32,60.24096386,,,,,,,,,,,,,,,,,,46,,,,,,space,17.4945,space,1.1151,0.05,2,1.8017,0,0,0,0,1,go out to eat with my spouse,Learn about information technology,0.01,0.05,8.8,0,,,,
,,65d659edd2fb402f9170d123,6685aa9113c938e83b4f1ea0,671122269940491190642581,2024-10-17_10h46.16.303,WTP_SM_Choice,2022.2.1,Win32,60.24096386,,,,,,,,,,,,,,,,,,47,,,,,,,,,,0.02,1,2.4045,0,1,1,1,1,Read Magazines and Articles,Go to the bar with friends,0.02,0.05,1.1,1,,,,
,,65d659edd2fb402f9170d123,6685aa9113c938e83b4f1ea0,671122269940491190642581,2024-10-17_10h46.16.303,WTP_SM_Choice,2022.2.1,Win32,60.24096386,,,,,,,,,,,,,,,,,,48,,,,,,,,,,0.05,2,2.6804,0,2,2,2,1,Go to the bar with friends,Learn about information technology,0.03,0.05,4.4,0,,,,
,,65d659edd2fb402f9170d123,6685aa9113c938e83b4f1ea0,671122269940491190642581,2024-10-17_10h46.16.303,WTP_SM_Choice,2022.2.1,Win32,60.24096386,,,,,,,,,,,,,,,,,,49,,,,,,,,,,0.04,1,1.8265,0,3,3,3,1,Learn about information technology,Watch movies with my significant other,0.04,0.05,3.3,1,,,,
,,65d659edd2fb402f9170d123,6685aa9113c938e83b4f1ea0,671122269940491190642581,2024-10-17_10h46.16.303,WTP_SM_Choice,2022.2.1,Win32,60.24096386,,,,,,,,,,,,,,,,,,50,,,,,,,,,,0.05,1,2.7139,0,4,4,4,1,Sketch art in my sketchbook,Go to bars with my spouse,0.05,0.05,1.1,1,,,,
,,65d659edd2fb402f9170d123,6685aa9113c938e83b4f1ea0,671122269940491190642581,2024-10-17_10h46.16.303,WTP_SM_Choice,2022.2.1,Win32,60.24096386,,,,,,,4,,3,1.49,4.51,,0,49,49,49,1,50,Charlie,Acc,Participant_Images/65d659edd2fb402f9170d123/65d659edd2fb402f9170d123_Images/65d659edd2fb402f9170d123_Image_24.jpeg,liked,3.195382774,,,,,,,,,,,,,,,,,,,space,1.4356,,
,,65d659edd2fb402f9170d123,6685aa9113c938e83b4f1ea0,671122269940491190642581,2024-10-17_10h46.16.303,WTP_SM_Choice,2022.2.1,Win32,60.24096386,,,space,3.1013,space,0.9607,NAN,,NAN,1.49,4.51,,0,50,50,50,1,51,Riley,Acc,Participant_Images/65d659edd2fb402f9170d123/65d659edd2fb402f9170d123_Images/65d659edd2fb402f9170d123_Image_15.jpeg,liked,1.779333479,,,,,,,,,,,,,,,,,,,,,,
,,65d659edd2fb402f9170d123,6685aa9113c938e83b4f1ea0,671122269940491190642581,2024-10-17_10h46.16.303,WTP_SM_Choice,2022.2.1,Win32,60.24096386,,,,,space,0.7936,NAN,,NAN,1.49,4.51,,0,51,51,51,1,52,Riley,Acc,Participant_Images/65d659edd2fb402f9170d123/65d659edd2fb402f9170d123_Images/65d659edd2fb402f9170d123_Image_20.jpeg,liked,4.312468682,,,,,,,,,,,,,,,,,,,,,,
,,65d659edd2fb402f9170d123,6685aa9113c938e83b4f1ea0,671122269940491190642581,2024-10-17_10h46.16.303,WTP_SM_Choice,2022.2.1,Win32,60.24096386,,,,,space,0.9263,NAN,,NAN,1.49,4.51,,0,52,52,52,1,53,Riley,Acc,Participant_Images/65d659edd2fb402f9170d123/65d659edd2fb402f9170d123_Images/65d659edd2fb402f9170d123_Image_10.jpeg,liked,4.940433059,,,,,,,,,,,,,,,,,,,,,,
,,65d659edd2fb402f9170d123,6685aa9113c938e83b4f1ea0,671122269940491190642581,2024-10-17_10h46.16.303,WTP_SM_Choice,2022.2.1,Win32,60.24096386,,,,,space,0.6274,NAN,,NAN,1.49,4.51,,0,53,53,53,1,54,Riley,Acc,Participant_Images/65d659edd2fb402f9170d123/65d659edd2fb402f9170d123_Images/65d659edd2fb402f9170d123_Image_4.jpeg,did not like,2.7105123,,,,,,,,,,,,,,,,,,,,,,
,,65d659edd2fb402f9170d123,6685aa9113c938e83b4f1ea0,671122269940491190642581,2024-10-17_10h46.16.303,WTP_SM_Choice,2022.2.1,Win32,60.24096386,,,,,,,,,,,,,,,,,,51,,,,,,space,1.0456,space,1.5252,0.01,2,2.2389,0,0,0,0,1,cook together with my family,Paint in my room,0.01,0.01,1.1,0,,,,
,,65d659edd2fb402f9170d123,6685aa9113c938e83b4f1ea0,671122269940491190642581,2024-10-17_10h46.16.303,WTP_SM_Choice,2022.2.1,Win32,60.24096386,,,,,,,,,,,,,,,,,,52,,,,,,,,,,0.02,1,2.8602,0,1,1,1,1,Watch music videos,go out to eat with my spouse,0.02,0.01,3.3,1,,,,
,,65d659edd2fb402f9170d123,6685aa9113c938e83b4f1ea0,671122269940491190642581,2024-10-17_10h46.16.303,WTP_SM_Choice,2022.2.1,Win32,60.24096386,,,,,,,,,,,,,,,,,,53,,,,,,,,,,0.01,2,2.7101,0,2,2,2,1,Watch reality tv shows with friends,Cook different kinds of foods,0.03,0.01,1.1,0,,,,
,,65d659edd2fb402f9170d123,6685aa9113c938e83b4f1ea0,671122269940491190642581,2024-10-17_10h46.16.303,WTP_SM_Choice,2022.2.1,Win32,60.24096386,,,,,,,,,,,,,,,,,,54,,,,,,,,,,0.04,1,2.7826,0,3,3,3,1,Cook different kinds of foods,Go on dates with my spouse,0.04,0.01,4.4,1,,,,
,,65d659edd2fb402f9170d123,6685aa9113c938e83b4f1ea0,671122269940491190642581,2024-10-17_10h46.16.303,WTP_SM_Choice,2022.2.1,Win32,60.24096386,,,,,,,,,,,,,,,,,,55,,,,,,,,,,0.01,2,1.2007,0,4,4,4,1,Read Magazines and Articles,go on trips with friends,0.05,0.01,1.1,1,,,,
,,65d659edd2fb402f9170d123,6685aa9113c938e83b4f1ea0,671122269940491190642581,2024-10-17_10h46.16.303,WTP_SM_Choice,2022.2.1,Win32,60.24096386,,,,,,,NAN,,NAN,1.58,4.42,,0,54,54,54,1,55,Riley,Acc,Participant_Images/65d659edd2fb402f9170d123/65d659edd2fb402f9170d123_Images/65d659edd2fb402f9170d123_Image_22.jpeg,liked,3.602308302,,,,,,,,,,,,,,,,,,,,,,
,,65d659edd2fb402f9170d123,6685aa9113c938e83b4f1ea0,671122269940491190642581,2024-10-17_10h46.16.303,WTP_SM_Choice,2022.2.1,Win32,60.24096386,,,,,space,0.5732,NAN,,NAN,1.58,4.42,,0,55,55,55,1,56,Riley,Acc,Participant_Images/65d659edd2fb402f9170d123/65d659edd2fb402f9170d123_Images/65d659edd2fb402f9170d123_Image_3.jpeg,liked,4.106391878,,,,,,,,,,,,,,,,,,,,,,
,,65d659edd2fb402f9170d123,6685aa9113c938e83b4f1ea0,671122269940491190642581,2024-10-17_10h46.16.303,WTP_SM_Choice,2022.2.1,Win32,60.24096386,,,,,space,0.4547,NAN,,NAN,1.58,4.42,,0,56,56,56,1,57,Riley,Acc,Participant_Images/65d659edd2fb402f9170d123/65d659edd2fb402f9170d123_Images/65d659edd2fb402f9170d123_Image_6.jpeg,liked,3.799433026,,,,,,,,,,,,,,,,,,,,,,
,,65d659edd2fb402f9170d123,6685aa9113c938e83b4f1ea0,671122269940491190642581,2024-10-17_10h46.16.303,WTP_SM_Choice,2022.2.1,Win32,60.24096386,,,,,space,0.9326,NAN,,NAN,1.58,4.42,,0,57,57,57,1,58,Riley,Acc,Participant_Images/65d659edd2fb402f9170d123/65d659edd2fb402f9170d123_Images/65d659edd2fb402f9170d123_Image_21.jpeg,liked,5.246980764,,,,,,,,,,,,,,,,,,,,,,
,,65d659edd2fb402f9170d123,6685aa9113c938e83b4f1ea0,671122269940491190642581,2024-10-17_10h46.16.303,WTP_SM_Choice,2022.2.1,Win32,60.24096386,,,,,space,0.7899,NAN,,NAN,1.58,4.42,,0,58,58,58,1,59,Riley,Acc,Participant_Images/65d659edd2fb402f9170d123/65d659edd2fb402f9170d123_Images/65d659edd2fb402f9170d123_Image_23.jpeg,liked,3.30081769,,,,,,,,,,,,,,,,,,,,,,
,,65d659edd2fb402f9170d123,6685aa9113c938e83b4f1ea0,671122269940491190642581,2024-10-17_10h46.16.303,WTP_SM_Choice,2022.2.1,Win32,60.24096386,,,,,,,,,,,,,,,,,,56,,,,,,space,0.9357,space,0.6243,0.01,1,3.4437,0,0,0,0,1,Watch music videos,go fishing with friends,0.01,0.02,8.8,1,,,,
,,65d659edd2fb402f9170d123,6685aa9113c938e83b4f1ea0,671122269940491190642581,2024-10-17_10h46.16.303,WTP_SM_Choice,2022.2.1,Win32,60.24096386,,,,,,,,,,,,,,,,,,57,,,,,,,,,,0.02,2,8.2686,0,1,1,1,1,Shop online,Watch reality tv shows with friends,0.02,0.02,4.4,1,,,,
,,65d659edd2fb402f9170d123,6685aa9113c938e83b4f1ea0,671122269940491190642581,2024-10-17_10h46.16.303,WTP_SM_Choice,2022.2.1,Win32,60.24096386,,,,,,,,,,,,,,,,,,58,,,,,,,,,,0.02,2,4.3589,0,2,2,2,1,Shop online,Go to the bar with friends,0.03,0.02,4.4,1,,,,
,,65d659edd2fb402f9170d123,6685aa9113c938e83b4f1ea0,671122269940491190642581,2024-10-17_10h46.16.303,WTP_SM_Choice,2022.2.1,Win32,60.24096386,,,,,,,,,,,,,,,,,,59,,,,,,,,,,0.02,2,3.4307,0,3,3,3,1,Cook different kinds of foods,Go to the bar with friends,0.04,0.02,4.4,1,,,,
,,65d659edd2fb402f9170d123,6685aa9113c938e83b4f1ea0,671122269940491190642581,2024-10-17_10h46.16.303,WTP_SM_Choice,2022.2.1,Win32,60.24096386,,,,,,,,,,,,,,,,,,60,,,,,,,,,,0.02,2,3.1109,0,4,4,4,1,Read Magazines and Articles,have family movie nights,0.05,0.02,1.1,1,,,,
,,65d659edd2fb402f9170d123,6685aa9113c938e83b4f1ea0,671122269940491190642581,2024-10-17_10h46.16.303,WTP_SM_Choice,2022.2.1,Win32,60.24096386,,,,,,,NAN,,NAN,1.67,4.33,,0,59,59,59,1,60,Riley,Acc,Participant_Images/65d659edd2fb402f9170d123/65d659edd2fb402f9170d123_Images/65d659edd2fb402f9170d123_Image_2.jpeg,liked,1.661473164,,,,,,,,,,,,,,,,,,,,,,
,,65d659edd2fb402f9170d123,6685aa9113c938e83b4f1ea0,671122269940491190642581,2024-10-17_10h46.16.303,WTP_SM_Choice,2022.2.1,Win32,60.24096386,,,,,space,0.7709,NAN,,NAN,1.67,4.33,,0,60,60,60,1,61,Riley,Acc,Participant_Images/65d659edd2fb402f9170d123/65d659edd2fb402f9170d123_Images/65d659edd2fb402f9170d123_Image_16.jpeg,liked,3.613205605,,,,,,,,,,,,,,,,,,,,,,
,,65d659edd2fb402f9170d123,6685aa9113c938e83b4f1ea0,671122269940491190642581,2024-10-17_10h46.16.303,WTP_SM_Choice,2022.2.1,Win32,60.24096386,,,,,space,0.5016,NAN,,NAN,1.67,4.33,,0,61,61,61,1,62,Riley,Acc,Participant_Images/65d659edd2fb402f9170d123/65d659edd2fb402f9170d123_Images/65d659edd2fb402f9170d123_Image_11.jpeg,liked,4.988446431,,,,,,,,,,,,,,,,,,,,,,
,,65d659edd2fb402f9170d123,6685aa9113c938e83b4f1ea0,671122269940491190642581,2024-10-17_10h46.16.303,WTP_SM_Choice,2022.2.1,Win32,60.24096386,,,,,space,0.7113,NAN,,NAN,1.67,4.33,,0,62,62,62,1,63,Riley,Acc,Participant_Images/65d659edd2fb402f9170d123/65d659edd2fb402f9170d123_Images/65d659edd2fb402f9170d123_Image_14.jpeg,did not like,3.470791822,,,,,,,,,,,,,,,,,,,,,,
,,65d659edd2fb402f9170d123,6685aa9113c938e83b4f1ea0,671122269940491190642581,2024-10-17_10h46.16.303,WTP_SM_Choice,2022.2.1,Win32,60.24096386,,,,,space,0.6699,NAN,,NAN,1.67,4.33,,0,63,63,63,1,64,Riley,Acc,Participant_Images/65d659edd2fb402f9170d123/65d659edd2fb402f9170d123_Images/65d659edd2fb402f9170d123_Image_18.jpeg,liked,3.820572462,,,,,,,,,,,,,,,,,,,,,,
,,65d659edd2fb402f9170d123,6685aa9113c938e83b4f1ea0,671122269940491190642581,2024-10-17_10h46.16.303,WTP_SM_Choice,2022.2.1,Win32,60.24096386,,,,,,,,,,,,,,,,,,61,,,,,,space,0.8387,space,1.2287,0.01,1,2.2857,0,0,0,0,1,Watch music videos,go on trips with friends,0.01,0.03,3.3,1,,,,
,,65d659edd2fb402f9170d123,6685aa9113c938e83b4f1ea0,671122269940491190642581,2024-10-17_10h46.16.303,WTP_SM_Choice,2022.2.1,Win32,60.24096386,,,,,,,,,,,,,,,,,,62,,,,,,,,,,0.02,1,2.5366,0,1,1,1,1,Watch new movies and shows on television,cook together with my family,0.02,0.03,3.3,1,,,,
,,65d659edd2fb402f9170d123,6685aa9113c938e83b4f1ea0,671122269940491190642581,2024-10-17_10h46.16.303,WTP_SM_Choice,2022.2.1,Win32,60.24096386,,,,,,,,,,,,,,,,,,63,,,,,,,,,,0.03,2,2.2848,0,2,2,2,1,Watch reality tv shows with friends,Sit outside for fresh air,0.03,0.03,3.3,0,,,,
,,65d659edd2fb402f9170d123,6685aa9113c938e83b4f1ea0,671122269940491190642581,2024-10-17_10h46.16.303,WTP_SM_Choice,2022.2.1,Win32,60.24096386,,,,,,,,,,,,,,,,,,64,,,,,,,,,,0.03,2,4.0102,0,3,3,3,1,go fishing with friends,Watch new movies and shows on television,0.04,0.03,1.1,0,,,,
,,65d659edd2fb402f9170d123,6685aa9113c938e83b4f1ea0,671122269940491190642581,2024-10-17_10h46.16.303,WTP_SM_Choice,2022.2.1,Win32,60.24096386,,,,,,,,,,,,,,,,,,65,,,,,,,,,,0.03,2,1.932,0,4,4,4,1,Go on dates with my spouse,Watch music videos,0.05,0.03,1.1,0,,,,
,,65d659edd2fb402f9170d123,6685aa9113c938e83b4f1ea0,671122269940491190642581,2024-10-17_10h46.16.303,WTP_SM_Choice,2022.2.1,Win32,60.24096386,,,,,,,NAN,,NAN,1.79,4.21,,0,64,64,64,1,65,Riley,Acc,Participant_Images/65d659edd2fb402f9170d123/65d659edd2fb402f9170d123_Images/65d659edd2fb402f9170d123_Image_5.jpeg,did not like,2.455989137,,,,,,,,,,,,,,,,,,,,,,
,,65d659edd2fb402f9170d123,6685aa9113c938e83b4f1ea0,671122269940491190642581,2024-10-17_10h46.16.303,WTP_SM_Choice,2022.2.1,Win32,60.24096386,,,,,space,1.0456,NAN,,NAN,1.79,4.21,,0,65,65,65,1,66,Riley,Acc,Participant_Images/65d659edd2fb402f9170d123/65d659edd2fb402f9170d123_Images/65d659edd2fb402f9170d123_Image_8.jpeg,did not like,3.79605092,,,,,,,,,,,,,,,,,,,,,,
,,65d659edd2fb402f9170d123,6685aa9113c938e83b4f1ea0,671122269940491190642581,2024-10-17_10h46.16.303,WTP_SM_Choice,2022.2.1,Win32,60.24096386,,,,,space,0.7705,NAN,,NAN,1.79,4.21,,0,66,66,66,1,67,Riley,Acc,Participant_Images/65d659edd2fb402f9170d123/65d659edd2fb402f9170d123_Images/65d659edd2fb402f9170d123_Image_17.jpeg,did not like,3.562416326,,,,,,,,,,,,,,,,,,,,,,
,,65d659edd2fb402f9170d123,6685aa9113c938e83b4f1ea0,671122269940491190642581,2024-10-17_10h46.16.303,WTP_SM_Choice,2022.2.1,Win32,60.24096386,,,,,space,1.0321,NAN,,NAN,1.79,4.21,,0,67,67,67,1,68,Riley,Acc,Participant_Images/65d659edd2fb402f9170d123/65d659edd2fb402f9170d123_Images/65d659edd2fb402f9170d123_Image_19.jpeg,liked,2.843822497,,,,,,,,,,,,,,,,,,,,,,
,,65d659edd2fb402f9170d123,6685aa9113c938e83b4f1ea0,671122269940491190642581,2024-10-17_10h46.16.303,WTP_SM_Choice,2022.2.1,Win32,60.24096386,,,,,space,0.6533,NAN,,NAN,1.79,4.21,,0,68,68,68,1,69,Riley,Acc,Participant_Images/65d659edd2fb402f9170d123/65d659edd2fb402f9170d123_Images/65d659edd2fb402f9170d123_Image_12.jpeg,liked,3.546495948,,,,,,,,,,,,,,,,,,,,,,
,,65d659edd2fb402f9170d123,6685aa9113c938e83b4f1ea0,671122269940491190642581,2024-10-17_10h46.16.303,WTP_SM_Choice,2022.2.1,Win32,60.24096386,,,,,,,,,,,,,,,,,,66,,,,,,space,0.8987,space,0.73,0.01,1,2.4354,0,0,0,0,1,Go to bars with my spouse,Watch music videos,0.01,0.04,1.1,0,,,,
,,65d659edd2fb402f9170d123,6685aa9113c938e83b4f1ea0,671122269940491190642581,2024-10-17_10h46.16.303,WTP_SM_Choice,2022.2.1,Win32,60.24096386,,,,,,,,,,,,,,,,,,67,,,,,,,,,,0.02,1,1.5687,0,1,1,1,1,go on trips with friends,Paint in my room,0.02,0.04,8.8,0,,,,
,,65d659edd2fb402f9170d123,6685aa9113c938e83b4f1ea0,671122269940491190642581,2024-10-17_10h46.16.303,WTP_SM_Choice,2022.2.1,Win32,60.24096386,,,,,,,,,,,,,,,,,,68,,,,,,,,,,0.04,2,2.2401,0,2,2,2,1,Watch reality tv shows with friends,Read Magazines and Articles,0.03,0.04,4.4,0,,,,
,,65d659edd2fb402f9170d123,6685aa9113c938e83b4f1ea0,671122269940491190642581,2024-10-17_10h46.16.303,WTP_SM_Choice,2022.2.1,Win32,60.24096386,,,,,,,,,,,,,,,,,,69,,,,,,,,,,0.04,2,3.8983,0,3,3,3,1,cook together with my family,Cook different kinds of foods,0.04,0.04,1.1,0,,,,
,,65d659edd2fb402f9170d123,6685aa9113c938e83b4f1ea0,671122269940491190642581,2024-10-17_10h46.16.303,WTP_SM_Choice,2022.2.1,Win32,60.24096386,,,,,,,,,,,,,,,,,,70,,,,,,,,,,0.04,2,2.0229,0,4,4,4,1,Sketch art in my sketchbook,have family movie nights,0.05,0.04,1.1,1,,,,
,,65d659edd2fb402f9170d123,6685aa9113c938e83b4f1ea0,671122269940491190642581,2024-10-17_10h46.16.303,WTP_SM_Choice,2022.2.1,Win32,60.24096386,,,,,,,NAN,,NAN,1.94,4.06,,0,69,69,69,1,70,Riley,Acc,Participant_Images/65d659edd2fb402f9170d123/65d659edd2fb402f9170d123_Images/65d659edd2fb402f9170d123_Image_13.jpeg,liked,1.672012706,,,,,,,,,,,,,,,,,,,,,,
,,65d659edd2fb402f9170d123,6685aa9113c938e83b4f1ea0,671122269940491190642581,2024-10-17_10h46.16.303,WTP_SM_Choice,2022.2.1,Win32,60.24096386,,,,,space,3.2248,NAN,,NAN,1.94,4.06,,0,70,70,70,1,71,Riley,Acc,Participant_Images/65d659edd2fb402f9170d123/65d659edd2fb402f9170d123_Images/65d659edd2fb402f9170d123_Image_24.jpeg,did not like,4.942172136,,,,,,,,,,,,,,,,,,,,,,
,,65d659edd2fb402f9170d123,6685aa9113c938e83b4f1ea0,671122269940491190642581,2024-10-17_10h46.16.303,WTP_SM_Choice,2022.2.1,Win32,60.24096386,,,,,space,1.154,NAN,,NAN,1.94,4.06,,0,71,71,71,1,72,Riley,Acc,Participant_Images/65d659edd2fb402f9170d123/65d659edd2fb402f9170d123_Images/65d659edd2fb402f9170d123_Image_25.jpeg,liked,2.50187214,,,,,,,,,,,,,,,,,,,,,,
,,65d659edd2fb402f9170d123,6685aa9113c938e83b4f1ea0,671122269940491190642581,2024-10-17_10h46.16.303,WTP_SM_Choice,2022.2.1,Win32,60.24096386,,,,,space,1.1125,NAN,,NAN,1.94,4.06,,0,72,72,72,1,73,Riley,Acc,Participant_Images/65d659edd2fb402f9170d123/65d659edd2fb402f9170d123_Images/65d659edd2fb402f9170d123_Image_9.jpeg,did not like,2.071164779,,,,,,,,,,,,,,,,,,,,,,
,,65d659edd2fb402f9170d123,6685aa9113c938e83b4f1ea0,671122269940491190642581,2024-10-17_10h46.16.303,WTP_SM_Choice,2022.2.1,Win32,60.24096386,,,,,space,0.9406,NAN,,NAN,1.94,4.06,,0,73,73,73,1,74,Riley,Acc,Participant_Images/65d659edd2fb402f9170d123/65d659edd2fb402f9170d123_Images/65d659edd2fb402f9170d123_Image_7.jpeg,liked,5.336503566,,,,,,,,,,,,,,,,,,,,,,
,,65d659edd2fb402f9170d123,6685aa9113c938e83b4f1ea0,671122269940491190642581,2024-10-17_10h46.16.303,WTP_SM_Choice,2022.2.1,Win32,60.24096386,,,,,,,,,,,,,,,,,,71,,,,,,space,1.0944,space,0.8579,0.01,1,6.6023,0,0,0,0,1,have family movie nights,Listen to music,0.01,0.05,3.3,0,,,,
,,65d659edd2fb402f9170d123,6685aa9113c938e83b4f1ea0,671122269940491190642581,2024-10-17_10h46.16.303,WTP_SM_Choice,2022.2.1,Win32,60.24096386,,,,,,,,,,,,,,,,,,72,,,,,,,,,,0.02,1,3.0398,0,1,1,1,1,Watch movies with my significant other,Listen to music,0.02,0.05,8.8,0,,,,
,,65d659edd2fb402f9170d123,6685aa9113c938e83b4f1ea0,671122269940491190642581,2024-10-17_10h46.16.303,WTP_SM_Choice,2022.2.1,Win32,60.24096386,,,,,,,,,,,,,,,,,,73,,,,,,,,,,0.03,1,2.0078,0,2,2,2,1,Go to bars with my spouse,Shop online,0.03,0.05,3.3,0,,,,
,,65d659edd2fb402f9170d123,6685aa9113c938e83b4f1ea0,671122269940491190642581,2024-10-17_10h46.16.303,WTP_SM_Choice,2022.2.1,Win32,60.24096386,,,,,,,,,,,,,,,,,,74,,,,,,,,,,0.04,1,2.2619,0,3,3,3,1,Listen to music,cook together with my family,0.04,0.05,4.4,1,,,,
,,65d659edd2fb402f9170d123,6685aa9113c938e83b4f1ea0,671122269940491190642581,2024-10-17_10h46.16.303,WTP_SM_Choice,2022.2.1,Win32,60.24096386,,,,,,,,,,,,,,,,,,75,,,,,,,,,,0.05,2,1.9412,0,4,4,4,1,have family movie nights,Learn about information technology,0.05,0.05,3.3,0,,,,
,,65d659edd2fb402f9170d123,6685aa9113c938e83b4f1ea0,671122269940491190642581,2024-10-17_10h46.16.303,WTP_SM_Choice,2022.2.1,Win32,60.24096386,,,,,,,2,,3,2.09,3.91,,0,74,74,74,1,75,Riley,Acc,Participant_Images/65d659edd2fb402f9170d123/65d659edd2fb402f9170d123_Images/65d659edd2fb402f9170d123_Image_1.jpeg,liked,2.642157193,,,,,,,,,,,,,,,,,,,space,1.1111,,
,,65d659edd2fb402f9170d123,6685aa9113c938e83b4f1ea0,671122269940491190642581,2024-10-17_10h46.16.303,WTP_SM_Choice,2022.2.1,Win32,60.24096386,,,space,3.422,space,0.9929,NAN,,NAN,2.09,3.91,,0,75,75,75,1,76,Alex,Rej,Participant_Images/65d659edd2fb402f9170d123/65d659edd2fb402f9170d123_Images/65d659edd2fb402f9170d123_Image_2.jpeg,did not like,4.456234322,,,,,,,,,,,,,,,,,,,,,,
,,65d659edd2fb402f9170d123,6685aa9113c938e83b4f1ea0,671122269940491190642581,2024-10-17_10h46.16.303,WTP_SM_Choice,2022.2.1,Win32,60.24096386,,,,,space,0.9833,NAN,,NAN,2.09,3.91,,0,76,76,76,1,77,Alex,Rej,Participant_Images/65d659edd2fb402f9170d123/65d659edd2fb402f9170d123_Images/65d659edd2fb402f9170d123_Image_16.jpeg,liked,4.438512181,,,,,,,,,,,,,,,,,,,,,,
,,65d659edd2fb402f9170d123,6685aa9113c938e83b4f1ea0,671122269940491190642581,2024-10-17_10h46.16.303,WTP_SM_Choice,2022.2.1,Win32,60.24096386,,,,,space,2.0466,NAN,,NAN,2.09,3.91,,0,77,77,77,1,78,Alex,Rej,Participant_Images/65d659edd2fb402f9170d123/65d659edd2fb402f9170d123_Images/65d659edd2fb402f9170d123_Image_5.jpeg,did not like,2.682944783,,,,,,,,,,,,,,,,,,,,,,
,,65d659edd2fb402f9170d123,6685aa9113c938e83b4f1ea0,671122269940491190642581,2024-10-17_10h46.16.303,WTP_SM_Choice,2022.2.1,Win32,60.24096386,,,,,space,1.4122,NAN,,NAN,2.09,3.91,,0,78,78,78,1,79,Alex,Rej,Participant_Images/65d659edd2fb402f9170d123/65d659edd2fb402f9170d123_Images/65d659edd2fb402f9170d123_Image_24.jpeg,did not like,4.51984296,,,,,,,,,,,,,,,,,,,,,,
,,65d659edd2fb402f9170d123,6685aa9113c938e83b4f1ea0,671122269940491190642581,2024-10-17_10h46.16.303,WTP_SM_Choice,2022.2.1,Win32,60.24096386,,,,,,,,,,,,,,,,,,76,,,,,,space,2.1036,space,1.4816,0.01,1,1.2287,0,0,0,0,1,go fishing with friends,Sketch art in my sketchbook,0.01,0.01,1.1,0,,,,
,,65d659edd2fb402f9170d123,6685aa9113c938e83b4f1ea0,671122269940491190642581,2024-10-17_10h46.16.303,WTP_SM_Choice,2022.2.1,Win32,60.24096386,,,,,,,,,,,,,,,,,,77,,,,,,,,,,0.01,2,6.9836,0,1,1,1,1,Read Magazines and Articles,Watch movies with my significant other,0.02,0.01,8.8,1,,,,
,,65d659edd2fb402f9170d123,6685aa9113c938e83b4f1ea0,671122269940491190642581,2024-10-17_10h46.16.303,WTP_SM_Choice,2022.2.1,Win32,60.24096386,,,,,,,,,,,,,,,,,,78,,,,,,,,,,0.01,2,4.1468,0,2,2,2,1,Listen to music,Go to the bar with friends,0.03,0.01,1.1,1,,,,
,,65d659edd2fb402f9170d123,6685aa9113c938e83b4f1ea0,671122269940491190642581,2024-10-17_10h46.16.303,WTP_SM_Choice,2022.2.1,Win32,60.24096386,,,,,,,,,,,,,,,,,,79,,,,,,,,,,0.01,2,2.4678,0,3,3,3,1,Shop online,have family movie nights,0.04,0.01,1.1,1,,,,
,,65d659edd2fb402f9170d123,6685aa9113c938e83b4f1ea0,671122269940491190642581,2024-10-17_10h46.16.303,WTP_SM_Choice,2022.2.1,Win32,60.24096386,,,,,,,,,,,,,,,,,,80,,,,,,,,,,0.01,2,2.3299,0,4,4,4,1,Listen to music,go fishing with friends,0.05,0.01,4.4,1,,,,
,,65d659edd2fb402f9170d123,6685aa9113c938e83b4f1ea0,671122269940491190642581,2024-10-17_10h46.16.303,WTP_SM_Choice,2022.2.1,Win32,60.24096386,,,,,,,NAN,,NAN,2.14,3.86,,0,79,79,79,1,80,Alex,Rej,Participant_Images/65d659edd2fb402f9170d123/65d659edd2fb402f9170d123_Images/65d659edd2fb402f9170d123_Image_14.jpeg,did not like,3.195382774,,,,,,,,,,,,,,,,,,,,,,
,,65d659edd2fb402f9170d123,6685aa9113c938e83b4f1ea0,671122269940491190642581,2024-10-17_10h46.16.303,WTP_SM_Choice,2022.2.1,Win32,60.24096386,,,,,space,1.3358,NAN,,NAN,2.14,3.86,,0,80,80,80,1,81,Alex,Rej,Participant_Images/65d659edd2fb402f9170d123/65d659edd2fb402f9170d123_Images/65d659edd2fb402f9170d123_Image_8.jpeg,liked,1.779333479,,,,,,,,,,,,,,,,,,,,,,
,,65d659edd2fb402f9170d123,6685aa9113c938e83b4f1ea0,671122269940491190642581,2024-10-17_10h46.16.303,WTP_SM_Choice,2022.2.1,Win32,60.24096386,,,,,space,4.2368,NAN,,NAN,2.14,3.86,,0,81,81,81,1,82,Alex,Rej,Participant_Images/65d659edd2fb402f9170d123/65d659edd2fb402f9170d123_Images/65d659edd2fb402f9170d123_Image_4.jpeg,liked,4.312468682,,,,,,,,,,,,,,,,,,,,,,
,,65d659edd2fb402f9170d123,6685aa9113c938e83b4f1ea0,671122269940491190642581,2024-10-17_10h46.16.303,WTP_SM_Choice,2022.2.1,Win32,60.24096386,,,,,space,1.8607,NAN,,NAN,2.14,3.86,,0,82,82,82,1,83,Alex,Rej,Participant_Images/65d659edd2fb402f9170d123/65d659edd2fb402f9170d123_Images/65d659edd2fb402f9170d123_Image_20.jpeg,liked,4.940433059,,,,,,,,,,,,,,,,,,,,,,
,,65d659edd2fb402f9170d123,6685aa9113c938e83b4f1ea0,671122269940491190642581,2024-10-17_10h46.16.303,WTP_SM_Choice,2022.2.1,Win32,60.24096386,,,,,space,0.7066,NAN,,NAN,2.14,3.86,,0,83,83,83,1,84,Alex,Rej,Participant_Images/65d659edd2fb402f9170d123/65d659edd2fb402f9170d123_Images/65d659edd2fb402f9170d123_Image_3.jpeg,did not like,2.7105123,,,,,,,,,,,,,,,,,,,,,,
,,65d659edd2fb402f9170d123,6685aa9113c938e83b4f1ea0,671122269940491190642581,2024-10-17_10h46.16.303,WTP_SM_Choice,2022.2.1,Win32,60.24096386,,,,,,,,,,,,,,,,,,81,,,,,,space,0.9413,space,0.562,0.01,1,2.2648,0,0,0,0,1,Go to the bar with friends,Watch new movies and shows on television,0.01,0.02,3.3,0,,,,
,,65d659edd2fb402f9170d123,6685aa9113c938e83b4f1ea0,671122269940491190642581,2024-10-17_10h46.16.303,WTP_SM_Choice,2022.2.1,Win32,60.24096386,,,,,,,,,,,,,,,,,,82,,,,,,,,,,0.02,2,9.4038,0,1,1,1,1,Sketch art in my sketchbook,Watch movies with my significant other,0.02,0.02,4.4,1,,,,
,,65d659edd2fb402f9170d123,6685aa9113c938e83b4f1ea0,671122269940491190642581,2024-10-17_10h46.16.303,WTP_SM_Choice,2022.2.1,Win32,60.24096386,,,,,,,,,,,,,,,,,,83,,,,,,,,,,0.03,1,2.3921,0,2,2,2,1,Listen to music,Watch reality tv shows with friends,0.03,0.02,1.1,1,,,,
,,65d659edd2fb402f9170d123,6685aa9113c938e83b4f1ea0,671122269940491190642581,2024-10-17_10h46.16.303,WTP_SM_Choice,2022.2.1,Win32,60.24096386,,,,,,,,,,,,,,,,,,84,,,,,,,,,,0.02,2,2.5816,0,3,3,3,1,Go on dates with my spouse,Learn about information technology,0.04,0.02,3.3,0,,,,
,,65d659edd2fb402f9170d123,6685aa9113c938e83b4f1ea0,671122269940491190642581,2024-10-17_10h46.16.303,WTP_SM_Choice,2022.2.1,Win32,60.24096386,,,,,,,,,,,,,,,,,,85,,,,,,,,,,0.02,2,4.5435,0,4,4,4,1,Listen to music,Go to bars with my spouse,0.05,0.02,3.3,1,,,,
,,65d659edd2fb402f9170d123,6685aa9113c938e83b4f1ea0,671122269940491190642581,2024-10-17_10h46.16.303,WTP_SM_Choice,2022.2.1,Win32,60.24096386,,,,,,,NAN,,NAN,2.24,3.76,,0,84,84,84,1,85,Alex,Rej,Participant_Images/65d659edd2fb402f9170d123/65d659edd2fb402f9170d123_Images/65d659edd2fb402f9170d123_Image_6.jpeg,did not like,3.602308302,,,,,,,,,,,,,,,,,,,,,,
,,65d659edd2fb402f9170d123,6685aa9113c938e83b4f1ea0,671122269940491190642581,2024-10-17_10h46.16.303,WTP_SM_Choice,2022.2.1,Win32,60.24096386,,,,,space,6.7683,NAN,,NAN,2.24,3.76,,0,85,85,85,1,86,Alex,Rej,Participant_Images/65d659edd2fb402f9170d123/65d659edd2fb402f9170d123_Images/65d659edd2fb402f9170d123_Image_13.jpeg,did not like,4.106391878,,,,,,,,,,,,,,,,,,,,,,
,,65d659edd2fb402f9170d123,6685aa9113c938e83b4f1ea0,671122269940491190642581,2024-10-17_10h46.16.303,WTP_SM_Choice,2022.2.1,Win32,60.24096386,,,,,space,0.9677,NAN,,NAN,2.24,3.76,,0,86,86,86,1,87,Alex,Rej,Participant_Images/65d659edd2fb402f9170d123/65d659edd2fb402f9170d123_Images/65d659edd2fb402f9170d123_Image_15.jpeg,did not like,3.799433026,,,,,,,,,,,,,,,,,,,,,,
,,65d659edd2fb402f9170d123,6685aa9113c938e83b4f1ea0,671122269940491190642581,2024-10-17_10h46.16.303,WTP_SM_Choice,2022.2.1,Win32,60.24096386,,,,,space,3.4986,NAN,,NAN,2.24,3.76,,0,87,87,87,1,88,Alex,Rej,Participant_Images/65d659edd2fb402f9170d123/65d659edd2fb402f9170d123_Images/65d659edd2fb402f9170d123_Image_22.jpeg,did not like,5.246980764,,,,,,,,,,,,,,,,,,,,,,
,,65d659edd2fb402f9170d123,6685aa9113c938e83b4f1ea0,671122269940491190642581,2024-10-17_10h46.16.303,WTP_SM_Choice,2022.2.1,Win32,60.24096386,,,,,space,1.4428,NAN,,NAN,2.24,3.76,,0,88,88,88,1,89,Alex,Rej,Participant_Images/65d659edd2fb402f9170d123/65d659edd2fb402f9170d123_Images/65d659edd2fb402f9170d123_Image_11.jpeg,did not like,3.30081769,,,,,,,,,,,,,,,,,,,,,,
,,65d659edd2fb402f9170d123,6685aa9113c938e83b4f1ea0,671122269940491190642581,2024-10-17_10h46.16.303,WTP_SM_Choice,2022.2.1,Win32,60.24096386,,,,,,,,,,,,,,,,,,86,,,,,,space,1.7856,space,1.5981,0.01,1,2.1723,0,0,0,0,1,Watch reality tv shows with friends,Paint in my room,0.01,0.03,1.1,0,,,,
,,65d659edd2fb402f9170d123,6685aa9113c938e83b4f1ea0,671122269940491190642581,2024-10-17_10h46.16.303,WTP_SM_Choice,2022.2.1,Win32,60.24096386,,,,,,,,,,,,,,,,,,87,,,,,,,,,,0.02,1,1.8857,0,1,1,1,1,Go to bars with my spouse,Paint in my room,0.02,0.03,4.4,0,,,,
,,65d659edd2fb402f9170d123,6685aa9113c938e83b4f1ea0,671122269940491190642581,2024-10-17_10h46.16.303,WTP_SM_Choice,2022.2.1,Win32,60.24096386,,,,,,,,,,,,,,,,,,88,,,,,,,,,,0.03,1,2.4112,0,2,2,2,1,go fishing with friends,Cook different kinds of foods,0.03,0.03,1.1,0,,,,
,,65d659edd2fb402f9170d123,6685aa9113c938e83b4f1ea0,671122269940491190642581,2024-10-17_10h46.16.303,WTP_SM_Choice,2022.2.1,Win32,60.24096386,,,,,,,,,,,,,,,,,,89,,,,,,,,,,0.03,2,1.5733,0,3,3,3,1,Listen to music,go on trips with friends,0.04,0.03,3.3,1,,,,
,,65d659edd2fb402f9170d123,6685aa9113c938e83b4f1ea0,671122269940491190642581,2024-10-17_10h46.16.303,WTP_SM_Choice,2022.2.1,Win32,60.24096386,,,,,,,,,,,,,,,,,,90,,,,,,,,,,0.03,2,1.9293,0,4,4,4,1,go out to eat with my spouse,Read Magazines and Articles,0.05,0.03,8.8,0,,,,
,,65d659edd2fb402f9170d123,6685aa9113c938e83b4f1ea0,671122269940491190642581,2024-10-17_10h46.16.303,WTP_SM_Choice,2022.2.1,Win32,60.24096386,,,,,,,NAN,,NAN,2.36,3.64,,0,89,89,89,1,90,Alex,Rej,Participant_Images/65d659edd2fb402f9170d123/65d659edd2fb402f9170d123_Images/65d659edd2fb402f9170d123_Image_18.jpeg,did not like,1.661473164,,,,,,,,,,,,,,,,,,,,,,
,,65d659edd2fb402f9170d123,6685aa9113c938e83b4f1ea0,671122269940491190642581,2024-10-17_10h46.16.303,WTP_SM_Choice,2022.2.1,Win32,60.24096386,,,,,space,1.1174,NAN,,NAN,2.36,3.64,,0,90,90,90,1,91,Alex,Rej,Participant_Images/65d659edd2fb402f9170d123/65d659edd2fb402f9170d123_Images/65d659edd2fb402f9170d123_Image_9.jpeg,did not like,3.613205605,,,,,,,,,,,,,,,,,,,,,,
,,65d659edd2fb402f9170d123,6685aa9113c938e83b4f1ea0,671122269940491190642581,2024-10-17_10h46.16.303,WTP_SM_Choice,2022.2.1,Win32,60.24096386,,,,,space,6.1934,NAN,,NAN,2.36,3.64,,0,91,91,91,1,92,Alex,Rej,Participant_Images/65d659edd2fb402f9170d123/65d659edd2fb402f9170d123_Images/65d659edd2fb402f9170d123_Image_25.jpeg,did not like,4.988446431,,,,,,,,,,,,,,,,,,,,,,
,,65d659edd2fb402f9170d123,6685aa9113c938e83b4f1ea0,671122269940491190642581,2024-10-17_10h46.16.303,WTP_SM_Choice,2022.2.1,Win32,60.24096386,,,,,space,10.3699,NAN,,NAN,2.36,3.64,,0,92,92,92,1,93,Alex,Rej,Participant_Images/65d659edd2fb402f9170d123/65d659edd2fb402f9170d123_Images/65d659edd2fb402f9170d123_Image_17.jpeg,liked,3.470791822,,,,,,,,,,,,,,,,,,,,,,
,,65d659edd2fb402f9170d123,6685aa9113c938e83b4f1ea0,671122269940491190642581,2024-10-17_10h46.16.303,WTP_SM_Choice,2022.2.1,Win32,60.24096386,,,,,space,4.5096,NAN,,NAN,2.36,3.64,,0,93,93,93,1,94,Alex,Rej,Participant_Images/65d659edd2fb402f9170d123/65d659edd2fb402f9170d123_Images/65d659edd2fb402f9170d123_Image_7.jpeg,liked,3.820572462,,,,,,,,,,,,,,,,,,,,,,
,,65d659edd2fb402f9170d123,6685aa9113c938e83b4f1ea0,671122269940491190642581,2024-10-17_10h46.16.303,WTP_SM_Choice,2022.2.1,Win32,60.24096386,,,,,,,,,,,,,,,,,,91,,,,,,space,1.3541,space,1.365,0.01,1,2.4628,0,0,0,0,1,Cook different kinds of foods,Watch movies with my significant other,0.01,0.04,3.3,1,,,,
,,65d659edd2fb402f9170d123,6685aa9113c938e83b4f1ea0,671122269940491190642581,2024-10-17_10h46.16.303,WTP_SM_Choice,2022.2.1,Win32,60.24096386,,,,,,,,,,,,,,,,,,92,,,,,,,,,,0.02,1,2.4153,0,1,1,1,1,cook together with my family,Shop online,0.02,0.04,8.8,0,,,,
,,65d659edd2fb402f9170d123,6685aa9113c938e83b4f1ea0,671122269940491190642581,2024-10-17_10h46.16.303,WTP_SM_Choice,2022.2.1,Win32,60.24096386,,,,,,,,,,,,,,,,,,93,,,,,,,,,,0.03,1,6.5515,0,2,2,2,1,go on trips with friends,Shop online,0.03,0.04,1.1,0,,,,
,,65d659edd2fb402f9170d123,6685aa9113c938e83b4f1ea0,671122269940491190642581,2024-10-17_10h46.16.303,WTP_SM_Choice,2022.2.1,Win32,60.24096386,,,,,,,,,,,,,,,,,,94,,,,,,,,,,0.04,1,8.6954,0,3,3,3,1,go on trips with friends,Cook different kinds of foods,0.04,0.04,4.4,0,,,,
,,65d659edd2fb402f9170d123,6685aa9113c938e83b4f1ea0,671122269940491190642581,2024-10-17_10h46.16.303,WTP_SM_Choice,2022.2.1,Win32,60.24096386,,,,,,,,,,,,,,,,,,95,,,,,,,,,,0.04,2,2.2635,0,4,4,4,1,go out to eat with my spouse,Shop online,0.05,0.04,4.4,0,,,,
,,65d659edd2fb402f9170d123,6685aa9113c938e83b4f1ea0,671122269940491190642581,2024-10-17_10h46.16.303,WTP_SM_Choice,2022.2.1,Win32,60.24096386,,,,,,,NAN,,NAN,2.5,3.5,,0,94,94,94,1,95,Alex,Rej,Participant_Images/65d659edd2fb402f9170d123/65d659edd2fb402f9170d123_Images/65d659edd2fb402f9170d123_Image_10.jpeg,did not like,2.455989137,,,,,,,,,,,,,,,,,,,,,,
,,65d659edd2fb402f9170d123,6685aa9113c938e83b4f1ea0,671122269940491190642581,2024-10-17_10h46.16.303,WTP_SM_Choice,2022.2.1,Win32,60.24096386,,,,,space,1.5772,NAN,,NAN,2.5,3.5,,0,95,95,95,1,96,Alex,Rej,Participant_Images/65d659edd2fb402f9170d123/65d659edd2fb402f9170d123_Images/65d659edd2fb402f9170d123_Image_1.jpeg,did not like,3.79605092,,,,,,,,,,,,,,,,,,,,,,
,,65d659edd2fb402f9170d123,6685aa9113c938e83b4f1ea0,671122269940491190642581,2024-10-17_10h46.16.303,WTP_SM_Choice,2022.2.1,Win32,60.24096386,,,,,space,10.5208,NAN,,NAN,2.5,3.5,,0,96,96,96,1,97,Alex,Rej,Participant_Images/65d659edd2fb402f9170d123/65d659edd2fb402f9170d123_Images/65d659edd2fb402f9170d123_Image_12.jpeg,liked,3.562416326,,,,,,,,,,,,,,,,,,,,,,
,,65d659edd2fb402f9170d123,6685aa9113c938e83b4f1ea0,671122269940491190642581,2024-10-17_10h46.16.303,WTP_SM_Choice,2022.2.1,Win32,60.24096386,,,,,space,0.7733,NAN,,NAN,2.5,3.5,,0,97,97,97,1,98,Alex,Rej,Participant_Images/65d659edd2fb402f9170d123/65d659edd2fb402f9170d123_Images/65d659edd2fb402f9170d123_Image_21.jpeg,did not like,2.843822497,,,,,,,,,,,,,,,,,,,,,,
,,65d659edd2fb402f9170d123,6685aa9113c938e83b4f1ea0,671122269940491190642581,2024-10-17_10h46.16.303,WTP_SM_Choice,2022.2.1,Win32,60.24096386,,,,,space,0.7801,NAN,,NAN,2.5,3.5,,0,98,98,98,1,99,Alex,Rej,Participant_Images/65d659edd2fb402f9170d123/65d659edd2fb402f9170d123_Images/65d659edd2fb402f9170d123_Image_19.jpeg,did not like,3.546495948,,,,,,,,,,,,,,,,,,,,,,
,,65d659edd2fb402f9170d123,6685aa9113c938e83b4f1ea0,671122269940491190642581,2024-10-17_10h46.16.303,WTP_SM_Choice,2022.2.1,Win32,60.24096386,,,,,,,,,,,,,,,,,,96,,,,,,space,0.6445,space,0.8335,0.01,1,1.4625,0,0,0,0,1,go fishing with friends,Read Magazines and Articles,0.01,0.05,3.3,0,,,,
,,65d659edd2fb402f9170d123,6685aa9113c938e83b4f1ea0,671122269940491190642581,2024-10-17_10h46.16.303,WTP_SM_Choice,2022.2.1,Win32,60.24096386,,,,,,,,,,,,,,,,,,97,,,,,,,,,,0.02,1,1.5257,0,1,1,1,1,Read Magazines and Articles,Go to bars with my spouse,0.02,0.05,1.1,1,,,,
,,65d659edd2fb402f9170d123,6685aa9113c938e83b4f1ea0,671122269940491190642581,2024-10-17_10h46.16.303,WTP_SM_Choice,2022.2.1,Win32,60.24096386,,,,,,,,,,,,,,,,,,98,,,,,,,,,,0.03,1,1.4602,0,2,2,2,1,Listen to music,Go on dates with my spouse,0.03,0.05,1.1,1,,,,
,,65d659edd2fb402f9170d123,6685aa9113c938e83b4f1ea0,671122269940491190642581,2024-10-17_10h46.16.303,WTP_SM_Choice,2022.2.1,Win32,60.24096386,,,,,,,,,,,,,,,,,,99,,,,,,,,,,0.05,2,1.2129,0,3,3,3,1,Cook different kinds of foods,go out to eat with my spouse,0.04,0.05,3.3,1,,,,
,,65d659edd2fb402f9170d123,6685aa9113c938e83b4f1ea0,671122269940491190642581,2024-10-17_10h46.16.303,WTP_SM_Choice,2022.2.1,Win32,60.24096386,,,,,,,,,,,,,,,,,,100,,,,,,,,,,0.05,2,1.8666,0,4,4,4,1,Watch new movies and shows on television,have family movie nights,0.05,0.05,4.4,1,,,,
,,65d659edd2fb402f9170d123,6685aa9113c938e83b4f1ea0,671122269940491190642581,2024-10-17_10h46.16.303,WTP_SM_Choice,2022.2.1,Win32,60.24096386,,,,,,,1,,3,2.66,3.34,,0,99,99,99,1,100,Alex,Rej,Participant_Images/65d659edd2fb402f9170d123/65d659edd2fb402f9170d123_Images/65d659edd2fb402f9170d123_Image_23.jpeg,did not like,1.672012706,,,,,,,,,,,,,,,,,,,space,1.1021,,
,,65d659edd2fb402f9170d123,6685aa9113c938e83b4f1ea0,671122269940491190642581,2024-10-17_10h46.16.303,WTP_SM_Choice,2022.2.1,Win32,60.24096386,,,,,,,,,,,,,,,,,,,,,,,,,,,,,,,,,,,,,,,,,,,,space,2.9666
