endwelcomescreen_keys.keys,endwelcomescreen_keys.rt,participant,STUDY_ID,SESSION_ID,date,expName,psychopyVersion,OS,frameRate,endinstructionscreen_keys.keys,endinstructionscreen_keys.rt,endpartnermatch_keys.keys,endpartnermatch_keys.rt,sharenextphoto_key.keys,sharenextphoto_key.rt,salience_rating,key_resp.keys,stress_level,subtract_bonus,TOTAL_TASK_BONUS,stresslevel_keypress.keys,entiretaskloop.thisRepN,entiretaskloop.thisTrialN,entiretaskloop.thisN,entiretaskloop.thisIndex,entiretaskloop.ran,TrialNumber,Partner,Condition,Photos,Feedback,FeedbackWait,WTP_ins_keys1.keys,WTP_ins_keys1.rt,WTP_ins_keys2.keys,WTP_ins_keys2.rt,decision_price,responses.keys,responses.rt,WTPTaskLoop.thisRepN,WTPTaskLoop.thisTrialN,WTPTaskLoop.thisN,WTPTaskLoop.thisIndex,WTPTaskLoop.ran,right,left,leftmoney,rightmoney,WTP_ITI,social_left,Resume_keys.keys,Resume_keys.rt,key_resp.rt,end_screen_keys.keys,end_screen_keys.rt
space,9.5754,65e4124826438fd6dc97bd7e,6685aa9113c938e83b4f1ea0,66d3e305dbacd5087957f343,2024-08-31_22h52.07.237,WTP_SM_Choice,2022.2.1,Win32,60.24096386,,,,,,,,,,,,,,,,,,,,,,,,,,,,,,,,,,,,,,,,,,,,,,
,,65e4124826438fd6dc97bd7e,6685aa9113c938e83b4f1ea0,66d3e305dbacd5087957f343,2024-08-31_22h52.07.237,WTP_SM_Choice,2022.2.1,Win32,60.24096386,space,29.3664,,,,,,,,,,,,,,,,,,,,,,,,,,,,,,,,,,,,,,,,,,,,
,,65e4124826438fd6dc97bd7e,6685aa9113c938e83b4f1ea0,66d3e305dbacd5087957f343,2024-08-31_22h52.07.237,WTP_SM_Choice,2022.2.1,Win32,60.24096386,,,space,2.4237,space,1.7421,NAN,,NAN,0,6,,0,0,0,0,1,1,Sam,Rej,Participant_Images/65e4124826438fd6dc97bd7e/65e4124826438fd6dc97bd7e_Images/65e4124826438fd6dc97bd7e_Image_12.jpeg,liked,3.613205605,,,,,,,,,,,,,,,,,,,,,,,
,,65e4124826438fd6dc97bd7e,6685aa9113c938e83b4f1ea0,66d3e305dbacd5087957f343,2024-08-31_22h52.07.237,WTP_SM_Choice,2022.2.1,Win32,60.24096386,,,,,space,2.2902,NAN,,NAN,0,6,,0,1,1,1,1,2,Sam,Rej,Participant_Images/65e4124826438fd6dc97bd7e/65e4124826438fd6dc97bd7e_Images/65e4124826438fd6dc97bd7e_Image_9.jpeg,did not like,4.988446431,,,,,,,,,,,,,,,,,,,,,,,
,,65e4124826438fd6dc97bd7e,6685aa9113c938e83b4f1ea0,66d3e305dbacd5087957f343,2024-08-31_22h52.07.237,WTP_SM_Choice,2022.2.1,Win32,60.24096386,,,,,space,2.8777,NAN,,NAN,0,6,,0,2,2,2,1,3,Sam,Rej,Participant_Images/65e4124826438fd6dc97bd7e/65e4124826438fd6dc97bd7e_Images/65e4124826438fd6dc97bd7e_Image_1.jpeg,did not like,3.470791822,,,,,,,,,,,,,,,,,,,,,,,
,,65e4124826438fd6dc97bd7e,6685aa9113c938e83b4f1ea0,66d3e305dbacd5087957f343,2024-08-31_22h52.07.237,WTP_SM_Choice,2022.2.1,Win32,60.24096386,,,,,space,2.4032,NAN,,NAN,0,6,,0,3,3,3,1,4,Sam,Rej,Participant_Images/65e4124826438fd6dc97bd7e/65e4124826438fd6dc97bd7e_Images/65e4124826438fd6dc97bd7e_Image_19.jpeg,did not like,3.820572462,,,,,,,,,,,,,,,,,,,,,,,
,,65e4124826438fd6dc97bd7e,6685aa9113c938e83b4f1ea0,66d3e305dbacd5087957f343,2024-08-31_22h52.07.237,WTP_SM_Choice,2022.2.1,Win32,60.24096386,,,,,,,,,,,,,,,,,,1,,,,,,space,23.0971,space,7.4936,0.01,1,5.2939,0,0,0,0,1, relax with my dogs,watch the flowers and the trees grow with my mom,0.01,0.01,4.4,1,,,,,
,,65e4124826438fd6dc97bd7e,6685aa9113c938e83b4f1ea0,66d3e305dbacd5087957f343,2024-08-31_22h52.07.237,WTP_SM_Choice,2022.2.1,Win32,60.24096386,,,,,,,,,,,,,,,,,,2,,,,,,,,,,0.02,1,4.0595,0,1,1,1,1, go to the job fair with my wife,sleep in at night,0.02,0.01,8.8,0,,,,,
,,65e4124826438fd6dc97bd7e,6685aa9113c938e83b4f1ea0,66d3e305dbacd5087957f343,2024-08-31_22h52.07.237,WTP_SM_Choice,2022.2.1,Win32,60.24096386,,,,,,,,,,,,,,,,,,3,,,,,,,,,,0.01,2,3.3854,0,2,2,2,1,go to the gym and workout, give less needy people what they want,0.03,0.01,3.3,1,,,,,
,,65e4124826438fd6dc97bd7e,6685aa9113c938e83b4f1ea0,66d3e305dbacd5087957f343,2024-08-31_22h52.07.237,WTP_SM_Choice,2022.2.1,Win32,60.24096386,,,,,,,,,,,,,,,,,,4,,,,,,,,,,0.01,2,2.8196,0,3,3,3,1, relax with my dogs,watch different people have blessed days,0.04,0.01,1.1,1,,,,,
,,65e4124826438fd6dc97bd7e,6685aa9113c938e83b4f1ea0,66d3e305dbacd5087957f343,2024-08-31_22h52.07.237,WTP_SM_Choice,2022.2.1,Win32,60.24096386,,,,,,,,,,,,,,,,,,5,,,,,,,,,,0.05,1,3.881,0,4,4,4,1,count with my money, go to the movies with my friends ,0.05,0.01,1.1,1,,,,,
,,65e4124826438fd6dc97bd7e,6685aa9113c938e83b4f1ea0,66d3e305dbacd5087957f343,2024-08-31_22h52.07.237,WTP_SM_Choice,2022.2.1,Win32,60.24096386,,,,,,,NAN,,NAN,0.1,5.9,,0,4,4,4,1,5,Sam,Rej,Participant_Images/65e4124826438fd6dc97bd7e/65e4124826438fd6dc97bd7e_Images/65e4124826438fd6dc97bd7e_Image_22.jpeg,liked,2.455989137,,,,,,,,,,,,,,,,,,,,,,,
,,65e4124826438fd6dc97bd7e,6685aa9113c938e83b4f1ea0,66d3e305dbacd5087957f343,2024-08-31_22h52.07.237,WTP_SM_Choice,2022.2.1,Win32,60.24096386,,,,,space,1.1403,NAN,,NAN,0.1,5.9,,0,5,5,5,1,6,Sam,Rej,Participant_Images/65e4124826438fd6dc97bd7e/65e4124826438fd6dc97bd7e_Images/65e4124826438fd6dc97bd7e_Image_24.jpeg,did not like,3.79605092,,,,,,,,,,,,,,,,,,,,,,,
,,65e4124826438fd6dc97bd7e,6685aa9113c938e83b4f1ea0,66d3e305dbacd5087957f343,2024-08-31_22h52.07.237,WTP_SM_Choice,2022.2.1,Win32,60.24096386,,,,,space,1.9364,NAN,,NAN,0.1,5.9,,0,6,6,6,1,7,Sam,Rej,Participant_Images/65e4124826438fd6dc97bd7e/65e4124826438fd6dc97bd7e_Images/65e4124826438fd6dc97bd7e_Image_7.jpeg,liked,3.562416326,,,,,,,,,,,,,,,,,,,,,,,
,,65e4124826438fd6dc97bd7e,6685aa9113c938e83b4f1ea0,66d3e305dbacd5087957f343,2024-08-31_22h52.07.237,WTP_SM_Choice,2022.2.1,Win32,60.24096386,,,,,space,2.3933,NAN,,NAN,0.1,5.9,,0,7,7,7,1,8,Sam,Rej,Participant_Images/65e4124826438fd6dc97bd7e/65e4124826438fd6dc97bd7e_Images/65e4124826438fd6dc97bd7e_Image_2.jpeg,liked,2.843822497,,,,,,,,,,,,,,,,,,,,,,,
,,65e4124826438fd6dc97bd7e,6685aa9113c938e83b4f1ea0,66d3e305dbacd5087957f343,2024-08-31_22h52.07.237,WTP_SM_Choice,2022.2.1,Win32,60.24096386,,,,,space,2.0924,NAN,,NAN,0.1,5.9,,0,8,8,8,1,9,Sam,Rej,Participant_Images/65e4124826438fd6dc97bd7e/65e4124826438fd6dc97bd7e_Images/65e4124826438fd6dc97bd7e_Image_18.jpeg,did not like,3.546495948,,,,,,,,,,,,,,,,,,,,,,,
,,65e4124826438fd6dc97bd7e,6685aa9113c938e83b4f1ea0,66d3e305dbacd5087957f343,2024-08-31_22h52.07.237,WTP_SM_Choice,2022.2.1,Win32,60.24096386,,,,,,,,,,,,,,,,,,6,,,,,,space,11.8971,space,2.2022,0.02,2,4.2466,0,0,0,0,1,voulenteer at homeless shelters with my sister,go to the gym and workout,0.01,0.02,3.3,0,,,,,
,,65e4124826438fd6dc97bd7e,6685aa9113c938e83b4f1ea0,66d3e305dbacd5087957f343,2024-08-31_22h52.07.237,WTP_SM_Choice,2022.2.1,Win32,60.24096386,,,,,,,,,,,,,,,,,,7,,,,,,,,,,0.02,1,3.3906,0,1,1,1,1, go to the job fair with my wife,Watch cooking videos on YouTube in my spare time,0.02,0.02,1.1,0,,,,,
,,65e4124826438fd6dc97bd7e,6685aa9113c938e83b4f1ea0,66d3e305dbacd5087957f343,2024-08-31_22h52.07.237,WTP_SM_Choice,2022.2.1,Win32,60.24096386,,,,,,,,,,,,,,,,,,8,,,,,,,,,,0.03,1,6.3334,0,2,2,2,1,I love watching people enjoy life, go to the job fair with my wife,0.03,0.02,1.1,1,,,,,
,,65e4124826438fd6dc97bd7e,6685aa9113c938e83b4f1ea0,66d3e305dbacd5087957f343,2024-08-31_22h52.07.237,WTP_SM_Choice,2022.2.1,Win32,60.24096386,,,,,,,,,,,,,,,,,,9,,,,,,,,,,0.02,2,3.1124,0,3,3,3,1,Watch cooking videos on YouTube in my spare time,watch different people have blessed days,0.04,0.02,4.4,1,,,,,
,,65e4124826438fd6dc97bd7e,6685aa9113c938e83b4f1ea0,66d3e305dbacd5087957f343,2024-08-31_22h52.07.237,WTP_SM_Choice,2022.2.1,Win32,60.24096386,,,,,,,,,,,,,,,,,,10,,,,,,,,,,0.05,1,2.6394,0,4,4,4,1, give less needy people what they want,read fictional novels,0.05,0.02,1.1,0,,,,,
,,65e4124826438fd6dc97bd7e,6685aa9113c938e83b4f1ea0,66d3e305dbacd5087957f343,2024-08-31_22h52.07.237,WTP_SM_Choice,2022.2.1,Win32,60.24096386,,,,,,,NAN,,NAN,0.24,5.76,,0,9,9,9,1,10,Sam,Rej,Participant_Images/65e4124826438fd6dc97bd7e/65e4124826438fd6dc97bd7e_Images/65e4124826438fd6dc97bd7e_Image_21.jpeg,did not like,1.672012706,,,,,,,,,,,,,,,,,,,,,,,
,,65e4124826438fd6dc97bd7e,6685aa9113c938e83b4f1ea0,66d3e305dbacd5087957f343,2024-08-31_22h52.07.237,WTP_SM_Choice,2022.2.1,Win32,60.24096386,,,,,space,4.5648,NAN,,NAN,0.24,5.76,,0,10,10,10,1,11,Sam,Rej,Participant_Images/65e4124826438fd6dc97bd7e/65e4124826438fd6dc97bd7e_Images/65e4124826438fd6dc97bd7e_Image_11.jpeg,did not like,4.942172136,,,,,,,,,,,,,,,,,,,,,,,
,,65e4124826438fd6dc97bd7e,6685aa9113c938e83b4f1ea0,66d3e305dbacd5087957f343,2024-08-31_22h52.07.237,WTP_SM_Choice,2022.2.1,Win32,60.24096386,,,,,space,3.7382,NAN,,NAN,0.24,5.76,,0,11,11,11,1,12,Sam,Rej,Participant_Images/65e4124826438fd6dc97bd7e/65e4124826438fd6dc97bd7e_Images/65e4124826438fd6dc97bd7e_Image_25.jpeg,did not like,2.50187214,,,,,,,,,,,,,,,,,,,,,,,
,,65e4124826438fd6dc97bd7e,6685aa9113c938e83b4f1ea0,66d3e305dbacd5087957f343,2024-08-31_22h52.07.237,WTP_SM_Choice,2022.2.1,Win32,60.24096386,,,,,space,4.8289,NAN,,NAN,0.24,5.76,,0,12,12,12,1,13,Sam,Rej,Participant_Images/65e4124826438fd6dc97bd7e/65e4124826438fd6dc97bd7e_Images/65e4124826438fd6dc97bd7e_Image_13.jpeg,did not like,2.071164779,,,,,,,,,,,,,,,,,,,,,,,
,,65e4124826438fd6dc97bd7e,6685aa9113c938e83b4f1ea0,66d3e305dbacd5087957f343,2024-08-31_22h52.07.237,WTP_SM_Choice,2022.2.1,Win32,60.24096386,,,,,space,0.8214,NAN,,NAN,0.24,5.76,,0,13,13,13,1,14,Sam,Rej,Participant_Images/65e4124826438fd6dc97bd7e/65e4124826438fd6dc97bd7e_Images/65e4124826438fd6dc97bd7e_Image_20.jpeg,did not like,5.336503566,,,,,,,,,,,,,,,,,,,,,,,
,,65e4124826438fd6dc97bd7e,6685aa9113c938e83b4f1ea0,66d3e305dbacd5087957f343,2024-08-31_22h52.07.237,WTP_SM_Choice,2022.2.1,Win32,60.24096386,,,,,,,,,,,,,,,,,,11,,,,,,space,8.4894,space,1.7425,0.03,2,4.6826,0,0,0,0,1,Go to the skate park to practice,scool younger people on life with coworkers,0.01,0.03,3.3,1,,,,,
,,65e4124826438fd6dc97bd7e,6685aa9113c938e83b4f1ea0,66d3e305dbacd5087957f343,2024-08-31_22h52.07.237,WTP_SM_Choice,2022.2.1,Win32,60.24096386,,,,,,,,,,,,,,,,,,12,,,,,,,,,,0.02,1,2.5452,0,1,1,1,1,go to the casino with my mates,sleep in at night,0.02,0.03,4.4,0,,,,,
,,65e4124826438fd6dc97bd7e,6685aa9113c938e83b4f1ea0,66d3e305dbacd5087957f343,2024-08-31_22h52.07.237,WTP_SM_Choice,2022.2.1,Win32,60.24096386,,,,,,,,,,,,,,,,,,13,,,,,,,,,,0.03,1,3.0335,0,2,2,2,1,watch the flowers and the trees grow with my mom,go to the gym and workout,0.03,0.03,1.1,0,,,,,
,,65e4124826438fd6dc97bd7e,6685aa9113c938e83b4f1ea0,66d3e305dbacd5087957f343,2024-08-31_22h52.07.237,WTP_SM_Choice,2022.2.1,Win32,60.24096386,,,,,,,,,,,,,,,,,,14,,,,,,,,,,0.04,1,2.6773,0,3,3,3,1, skip school with my classmates,Watch cooking videos on YouTube in my spare time,0.04,0.03,3.3,0,,,,,
,,65e4124826438fd6dc97bd7e,6685aa9113c938e83b4f1ea0,66d3e305dbacd5087957f343,2024-08-31_22h52.07.237,WTP_SM_Choice,2022.2.1,Win32,60.24096386,,,,,,,,,,,,,,,,,,15,,,,,,,,,,0.05,1,4.3555,0,4,4,4,1,I love watching people enjoy life,cook with my roomates,0.05,0.03,4.4,1,,,,,
,,65e4124826438fd6dc97bd7e,6685aa9113c938e83b4f1ea0,66d3e305dbacd5087957f343,2024-08-31_22h52.07.237,WTP_SM_Choice,2022.2.1,Win32,60.24096386,,,,,,,NAN,,NAN,0.41,5.59,,0,14,14,14,1,15,Sam,Rej,Participant_Images/65e4124826438fd6dc97bd7e/65e4124826438fd6dc97bd7e_Images/65e4124826438fd6dc97bd7e_Image_4.jpeg,liked,2.642157193,,,,,,,,,,,,,,,,,,,,,,,
,,65e4124826438fd6dc97bd7e,6685aa9113c938e83b4f1ea0,66d3e305dbacd5087957f343,2024-08-31_22h52.07.237,WTP_SM_Choice,2022.2.1,Win32,60.24096386,,,,,space,1.6703,NAN,,NAN,0.41,5.59,,0,15,15,15,1,16,Sam,Rej,Participant_Images/65e4124826438fd6dc97bd7e/65e4124826438fd6dc97bd7e_Images/65e4124826438fd6dc97bd7e_Image_17.jpeg,did not like,4.456234322,,,,,,,,,,,,,,,,,,,,,,,
,,65e4124826438fd6dc97bd7e,6685aa9113c938e83b4f1ea0,66d3e305dbacd5087957f343,2024-08-31_22h52.07.237,WTP_SM_Choice,2022.2.1,Win32,60.24096386,,,,,space,2.7885,NAN,,NAN,0.41,5.59,,0,16,16,16,1,17,Sam,Rej,Participant_Images/65e4124826438fd6dc97bd7e/65e4124826438fd6dc97bd7e_Images/65e4124826438fd6dc97bd7e_Image_6.jpeg,did not like,4.438512181,,,,,,,,,,,,,,,,,,,,,,,
,,65e4124826438fd6dc97bd7e,6685aa9113c938e83b4f1ea0,66d3e305dbacd5087957f343,2024-08-31_22h52.07.237,WTP_SM_Choice,2022.2.1,Win32,60.24096386,,,,,space,1.9487,NAN,,NAN,0.41,5.59,,0,17,17,17,1,18,Sam,Rej,Participant_Images/65e4124826438fd6dc97bd7e/65e4124826438fd6dc97bd7e_Images/65e4124826438fd6dc97bd7e_Image_3.jpeg,did not like,2.682944783,,,,,,,,,,,,,,,,,,,,,,,
,,65e4124826438fd6dc97bd7e,6685aa9113c938e83b4f1ea0,66d3e305dbacd5087957f343,2024-08-31_22h52.07.237,WTP_SM_Choice,2022.2.1,Win32,60.24096386,,,,,space,1.8861,NAN,,NAN,0.41,5.59,,0,18,18,18,1,19,Sam,Rej,Participant_Images/65e4124826438fd6dc97bd7e/65e4124826438fd6dc97bd7e_Images/65e4124826438fd6dc97bd7e_Image_10.jpeg,did not like,4.51984296,,,,,,,,,,,,,,,,,,,,,,,
,,65e4124826438fd6dc97bd7e,6685aa9113c938e83b4f1ea0,66d3e305dbacd5087957f343,2024-08-31_22h52.07.237,WTP_SM_Choice,2022.2.1,Win32,60.24096386,,,,,,,,,,,,,,,,,,16,,,,,,space,9.2846,space,1.4523,0.01,1,3.7175,0,0,0,0,1,I love watching people enjoy life,voulenteer at homeless shelters with my sister,0.01,0.04,1.1,1,,,,,
,,65e4124826438fd6dc97bd7e,6685aa9113c938e83b4f1ea0,66d3e305dbacd5087957f343,2024-08-31_22h52.07.237,WTP_SM_Choice,2022.2.1,Win32,60.24096386,,,,,,,,,,,,,,,,,,17,,,,,,,,,,0.04,2,2.2017,0,1,1,1,1,go swimming at the local YMCA pool, give less needy people what they want,0.02,0.04,8.8,1,,,,,
,,65e4124826438fd6dc97bd7e,6685aa9113c938e83b4f1ea0,66d3e305dbacd5087957f343,2024-08-31_22h52.07.237,WTP_SM_Choice,2022.2.1,Win32,60.24096386,,,,,,,,,,,,,,,,,,18,,,,,,,,,,0.03,1,3.3072,0,2,2,2,1,Go to the skate park to practice,voulenteer at homeless shelters with my sister,0.03,0.04,3.3,1,,,,,
,,65e4124826438fd6dc97bd7e,6685aa9113c938e83b4f1ea0,66d3e305dbacd5087957f343,2024-08-31_22h52.07.237,WTP_SM_Choice,2022.2.1,Win32,60.24096386,,,,,,,,,,,,,,,,,,19,,,,,,,,,,0.04,2,5.1089,0,3,3,3,1,read fictional novels,scool younger people on life with coworkers,0.04,0.04,3.3,1,,,,,
,,65e4124826438fd6dc97bd7e,6685aa9113c938e83b4f1ea0,66d3e305dbacd5087957f343,2024-08-31_22h52.07.237,WTP_SM_Choice,2022.2.1,Win32,60.24096386,,,,,,,,,,,,,,,,,,20,,,,,,,,,,0.05,1,6.8813,0,4,4,4,1,go on morning walks around the neighborhood, go to the movies with my friends ,0.05,0.04,1.1,1,,,,,
,,65e4124826438fd6dc97bd7e,6685aa9113c938e83b4f1ea0,66d3e305dbacd5087957f343,2024-08-31_22h52.07.237,WTP_SM_Choice,2022.2.1,Win32,60.24096386,,,,,,,NAN,,NAN,0.58,5.42,,0,19,19,19,1,20,Sam,Rej,Participant_Images/65e4124826438fd6dc97bd7e/65e4124826438fd6dc97bd7e_Images/65e4124826438fd6dc97bd7e_Image_8.jpeg,did not like,3.195382774,,,,,,,,,,,,,,,,,,,,,,,
,,65e4124826438fd6dc97bd7e,6685aa9113c938e83b4f1ea0,66d3e305dbacd5087957f343,2024-08-31_22h52.07.237,WTP_SM_Choice,2022.2.1,Win32,60.24096386,,,,,space,2.2733,NAN,,NAN,0.58,5.42,,0,20,20,20,1,21,Sam,Rej,Participant_Images/65e4124826438fd6dc97bd7e/65e4124826438fd6dc97bd7e_Images/65e4124826438fd6dc97bd7e_Image_16.jpeg,did not like,1.779333479,,,,,,,,,,,,,,,,,,,,,,,
,,65e4124826438fd6dc97bd7e,6685aa9113c938e83b4f1ea0,66d3e305dbacd5087957f343,2024-08-31_22h52.07.237,WTP_SM_Choice,2022.2.1,Win32,60.24096386,,,,,space,2.5557,NAN,,NAN,0.58,5.42,,0,21,21,21,1,22,Sam,Rej,Participant_Images/65e4124826438fd6dc97bd7e/65e4124826438fd6dc97bd7e_Images/65e4124826438fd6dc97bd7e_Image_14.jpeg,did not like,4.312468682,,,,,,,,,,,,,,,,,,,,,,,
,,65e4124826438fd6dc97bd7e,6685aa9113c938e83b4f1ea0,66d3e305dbacd5087957f343,2024-08-31_22h52.07.237,WTP_SM_Choice,2022.2.1,Win32,60.24096386,,,,,space,0.7013,NAN,,NAN,0.58,5.42,,0,22,22,22,1,23,Sam,Rej,Participant_Images/65e4124826438fd6dc97bd7e/65e4124826438fd6dc97bd7e_Images/65e4124826438fd6dc97bd7e_Image_15.jpeg,did not like,4.940433059,,,,,,,,,,,,,,,,,,,,,,,
,,65e4124826438fd6dc97bd7e,6685aa9113c938e83b4f1ea0,66d3e305dbacd5087957f343,2024-08-31_22h52.07.237,WTP_SM_Choice,2022.2.1,Win32,60.24096386,,,,,space,0.6703,NAN,,NAN,0.58,5.42,,0,23,23,23,1,24,Sam,Rej,Participant_Images/65e4124826438fd6dc97bd7e/65e4124826438fd6dc97bd7e_Images/65e4124826438fd6dc97bd7e_Image_23.jpeg,liked,2.7105123,,,,,,,,,,,,,,,,,,,,,,,
,,65e4124826438fd6dc97bd7e,6685aa9113c938e83b4f1ea0,66d3e305dbacd5087957f343,2024-08-31_22h52.07.237,WTP_SM_Choice,2022.2.1,Win32,60.24096386,,,,,,,,,,,,,,,,,,21,,,,,,space,1.5375,space,9.6246,0.01,1,0.4722,0,0,0,0,1,cook with my roomates,Watch cooking videos on YouTube in my spare time,0.01,0.05,8.8,0,,,,,
,,65e4124826438fd6dc97bd7e,6685aa9113c938e83b4f1ea0,66d3e305dbacd5087957f343,2024-08-31_22h52.07.237,WTP_SM_Choice,2022.2.1,Win32,60.24096386,,,,,,,,,,,,,,,,,,22,,,,,,,,,,0.05,2,1.8017,0,1,1,1,1, give less needy people what they want,Go to the skate park to practice,0.02,0.05,4.4,0,,,,,
,,65e4124826438fd6dc97bd7e,6685aa9113c938e83b4f1ea0,66d3e305dbacd5087957f343,2024-08-31_22h52.07.237,WTP_SM_Choice,2022.2.1,Win32,60.24096386,,,,,,,,,,,,,,,,,,23,,,,,,,,,,0.05,2,3.8563,0,2,2,2,1,watch the flowers and the trees grow with my mom,go on morning walks around the neighborhood,0.03,0.05,1.1,0,,,,,
,,65e4124826438fd6dc97bd7e,6685aa9113c938e83b4f1ea0,66d3e305dbacd5087957f343,2024-08-31_22h52.07.237,WTP_SM_Choice,2022.2.1,Win32,60.24096386,,,,,,,,,,,,,,,,,,24,,,,,,,,,,0.04,1,3.2521,0,3,3,3,1, skip school with my classmates,read fictional novels,0.04,0.05,4.4,0,,,,,
,,65e4124826438fd6dc97bd7e,6685aa9113c938e83b4f1ea0,66d3e305dbacd5087957f343,2024-08-31_22h52.07.237,WTP_SM_Choice,2022.2.1,Win32,60.24096386,,,,,,,,,,,,,,,,,,25,,,,,,,,,,0.05,1,3.777,0,4,4,4,1,watch the flowers and the trees grow with my mom,Watch cooking videos on YouTube in my spare time,0.05,0.05,3.3,0,,,,,
,,65e4124826438fd6dc97bd7e,6685aa9113c938e83b4f1ea0,66d3e305dbacd5087957f343,2024-08-31_22h52.07.237,WTP_SM_Choice,2022.2.1,Win32,60.24096386,,,,,,,2,space,5,0.78,5.22,,0,24,24,24,1,25,Sam,Rej,Participant_Images/65e4124826438fd6dc97bd7e/65e4124826438fd6dc97bd7e_Images/65e4124826438fd6dc97bd7e_Image_5.jpeg,liked,3.602308302,,,,,,,,,,,,,,,,,,,space,1.5988,6.8423,,
,,65e4124826438fd6dc97bd7e,6685aa9113c938e83b4f1ea0,66d3e305dbacd5087957f343,2024-08-31_22h52.07.237,WTP_SM_Choice,2022.2.1,Win32,60.24096386,,,space,1.8994,space,3.5355,NAN,,NAN,0.78,5.22,,0,25,25,25,1,26,Riley,Acc,Participant_Images/65e4124826438fd6dc97bd7e/65e4124826438fd6dc97bd7e_Images/65e4124826438fd6dc97bd7e_Image_18.jpeg,liked,4.106391878,,,,,,,,,,,,,,,,,,,,,,,
,,65e4124826438fd6dc97bd7e,6685aa9113c938e83b4f1ea0,66d3e305dbacd5087957f343,2024-08-31_22h52.07.237,WTP_SM_Choice,2022.2.1,Win32,60.24096386,,,,,space,1.2893,NAN,,NAN,0.78,5.22,,0,26,26,26,1,27,Riley,Acc,Participant_Images/65e4124826438fd6dc97bd7e/65e4124826438fd6dc97bd7e_Images/65e4124826438fd6dc97bd7e_Image_12.jpeg,did not like,3.799433026,,,,,,,,,,,,,,,,,,,,,,,
,,65e4124826438fd6dc97bd7e,6685aa9113c938e83b4f1ea0,66d3e305dbacd5087957f343,2024-08-31_22h52.07.237,WTP_SM_Choice,2022.2.1,Win32,60.24096386,,,,,space,2.2935,NAN,,NAN,0.78,5.22,,0,27,27,27,1,28,Riley,Acc,Participant_Images/65e4124826438fd6dc97bd7e/65e4124826438fd6dc97bd7e_Images/65e4124826438fd6dc97bd7e_Image_24.jpeg,did not like,5.246980764,,,,,,,,,,,,,,,,,,,,,,,
,,65e4124826438fd6dc97bd7e,6685aa9113c938e83b4f1ea0,66d3e305dbacd5087957f343,2024-08-31_22h52.07.237,WTP_SM_Choice,2022.2.1,Win32,60.24096386,,,,,space,2.0698,NAN,,NAN,0.78,5.22,,0,28,28,28,1,29,Riley,Acc,Participant_Images/65e4124826438fd6dc97bd7e/65e4124826438fd6dc97bd7e_Images/65e4124826438fd6dc97bd7e_Image_4.jpeg,liked,3.30081769,,,,,,,,,,,,,,,,,,,,,,,
,,65e4124826438fd6dc97bd7e,6685aa9113c938e83b4f1ea0,66d3e305dbacd5087957f343,2024-08-31_22h52.07.237,WTP_SM_Choice,2022.2.1,Win32,60.24096386,,,,,,,,,,,,,,,,,,26,,,,,,space,3.2206,space,1.0643,0.01,1,3.8881,0,0,0,0,1,Go to the skate park to practice, go to the job fair with my wife,0.01,0.01,4.4,1,,,,,
,,65e4124826438fd6dc97bd7e,6685aa9113c938e83b4f1ea0,66d3e305dbacd5087957f343,2024-08-31_22h52.07.237,WTP_SM_Choice,2022.2.1,Win32,60.24096386,,,,,,,,,,,,,,,,,,27,,,,,,,,,,0.01,2,2.69,0,1,1,1,1,go swimming at the local YMCA pool, skip school with my classmates,0.02,0.01,3.3,1,,,,,
,,65e4124826438fd6dc97bd7e,6685aa9113c938e83b4f1ea0,66d3e305dbacd5087957f343,2024-08-31_22h52.07.237,WTP_SM_Choice,2022.2.1,Win32,60.24096386,,,,,,,,,,,,,,,,,,28,,,,,,,,,,0.03,1,2.0124,0,2,2,2,1, skip school with my classmates,go to the gym and workout,0.03,0.01,3.3,0,,,,,
,,65e4124826438fd6dc97bd7e,6685aa9113c938e83b4f1ea0,66d3e305dbacd5087957f343,2024-08-31_22h52.07.237,WTP_SM_Choice,2022.2.1,Win32,60.24096386,,,,,,,,,,,,,,,,,,29,,,,,,,,,,0.04,1,2.9199,0,3,3,3,1,go swimming at the local YMCA pool,voulenteer at homeless shelters with my sister,0.04,0.01,4.4,1,,,,,
,,65e4124826438fd6dc97bd7e,6685aa9113c938e83b4f1ea0,66d3e305dbacd5087957f343,2024-08-31_22h52.07.237,WTP_SM_Choice,2022.2.1,Win32,60.24096386,,,,,,,,,,,,,,,,,,30,,,,,,,,,,0.01,2,4.413,0,4,4,4,1,read fictional novels,cook with my roomates,0.05,0.01,8.8,1,,,,,
,,65e4124826438fd6dc97bd7e,6685aa9113c938e83b4f1ea0,66d3e305dbacd5087957f343,2024-08-31_22h52.07.237,WTP_SM_Choice,2022.2.1,Win32,60.24096386,,,,,,,NAN,,NAN,0.88,5.12,,0,29,29,29,1,30,Riley,Acc,Participant_Images/65e4124826438fd6dc97bd7e/65e4124826438fd6dc97bd7e_Images/65e4124826438fd6dc97bd7e_Image_14.jpeg,liked,1.661473164,,,,,,,,,,,,,,,,,,,,,,,
,,65e4124826438fd6dc97bd7e,6685aa9113c938e83b4f1ea0,66d3e305dbacd5087957f343,2024-08-31_22h52.07.237,WTP_SM_Choice,2022.2.1,Win32,60.24096386,,,,,space,2.303,NAN,,NAN,0.88,5.12,,0,30,30,30,1,31,Riley,Acc,Participant_Images/65e4124826438fd6dc97bd7e/65e4124826438fd6dc97bd7e_Images/65e4124826438fd6dc97bd7e_Image_7.jpeg,liked,3.613205605,,,,,,,,,,,,,,,,,,,,,,,
,,65e4124826438fd6dc97bd7e,6685aa9113c938e83b4f1ea0,66d3e305dbacd5087957f343,2024-08-31_22h52.07.237,WTP_SM_Choice,2022.2.1,Win32,60.24096386,,,,,space,1.6596,NAN,,NAN,0.88,5.12,,0,31,31,31,1,32,Riley,Acc,Participant_Images/65e4124826438fd6dc97bd7e/65e4124826438fd6dc97bd7e_Images/65e4124826438fd6dc97bd7e_Image_1.jpeg,did not like,4.988446431,,,,,,,,,,,,,,,,,,,,,,,
,,65e4124826438fd6dc97bd7e,6685aa9113c938e83b4f1ea0,66d3e305dbacd5087957f343,2024-08-31_22h52.07.237,WTP_SM_Choice,2022.2.1,Win32,60.24096386,,,,,space,1.0353,NAN,,NAN,0.88,5.12,,0,32,32,32,1,33,Riley,Acc,Participant_Images/65e4124826438fd6dc97bd7e/65e4124826438fd6dc97bd7e_Images/65e4124826438fd6dc97bd7e_Image_19.jpeg,did not like,3.470791822,,,,,,,,,,,,,,,,,,,,,,,
,,65e4124826438fd6dc97bd7e,6685aa9113c938e83b4f1ea0,66d3e305dbacd5087957f343,2024-08-31_22h52.07.237,WTP_SM_Choice,2022.2.1,Win32,60.24096386,,,,,space,1.1057,NAN,,NAN,0.88,5.12,,0,33,33,33,1,34,Riley,Acc,Participant_Images/65e4124826438fd6dc97bd7e/65e4124826438fd6dc97bd7e_Images/65e4124826438fd6dc97bd7e_Image_21.jpeg,liked,3.820572462,,,,,,,,,,,,,,,,,,,,,,,
,,65e4124826438fd6dc97bd7e,6685aa9113c938e83b4f1ea0,66d3e305dbacd5087957f343,2024-08-31_22h52.07.237,WTP_SM_Choice,2022.2.1,Win32,60.24096386,,,,,,,,,,,,,,,,,,31,,,,,,space,1.5319,space,0.903,0.01,1,5.0166,0,0,0,0,1, go to the job fair with my wife,count with my money,0.01,0.02,8.8,0,,,,,
,,65e4124826438fd6dc97bd7e,6685aa9113c938e83b4f1ea0,66d3e305dbacd5087957f343,2024-08-31_22h52.07.237,WTP_SM_Choice,2022.2.1,Win32,60.24096386,,,,,,,,,,,,,,,,,,32,,,,,,,,,,0.02,2,2.8953,0,1,1,1,1, relax with my dogs, go to the movies with my friends ,0.02,0.02,1.1,1,,,,,
,,65e4124826438fd6dc97bd7e,6685aa9113c938e83b4f1ea0,66d3e305dbacd5087957f343,2024-08-31_22h52.07.237,WTP_SM_Choice,2022.2.1,Win32,60.24096386,,,,,,,,,,,,,,,,,,33,,,,,,,,,,0.02,2,2.7147,0,2,2,2,1,voulenteer at homeless shelters with my sister, relax with my dogs,0.03,0.02,4.4,0,,,,,
,,65e4124826438fd6dc97bd7e,6685aa9113c938e83b4f1ea0,66d3e305dbacd5087957f343,2024-08-31_22h52.07.237,WTP_SM_Choice,2022.2.1,Win32,60.24096386,,,,,,,,,,,,,,,,,,34,,,,,,,,,,0.04,1,2.0879,0,3,3,3,1,go on morning walks around the neighborhood,watch different people have blessed days,0.04,0.02,3.3,1,,,,,
,,65e4124826438fd6dc97bd7e,6685aa9113c938e83b4f1ea0,66d3e305dbacd5087957f343,2024-08-31_22h52.07.237,WTP_SM_Choice,2022.2.1,Win32,60.24096386,,,,,,,,,,,,,,,,,,35,,,,,,,,,,0.05,1,4.9936,0,4,4,4,1,sleep in at night,voulenteer at homeless shelters with my sister,0.05,0.02,1.1,1,,,,,
,,65e4124826438fd6dc97bd7e,6685aa9113c938e83b4f1ea0,66d3e305dbacd5087957f343,2024-08-31_22h52.07.237,WTP_SM_Choice,2022.2.1,Win32,60.24096386,,,,,,,NAN,,NAN,1.02,4.98,,0,34,34,34,1,35,Riley,Acc,Participant_Images/65e4124826438fd6dc97bd7e/65e4124826438fd6dc97bd7e_Images/65e4124826438fd6dc97bd7e_Image_20.jpeg,liked,2.455989137,,,,,,,,,,,,,,,,,,,,,,,
,,65e4124826438fd6dc97bd7e,6685aa9113c938e83b4f1ea0,66d3e305dbacd5087957f343,2024-08-31_22h52.07.237,WTP_SM_Choice,2022.2.1,Win32,60.24096386,,,,,space,0.5856,NAN,,NAN,1.02,4.98,,0,35,35,35,1,36,Riley,Acc,Participant_Images/65e4124826438fd6dc97bd7e/65e4124826438fd6dc97bd7e_Images/65e4124826438fd6dc97bd7e_Image_3.jpeg,liked,3.79605092,,,,,,,,,,,,,,,,,,,,,,,
,,65e4124826438fd6dc97bd7e,6685aa9113c938e83b4f1ea0,66d3e305dbacd5087957f343,2024-08-31_22h52.07.237,WTP_SM_Choice,2022.2.1,Win32,60.24096386,,,,,space,1.1716,NAN,,NAN,1.02,4.98,,0,36,36,36,1,37,Riley,Acc,Participant_Images/65e4124826438fd6dc97bd7e/65e4124826438fd6dc97bd7e_Images/65e4124826438fd6dc97bd7e_Image_22.jpeg,liked,3.562416326,,,,,,,,,,,,,,,,,,,,,,,
,,65e4124826438fd6dc97bd7e,6685aa9113c938e83b4f1ea0,66d3e305dbacd5087957f343,2024-08-31_22h52.07.237,WTP_SM_Choice,2022.2.1,Win32,60.24096386,,,,,space,4.9729,NAN,,NAN,1.02,4.98,,0,37,37,37,1,38,Riley,Acc,Participant_Images/65e4124826438fd6dc97bd7e/65e4124826438fd6dc97bd7e_Images/65e4124826438fd6dc97bd7e_Image_2.jpeg,did not like,2.843822497,,,,,,,,,,,,,,,,,,,,,,,
,,65e4124826438fd6dc97bd7e,6685aa9113c938e83b4f1ea0,66d3e305dbacd5087957f343,2024-08-31_22h52.07.237,WTP_SM_Choice,2022.2.1,Win32,60.24096386,,,,,space,1.402,NAN,,NAN,1.02,4.98,,0,38,38,38,1,39,Riley,Acc,Participant_Images/65e4124826438fd6dc97bd7e/65e4124826438fd6dc97bd7e_Images/65e4124826438fd6dc97bd7e_Image_16.jpeg,liked,3.546495948,,,,,,,,,,,,,,,,,,,,,,,
,,65e4124826438fd6dc97bd7e,6685aa9113c938e83b4f1ea0,66d3e305dbacd5087957f343,2024-08-31_22h52.07.237,WTP_SM_Choice,2022.2.1,Win32,60.24096386,,,,,,,,,,,,,,,,,,36,,,,,,space,4.8279,space,1.0978,0.03,2,3.1879,0,0,0,0,1,read fictional novels, go to the movies with my friends ,0.01,0.03,3.3,1,,,,,
,,65e4124826438fd6dc97bd7e,6685aa9113c938e83b4f1ea0,66d3e305dbacd5087957f343,2024-08-31_22h52.07.237,WTP_SM_Choice,2022.2.1,Win32,60.24096386,,,,,,,,,,,,,,,,,,37,,,,,,,,,,0.02,1,2.2805,0,1,1,1,1,Go to the skate park to practice, go to the movies with my friends ,0.02,0.03,1.1,1,,,,,
,,65e4124826438fd6dc97bd7e,6685aa9113c938e83b4f1ea0,66d3e305dbacd5087957f343,2024-08-31_22h52.07.237,WTP_SM_Choice,2022.2.1,Win32,60.24096386,,,,,,,,,,,,,,,,,,38,,,,,,,,,,0.03,1,2.8349,0,2,2,2,1,go to the casino with my mates,go swimming at the local YMCA pool,0.03,0.03,1.1,0,,,,,
,,65e4124826438fd6dc97bd7e,6685aa9113c938e83b4f1ea0,66d3e305dbacd5087957f343,2024-08-31_22h52.07.237,WTP_SM_Choice,2022.2.1,Win32,60.24096386,,,,,,,,,,,,,,,,,,39,,,,,,,,,,0.03,2,3.3806,0,3,3,3,1,read fictional novels,watch the flowers and the trees grow with my mom,0.04,0.03,3.3,1,,,,,
,,65e4124826438fd6dc97bd7e,6685aa9113c938e83b4f1ea0,66d3e305dbacd5087957f343,2024-08-31_22h52.07.237,WTP_SM_Choice,2022.2.1,Win32,60.24096386,,,,,,,,,,,,,,,,,,40,,,,,,,,,,0.05,1,3.1811,0,4,4,4,1,go on morning walks around the neighborhood,cook with my roomates,0.05,0.03,4.4,1,,,,,
,,65e4124826438fd6dc97bd7e,6685aa9113c938e83b4f1ea0,66d3e305dbacd5087957f343,2024-08-31_22h52.07.237,WTP_SM_Choice,2022.2.1,Win32,60.24096386,,,,,,,NAN,,NAN,1.18,4.82,,0,39,39,39,1,40,Riley,Acc,Participant_Images/65e4124826438fd6dc97bd7e/65e4124826438fd6dc97bd7e_Images/65e4124826438fd6dc97bd7e_Image_5.jpeg,did not like,1.672012706,,,,,,,,,,,,,,,,,,,,,,,
,,65e4124826438fd6dc97bd7e,6685aa9113c938e83b4f1ea0,66d3e305dbacd5087957f343,2024-08-31_22h52.07.237,WTP_SM_Choice,2022.2.1,Win32,60.24096386,,,,,space,1.0654,NAN,,NAN,1.18,4.82,,0,40,40,40,1,41,Riley,Acc,Participant_Images/65e4124826438fd6dc97bd7e/65e4124826438fd6dc97bd7e_Images/65e4124826438fd6dc97bd7e_Image_13.jpeg,liked,4.942172136,,,,,,,,,,,,,,,,,,,,,,,
,,65e4124826438fd6dc97bd7e,6685aa9113c938e83b4f1ea0,66d3e305dbacd5087957f343,2024-08-31_22h52.07.237,WTP_SM_Choice,2022.2.1,Win32,60.24096386,,,,,space,1.8534,NAN,,NAN,1.18,4.82,,0,41,41,41,1,42,Riley,Acc,Participant_Images/65e4124826438fd6dc97bd7e/65e4124826438fd6dc97bd7e_Images/65e4124826438fd6dc97bd7e_Image_11.jpeg,liked,2.50187214,,,,,,,,,,,,,,,,,,,,,,,
,,65e4124826438fd6dc97bd7e,6685aa9113c938e83b4f1ea0,66d3e305dbacd5087957f343,2024-08-31_22h52.07.237,WTP_SM_Choice,2022.2.1,Win32,60.24096386,,,,,space,1.4021,NAN,,NAN,1.18,4.82,,0,42,42,42,1,43,Riley,Acc,Participant_Images/65e4124826438fd6dc97bd7e/65e4124826438fd6dc97bd7e_Images/65e4124826438fd6dc97bd7e_Image_15.jpeg,liked,2.071164779,,,,,,,,,,,,,,,,,,,,,,,
,,65e4124826438fd6dc97bd7e,6685aa9113c938e83b4f1ea0,66d3e305dbacd5087957f343,2024-08-31_22h52.07.237,WTP_SM_Choice,2022.2.1,Win32,60.24096386,,,,,space,1.3139,NAN,,NAN,1.18,4.82,,0,43,43,43,1,44,Riley,Acc,Participant_Images/65e4124826438fd6dc97bd7e/65e4124826438fd6dc97bd7e_Images/65e4124826438fd6dc97bd7e_Image_25.jpeg,liked,5.336503566,,,,,,,,,,,,,,,,,,,,,,,
,,65e4124826438fd6dc97bd7e,6685aa9113c938e83b4f1ea0,66d3e305dbacd5087957f343,2024-08-31_22h52.07.237,WTP_SM_Choice,2022.2.1,Win32,60.24096386,,,,,,,,,,,,,,,,,,41,,,,,,space,1.5987,space,0.4578,0.04,2,2.7434,0,0,0,0,1,I love watching people enjoy life,watch the flowers and the trees grow with my mom,0.01,0.04,1.1,1,,,,,
,,65e4124826438fd6dc97bd7e,6685aa9113c938e83b4f1ea0,66d3e305dbacd5087957f343,2024-08-31_22h52.07.237,WTP_SM_Choice,2022.2.1,Win32,60.24096386,,,,,,,,,,,,,,,,,,42,,,,,,,,,,0.02,1,3.4475,0,1,1,1,1, skip school with my classmates,Go to the skate park to practice,0.02,0.04,3.3,0,,,,,
,,65e4124826438fd6dc97bd7e,6685aa9113c938e83b4f1ea0,66d3e305dbacd5087957f343,2024-08-31_22h52.07.237,WTP_SM_Choice,2022.2.1,Win32,60.24096386,,,,,,,,,,,,,,,,,,43,,,,,,,,,,0.04,2,1.6307,0,2,2,2,1, skip school with my classmates, relax with my dogs,0.03,0.04,1.1,0,,,,,
,,65e4124826438fd6dc97bd7e,6685aa9113c938e83b4f1ea0,66d3e305dbacd5087957f343,2024-08-31_22h52.07.237,WTP_SM_Choice,2022.2.1,Win32,60.24096386,,,,,,,,,,,,,,,,,,44,,,,,,,,,,0.04,2,2.2526,0,3,3,3,1,go to the gym and workout, go to the movies with my friends ,0.04,0.04,1.1,1,,,,,
,,65e4124826438fd6dc97bd7e,6685aa9113c938e83b4f1ea0,66d3e305dbacd5087957f343,2024-08-31_22h52.07.237,WTP_SM_Choice,2022.2.1,Win32,60.24096386,,,,,,,,,,,,,,,,,,45,,,,,,,,,,0.05,1,2.6295,0,4,4,4,1, relax with my dogs,go to the casino with my mates,0.05,0.04,4.4,1,,,,,
,,65e4124826438fd6dc97bd7e,6685aa9113c938e83b4f1ea0,66d3e305dbacd5087957f343,2024-08-31_22h52.07.237,WTP_SM_Choice,2022.2.1,Win32,60.24096386,,,,,,,NAN,,NAN,1.37,4.63,,0,44,44,44,1,45,Riley,Acc,Participant_Images/65e4124826438fd6dc97bd7e/65e4124826438fd6dc97bd7e_Images/65e4124826438fd6dc97bd7e_Image_9.jpeg,did not like,2.642157193,,,,,,,,,,,,,,,,,,,,,,,
,,65e4124826438fd6dc97bd7e,6685aa9113c938e83b4f1ea0,66d3e305dbacd5087957f343,2024-08-31_22h52.07.237,WTP_SM_Choice,2022.2.1,Win32,60.24096386,,,,,space,1.0949,NAN,,NAN,1.37,4.63,,0,45,45,45,1,46,Riley,Acc,Participant_Images/65e4124826438fd6dc97bd7e/65e4124826438fd6dc97bd7e_Images/65e4124826438fd6dc97bd7e_Image_10.jpeg,liked,4.456234322,,,,,,,,,,,,,,,,,,,,,,,
,,65e4124826438fd6dc97bd7e,6685aa9113c938e83b4f1ea0,66d3e305dbacd5087957f343,2024-08-31_22h52.07.237,WTP_SM_Choice,2022.2.1,Win32,60.24096386,,,,,space,3.4738,NAN,,NAN,1.37,4.63,,0,46,46,46,1,47,Riley,Acc,Participant_Images/65e4124826438fd6dc97bd7e/65e4124826438fd6dc97bd7e_Images/65e4124826438fd6dc97bd7e_Image_6.jpeg,liked,4.438512181,,,,,,,,,,,,,,,,,,,,,,,
,,65e4124826438fd6dc97bd7e,6685aa9113c938e83b4f1ea0,66d3e305dbacd5087957f343,2024-08-31_22h52.07.237,WTP_SM_Choice,2022.2.1,Win32,60.24096386,,,,,space,5.5955,NAN,,NAN,1.37,4.63,,0,47,47,47,1,48,Riley,Acc,Participant_Images/65e4124826438fd6dc97bd7e/65e4124826438fd6dc97bd7e_Images/65e4124826438fd6dc97bd7e_Image_8.jpeg,liked,2.682944783,,,,,,,,,,,,,,,,,,,,,,,
,,65e4124826438fd6dc97bd7e,6685aa9113c938e83b4f1ea0,66d3e305dbacd5087957f343,2024-08-31_22h52.07.237,WTP_SM_Choice,2022.2.1,Win32,60.24096386,,,,,space,5.1567,NAN,,NAN,1.37,4.63,,0,48,48,48,1,49,Riley,Acc,Participant_Images/65e4124826438fd6dc97bd7e/65e4124826438fd6dc97bd7e_Images/65e4124826438fd6dc97bd7e_Image_23.jpeg,liked,4.51984296,,,,,,,,,,,,,,,,,,,,,,,
,,65e4124826438fd6dc97bd7e,6685aa9113c938e83b4f1ea0,66d3e305dbacd5087957f343,2024-08-31_22h52.07.237,WTP_SM_Choice,2022.2.1,Win32,60.24096386,,,,,,,,,,,,,,,,,,46,,,,,,space,2.385,space,0.6194,0.05,2,5.5515,0,0,0,0,1, go to the movies with my friends ,sleep in at night,0.01,0.05,8.8,0,,,,,
,,65e4124826438fd6dc97bd7e,6685aa9113c938e83b4f1ea0,66d3e305dbacd5087957f343,2024-08-31_22h52.07.237,WTP_SM_Choice,2022.2.1,Win32,60.24096386,,,,,,,,,,,,,,,,,,47,,,,,,,,,,0.02,1,4.0214,0,1,1,1,1, go to the job fair with my wife,go swimming at the local YMCA pool,0.02,0.05,1.1,0,,,,,
,,65e4124826438fd6dc97bd7e,6685aa9113c938e83b4f1ea0,66d3e305dbacd5087957f343,2024-08-31_22h52.07.237,WTP_SM_Choice,2022.2.1,Win32,60.24096386,,,,,,,,,,,,,,,,,,48,,,,,,,,,,0.05,2,2.9806,0,2,2,2,1,go to the casino with my mates,go on morning walks around the neighborhood,0.03,0.05,4.4,0,,,,,
,,65e4124826438fd6dc97bd7e,6685aa9113c938e83b4f1ea0,66d3e305dbacd5087957f343,2024-08-31_22h52.07.237,WTP_SM_Choice,2022.2.1,Win32,60.24096386,,,,,,,,,,,,,,,,,,49,,,,,,,,,,0.05,2,3.1209,0,3,3,3,1,count with my money, give less needy people what they want,0.04,0.05,3.3,1,,,,,
,,65e4124826438fd6dc97bd7e,6685aa9113c938e83b4f1ea0,66d3e305dbacd5087957f343,2024-08-31_22h52.07.237,WTP_SM_Choice,2022.2.1,Win32,60.24096386,,,,,,,,,,,,,,,,,,50,,,,,,,,,,0.05,2,6.894,0,4,4,4,1,voulenteer at homeless shelters with my sister,go on morning walks around the neighborhood,0.05,0.05,1.1,0,,,,,
,,65e4124826438fd6dc97bd7e,6685aa9113c938e83b4f1ea0,66d3e305dbacd5087957f343,2024-08-31_22h52.07.237,WTP_SM_Choice,2022.2.1,Win32,60.24096386,,,,,,,4,,4,1.59,4.41,,0,49,49,49,1,50,Riley,Acc,Participant_Images/65e4124826438fd6dc97bd7e/65e4124826438fd6dc97bd7e_Images/65e4124826438fd6dc97bd7e_Image_17.jpeg,liked,3.195382774,,,,,,,,,,,,,,,,,,,space,1.8859,,,
,,65e4124826438fd6dc97bd7e,6685aa9113c938e83b4f1ea0,66d3e305dbacd5087957f343,2024-08-31_22h52.07.237,WTP_SM_Choice,2022.2.1,Win32,60.24096386,,,space,2.3856,space,1.185,NAN,,NAN,1.59,4.41,,0,50,50,50,1,51,Charlie,Acc,Participant_Images/65e4124826438fd6dc97bd7e/65e4124826438fd6dc97bd7e_Images/65e4124826438fd6dc97bd7e_Image_22.jpeg,did not like,1.779333479,,,,,,,,,,,,,,,,,,,,,,,
,,65e4124826438fd6dc97bd7e,6685aa9113c938e83b4f1ea0,66d3e305dbacd5087957f343,2024-08-31_22h52.07.237,WTP_SM_Choice,2022.2.1,Win32,60.24096386,,,,,space,2.0358,NAN,,NAN,1.59,4.41,,0,51,51,51,1,52,Charlie,Acc,Participant_Images/65e4124826438fd6dc97bd7e/65e4124826438fd6dc97bd7e_Images/65e4124826438fd6dc97bd7e_Image_6.jpeg,liked,4.312468682,,,,,,,,,,,,,,,,,,,,,,,
,,65e4124826438fd6dc97bd7e,6685aa9113c938e83b4f1ea0,66d3e305dbacd5087957f343,2024-08-31_22h52.07.237,WTP_SM_Choice,2022.2.1,Win32,60.24096386,,,,,space,1.2881,NAN,,NAN,1.59,4.41,,0,52,52,52,1,53,Charlie,Acc,Participant_Images/65e4124826438fd6dc97bd7e/65e4124826438fd6dc97bd7e_Images/65e4124826438fd6dc97bd7e_Image_10.jpeg,did not like,4.940433059,,,,,,,,,,,,,,,,,,,,,,,
,,65e4124826438fd6dc97bd7e,6685aa9113c938e83b4f1ea0,66d3e305dbacd5087957f343,2024-08-31_22h52.07.237,WTP_SM_Choice,2022.2.1,Win32,60.24096386,,,,,space,1.569,NAN,,NAN,1.59,4.41,,0,53,53,53,1,54,Charlie,Acc,Participant_Images/65e4124826438fd6dc97bd7e/65e4124826438fd6dc97bd7e_Images/65e4124826438fd6dc97bd7e_Image_24.jpeg,did not like,2.7105123,,,,,,,,,,,,,,,,,,,,,,,
,,65e4124826438fd6dc97bd7e,6685aa9113c938e83b4f1ea0,66d3e305dbacd5087957f343,2024-08-31_22h52.07.237,WTP_SM_Choice,2022.2.1,Win32,60.24096386,,,,,,,,,,,,,,,,,,51,,,,,,space,7.0232,space,0.4899,0.01,1,3.5848,0,0,0,0,1,scool younger people on life with coworkers,I love watching people enjoy life,0.01,0.01,1.1,0,,,,,
,,65e4124826438fd6dc97bd7e,6685aa9113c938e83b4f1ea0,66d3e305dbacd5087957f343,2024-08-31_22h52.07.237,WTP_SM_Choice,2022.2.1,Win32,60.24096386,,,,,,,,,,,,,,,,,,52,,,,,,,,,,0.02,1,6.3843,0,1,1,1,1,cook with my roomates,Go to the skate park to practice,0.02,0.01,3.3,0,,,,,
,,65e4124826438fd6dc97bd7e,6685aa9113c938e83b4f1ea0,66d3e305dbacd5087957f343,2024-08-31_22h52.07.237,WTP_SM_Choice,2022.2.1,Win32,60.24096386,,,,,,,,,,,,,,,,,,53,,,,,,,,,,0.03,1,4.6747,0,2,2,2,1,scool younger people on life with coworkers, relax with my dogs,0.03,0.01,1.1,0,,,,,
,,65e4124826438fd6dc97bd7e,6685aa9113c938e83b4f1ea0,66d3e305dbacd5087957f343,2024-08-31_22h52.07.237,WTP_SM_Choice,2022.2.1,Win32,60.24096386,,,,,,,,,,,,,,,,,,54,,,,,,,,,,0.01,2,2.2963,0,3,3,3,1,voulenteer at homeless shelters with my sister,count with my money,0.04,0.01,4.4,0,,,,,
,,65e4124826438fd6dc97bd7e,6685aa9113c938e83b4f1ea0,66d3e305dbacd5087957f343,2024-08-31_22h52.07.237,WTP_SM_Choice,2022.2.1,Win32,60.24096386,,,,,,,,,,,,,,,,,,55,,,,,,,,,,0.05,1,5.2572,0,4,4,4,1,I love watching people enjoy life, go to the movies with my friends ,0.05,0.01,1.1,1,,,,,
,,65e4124826438fd6dc97bd7e,6685aa9113c938e83b4f1ea0,66d3e305dbacd5087957f343,2024-08-31_22h52.07.237,WTP_SM_Choice,2022.2.1,Win32,60.24096386,,,,,,,NAN,,NAN,1.71,4.29,,0,54,54,54,1,55,Charlie,Acc,Participant_Images/65e4124826438fd6dc97bd7e/65e4124826438fd6dc97bd7e_Images/65e4124826438fd6dc97bd7e_Image_23.jpeg,liked,3.602308302,,,,,,,,,,,,,,,,,,,,,,,
,,65e4124826438fd6dc97bd7e,6685aa9113c938e83b4f1ea0,66d3e305dbacd5087957f343,2024-08-31_22h52.07.237,WTP_SM_Choice,2022.2.1,Win32,60.24096386,,,,,space,3.2934,NAN,,NAN,1.71,4.29,,0,55,55,55,1,56,Charlie,Acc,Participant_Images/65e4124826438fd6dc97bd7e/65e4124826438fd6dc97bd7e_Images/65e4124826438fd6dc97bd7e_Image_16.jpeg,liked,4.106391878,,,,,,,,,,,,,,,,,,,,,,,
,,65e4124826438fd6dc97bd7e,6685aa9113c938e83b4f1ea0,66d3e305dbacd5087957f343,2024-08-31_22h52.07.237,WTP_SM_Choice,2022.2.1,Win32,60.24096386,,,,,space,19.8414,NAN,,NAN,1.71,4.29,,0,56,56,56,1,57,Charlie,Acc,Participant_Images/65e4124826438fd6dc97bd7e/65e4124826438fd6dc97bd7e_Images/65e4124826438fd6dc97bd7e_Image_25.jpeg,liked,3.799433026,,,,,,,,,,,,,,,,,,,,,,,
,,65e4124826438fd6dc97bd7e,6685aa9113c938e83b4f1ea0,66d3e305dbacd5087957f343,2024-08-31_22h52.07.237,WTP_SM_Choice,2022.2.1,Win32,60.24096386,,,,,space,2.7209,NAN,,NAN,1.71,4.29,,0,57,57,57,1,58,Charlie,Acc,Participant_Images/65e4124826438fd6dc97bd7e/65e4124826438fd6dc97bd7e_Images/65e4124826438fd6dc97bd7e_Image_11.jpeg,liked,5.246980764,,,,,,,,,,,,,,,,,,,,,,,
,,65e4124826438fd6dc97bd7e,6685aa9113c938e83b4f1ea0,66d3e305dbacd5087957f343,2024-08-31_22h52.07.237,WTP_SM_Choice,2022.2.1,Win32,60.24096386,,,,,space,1.7914,NAN,,NAN,1.71,4.29,,0,58,58,58,1,59,Charlie,Acc,Participant_Images/65e4124826438fd6dc97bd7e/65e4124826438fd6dc97bd7e_Images/65e4124826438fd6dc97bd7e_Image_5.jpeg,liked,3.30081769,,,,,,,,,,,,,,,,,,,,,,,
,,65e4124826438fd6dc97bd7e,6685aa9113c938e83b4f1ea0,66d3e305dbacd5087957f343,2024-08-31_22h52.07.237,WTP_SM_Choice,2022.2.1,Win32,60.24096386,,,,,,,,,,,,,,,,,,56,,,,,,space,2.9068,space,1.1923,0.01,1,3.8169,0,0,0,0,1,go to the gym and workout,cook with my roomates,0.01,0.02,8.8,1,,,,,
,,65e4124826438fd6dc97bd7e,6685aa9113c938e83b4f1ea0,66d3e305dbacd5087957f343,2024-08-31_22h52.07.237,WTP_SM_Choice,2022.2.1,Win32,60.24096386,,,,,,,,,,,,,,,,,,57,,,,,,,,,,0.02,2,7.9067,0,1,1,1,1,cook with my roomates,count with my money,0.02,0.02,4.4,0,,,,,
,,65e4124826438fd6dc97bd7e,6685aa9113c938e83b4f1ea0,66d3e305dbacd5087957f343,2024-08-31_22h52.07.237,WTP_SM_Choice,2022.2.1,Win32,60.24096386,,,,,,,,,,,,,,,,,,58,,,,,,,,,,0.03,1,1.4618,0,2,2,2,1, go to the movies with my friends ,go swimming at the local YMCA pool,0.03,0.02,4.4,0,,,,,
,,65e4124826438fd6dc97bd7e,6685aa9113c938e83b4f1ea0,66d3e305dbacd5087957f343,2024-08-31_22h52.07.237,WTP_SM_Choice,2022.2.1,Win32,60.24096386,,,,,,,,,,,,,,,,,,59,,,,,,,,,,0.04,1,2.5364,0,3,3,3,1,watch different people have blessed days,Go to the skate park to practice,0.04,0.02,4.4,0,,,,,
,,65e4124826438fd6dc97bd7e,6685aa9113c938e83b4f1ea0,66d3e305dbacd5087957f343,2024-08-31_22h52.07.237,WTP_SM_Choice,2022.2.1,Win32,60.24096386,,,,,,,,,,,,,,,,,,60,,,,,,,,,,0.05,1,4.4115,0,4,4,4,1,scool younger people on life with coworkers,go on morning walks around the neighborhood,0.05,0.02,1.1,0,,,,,
,,65e4124826438fd6dc97bd7e,6685aa9113c938e83b4f1ea0,66d3e305dbacd5087957f343,2024-08-31_22h52.07.237,WTP_SM_Choice,2022.2.1,Win32,60.24096386,,,,,,,NAN,,NAN,1.86,4.14,,0,59,59,59,1,60,Charlie,Acc,Participant_Images/65e4124826438fd6dc97bd7e/65e4124826438fd6dc97bd7e_Images/65e4124826438fd6dc97bd7e_Image_20.jpeg,liked,1.661473164,,,,,,,,,,,,,,,,,,,,,,,
,,65e4124826438fd6dc97bd7e,6685aa9113c938e83b4f1ea0,66d3e305dbacd5087957f343,2024-08-31_22h52.07.237,WTP_SM_Choice,2022.2.1,Win32,60.24096386,,,,,space,0.7071,NAN,,NAN,1.86,4.14,,0,60,60,60,1,61,Charlie,Acc,Participant_Images/65e4124826438fd6dc97bd7e/65e4124826438fd6dc97bd7e_Images/65e4124826438fd6dc97bd7e_Image_9.jpeg,liked,3.613205605,,,,,,,,,,,,,,,,,,,,,,,
,,65e4124826438fd6dc97bd7e,6685aa9113c938e83b4f1ea0,66d3e305dbacd5087957f343,2024-08-31_22h52.07.237,WTP_SM_Choice,2022.2.1,Win32,60.24096386,,,,,space,0.0824,NAN,,NAN,1.86,4.14,,0,61,61,61,1,62,Charlie,Acc,Participant_Images/65e4124826438fd6dc97bd7e/65e4124826438fd6dc97bd7e_Images/65e4124826438fd6dc97bd7e_Image_4.jpeg,did not like,4.988446431,,,,,,,,,,,,,,,,,,,,,,,
,,65e4124826438fd6dc97bd7e,6685aa9113c938e83b4f1ea0,66d3e305dbacd5087957f343,2024-08-31_22h52.07.237,WTP_SM_Choice,2022.2.1,Win32,60.24096386,,,,,space,1.6518,NAN,,NAN,1.86,4.14,,0,62,62,62,1,63,Charlie,Acc,Participant_Images/65e4124826438fd6dc97bd7e/65e4124826438fd6dc97bd7e_Images/65e4124826438fd6dc97bd7e_Image_3.jpeg,liked,3.470791822,,,,,,,,,,,,,,,,,,,,,,,
,,65e4124826438fd6dc97bd7e,6685aa9113c938e83b4f1ea0,66d3e305dbacd5087957f343,2024-08-31_22h52.07.237,WTP_SM_Choice,2022.2.1,Win32,60.24096386,,,,,space,1.5657,NAN,,NAN,1.86,4.14,,0,63,63,63,1,64,Charlie,Acc,Participant_Images/65e4124826438fd6dc97bd7e/65e4124826438fd6dc97bd7e_Images/65e4124826438fd6dc97bd7e_Image_19.jpeg,liked,3.820572462,,,,,,,,,,,,,,,,,,,,,,,
,,65e4124826438fd6dc97bd7e,6685aa9113c938e83b4f1ea0,66d3e305dbacd5087957f343,2024-08-31_22h52.07.237,WTP_SM_Choice,2022.2.1,Win32,60.24096386,,,,,,,,,,,,,,,,,,61,,,,,,space,2.6366,space,0.8683,0.03,2,2.8999,0,0,0,0,1, skip school with my classmates,sleep in at night,0.01,0.03,3.3,0,,,,,
,,65e4124826438fd6dc97bd7e,6685aa9113c938e83b4f1ea0,66d3e305dbacd5087957f343,2024-08-31_22h52.07.237,WTP_SM_Choice,2022.2.1,Win32,60.24096386,,,,,,,,,,,,,,,,,,62,,,,,,,,,,0.03,2,2.2541,0,1,1,1,1,Watch cooking videos on YouTube in my spare time, give less needy people what they want,0.02,0.03,3.3,1,,,,,
,,65e4124826438fd6dc97bd7e,6685aa9113c938e83b4f1ea0,66d3e305dbacd5087957f343,2024-08-31_22h52.07.237,WTP_SM_Choice,2022.2.1,Win32,60.24096386,,,,,,,,,,,,,,,,,,63,,,,,,,,,,0.03,1,4.3724,0,2,2,2,1, skip school with my classmates,go on morning walks around the neighborhood,0.03,0.03,3.3,0,,,,,
,,65e4124826438fd6dc97bd7e,6685aa9113c938e83b4f1ea0,66d3e305dbacd5087957f343,2024-08-31_22h52.07.237,WTP_SM_Choice,2022.2.1,Win32,60.24096386,,,,,,,,,,,,,,,,,,64,,,,,,,,,,0.04,1,3.2565,0,3,3,3,1, go to the movies with my friends ,Watch cooking videos on YouTube in my spare time,0.04,0.03,1.1,0,,,,,
,,65e4124826438fd6dc97bd7e,6685aa9113c938e83b4f1ea0,66d3e305dbacd5087957f343,2024-08-31_22h52.07.237,WTP_SM_Choice,2022.2.1,Win32,60.24096386,,,,,,,,,,,,,,,,,,65,,,,,,,,,,0.05,1,3.4527,0,4,4,4,1,go on morning walks around the neighborhood, go to the job fair with my wife,0.05,0.03,1.1,1,,,,,
,,65e4124826438fd6dc97bd7e,6685aa9113c938e83b4f1ea0,66d3e305dbacd5087957f343,2024-08-31_22h52.07.237,WTP_SM_Choice,2022.2.1,Win32,60.24096386,,,,,,,NAN,,NAN,2.04,3.96,,0,64,64,64,1,65,Charlie,Acc,Participant_Images/65e4124826438fd6dc97bd7e/65e4124826438fd6dc97bd7e_Images/65e4124826438fd6dc97bd7e_Image_13.jpeg,liked,2.455989137,,,,,,,,,,,,,,,,,,,,,,,
,,65e4124826438fd6dc97bd7e,6685aa9113c938e83b4f1ea0,66d3e305dbacd5087957f343,2024-08-31_22h52.07.237,WTP_SM_Choice,2022.2.1,Win32,60.24096386,,,,,space,1.109,NAN,,NAN,2.04,3.96,,0,65,65,65,1,66,Charlie,Acc,Participant_Images/65e4124826438fd6dc97bd7e/65e4124826438fd6dc97bd7e_Images/65e4124826438fd6dc97bd7e_Image_17.jpeg,did not like,3.79605092,,,,,,,,,,,,,,,,,,,,,,,
,,65e4124826438fd6dc97bd7e,6685aa9113c938e83b4f1ea0,66d3e305dbacd5087957f343,2024-08-31_22h52.07.237,WTP_SM_Choice,2022.2.1,Win32,60.24096386,,,,,space,1.7347,NAN,,NAN,2.04,3.96,,0,66,66,66,1,67,Charlie,Acc,Participant_Images/65e4124826438fd6dc97bd7e/65e4124826438fd6dc97bd7e_Images/65e4124826438fd6dc97bd7e_Image_15.jpeg,liked,3.562416326,,,,,,,,,,,,,,,,,,,,,,,
,,65e4124826438fd6dc97bd7e,6685aa9113c938e83b4f1ea0,66d3e305dbacd5087957f343,2024-08-31_22h52.07.237,WTP_SM_Choice,2022.2.1,Win32,60.24096386,,,,,space,1.6081,NAN,,NAN,2.04,3.96,,0,67,67,67,1,68,Charlie,Acc,Participant_Images/65e4124826438fd6dc97bd7e/65e4124826438fd6dc97bd7e_Images/65e4124826438fd6dc97bd7e_Image_18.jpeg,liked,2.843822497,,,,,,,,,,,,,,,,,,,,,,,
,,65e4124826438fd6dc97bd7e,6685aa9113c938e83b4f1ea0,66d3e305dbacd5087957f343,2024-08-31_22h52.07.237,WTP_SM_Choice,2022.2.1,Win32,60.24096386,,,,,space,1.6202,NAN,,NAN,2.04,3.96,,0,68,68,68,1,69,Charlie,Acc,Participant_Images/65e4124826438fd6dc97bd7e/65e4124826438fd6dc97bd7e_Images/65e4124826438fd6dc97bd7e_Image_12.jpeg,did not like,3.546495948,,,,,,,,,,,,,,,,,,,,,,,
,,65e4124826438fd6dc97bd7e,6685aa9113c938e83b4f1ea0,66d3e305dbacd5087957f343,2024-08-31_22h52.07.237,WTP_SM_Choice,2022.2.1,Win32,60.24096386,,,,,,,,,,,,,,,,,,66,,,,,,space,1.5359,space,1.1988,0.04,2,3.9514,0,0,0,0,1,watch different people have blessed days,go swimming at the local YMCA pool,0.01,0.04,1.1,0,,,,,
,,65e4124826438fd6dc97bd7e,6685aa9113c938e83b4f1ea0,66d3e305dbacd5087957f343,2024-08-31_22h52.07.237,WTP_SM_Choice,2022.2.1,Win32,60.24096386,,,,,,,,,,,,,,,,,,67,,,,,,,,,,0.02,1,2.4371,0,1,1,1,1, relax with my dogs, go to the job fair with my wife,0.02,0.04,8.8,1,,,,,
,,65e4124826438fd6dc97bd7e,6685aa9113c938e83b4f1ea0,66d3e305dbacd5087957f343,2024-08-31_22h52.07.237,WTP_SM_Choice,2022.2.1,Win32,60.24096386,,,,,,,,,,,,,,,,,,68,,,,,,,,,,0.04,2,2.6884,0,2,2,2,1,sleep in at night, give less needy people what they want,0.03,0.04,4.4,1,,,,,
,,65e4124826438fd6dc97bd7e,6685aa9113c938e83b4f1ea0,66d3e305dbacd5087957f343,2024-08-31_22h52.07.237,WTP_SM_Choice,2022.2.1,Win32,60.24096386,,,,,,,,,,,,,,,,,,69,,,,,,,,,,0.04,2,3.1736,0,3,3,3,1,go to the gym and workout,scool younger people on life with coworkers,0.04,0.04,1.1,1,,,,,
,,65e4124826438fd6dc97bd7e,6685aa9113c938e83b4f1ea0,66d3e305dbacd5087957f343,2024-08-31_22h52.07.237,WTP_SM_Choice,2022.2.1,Win32,60.24096386,,,,,,,,,,,,,,,,,,70,,,,,,,,,,0.05,1,2.0293,0,4,4,4,1,watch different people have blessed days,read fictional novels,0.05,0.04,1.1,0,,,,,
,,65e4124826438fd6dc97bd7e,6685aa9113c938e83b4f1ea0,66d3e305dbacd5087957f343,2024-08-31_22h52.07.237,WTP_SM_Choice,2022.2.1,Win32,60.24096386,,,,,,,NAN,,NAN,2.23,3.77,,0,69,69,69,1,70,Charlie,Acc,Participant_Images/65e4124826438fd6dc97bd7e/65e4124826438fd6dc97bd7e_Images/65e4124826438fd6dc97bd7e_Image_1.jpeg,liked,1.672012706,,,,,,,,,,,,,,,,,,,,,,,
,,65e4124826438fd6dc97bd7e,6685aa9113c938e83b4f1ea0,66d3e305dbacd5087957f343,2024-08-31_22h52.07.237,WTP_SM_Choice,2022.2.1,Win32,60.24096386,,,,,space,2.8068,NAN,,NAN,2.23,3.77,,0,70,70,70,1,71,Charlie,Acc,Participant_Images/65e4124826438fd6dc97bd7e/65e4124826438fd6dc97bd7e_Images/65e4124826438fd6dc97bd7e_Image_8.jpeg,did not like,4.942172136,,,,,,,,,,,,,,,,,,,,,,,
,,65e4124826438fd6dc97bd7e,6685aa9113c938e83b4f1ea0,66d3e305dbacd5087957f343,2024-08-31_22h52.07.237,WTP_SM_Choice,2022.2.1,Win32,60.24096386,,,,,space,0.7899,NAN,,NAN,2.23,3.77,,0,71,71,71,1,72,Charlie,Acc,Participant_Images/65e4124826438fd6dc97bd7e/65e4124826438fd6dc97bd7e_Images/65e4124826438fd6dc97bd7e_Image_14.jpeg,liked,2.50187214,,,,,,,,,,,,,,,,,,,,,,,
,,65e4124826438fd6dc97bd7e,6685aa9113c938e83b4f1ea0,66d3e305dbacd5087957f343,2024-08-31_22h52.07.237,WTP_SM_Choice,2022.2.1,Win32,60.24096386,,,,,space,0.9563,NAN,,NAN,2.23,3.77,,0,72,72,72,1,73,Charlie,Acc,Participant_Images/65e4124826438fd6dc97bd7e/65e4124826438fd6dc97bd7e_Images/65e4124826438fd6dc97bd7e_Image_7.jpeg,liked,2.071164779,,,,,,,,,,,,,,,,,,,,,,,
,,65e4124826438fd6dc97bd7e,6685aa9113c938e83b4f1ea0,66d3e305dbacd5087957f343,2024-08-31_22h52.07.237,WTP_SM_Choice,2022.2.1,Win32,60.24096386,,,,,space,2.5371,NAN,,NAN,2.23,3.77,,0,73,73,73,1,74,Charlie,Acc,Participant_Images/65e4124826438fd6dc97bd7e/65e4124826438fd6dc97bd7e_Images/65e4124826438fd6dc97bd7e_Image_21.jpeg,liked,5.336503566,,,,,,,,,,,,,,,,,,,,,,,
,,65e4124826438fd6dc97bd7e,6685aa9113c938e83b4f1ea0,66d3e305dbacd5087957f343,2024-08-31_22h52.07.237,WTP_SM_Choice,2022.2.1,Win32,60.24096386,,,,,,,,,,,,,,,,,,71,,,,,,space,6.4612,space,0.721,0.01,1,3.3831,0,0,0,0,1,sleep in at night,cook with my roomates,0.01,0.05,3.3,1,,,,,
,,65e4124826438fd6dc97bd7e,6685aa9113c938e83b4f1ea0,66d3e305dbacd5087957f343,2024-08-31_22h52.07.237,WTP_SM_Choice,2022.2.1,Win32,60.24096386,,,,,,,,,,,,,,,,,,72,,,,,,,,,,0.02,1,6.0412,0,1,1,1,1,scool younger people on life with coworkers,go swimming at the local YMCA pool,0.02,0.05,8.8,0,,,,,
,,65e4124826438fd6dc97bd7e,6685aa9113c938e83b4f1ea0,66d3e305dbacd5087957f343,2024-08-31_22h52.07.237,WTP_SM_Choice,2022.2.1,Win32,60.24096386,,,,,,,,,,,,,,,,,,73,,,,,,,,,,0.05,2,1.5516,0,2,2,2,1, relax with my dogs, give less needy people what they want,0.03,0.05,3.3,1,,,,,
,,65e4124826438fd6dc97bd7e,6685aa9113c938e83b4f1ea0,66d3e305dbacd5087957f343,2024-08-31_22h52.07.237,WTP_SM_Choice,2022.2.1,Win32,60.24096386,,,,,,,,,,,,,,,,,,74,,,,,,,,,,0.04,1,3.0629,0,3,3,3,1, go to the job fair with my wife,read fictional novels,0.04,0.05,4.4,0,,,,,
,,65e4124826438fd6dc97bd7e,6685aa9113c938e83b4f1ea0,66d3e305dbacd5087957f343,2024-08-31_22h52.07.237,WTP_SM_Choice,2022.2.1,Win32,60.24096386,,,,,,,,,,,,,,,,,,75,,,,,,,,,,0.05,1,3.0391,0,4,4,4,1,go to the casino with my mates,read fictional novels,0.05,0.05,3.3,0,,,,,
,,65e4124826438fd6dc97bd7e,6685aa9113c938e83b4f1ea0,66d3e305dbacd5087957f343,2024-08-31_22h52.07.237,WTP_SM_Choice,2022.2.1,Win32,60.24096386,,,,,,,4,,3,2.4,3.6,,0,74,74,74,1,75,Charlie,Acc,Participant_Images/65e4124826438fd6dc97bd7e/65e4124826438fd6dc97bd7e_Images/65e4124826438fd6dc97bd7e_Image_2.jpeg,liked,2.642157193,,,,,,,,,,,,,,,,,,,space,1.4916,,,
,,65e4124826438fd6dc97bd7e,6685aa9113c938e83b4f1ea0,66d3e305dbacd5087957f343,2024-08-31_22h52.07.237,WTP_SM_Choice,2022.2.1,Win32,60.24096386,,,space,2.737,space,1.6857,NAN,,NAN,2.4,3.6,,0,75,75,75,1,76,Alex,Rej,Participant_Images/65e4124826438fd6dc97bd7e/65e4124826438fd6dc97bd7e_Images/65e4124826438fd6dc97bd7e_Image_15.jpeg,did not like,4.456234322,,,,,,,,,,,,,,,,,,,,,,,
,,65e4124826438fd6dc97bd7e,6685aa9113c938e83b4f1ea0,66d3e305dbacd5087957f343,2024-08-31_22h52.07.237,WTP_SM_Choice,2022.2.1,Win32,60.24096386,,,,,space,1.4518,NAN,,NAN,2.4,3.6,,0,76,76,76,1,77,Alex,Rej,Participant_Images/65e4124826438fd6dc97bd7e/65e4124826438fd6dc97bd7e_Images/65e4124826438fd6dc97bd7e_Image_25.jpeg,liked,4.438512181,,,,,,,,,,,,,,,,,,,,,,,
,,65e4124826438fd6dc97bd7e,6685aa9113c938e83b4f1ea0,66d3e305dbacd5087957f343,2024-08-31_22h52.07.237,WTP_SM_Choice,2022.2.1,Win32,60.24096386,,,,,space,1.8437,NAN,,NAN,2.4,3.6,,0,77,77,77,1,78,Alex,Rej,Participant_Images/65e4124826438fd6dc97bd7e/65e4124826438fd6dc97bd7e_Images/65e4124826438fd6dc97bd7e_Image_3.jpeg,liked,2.682944783,,,,,,,,,,,,,,,,,,,,,,,
,,65e4124826438fd6dc97bd7e,6685aa9113c938e83b4f1ea0,66d3e305dbacd5087957f343,2024-08-31_22h52.07.237,WTP_SM_Choice,2022.2.1,Win32,60.24096386,,,,,space,2.0498,NAN,,NAN,2.4,3.6,,0,78,78,78,1,79,Alex,Rej,Participant_Images/65e4124826438fd6dc97bd7e/65e4124826438fd6dc97bd7e_Images/65e4124826438fd6dc97bd7e_Image_14.jpeg,did not like,4.51984296,,,,,,,,,,,,,,,,,,,,,,,
,,65e4124826438fd6dc97bd7e,6685aa9113c938e83b4f1ea0,66d3e305dbacd5087957f343,2024-08-31_22h52.07.237,WTP_SM_Choice,2022.2.1,Win32,60.24096386,,,,,,,,,,,,,,,,,,76,,,,,,space,1.4841,space,0.5309,0.01,1,3.09,0,0,0,0,1,go to the gym and workout,go to the casino with my mates,0.01,0.01,1.1,1,,,,,
,,65e4124826438fd6dc97bd7e,6685aa9113c938e83b4f1ea0,66d3e305dbacd5087957f343,2024-08-31_22h52.07.237,WTP_SM_Choice,2022.2.1,Win32,60.24096386,,,,,,,,,,,,,,,,,,77,,,,,,,,,,0.02,1,3.2145,0,1,1,1,1,voulenteer at homeless shelters with my sister,Watch cooking videos on YouTube in my spare time,0.02,0.01,8.8,0,,,,,
,,65e4124826438fd6dc97bd7e,6685aa9113c938e83b4f1ea0,66d3e305dbacd5087957f343,2024-08-31_22h52.07.237,WTP_SM_Choice,2022.2.1,Win32,60.24096386,,,,,,,,,,,,,,,,,,78,,,,,,,,,,0.01,2,1.6578,0,2,2,2,1, relax with my dogs,cook with my roomates,0.03,0.01,1.1,1,,,,,
,,65e4124826438fd6dc97bd7e,6685aa9113c938e83b4f1ea0,66d3e305dbacd5087957f343,2024-08-31_22h52.07.237,WTP_SM_Choice,2022.2.1,Win32,60.24096386,,,,,,,,,,,,,,,,,,79,,,,,,,,,,0.04,1,1.5386,0,3,3,3,1,go swimming at the local YMCA pool,cook with my roomates,0.04,0.01,1.1,1,,,,,
,,65e4124826438fd6dc97bd7e,6685aa9113c938e83b4f1ea0,66d3e305dbacd5087957f343,2024-08-31_22h52.07.237,WTP_SM_Choice,2022.2.1,Win32,60.24096386,,,,,,,,,,,,,,,,,,80,,,,,,,,,,0.05,1,3.7221,0,4,4,4,1,go swimming at the local YMCA pool,watch the flowers and the trees grow with my mom,0.05,0.01,4.4,1,,,,,
,,65e4124826438fd6dc97bd7e,6685aa9113c938e83b4f1ea0,66d3e305dbacd5087957f343,2024-08-31_22h52.07.237,WTP_SM_Choice,2022.2.1,Win32,60.24096386,,,,,,,NAN,,NAN,2.53,3.47,,0,79,79,79,1,80,Alex,Rej,Participant_Images/65e4124826438fd6dc97bd7e/65e4124826438fd6dc97bd7e_Images/65e4124826438fd6dc97bd7e_Image_23.jpeg,did not like,3.195382774,,,,,,,,,,,,,,,,,,,,,,,
,,65e4124826438fd6dc97bd7e,6685aa9113c938e83b4f1ea0,66d3e305dbacd5087957f343,2024-08-31_22h52.07.237,WTP_SM_Choice,2022.2.1,Win32,60.24096386,,,,,space,1.5188,NAN,,NAN,2.53,3.47,,0,80,80,80,1,81,Alex,Rej,Participant_Images/65e4124826438fd6dc97bd7e/65e4124826438fd6dc97bd7e_Images/65e4124826438fd6dc97bd7e_Image_7.jpeg,did not like,1.779333479,,,,,,,,,,,,,,,,,,,,,,,
,,65e4124826438fd6dc97bd7e,6685aa9113c938e83b4f1ea0,66d3e305dbacd5087957f343,2024-08-31_22h52.07.237,WTP_SM_Choice,2022.2.1,Win32,60.24096386,,,,,space,1.0733,NAN,,NAN,2.53,3.47,,0,81,81,81,1,82,Alex,Rej,Participant_Images/65e4124826438fd6dc97bd7e/65e4124826438fd6dc97bd7e_Images/65e4124826438fd6dc97bd7e_Image_8.jpeg,liked,4.312468682,,,,,,,,,,,,,,,,,,,,,,,
,,65e4124826438fd6dc97bd7e,6685aa9113c938e83b4f1ea0,66d3e305dbacd5087957f343,2024-08-31_22h52.07.237,WTP_SM_Choice,2022.2.1,Win32,60.24096386,,,,,space,1.5371,NAN,,NAN,2.53,3.47,,0,82,82,82,1,83,Alex,Rej,Participant_Images/65e4124826438fd6dc97bd7e/65e4124826438fd6dc97bd7e_Images/65e4124826438fd6dc97bd7e_Image_11.jpeg,did not like,4.940433059,,,,,,,,,,,,,,,,,,,,,,,
,,65e4124826438fd6dc97bd7e,6685aa9113c938e83b4f1ea0,66d3e305dbacd5087957f343,2024-08-31_22h52.07.237,WTP_SM_Choice,2022.2.1,Win32,60.24096386,,,,,space,0.9853,NAN,,NAN,2.53,3.47,,0,83,83,83,1,84,Alex,Rej,Participant_Images/65e4124826438fd6dc97bd7e/65e4124826438fd6dc97bd7e_Images/65e4124826438fd6dc97bd7e_Image_24.jpeg,did not like,2.7105123,,,,,,,,,,,,,,,,,,,,,,,
,,65e4124826438fd6dc97bd7e,6685aa9113c938e83b4f1ea0,66d3e305dbacd5087957f343,2024-08-31_22h52.07.237,WTP_SM_Choice,2022.2.1,Win32,60.24096386,,,,,,,,,,,,,,,,,,81,,,,,,space,0.8873,space,0.5842,0.02,2,1.9034,0,0,0,0,1,scool younger people on life with coworkers,sleep in at night,0.01,0.02,3.3,0,,,,,
,,65e4124826438fd6dc97bd7e,6685aa9113c938e83b4f1ea0,66d3e305dbacd5087957f343,2024-08-31_22h52.07.237,WTP_SM_Choice,2022.2.1,Win32,60.24096386,,,,,,,,,,,,,,,,,,82,,,,,,,,,,0.02,1,3.0036,0,1,1,1,1, give less needy people what they want,I love watching people enjoy life,0.02,0.02,4.4,0,,,,,
,,65e4124826438fd6dc97bd7e,6685aa9113c938e83b4f1ea0,66d3e305dbacd5087957f343,2024-08-31_22h52.07.237,WTP_SM_Choice,2022.2.1,Win32,60.24096386,,,,,,,,,,,,,,,,,,83,,,,,,,,,,0.02,2,1.4869,0,2,2,2,1, go to the job fair with my wife,go to the gym and workout,0.03,0.02,1.1,0,,,,,
,,65e4124826438fd6dc97bd7e,6685aa9113c938e83b4f1ea0,66d3e305dbacd5087957f343,2024-08-31_22h52.07.237,WTP_SM_Choice,2022.2.1,Win32,60.24096386,,,,,,,,,,,,,,,,,,84,,,,,,,,,,0.04,1,2.4858,0,3,3,3,1,count with my money,scool younger people on life with coworkers,0.04,0.02,3.3,1,,,,,
,,65e4124826438fd6dc97bd7e,6685aa9113c938e83b4f1ea0,66d3e305dbacd5087957f343,2024-08-31_22h52.07.237,WTP_SM_Choice,2022.2.1,Win32,60.24096386,,,,,,,,,,,,,,,,,,85,,,,,,,,,,0.05,1,2.1254,0,4,4,4,1,go to the gym and workout,watch different people have blessed days,0.05,0.02,3.3,1,,,,,
,,65e4124826438fd6dc97bd7e,6685aa9113c938e83b4f1ea0,66d3e305dbacd5087957f343,2024-08-31_22h52.07.237,WTP_SM_Choice,2022.2.1,Win32,60.24096386,,,,,,,NAN,,NAN,2.68,3.32,,0,84,84,84,1,85,Alex,Rej,Participant_Images/65e4124826438fd6dc97bd7e/65e4124826438fd6dc97bd7e_Images/65e4124826438fd6dc97bd7e_Image_13.jpeg,did not like,3.602308302,,,,,,,,,,,,,,,,,,,,,,,
,,65e4124826438fd6dc97bd7e,6685aa9113c938e83b4f1ea0,66d3e305dbacd5087957f343,2024-08-31_22h52.07.237,WTP_SM_Choice,2022.2.1,Win32,60.24096386,,,,,space,2.7037,NAN,,NAN,2.68,3.32,,0,85,85,85,1,86,Alex,Rej,Participant_Images/65e4124826438fd6dc97bd7e/65e4124826438fd6dc97bd7e_Images/65e4124826438fd6dc97bd7e_Image_18.jpeg,did not like,4.106391878,,,,,,,,,,,,,,,,,,,,,,,
,,65e4124826438fd6dc97bd7e,6685aa9113c938e83b4f1ea0,66d3e305dbacd5087957f343,2024-08-31_22h52.07.237,WTP_SM_Choice,2022.2.1,Win32,60.24096386,,,,,space,17.2932,NAN,,NAN,2.68,3.32,,0,86,86,86,1,87,Alex,Rej,Participant_Images/65e4124826438fd6dc97bd7e/65e4124826438fd6dc97bd7e_Images/65e4124826438fd6dc97bd7e_Image_9.jpeg,did not like,3.799433026,,,,,,,,,,,,,,,,,,,,,,,
,,65e4124826438fd6dc97bd7e,6685aa9113c938e83b4f1ea0,66d3e305dbacd5087957f343,2024-08-31_22h52.07.237,WTP_SM_Choice,2022.2.1,Win32,60.24096386,,,,,space,1.3379,NAN,,NAN,2.68,3.32,,0,87,87,87,1,88,Alex,Rej,Participant_Images/65e4124826438fd6dc97bd7e/65e4124826438fd6dc97bd7e_Images/65e4124826438fd6dc97bd7e_Image_1.jpeg,did not like,5.246980764,,,,,,,,,,,,,,,,,,,,,,,
,,65e4124826438fd6dc97bd7e,6685aa9113c938e83b4f1ea0,66d3e305dbacd5087957f343,2024-08-31_22h52.07.237,WTP_SM_Choice,2022.2.1,Win32,60.24096386,,,,,space,2.4034,NAN,,NAN,2.68,3.32,,0,88,88,88,1,89,Alex,Rej,Participant_Images/65e4124826438fd6dc97bd7e/65e4124826438fd6dc97bd7e_Images/65e4124826438fd6dc97bd7e_Image_6.jpeg,did not like,3.30081769,,,,,,,,,,,,,,,,,,,,,,,
,,65e4124826438fd6dc97bd7e,6685aa9113c938e83b4f1ea0,66d3e305dbacd5087957f343,2024-08-31_22h52.07.237,WTP_SM_Choice,2022.2.1,Win32,60.24096386,,,,,,,,,,,,,,,,,,86,,,,,,space,2.5365,space,0.5836,0.03,2,3.1447,0,0,0,0,1,count with my money,go to the casino with my mates,0.01,0.03,1.1,1,,,,,
,,65e4124826438fd6dc97bd7e,6685aa9113c938e83b4f1ea0,66d3e305dbacd5087957f343,2024-08-31_22h52.07.237,WTP_SM_Choice,2022.2.1,Win32,60.24096386,,,,,,,,,,,,,,,,,,87,,,,,,,,,,0.02,1,5.1834,0,1,1,1,1, give less needy people what they want,go on morning walks around the neighborhood,0.02,0.03,4.4,0,,,,,
,,65e4124826438fd6dc97bd7e,6685aa9113c938e83b4f1ea0,66d3e305dbacd5087957f343,2024-08-31_22h52.07.237,WTP_SM_Choice,2022.2.1,Win32,60.24096386,,,,,,,,,,,,,,,,,,88,,,,,,,,,,0.03,2,4.0083,0,2,2,2,1,Go to the skate park to practice,go to the casino with my mates,0.03,0.03,1.1,1,,,,,
,,65e4124826438fd6dc97bd7e,6685aa9113c938e83b4f1ea0,66d3e305dbacd5087957f343,2024-08-31_22h52.07.237,WTP_SM_Choice,2022.2.1,Win32,60.24096386,,,,,,,,,,,,,,,,,,89,,,,,,,,,,0.04,1,2.3974,0,3,3,3,1,count with my money,watch different people have blessed days,0.04,0.03,3.3,1,,,,,
,,65e4124826438fd6dc97bd7e,6685aa9113c938e83b4f1ea0,66d3e305dbacd5087957f343,2024-08-31_22h52.07.237,WTP_SM_Choice,2022.2.1,Win32,60.24096386,,,,,,,,,,,,,,,,,,90,,,,,,,,,,0.03,2,3.1035,0,4,4,4,1,Watch cooking videos on YouTube in my spare time,go to the casino with my mates,0.05,0.03,8.8,1,,,,,
,,65e4124826438fd6dc97bd7e,6685aa9113c938e83b4f1ea0,66d3e305dbacd5087957f343,2024-08-31_22h52.07.237,WTP_SM_Choice,2022.2.1,Win32,60.24096386,,,,,,,NAN,,NAN,2.83,3.17,,0,89,89,89,1,90,Alex,Rej,Participant_Images/65e4124826438fd6dc97bd7e/65e4124826438fd6dc97bd7e_Images/65e4124826438fd6dc97bd7e_Image_10.jpeg,did not like,1.661473164,,,,,,,,,,,,,,,,,,,,,,,
,,65e4124826438fd6dc97bd7e,6685aa9113c938e83b4f1ea0,66d3e305dbacd5087957f343,2024-08-31_22h52.07.237,WTP_SM_Choice,2022.2.1,Win32,60.24096386,,,,,space,4.8243,NAN,,NAN,2.83,3.17,,0,90,90,90,1,91,Alex,Rej,Participant_Images/65e4124826438fd6dc97bd7e/65e4124826438fd6dc97bd7e_Images/65e4124826438fd6dc97bd7e_Image_22.jpeg,liked,3.613205605,,,,,,,,,,,,,,,,,,,,,,,
,,65e4124826438fd6dc97bd7e,6685aa9113c938e83b4f1ea0,66d3e305dbacd5087957f343,2024-08-31_22h52.07.237,WTP_SM_Choice,2022.2.1,Win32,60.24096386,,,,,space,1.9386,NAN,,NAN,2.83,3.17,,0,91,91,91,1,92,Alex,Rej,Participant_Images/65e4124826438fd6dc97bd7e/65e4124826438fd6dc97bd7e_Images/65e4124826438fd6dc97bd7e_Image_2.jpeg,did not like,4.988446431,,,,,,,,,,,,,,,,,,,,,,,
,,65e4124826438fd6dc97bd7e,6685aa9113c938e83b4f1ea0,66d3e305dbacd5087957f343,2024-08-31_22h52.07.237,WTP_SM_Choice,2022.2.1,Win32,60.24096386,,,,,space,1.6356,NAN,,NAN,2.83,3.17,,0,92,92,92,1,93,Alex,Rej,Participant_Images/65e4124826438fd6dc97bd7e/65e4124826438fd6dc97bd7e_Images/65e4124826438fd6dc97bd7e_Image_5.jpeg,liked,3.470791822,,,,,,,,,,,,,,,,,,,,,,,
,,65e4124826438fd6dc97bd7e,6685aa9113c938e83b4f1ea0,66d3e305dbacd5087957f343,2024-08-31_22h52.07.237,WTP_SM_Choice,2022.2.1,Win32,60.24096386,,,,,space,1.186,NAN,,NAN,2.83,3.17,,0,93,93,93,1,94,Alex,Rej,Participant_Images/65e4124826438fd6dc97bd7e/65e4124826438fd6dc97bd7e_Images/65e4124826438fd6dc97bd7e_Image_21.jpeg,liked,3.820572462,,,,,,,,,,,,,,,,,,,,,,,
,,65e4124826438fd6dc97bd7e,6685aa9113c938e83b4f1ea0,66d3e305dbacd5087957f343,2024-08-31_22h52.07.237,WTP_SM_Choice,2022.2.1,Win32,60.24096386,,,,,,,,,,,,,,,,,,91,,,,,,space,0.9007,space,0.4045,0.04,2,3.134,0,0,0,0,1,watch different people have blessed days,sleep in at night,0.01,0.04,3.3,0,,,,,
,,65e4124826438fd6dc97bd7e,6685aa9113c938e83b4f1ea0,66d3e305dbacd5087957f343,2024-08-31_22h52.07.237,WTP_SM_Choice,2022.2.1,Win32,60.24096386,,,,,,,,,,,,,,,,,,92,,,,,,,,,,0.04,2,2.3913,0,1,1,1,1,I love watching people enjoy life, skip school with my classmates,0.02,0.04,8.8,1,,,,,
,,65e4124826438fd6dc97bd7e,6685aa9113c938e83b4f1ea0,66d3e305dbacd5087957f343,2024-08-31_22h52.07.237,WTP_SM_Choice,2022.2.1,Win32,60.24096386,,,,,,,,,,,,,,,,,,93,,,,,,,,,,0.03,1,2.7946,0,2,2,2,1, skip school with my classmates,count with my money,0.03,0.04,1.1,0,,,,,
,,65e4124826438fd6dc97bd7e,6685aa9113c938e83b4f1ea0,66d3e305dbacd5087957f343,2024-08-31_22h52.07.237,WTP_SM_Choice,2022.2.1,Win32,60.24096386,,,,,,,,,,,,,,,,,,94,,,,,,,,,,0.04,2,2.6947,0,3,3,3,1,go to the casino with my mates,I love watching people enjoy life,0.04,0.04,4.4,0,,,,,
,,65e4124826438fd6dc97bd7e,6685aa9113c938e83b4f1ea0,66d3e305dbacd5087957f343,2024-08-31_22h52.07.237,WTP_SM_Choice,2022.2.1,Win32,60.24096386,,,,,,,,,,,,,,,,,,95,,,,,,,,,,0.04,2,1.8869,0,4,4,4,1,watch the flowers and the trees grow with my mom,Go to the skate park to practice,0.05,0.04,4.4,0,,,,,
,,65e4124826438fd6dc97bd7e,6685aa9113c938e83b4f1ea0,66d3e305dbacd5087957f343,2024-08-31_22h52.07.237,WTP_SM_Choice,2022.2.1,Win32,60.24096386,,,,,,,NAN,,NAN,3.02,2.98,,0,94,94,94,1,95,Alex,Rej,Participant_Images/65e4124826438fd6dc97bd7e/65e4124826438fd6dc97bd7e_Images/65e4124826438fd6dc97bd7e_Image_12.jpeg,did not like,2.455989137,,,,,,,,,,,,,,,,,,,,,,,
,,65e4124826438fd6dc97bd7e,6685aa9113c938e83b4f1ea0,66d3e305dbacd5087957f343,2024-08-31_22h52.07.237,WTP_SM_Choice,2022.2.1,Win32,60.24096386,,,,,space,0.952,NAN,,NAN,3.02,2.98,,0,95,95,95,1,96,Alex,Rej,Participant_Images/65e4124826438fd6dc97bd7e/65e4124826438fd6dc97bd7e_Images/65e4124826438fd6dc97bd7e_Image_16.jpeg,did not like,3.79605092,,,,,,,,,,,,,,,,,,,,,,,
,,65e4124826438fd6dc97bd7e,6685aa9113c938e83b4f1ea0,66d3e305dbacd5087957f343,2024-08-31_22h52.07.237,WTP_SM_Choice,2022.2.1,Win32,60.24096386,,,,,space,0.8311,NAN,,NAN,3.02,2.98,,0,96,96,96,1,97,Alex,Rej,Participant_Images/65e4124826438fd6dc97bd7e/65e4124826438fd6dc97bd7e_Images/65e4124826438fd6dc97bd7e_Image_17.jpeg,did not like,3.562416326,,,,,,,,,,,,,,,,,,,,,,,
,,65e4124826438fd6dc97bd7e,6685aa9113c938e83b4f1ea0,66d3e305dbacd5087957f343,2024-08-31_22h52.07.237,WTP_SM_Choice,2022.2.1,Win32,60.24096386,,,,,space,1.6361,NAN,,NAN,3.02,2.98,,0,97,97,97,1,98,Alex,Rej,Participant_Images/65e4124826438fd6dc97bd7e/65e4124826438fd6dc97bd7e_Images/65e4124826438fd6dc97bd7e_Image_19.jpeg,did not like,2.843822497,,,,,,,,,,,,,,,,,,,,,,,
,,65e4124826438fd6dc97bd7e,6685aa9113c938e83b4f1ea0,66d3e305dbacd5087957f343,2024-08-31_22h52.07.237,WTP_SM_Choice,2022.2.1,Win32,60.24096386,,,,,space,0.8105,NAN,,NAN,3.02,2.98,,0,98,98,98,1,99,Alex,Rej,Participant_Images/65e4124826438fd6dc97bd7e/65e4124826438fd6dc97bd7e_Images/65e4124826438fd6dc97bd7e_Image_20.jpeg,did not like,3.546495948,,,,,,,,,,,,,,,,,,,,,,,
,,65e4124826438fd6dc97bd7e,6685aa9113c938e83b4f1ea0,66d3e305dbacd5087957f343,2024-08-31_22h52.07.237,WTP_SM_Choice,2022.2.1,Win32,60.24096386,,,,,,,,,,,,,,,,,,96,,,,,,space,0.9678,space,0.5202,0.05,2,1.7873,0,0,0,0,1,watch the flowers and the trees grow with my mom,sleep in at night,0.01,0.05,3.3,0,,,,,
,,65e4124826438fd6dc97bd7e,6685aa9113c938e83b4f1ea0,66d3e305dbacd5087957f343,2024-08-31_22h52.07.237,WTP_SM_Choice,2022.2.1,Win32,60.24096386,,,,,,,,,,,,,,,,,,97,,,,,,,,,,0.05,2,1.4704,0,1,1,1,1,watch different people have blessed days,I love watching people enjoy life,0.02,0.05,1.1,0,,,,,
,,65e4124826438fd6dc97bd7e,6685aa9113c938e83b4f1ea0,66d3e305dbacd5087957f343,2024-08-31_22h52.07.237,WTP_SM_Choice,2022.2.1,Win32,60.24096386,,,,,,,,,,,,,,,,,,98,,,,,,,,,,0.05,2,2.7858,0,2,2,2,1,Watch cooking videos on YouTube in my spare time,scool younger people on life with coworkers,0.03,0.05,1.1,1,,,,,
,,65e4124826438fd6dc97bd7e,6685aa9113c938e83b4f1ea0,66d3e305dbacd5087957f343,2024-08-31_22h52.07.237,WTP_SM_Choice,2022.2.1,Win32,60.24096386,,,,,,,,,,,,,,,,,,99,,,,,,,,,,0.04,1,3.5648,0,3,3,3,1,count with my money,watch the flowers and the trees grow with my mom,0.04,0.05,3.3,1,,,,,
,,65e4124826438fd6dc97bd7e,6685aa9113c938e83b4f1ea0,66d3e305dbacd5087957f343,2024-08-31_22h52.07.237,WTP_SM_Choice,2022.2.1,Win32,60.24096386,,,,,,,,,,,,,,,,,,100,,,,,,,,,,0.05,2,2.924,0,4,4,4,1,voulenteer at homeless shelters with my sister,read fictional novels,0.05,0.05,4.4,0,,,,,
,,65e4124826438fd6dc97bd7e,6685aa9113c938e83b4f1ea0,66d3e305dbacd5087957f343,2024-08-31_22h52.07.237,WTP_SM_Choice,2022.2.1,Win32,60.24096386,,,,,,,3,,3,3.26,2.74,,0,99,99,99,1,100,Alex,Rej,Participant_Images/65e4124826438fd6dc97bd7e/65e4124826438fd6dc97bd7e_Images/65e4124826438fd6dc97bd7e_Image_4.jpeg,liked,1.672012706,,,,,,,,,,,,,,,,,,,space,1.0849,,,
,,65e4124826438fd6dc97bd7e,6685aa9113c938e83b4f1ea0,66d3e305dbacd5087957f343,2024-08-31_22h52.07.237,WTP_SM_Choice,2022.2.1,Win32,60.24096386,,,,,,,,,,,,,,,,,,,,,,,,,,,,,,,,,,,,,,,,,,,,,space,2.9825
