endwelcomescreen_keys.keys,endwelcomescreen_keys.rt,participant,STUDY_ID,SESSION_ID,date,expName,psychopyVersion,OS,frameRate,endinstructionscreen_keys.keys,endinstructionscreen_keys.rt,endpartnermatch_keys.keys,endpartnermatch_keys.rt,sharenextphoto_key.keys,sharenextphoto_key.rt,salience_rating,key_resp.keys,stress_level,subtract_bonus,TOTAL_TASK_BONUS,stresslevel_keypress.keys,entiretaskloop.thisRepN,entiretaskloop.thisTrialN,entiretaskloop.thisN,entiretaskloop.thisIndex,entiretaskloop.ran,TrialNumber,Partner,Condition,Photos,Feedback,FeedbackWait,WTP_ins_keys1.keys,WTP_ins_keys1.rt,WTP_ins_keys2.keys,WTP_ins_keys2.rt,decision_price,responses.keys,responses.rt,WTPTaskLoop.thisRepN,WTPTaskLoop.thisTrialN,WTPTaskLoop.thisN,WTPTaskLoop.thisIndex,WTPTaskLoop.ran,right,left,leftmoney,rightmoney,WTP_ITI,social_left,Resume_keys.keys,Resume_keys.rt,end_screen_keys.keys,end_screen_keys.rt
space,4.3469,65f54bfd77f3db0d47887b37,6685aa9113c938e83b4f1ea0,672c10df22a798406efdceb7,2024-11-06_20h08.10.617,WTP_SM_Choice,2022.2.1,Win32,60.24096386,,,,,,,,,,,,,,,,,,,,,,,,,,,,,,,,,,,,,,,,,,,,,
,,65f54bfd77f3db0d47887b37,6685aa9113c938e83b4f1ea0,672c10df22a798406efdceb7,2024-11-06_20h08.10.617,WTP_SM_Choice,2022.2.1,Win32,60.24096386,space,2.3894,,,,,,,,,,,,,,,,,,,,,,,,,,,,,,,,,,,,,,,,,,,
,,65f54bfd77f3db0d47887b37,6685aa9113c938e83b4f1ea0,672c10df22a798406efdceb7,2024-11-06_20h08.10.617,WTP_SM_Choice,2022.2.1,Win32,60.24096386,,,space,21.8006,space,1.3476,NAN,,NAN,0,6,,0,0,0,0,1,1,Alex,Acc,Participant_Images/65f54bfd77f3db0d47887b37/65f54bfd77f3db0d47887b37_Images/65f54bfd77f3db0d47887b37_Image_20.jpeg,liked,3.613205605,,,,,,,,,,,,,,,,,,,,,,
,,65f54bfd77f3db0d47887b37,6685aa9113c938e83b4f1ea0,672c10df22a798406efdceb7,2024-11-06_20h08.10.617,WTP_SM_Choice,2022.2.1,Win32,60.24096386,,,,,space,2.7046,NAN,,NAN,0,6,,0,1,1,1,1,2,Alex,Acc,Participant_Images/65f54bfd77f3db0d47887b37/65f54bfd77f3db0d47887b37_Images/65f54bfd77f3db0d47887b37_Image_2.jpeg,liked,4.988446431,,,,,,,,,,,,,,,,,,,,,,
,,65f54bfd77f3db0d47887b37,6685aa9113c938e83b4f1ea0,672c10df22a798406efdceb7,2024-11-06_20h08.10.617,WTP_SM_Choice,2022.2.1,Win32,60.24096386,,,,,space,1.7571,NAN,,NAN,0,6,,0,2,2,2,1,3,Alex,Acc,Participant_Images/65f54bfd77f3db0d47887b37/65f54bfd77f3db0d47887b37_Images/65f54bfd77f3db0d47887b37_Image_8.jpeg,did not like,3.470791822,,,,,,,,,,,,,,,,,,,,,,
,,65f54bfd77f3db0d47887b37,6685aa9113c938e83b4f1ea0,672c10df22a798406efdceb7,2024-11-06_20h08.10.617,WTP_SM_Choice,2022.2.1,Win32,60.24096386,,,,,space,0.554,NAN,,NAN,0,6,,0,3,3,3,1,4,Alex,Acc,Participant_Images/65f54bfd77f3db0d47887b37/65f54bfd77f3db0d47887b37_Images/65f54bfd77f3db0d47887b37_Image_3.jpeg,liked,3.820572462,,,,,,,,,,,,,,,,,,,,,,
,,65f54bfd77f3db0d47887b37,6685aa9113c938e83b4f1ea0,672c10df22a798406efdceb7,2024-11-06_20h08.10.617,WTP_SM_Choice,2022.2.1,Win32,60.24096386,,,,,,,,,,,,,,,,,,1,,,,,,space,6.7608,space,2.2186,0.01,2,3.9855,0,0,0,0,1,listen to music in my living room,have long talks at a coffee shop with my best friend on rainy days,0.01,0.01,4.4,1,,,,
,,65f54bfd77f3db0d47887b37,6685aa9113c938e83b4f1ea0,672c10df22a798406efdceb7,2024-11-06_20h08.10.617,WTP_SM_Choice,2022.2.1,Win32,60.24096386,,,,,,,,,,,,,,,,,,2,,,,,,,,,,0.02,1,5.0401,0,1,1,1,1,organize my phone apps and photos but getting sidetracked by old memories,go on random road trips with friends on sunny weekends,0.02,0.01,8.8,1,,,,
,,65f54bfd77f3db0d47887b37,6685aa9113c938e83b4f1ea0,672c10df22a798406efdceb7,2024-11-06_20h08.10.617,WTP_SM_Choice,2022.2.1,Win32,60.24096386,,,,,,,,,,,,,,,,,,3,,,,,,,,,,0.03,1,4.6031,0,2,2,2,1,hit up karaoke night with coworkers after a rough week,eat cereal out of the box while standing in the kitchen for way too long,0.03,0.01,3.3,0,,,,
,,65f54bfd77f3db0d47887b37,6685aa9113c938e83b4f1ea0,672c10df22a798406efdceb7,2024-11-06_20h08.10.617,WTP_SM_Choice,2022.2.1,Win32,60.24096386,,,,,,,,,,,,,,,,,,4,,,,,,,,,,0.04,1,2.8329,0,3,3,3,1,play board games with family during holiday get togethers,eat cereal out of the box while standing in the kitchen for way too long,0.04,0.01,1.1,0,,,,
,,65f54bfd77f3db0d47887b37,6685aa9113c938e83b4f1ea0,672c10df22a798406efdceb7,2024-11-06_20h08.10.617,WTP_SM_Choice,2022.2.1,Win32,60.24096386,,,,,,,,,,,,,,,,,,5,,,,,,,,,,0.01,2,3.6862,0,4,4,4,1,try on random outfits in front of the mirror and hyping myself up,cook a big dinner with my BF and trying new recipes together,0.05,0.01,1.1,1,,,,
,,65f54bfd77f3db0d47887b37,6685aa9113c938e83b4f1ea0,672c10df22a798406efdceb7,2024-11-06_20h08.10.617,WTP_SM_Choice,2022.2.1,Win32,60.24096386,,,,,,,NAN,,NAN,0.11,5.89,,0,4,4,4,1,5,Alex,Acc,Participant_Images/65f54bfd77f3db0d47887b37/65f54bfd77f3db0d47887b37_Images/65f54bfd77f3db0d47887b37_Image_10.jpeg,liked,2.455989137,,,,,,,,,,,,,,,,,,,,,,
,,65f54bfd77f3db0d47887b37,6685aa9113c938e83b4f1ea0,672c10df22a798406efdceb7,2024-11-06_20h08.10.617,WTP_SM_Choice,2022.2.1,Win32,60.24096386,,,,,space,1.7839,NAN,,NAN,0.11,5.89,,0,5,5,5,1,6,Alex,Acc,Participant_Images/65f54bfd77f3db0d47887b37/65f54bfd77f3db0d47887b37_Images/65f54bfd77f3db0d47887b37_Image_14.jpeg,liked,3.79605092,,,,,,,,,,,,,,,,,,,,,,
,,65f54bfd77f3db0d47887b37,6685aa9113c938e83b4f1ea0,672c10df22a798406efdceb7,2024-11-06_20h08.10.617,WTP_SM_Choice,2022.2.1,Win32,60.24096386,,,,,space,5.4081,NAN,,NAN,0.11,5.89,,0,6,6,6,1,7,Alex,Acc,Participant_Images/65f54bfd77f3db0d47887b37/65f54bfd77f3db0d47887b37_Images/65f54bfd77f3db0d47887b37_Image_11.jpeg,liked,3.562416326,,,,,,,,,,,,,,,,,,,,,,
,,65f54bfd77f3db0d47887b37,6685aa9113c938e83b4f1ea0,672c10df22a798406efdceb7,2024-11-06_20h08.10.617,WTP_SM_Choice,2022.2.1,Win32,60.24096386,,,,,space,2.571,NAN,,NAN,0.11,5.89,,0,7,7,7,1,8,Alex,Acc,Participant_Images/65f54bfd77f3db0d47887b37/65f54bfd77f3db0d47887b37_Images/65f54bfd77f3db0d47887b37_Image_22.jpeg,liked,2.843822497,,,,,,,,,,,,,,,,,,,,,,
,,65f54bfd77f3db0d47887b37,6685aa9113c938e83b4f1ea0,672c10df22a798406efdceb7,2024-11-06_20h08.10.617,WTP_SM_Choice,2022.2.1,Win32,60.24096386,,,,,space,1.2994,NAN,,NAN,0.11,5.89,,0,8,8,8,1,9,Alex,Acc,Participant_Images/65f54bfd77f3db0d47887b37/65f54bfd77f3db0d47887b37_Images/65f54bfd77f3db0d47887b37_Image_13.jpeg,liked,3.546495948,,,,,,,,,,,,,,,,,,,,,,
,,65f54bfd77f3db0d47887b37,6685aa9113c938e83b4f1ea0,672c10df22a798406efdceb7,2024-11-06_20h08.10.617,WTP_SM_Choice,2022.2.1,Win32,60.24096386,,,,,,,,,,,,,,,,,,6,,,,,,space,2.6835,space,4.6389,0.02,2,2.1146,0,0,0,0,1,organize my phone apps and photos but getting sidetracked by old memories,hit up karaoke night with coworkers after a rough week,0.01,0.02,3.3,1,,,,
,,65f54bfd77f3db0d47887b37,6685aa9113c938e83b4f1ea0,672c10df22a798406efdceb7,2024-11-06_20h08.10.617,WTP_SM_Choice,2022.2.1,Win32,60.24096386,,,,,,,,,,,,,,,,,,7,,,,,,,,,,0.02,2,2.0993,0,1,1,1,1,try on random outfits in front of the mirror and hyping myself up,go to concerts with friends and singing way too loud in the crowd,0.02,0.02,1.1,1,,,,
,,65f54bfd77f3db0d47887b37,6685aa9113c938e83b4f1ea0,672c10df22a798406efdceb7,2024-11-06_20h08.10.617,WTP_SM_Choice,2022.2.1,Win32,60.24096386,,,,,,,,,,,,,,,,,,8,,,,,,,,,,0.02,2,2.417,0,2,2,2,1,make playlists in my room for different moods,set up a bonfire with friends on a beach and talking till late,0.03,0.02,1.1,1,,,,
,,65f54bfd77f3db0d47887b37,6685aa9113c938e83b4f1ea0,672c10df22a798406efdceb7,2024-11-06_20h08.10.617,WTP_SM_Choice,2022.2.1,Win32,60.24096386,,,,,,,,,,,,,,,,,,9,,,,,,,,,,0.04,1,3.2256,0,3,3,3,1,go to concerts with friends and singing way too loud in the crowd,lay in bed with headphones on zoning out to music and staring at the ceiling,0.04,0.02,4.4,0,,,,
,,65f54bfd77f3db0d47887b37,6685aa9113c938e83b4f1ea0,672c10df22a798406efdceb7,2024-11-06_20h08.10.617,WTP_SM_Choice,2022.2.1,Win32,60.24096386,,,,,,,,,,,,,,,,,,10,,,,,,,,,,0.02,2,2.8736,0,4,4,4,1,make playlists in my room for different moods,rewatch old sitcoms with my cousins and quoting every line,0.05,0.02,1.1,1,,,,
,,65f54bfd77f3db0d47887b37,6685aa9113c938e83b4f1ea0,672c10df22a798406efdceb7,2024-11-06_20h08.10.617,WTP_SM_Choice,2022.2.1,Win32,60.24096386,,,,,,,NAN,,NAN,0.23,5.77,,0,9,9,9,1,10,Alex,Acc,Participant_Images/65f54bfd77f3db0d47887b37/65f54bfd77f3db0d47887b37_Images/65f54bfd77f3db0d47887b37_Image_5.jpeg,liked,1.672012706,,,,,,,,,,,,,,,,,,,,,,
,,65f54bfd77f3db0d47887b37,6685aa9113c938e83b4f1ea0,672c10df22a798406efdceb7,2024-11-06_20h08.10.617,WTP_SM_Choice,2022.2.1,Win32,60.24096386,,,,,space,0.8186,NAN,,NAN,0.23,5.77,,0,10,10,10,1,11,Alex,Acc,Participant_Images/65f54bfd77f3db0d47887b37/65f54bfd77f3db0d47887b37_Images/65f54bfd77f3db0d47887b37_Image_7.jpeg,liked,4.942172136,,,,,,,,,,,,,,,,,,,,,,
,,65f54bfd77f3db0d47887b37,6685aa9113c938e83b4f1ea0,672c10df22a798406efdceb7,2024-11-06_20h08.10.617,WTP_SM_Choice,2022.2.1,Win32,60.24096386,,,,,space,1.0339,NAN,,NAN,0.23,5.77,,0,11,11,11,1,12,Alex,Acc,Participant_Images/65f54bfd77f3db0d47887b37/65f54bfd77f3db0d47887b37_Images/65f54bfd77f3db0d47887b37_Image_6.jpeg,liked,2.50187214,,,,,,,,,,,,,,,,,,,,,,
,,65f54bfd77f3db0d47887b37,6685aa9113c938e83b4f1ea0,672c10df22a798406efdceb7,2024-11-06_20h08.10.617,WTP_SM_Choice,2022.2.1,Win32,60.24096386,,,,,space,15.1689,NAN,,NAN,0.23,5.77,,0,12,12,12,1,13,Alex,Acc,Participant_Images/65f54bfd77f3db0d47887b37/65f54bfd77f3db0d47887b37_Images/65f54bfd77f3db0d47887b37_Image_1.jpeg,did not like,2.071164779,,,,,,,,,,,,,,,,,,,,,,
,,65f54bfd77f3db0d47887b37,6685aa9113c938e83b4f1ea0,672c10df22a798406efdceb7,2024-11-06_20h08.10.617,WTP_SM_Choice,2022.2.1,Win32,60.24096386,,,,,space,3.44,NAN,,NAN,0.23,5.77,,0,13,13,13,1,14,Alex,Acc,Participant_Images/65f54bfd77f3db0d47887b37/65f54bfd77f3db0d47887b37_Images/65f54bfd77f3db0d47887b37_Image_19.jpeg,liked,5.336503566,,,,,,,,,,,,,,,,,,,,,,
,,65f54bfd77f3db0d47887b37,6685aa9113c938e83b4f1ea0,672c10df22a798406efdceb7,2024-11-06_20h08.10.617,WTP_SM_Choice,2022.2.1,Win32,60.24096386,,,,,,,,,,,,,,,,,,11,,,,,,space,2.9677,space,2.5205,0.03,2,2.3835,0,0,0,0,1,set up a bonfire with friends on a beach and talking till late,listen to music in my living room,0.01,0.03,3.3,0,,,,
,,65f54bfd77f3db0d47887b37,6685aa9113c938e83b4f1ea0,672c10df22a798406efdceb7,2024-11-06_20h08.10.617,WTP_SM_Choice,2022.2.1,Win32,60.24096386,,,,,,,,,,,,,,,,,,12,,,,,,,,,,0.03,2,2.8046,0,1,1,1,1,go to concerts with friends and singing way too loud in the crowd,organize my phone apps and photos but getting sidetracked by old memories,0.02,0.03,4.4,0,,,,
,,65f54bfd77f3db0d47887b37,6685aa9113c938e83b4f1ea0,672c10df22a798406efdceb7,2024-11-06_20h08.10.617,WTP_SM_Choice,2022.2.1,Win32,60.24096386,,,,,,,,,,,,,,,,,,13,,,,,,,,,,0.03,2,2.657,0,2,2,2,1,go to bodega at night for a random snack run,grab late night tacos with friends after a movie,0.03,0.03,1.1,1,,,,
,,65f54bfd77f3db0d47887b37,6685aa9113c938e83b4f1ea0,672c10df22a798406efdceb7,2024-11-06_20h08.10.617,WTP_SM_Choice,2022.2.1,Win32,60.24096386,,,,,,,,,,,,,,,,,,14,,,,,,,,,,0.04,1,8.1388,0,3,3,3,1,have long talks at a coffee shop with my best friend on rainy days,eat cereal out of the box while standing in the kitchen for way too long,0.04,0.03,3.3,0,,,,
,,65f54bfd77f3db0d47887b37,6685aa9113c938e83b4f1ea0,672c10df22a798406efdceb7,2024-11-06_20h08.10.617,WTP_SM_Choice,2022.2.1,Win32,60.24096386,,,,,,,,,,,,,,,,,,15,,,,,,,,,,,,,0,4,4,4,1,cook a big dinner with my BF and trying new recipes together,go to bodega at night for a random snack run,0.05,0.03,4.4,0,,,,
,,65f54bfd77f3db0d47887b37,6685aa9113c938e83b4f1ea0,672c10df22a798406efdceb7,2024-11-06_20h08.10.617,WTP_SM_Choice,2022.2.1,Win32,60.24096386,,,,,,,NAN,,NAN,0.36,5.64,,0,14,14,14,1,15,Alex,Acc,Participant_Images/65f54bfd77f3db0d47887b37/65f54bfd77f3db0d47887b37_Images/65f54bfd77f3db0d47887b37_Image_18.jpeg,liked,2.642157193,,,,,,,,,,,,,,,,,,,,,,
,,65f54bfd77f3db0d47887b37,6685aa9113c938e83b4f1ea0,672c10df22a798406efdceb7,2024-11-06_20h08.10.617,WTP_SM_Choice,2022.2.1,Win32,60.24096386,,,,,space,10.1183,NAN,,NAN,0.36,5.64,,0,15,15,15,1,16,Alex,Acc,Participant_Images/65f54bfd77f3db0d47887b37/65f54bfd77f3db0d47887b37_Images/65f54bfd77f3db0d47887b37_Image_17.jpeg,liked,4.456234322,,,,,,,,,,,,,,,,,,,,,,
,,65f54bfd77f3db0d47887b37,6685aa9113c938e83b4f1ea0,672c10df22a798406efdceb7,2024-11-06_20h08.10.617,WTP_SM_Choice,2022.2.1,Win32,60.24096386,,,,,space,8.3015,NAN,,NAN,0.36,5.64,,0,16,16,16,1,17,Alex,Acc,Participant_Images/65f54bfd77f3db0d47887b37/65f54bfd77f3db0d47887b37_Images/65f54bfd77f3db0d47887b37_Image_15.jpeg,did not like,4.438512181,,,,,,,,,,,,,,,,,,,,,,
,,65f54bfd77f3db0d47887b37,6685aa9113c938e83b4f1ea0,672c10df22a798406efdceb7,2024-11-06_20h08.10.617,WTP_SM_Choice,2022.2.1,Win32,60.24096386,,,,,space,15.0173,NAN,,NAN,0.36,5.64,,0,17,17,17,1,18,Alex,Acc,Participant_Images/65f54bfd77f3db0d47887b37/65f54bfd77f3db0d47887b37_Images/65f54bfd77f3db0d47887b37_Image_21.jpeg,liked,2.682944783,,,,,,,,,,,,,,,,,,,,,,
,,65f54bfd77f3db0d47887b37,6685aa9113c938e83b4f1ea0,672c10df22a798406efdceb7,2024-11-06_20h08.10.617,WTP_SM_Choice,2022.2.1,Win32,60.24096386,,,,,space,6.1178,NAN,,NAN,0.36,5.64,,0,18,18,18,1,19,Alex,Acc,Participant_Images/65f54bfd77f3db0d47887b37/65f54bfd77f3db0d47887b37_Images/65f54bfd77f3db0d47887b37_Image_9.jpeg,did not like,4.51984296,,,,,,,,,,,,,,,,,,,,,,
,,65f54bfd77f3db0d47887b37,6685aa9113c938e83b4f1ea0,672c10df22a798406efdceb7,2024-11-06_20h08.10.617,WTP_SM_Choice,2022.2.1,Win32,60.24096386,,,,,,,,,,,,,,,,,,16,,,,,,space,360.237,space,2.4029,0.01,1,2.2719,0,0,0,0,1,play board games with family during holiday get togethers,go to bodega at night for a random snack run,0.01,0.04,1.1,0,,,,
,,65f54bfd77f3db0d47887b37,6685aa9113c938e83b4f1ea0,672c10df22a798406efdceb7,2024-11-06_20h08.10.617,WTP_SM_Choice,2022.2.1,Win32,60.24096386,,,,,,,,,,,,,,,,,,17,,,,,,,,,,0.02,1,3.3761,0,1,1,1,1,play board games with family during holiday get togethers,make coffee every morning especially pour over coffee,0.02,0.04,8.8,0,,,,
,,65f54bfd77f3db0d47887b37,6685aa9113c938e83b4f1ea0,672c10df22a798406efdceb7,2024-11-06_20h08.10.617,WTP_SM_Choice,2022.2.1,Win32,60.24096386,,,,,,,,,,,,,,,,,,18,,,,,,,,,,,,,0,2,2,2,1,make instant noodles and eating them straight out of the pot,rewatch old sitcoms with my cousins and quoting every line,0.03,0.04,3.3,1,,,,
,,65f54bfd77f3db0d47887b37,6685aa9113c938e83b4f1ea0,672c10df22a798406efdceb7,2024-11-06_20h08.10.617,WTP_SM_Choice,2022.2.1,Win32,60.24096386,,,,,,,,,,,,,,,,,,19,,,,,,,,,,,,,0,3,3,3,1,lay in bed with headphones on zoning out to music and staring at the ceiling,set up a bonfire with friends on a beach and talking till late,0.04,0.04,3.3,1,,,,
,,65f54bfd77f3db0d47887b37,6685aa9113c938e83b4f1ea0,672c10df22a798406efdceb7,2024-11-06_20h08.10.617,WTP_SM_Choice,2022.2.1,Win32,60.24096386,,,,,,,,,,,,,,,,,,20,,,,,,,,,,,,,0,4,4,4,1,play board games with family during holiday get togethers,lay in bed with headphones on zoning out to music and staring at the ceiling,0.05,0.04,1.1,0,,,,
,,65f54bfd77f3db0d47887b37,6685aa9113c938e83b4f1ea0,672c10df22a798406efdceb7,2024-11-06_20h08.10.617,WTP_SM_Choice,2022.2.1,Win32,60.24096386,,,,,,,NAN,,NAN,0.39,5.61,,0,19,19,19,1,20,Alex,Acc,Participant_Images/65f54bfd77f3db0d47887b37/65f54bfd77f3db0d47887b37_Images/65f54bfd77f3db0d47887b37_Image_23.jpeg,liked,3.195382774,,,,,,,,,,,,,,,,,,,,,,
,,65f54bfd77f3db0d47887b37,6685aa9113c938e83b4f1ea0,672c10df22a798406efdceb7,2024-11-06_20h08.10.617,WTP_SM_Choice,2022.2.1,Win32,60.24096386,,,,,space,196.0345,NAN,,NAN,0.39,5.61,,0,20,20,20,1,21,Alex,Acc,Participant_Images/65f54bfd77f3db0d47887b37/65f54bfd77f3db0d47887b37_Images/65f54bfd77f3db0d47887b37_Image_24.jpeg,liked,1.779333479,,,,,,,,,,,,,,,,,,,,,,
,,65f54bfd77f3db0d47887b37,6685aa9113c938e83b4f1ea0,672c10df22a798406efdceb7,2024-11-06_20h08.10.617,WTP_SM_Choice,2022.2.1,Win32,60.24096386,,,,,space,2.1671,NAN,,NAN,0.39,5.61,,0,21,21,21,1,22,Alex,Acc,Participant_Images/65f54bfd77f3db0d47887b37/65f54bfd77f3db0d47887b37_Images/65f54bfd77f3db0d47887b37_Image_12.jpeg,did not like,4.312468682,,,,,,,,,,,,,,,,,,,,,,
,,65f54bfd77f3db0d47887b37,6685aa9113c938e83b4f1ea0,672c10df22a798406efdceb7,2024-11-06_20h08.10.617,WTP_SM_Choice,2022.2.1,Win32,60.24096386,,,,,space,48.6573,NAN,,NAN,0.39,5.61,,0,22,22,22,1,23,Alex,Acc,Participant_Images/65f54bfd77f3db0d47887b37/65f54bfd77f3db0d47887b37_Images/65f54bfd77f3db0d47887b37_Image_16.jpeg,did not like,4.940433059,,,,,,,,,,,,,,,,,,,,,,
,,65f54bfd77f3db0d47887b37,6685aa9113c938e83b4f1ea0,672c10df22a798406efdceb7,2024-11-06_20h08.10.617,WTP_SM_Choice,2022.2.1,Win32,60.24096386,,,,,space,262.1476,NAN,,NAN,0.39,5.61,,0,23,23,23,1,24,Alex,Acc,Participant_Images/65f54bfd77f3db0d47887b37/65f54bfd77f3db0d47887b37_Images/65f54bfd77f3db0d47887b37_Image_4.jpeg,liked,2.7105123,,,,,,,,,,,,,,,,,,,,,,
,,65f54bfd77f3db0d47887b37,6685aa9113c938e83b4f1ea0,672c10df22a798406efdceb7,2024-11-06_20h08.10.617,WTP_SM_Choice,2022.2.1,Win32,60.24096386,,,,,,,,,,,,,,,,,,21,,,,,,space,2.4805,space,1.1726,0.01,1,0.968,0,0,0,0,1,laugh at dumb memes on the couch with my siblings after dinner,listen to music in my living room,0.01,0.05,8.8,0,,,,
,,65f54bfd77f3db0d47887b37,6685aa9113c938e83b4f1ea0,672c10df22a798406efdceb7,2024-11-06_20h08.10.617,WTP_SM_Choice,2022.2.1,Win32,60.24096386,,,,,,,,,,,,,,,,,,22,,,,,,,,,,0.02,1,2.383,0,1,1,1,1,go on random road trips with friends on sunny weekends,eat cereal out of the box while standing in the kitchen for way too long,0.02,0.05,4.4,0,,,,
,,65f54bfd77f3db0d47887b37,6685aa9113c938e83b4f1ea0,672c10df22a798406efdceb7,2024-11-06_20h08.10.617,WTP_SM_Choice,2022.2.1,Win32,60.24096386,,,,,,,,,,,,,,,,,,23,,,,,,,,,,0.05,2,2.0698,0,2,2,2,1,make instant noodles and eating them straight out of the pot,play board games with family during holiday get togethers,0.03,0.05,1.1,1,,,,
,,65f54bfd77f3db0d47887b37,6685aa9113c938e83b4f1ea0,672c10df22a798406efdceb7,2024-11-06_20h08.10.617,WTP_SM_Choice,2022.2.1,Win32,60.24096386,,,,,,,,,,,,,,,,,,24,,,,,,,,,,0.04,1,0.8758,0,3,3,3,1,set up a bonfire with friends on a beach and talking till late,make instant noodles and eating them straight out of the pot,0.04,0.05,4.4,0,,,,
,,65f54bfd77f3db0d47887b37,6685aa9113c938e83b4f1ea0,672c10df22a798406efdceb7,2024-11-06_20h08.10.617,WTP_SM_Choice,2022.2.1,Win32,60.24096386,,,,,,,,,,,,,,,,,,25,,,,,,,,,,0.05,2,0.1572,0,4,4,4,1,hit up karaoke night with coworkers after a rough week,make instant noodles and eating them straight out of the pot,0.05,0.05,3.3,0,,,,
,,65f54bfd77f3db0d47887b37,6685aa9113c938e83b4f1ea0,672c10df22a798406efdceb7,2024-11-06_20h08.10.617,WTP_SM_Choice,2022.2.1,Win32,60.24096386,,,,,,,2,,6,0.56,5.44,,0,24,24,24,1,25,Alex,Acc,Participant_Images/65f54bfd77f3db0d47887b37/65f54bfd77f3db0d47887b37_Images/65f54bfd77f3db0d47887b37_Image_25.jpeg,did not like,3.602308302,,,,,,,,,,,,,,,,,,,space,15.0032,,
,,65f54bfd77f3db0d47887b37,6685aa9113c938e83b4f1ea0,672c10df22a798406efdceb7,2024-11-06_20h08.10.617,WTP_SM_Choice,2022.2.1,Win32,60.24096386,,,space,179.8124,space,18.376,NAN,,NAN,0.56,5.44,,0,25,25,25,1,26,Charlie,Acc,Participant_Images/65f54bfd77f3db0d47887b37/65f54bfd77f3db0d47887b37_Images/65f54bfd77f3db0d47887b37_Image_11.jpeg,liked,4.106391878,,,,,,,,,,,,,,,,,,,,,,
,,65f54bfd77f3db0d47887b37,6685aa9113c938e83b4f1ea0,672c10df22a798406efdceb7,2024-11-06_20h08.10.617,WTP_SM_Choice,2022.2.1,Win32,60.24096386,,,,,space,2.1123,NAN,,NAN,0.56,5.44,,0,26,26,26,1,27,Charlie,Acc,Participant_Images/65f54bfd77f3db0d47887b37/65f54bfd77f3db0d47887b37_Images/65f54bfd77f3db0d47887b37_Image_24.jpeg,liked,3.799433026,,,,,,,,,,,,,,,,,,,,,,
,,65f54bfd77f3db0d47887b37,6685aa9113c938e83b4f1ea0,672c10df22a798406efdceb7,2024-11-06_20h08.10.617,WTP_SM_Choice,2022.2.1,Win32,60.24096386,,,,,space,7.739,NAN,,NAN,0.56,5.44,,0,27,27,27,1,28,Charlie,Acc,Participant_Images/65f54bfd77f3db0d47887b37/65f54bfd77f3db0d47887b37_Images/65f54bfd77f3db0d47887b37_Image_12.jpeg,liked,5.246980764,,,,,,,,,,,,,,,,,,,,,,
,,65f54bfd77f3db0d47887b37,6685aa9113c938e83b4f1ea0,672c10df22a798406efdceb7,2024-11-06_20h08.10.617,WTP_SM_Choice,2022.2.1,Win32,60.24096386,,,,,space,1.7073,NAN,,NAN,0.56,5.44,,0,28,28,28,1,29,Charlie,Acc,Participant_Images/65f54bfd77f3db0d47887b37/65f54bfd77f3db0d47887b37_Images/65f54bfd77f3db0d47887b37_Image_13.jpeg,liked,3.30081769,,,,,,,,,,,,,,,,,,,,,,
,,65f54bfd77f3db0d47887b37,6685aa9113c938e83b4f1ea0,672c10df22a798406efdceb7,2024-11-06_20h08.10.617,WTP_SM_Choice,2022.2.1,Win32,60.24096386,,,,,,,,,,,,,,,,,,26,,,,,,space,30.4606,space,1.856,0.01,2,1.4509,0,0,0,0,1,rewatch old sitcoms with my cousins and quoting every line,make coffee every morning especially pour over coffee,0.01,0.01,4.4,0,,,,
,,65f54bfd77f3db0d47887b37,6685aa9113c938e83b4f1ea0,672c10df22a798406efdceb7,2024-11-06_20h08.10.617,WTP_SM_Choice,2022.2.1,Win32,60.24096386,,,,,,,,,,,,,,,,,,27,,,,,,,,,,0.02,1,0.5835,0,1,1,1,1,have long talks at a coffee shop with my best friend on rainy days,make instant noodles and eating them straight out of the pot,0.02,0.01,3.3,0,,,,
,,65f54bfd77f3db0d47887b37,6685aa9113c938e83b4f1ea0,672c10df22a798406efdceb7,2024-11-06_20h08.10.617,WTP_SM_Choice,2022.2.1,Win32,60.24096386,,,,,,,,,,,,,,,,,,28,,,,,,,,,,0.03,1,3.5557,0,2,2,2,1,organize my phone apps and photos but getting sidetracked by old memories,set up a bonfire with friends on a beach and talking till late,0.03,0.01,3.3,1,,,,
,,65f54bfd77f3db0d47887b37,6685aa9113c938e83b4f1ea0,672c10df22a798406efdceb7,2024-11-06_20h08.10.617,WTP_SM_Choice,2022.2.1,Win32,60.24096386,,,,,,,,,,,,,,,,,,29,,,,,,,,,,,,,0,3,3,3,1,grab late night tacos with friends after a movie,make instant noodles and eating them straight out of the pot,0.04,0.01,4.4,0,,,,
,,65f54bfd77f3db0d47887b37,6685aa9113c938e83b4f1ea0,672c10df22a798406efdceb7,2024-11-06_20h08.10.617,WTP_SM_Choice,2022.2.1,Win32,60.24096386,,,,,,,,,,,,,,,,,,30,,,,,,,,,,0.01,2,1.6398,0,4,4,4,1,try on random outfits in front of the mirror and hyping myself up,play board games with family during holiday get togethers,0.05,0.01,8.8,1,,,,
,,65f54bfd77f3db0d47887b37,6685aa9113c938e83b4f1ea0,672c10df22a798406efdceb7,2024-11-06_20h08.10.617,WTP_SM_Choice,2022.2.1,Win32,60.24096386,,,,,,,NAN,,NAN,0.63,5.37,,0,29,29,29,1,30,Charlie,Acc,Participant_Images/65f54bfd77f3db0d47887b37/65f54bfd77f3db0d47887b37_Images/65f54bfd77f3db0d47887b37_Image_20.jpeg,liked,1.661473164,,,,,,,,,,,,,,,,,,,,,,
,,65f54bfd77f3db0d47887b37,6685aa9113c938e83b4f1ea0,672c10df22a798406efdceb7,2024-11-06_20h08.10.617,WTP_SM_Choice,2022.2.1,Win32,60.24096386,,,,,space,9.5752,NAN,,NAN,0.63,5.37,,0,30,30,30,1,31,Charlie,Acc,Participant_Images/65f54bfd77f3db0d47887b37/65f54bfd77f3db0d47887b37_Images/65f54bfd77f3db0d47887b37_Image_17.jpeg,liked,3.613205605,,,,,,,,,,,,,,,,,,,,,,
,,65f54bfd77f3db0d47887b37,6685aa9113c938e83b4f1ea0,672c10df22a798406efdceb7,2024-11-06_20h08.10.617,WTP_SM_Choice,2022.2.1,Win32,60.24096386,,,,,space,2.5383,NAN,,NAN,0.63,5.37,,0,31,31,31,1,32,Charlie,Acc,Participant_Images/65f54bfd77f3db0d47887b37/65f54bfd77f3db0d47887b37_Images/65f54bfd77f3db0d47887b37_Image_23.jpeg,liked,4.988446431,,,,,,,,,,,,,,,,,,,,,,
,,65f54bfd77f3db0d47887b37,6685aa9113c938e83b4f1ea0,672c10df22a798406efdceb7,2024-11-06_20h08.10.617,WTP_SM_Choice,2022.2.1,Win32,60.24096386,,,,,space,1.3181,NAN,,NAN,0.63,5.37,,0,32,32,32,1,33,Charlie,Acc,Participant_Images/65f54bfd77f3db0d47887b37/65f54bfd77f3db0d47887b37_Images/65f54bfd77f3db0d47887b37_Image_8.jpeg,did not like,3.470791822,,,,,,,,,,,,,,,,,,,,,,
,,65f54bfd77f3db0d47887b37,6685aa9113c938e83b4f1ea0,672c10df22a798406efdceb7,2024-11-06_20h08.10.617,WTP_SM_Choice,2022.2.1,Win32,60.24096386,,,,,space,0.685,NAN,,NAN,0.63,5.37,,0,33,33,33,1,34,Charlie,Acc,Participant_Images/65f54bfd77f3db0d47887b37/65f54bfd77f3db0d47887b37_Images/65f54bfd77f3db0d47887b37_Image_25.jpeg,liked,3.820572462,,,,,,,,,,,,,,,,,,,,,,
,,65f54bfd77f3db0d47887b37,6685aa9113c938e83b4f1ea0,672c10df22a798406efdceb7,2024-11-06_20h08.10.617,WTP_SM_Choice,2022.2.1,Win32,60.24096386,,,,,,,,,,,,,,,,,,31,,,,,,space,1.8508,space,3.1508,0.01,1,1.8659,0,0,0,0,1,laugh at dumb memes on the couch with my siblings after dinner,go to bodega at night for a random snack run,0.01,0.02,8.8,0,,,,
,,65f54bfd77f3db0d47887b37,6685aa9113c938e83b4f1ea0,672c10df22a798406efdceb7,2024-11-06_20h08.10.617,WTP_SM_Choice,2022.2.1,Win32,60.24096386,,,,,,,,,,,,,,,,,,32,,,,,,,,,,0.02,2,1.6968,0,1,1,1,1,grab late night tacos with friends after a movie,make coffee every morning especially pour over coffee,0.02,0.02,1.1,0,,,,
,,65f54bfd77f3db0d47887b37,6685aa9113c938e83b4f1ea0,672c10df22a798406efdceb7,2024-11-06_20h08.10.617,WTP_SM_Choice,2022.2.1,Win32,60.24096386,,,,,,,,,,,,,,,,,,33,,,,,,,,,,0.02,2,1.5297,0,2,2,2,1,grab late night tacos with friends after a movie,make playlists in my room for different moods,0.03,0.02,4.4,0,,,,
,,65f54bfd77f3db0d47887b37,6685aa9113c938e83b4f1ea0,672c10df22a798406efdceb7,2024-11-06_20h08.10.617,WTP_SM_Choice,2022.2.1,Win32,60.24096386,,,,,,,,,,,,,,,,,,34,,,,,,,,,,0.02,2,1.7506,0,3,3,3,1,eat cereal out of the box while standing in the kitchen for way too long,go to concerts with friends and singing way too loud in the crowd,0.04,0.02,3.3,1,,,,
,,65f54bfd77f3db0d47887b37,6685aa9113c938e83b4f1ea0,672c10df22a798406efdceb7,2024-11-06_20h08.10.617,WTP_SM_Choice,2022.2.1,Win32,60.24096386,,,,,,,,,,,,,,,,,,35,,,,,,,,,,0.02,2,2.3291,0,4,4,4,1,lay in bed with headphones on zoning out to music and staring at the ceiling,go on random road trips with friends on sunny weekends,0.05,0.02,1.1,1,,,,
,,65f54bfd77f3db0d47887b37,6685aa9113c938e83b4f1ea0,672c10df22a798406efdceb7,2024-11-06_20h08.10.617,WTP_SM_Choice,2022.2.1,Win32,60.24096386,,,,,,,NAN,,NAN,0.72,5.28,,0,34,34,34,1,35,Charlie,Acc,Participant_Images/65f54bfd77f3db0d47887b37/65f54bfd77f3db0d47887b37_Images/65f54bfd77f3db0d47887b37_Image_19.jpeg,did not like,2.455989137,,,,,,,,,,,,,,,,,,,,,,
,,65f54bfd77f3db0d47887b37,6685aa9113c938e83b4f1ea0,672c10df22a798406efdceb7,2024-11-06_20h08.10.617,WTP_SM_Choice,2022.2.1,Win32,60.24096386,,,,,space,1.0376,NAN,,NAN,0.72,5.28,,0,35,35,35,1,36,Charlie,Acc,Participant_Images/65f54bfd77f3db0d47887b37/65f54bfd77f3db0d47887b37_Images/65f54bfd77f3db0d47887b37_Image_1.jpeg,did not like,3.79605092,,,,,,,,,,,,,,,,,,,,,,
,,65f54bfd77f3db0d47887b37,6685aa9113c938e83b4f1ea0,672c10df22a798406efdceb7,2024-11-06_20h08.10.617,WTP_SM_Choice,2022.2.1,Win32,60.24096386,,,,,space,1.4147,NAN,,NAN,0.72,5.28,,0,36,36,36,1,37,Charlie,Acc,Participant_Images/65f54bfd77f3db0d47887b37/65f54bfd77f3db0d47887b37_Images/65f54bfd77f3db0d47887b37_Image_3.jpeg,liked,3.562416326,,,,,,,,,,,,,,,,,,,,,,
,,65f54bfd77f3db0d47887b37,6685aa9113c938e83b4f1ea0,672c10df22a798406efdceb7,2024-11-06_20h08.10.617,WTP_SM_Choice,2022.2.1,Win32,60.24096386,,,,,space,0.7237,NAN,,NAN,0.72,5.28,,0,37,37,37,1,38,Charlie,Acc,Participant_Images/65f54bfd77f3db0d47887b37/65f54bfd77f3db0d47887b37_Images/65f54bfd77f3db0d47887b37_Image_5.jpeg,liked,2.843822497,,,,,,,,,,,,,,,,,,,,,,
,,65f54bfd77f3db0d47887b37,6685aa9113c938e83b4f1ea0,672c10df22a798406efdceb7,2024-11-06_20h08.10.617,WTP_SM_Choice,2022.2.1,Win32,60.24096386,,,,,space,0.8588,NAN,,NAN,0.72,5.28,,0,38,38,38,1,39,Charlie,Acc,Participant_Images/65f54bfd77f3db0d47887b37/65f54bfd77f3db0d47887b37_Images/65f54bfd77f3db0d47887b37_Image_22.jpeg,liked,3.546495948,,,,,,,,,,,,,,,,,,,,,,
,,65f54bfd77f3db0d47887b37,6685aa9113c938e83b4f1ea0,672c10df22a798406efdceb7,2024-11-06_20h08.10.617,WTP_SM_Choice,2022.2.1,Win32,60.24096386,,,,,,,,,,,,,,,,,,36,,,,,,space,1.2671,space,2.2677,0.03,2,2.2489,0,0,0,0,1,go to bodega at night for a random snack run,have long talks at a coffee shop with my best friend on rainy days,0.01,0.03,3.3,1,,,,
,,65f54bfd77f3db0d47887b37,6685aa9113c938e83b4f1ea0,672c10df22a798406efdceb7,2024-11-06_20h08.10.617,WTP_SM_Choice,2022.2.1,Win32,60.24096386,,,,,,,,,,,,,,,,,,37,,,,,,,,,,0.03,2,4.9091,0,1,1,1,1,go on subway and taking photos,set up a bonfire with friends on a beach and talking till late,0.02,0.03,1.1,1,,,,
,,65f54bfd77f3db0d47887b37,6685aa9113c938e83b4f1ea0,672c10df22a798406efdceb7,2024-11-06_20h08.10.617,WTP_SM_Choice,2022.2.1,Win32,60.24096386,,,,,,,,,,,,,,,,,,38,,,,,,,,,,0.03,2,5.4877,0,2,2,2,1,go to concerts with friends and singing way too loud in the crowd,make playlists in my room for different moods,0.03,0.03,1.1,0,,,,
,,65f54bfd77f3db0d47887b37,6685aa9113c938e83b4f1ea0,672c10df22a798406efdceb7,2024-11-06_20h08.10.617,WTP_SM_Choice,2022.2.1,Win32,60.24096386,,,,,,,,,,,,,,,,,,39,,,,,,,,,,0.04,1,6.4318,0,3,3,3,1,go on subway and taking photos,hit up karaoke night with coworkers after a rough week,0.04,0.03,3.3,1,,,,
,,65f54bfd77f3db0d47887b37,6685aa9113c938e83b4f1ea0,672c10df22a798406efdceb7,2024-11-06_20h08.10.617,WTP_SM_Choice,2022.2.1,Win32,60.24096386,,,,,,,,,,,,,,,,,,40,,,,,,,,,,0.05,1,2.5084,0,4,4,4,1,go on subway and taking photos,play board games with family during holiday get togethers,0.05,0.03,4.4,1,,,,
,,65f54bfd77f3db0d47887b37,6685aa9113c938e83b4f1ea0,672c10df22a798406efdceb7,2024-11-06_20h08.10.617,WTP_SM_Choice,2022.2.1,Win32,60.24096386,,,,,,,NAN,,NAN,0.9,5.1,,0,39,39,39,1,40,Charlie,Acc,Participant_Images/65f54bfd77f3db0d47887b37/65f54bfd77f3db0d47887b37_Images/65f54bfd77f3db0d47887b37_Image_10.jpeg,liked,1.672012706,,,,,,,,,,,,,,,,,,,,,,
,,65f54bfd77f3db0d47887b37,6685aa9113c938e83b4f1ea0,672c10df22a798406efdceb7,2024-11-06_20h08.10.617,WTP_SM_Choice,2022.2.1,Win32,60.24096386,,,,,space,2.9721,NAN,,NAN,0.9,5.1,,0,40,40,40,1,41,Charlie,Acc,Participant_Images/65f54bfd77f3db0d47887b37/65f54bfd77f3db0d47887b37_Images/65f54bfd77f3db0d47887b37_Image_18.jpeg,liked,4.942172136,,,,,,,,,,,,,,,,,,,,,,
,,65f54bfd77f3db0d47887b37,6685aa9113c938e83b4f1ea0,672c10df22a798406efdceb7,2024-11-06_20h08.10.617,WTP_SM_Choice,2022.2.1,Win32,60.24096386,,,,,space,0.7715,NAN,,NAN,0.9,5.1,,0,41,41,41,1,42,Charlie,Acc,Participant_Images/65f54bfd77f3db0d47887b37/65f54bfd77f3db0d47887b37_Images/65f54bfd77f3db0d47887b37_Image_9.jpeg,did not like,2.50187214,,,,,,,,,,,,,,,,,,,,,,
,,65f54bfd77f3db0d47887b37,6685aa9113c938e83b4f1ea0,672c10df22a798406efdceb7,2024-11-06_20h08.10.617,WTP_SM_Choice,2022.2.1,Win32,60.24096386,,,,,space,3.4009,NAN,,NAN,0.9,5.1,,0,42,42,42,1,43,Charlie,Acc,Participant_Images/65f54bfd77f3db0d47887b37/65f54bfd77f3db0d47887b37_Images/65f54bfd77f3db0d47887b37_Image_16.jpeg,liked,2.071164779,,,,,,,,,,,,,,,,,,,,,,
,,65f54bfd77f3db0d47887b37,6685aa9113c938e83b4f1ea0,672c10df22a798406efdceb7,2024-11-06_20h08.10.617,WTP_SM_Choice,2022.2.1,Win32,60.24096386,,,,,space,6.3698,NAN,,NAN,0.9,5.1,,0,43,43,43,1,44,Charlie,Acc,Participant_Images/65f54bfd77f3db0d47887b37/65f54bfd77f3db0d47887b37_Images/65f54bfd77f3db0d47887b37_Image_7.jpeg,did not like,5.336503566,,,,,,,,,,,,,,,,,,,,,,
,,65f54bfd77f3db0d47887b37,6685aa9113c938e83b4f1ea0,672c10df22a798406efdceb7,2024-11-06_20h08.10.617,WTP_SM_Choice,2022.2.1,Win32,60.24096386,,,,,,,,,,,,,,,,,,41,,,,,,space,2.9814,space,1.2739,0.04,2,3.6835,0,0,0,0,1,make coffee every morning especially pour over coffee,go on random road trips with friends on sunny weekends,0.01,0.04,1.1,1,,,,
,,65f54bfd77f3db0d47887b37,6685aa9113c938e83b4f1ea0,672c10df22a798406efdceb7,2024-11-06_20h08.10.617,WTP_SM_Choice,2022.2.1,Win32,60.24096386,,,,,,,,,,,,,,,,,,42,,,,,,,,,,,,,0,1,1,1,1,try on random outfits in front of the mirror and hyping myself up,hit up karaoke night with coworkers after a rough week,0.02,0.04,3.3,1,,,,
,,65f54bfd77f3db0d47887b37,6685aa9113c938e83b4f1ea0,672c10df22a798406efdceb7,2024-11-06_20h08.10.617,WTP_SM_Choice,2022.2.1,Win32,60.24096386,,,,,,,,,,,,,,,,,,43,,,,,,,,,,0.03,1,3.1406,0,2,2,2,1,have long talks at a coffee shop with my best friend on rainy days,go on subway and taking photos,0.03,0.04,1.1,0,,,,
,,65f54bfd77f3db0d47887b37,6685aa9113c938e83b4f1ea0,672c10df22a798406efdceb7,2024-11-06_20h08.10.617,WTP_SM_Choice,2022.2.1,Win32,60.24096386,,,,,,,,,,,,,,,,,,44,,,,,,,,,,0.04,2,1.7846,0,3,3,3,1,set up a bonfire with friends on a beach and talking till late,go to bodega at night for a random snack run,0.04,0.04,1.1,0,,,,
,,65f54bfd77f3db0d47887b37,6685aa9113c938e83b4f1ea0,672c10df22a798406efdceb7,2024-11-06_20h08.10.617,WTP_SM_Choice,2022.2.1,Win32,60.24096386,,,,,,,,,,,,,,,,,,45,,,,,,,,,,0.05,1,0.9419,0,4,4,4,1,make coffee every morning especially pour over coffee,have long talks at a coffee shop with my best friend on rainy days,0.05,0.04,4.4,1,,,,
,,65f54bfd77f3db0d47887b37,6685aa9113c938e83b4f1ea0,672c10df22a798406efdceb7,2024-11-06_20h08.10.617,WTP_SM_Choice,2022.2.1,Win32,60.24096386,,,,,,,NAN,,NAN,1.06,4.94,,0,44,44,44,1,45,Charlie,Acc,Participant_Images/65f54bfd77f3db0d47887b37/65f54bfd77f3db0d47887b37_Images/65f54bfd77f3db0d47887b37_Image_15.jpeg,liked,2.642157193,,,,,,,,,,,,,,,,,,,,,,
,,65f54bfd77f3db0d47887b37,6685aa9113c938e83b4f1ea0,672c10df22a798406efdceb7,2024-11-06_20h08.10.617,WTP_SM_Choice,2022.2.1,Win32,60.24096386,,,,,space,0.8675,NAN,,NAN,1.06,4.94,,0,45,45,45,1,46,Charlie,Acc,Participant_Images/65f54bfd77f3db0d47887b37/65f54bfd77f3db0d47887b37_Images/65f54bfd77f3db0d47887b37_Image_21.jpeg,liked,4.456234322,,,,,,,,,,,,,,,,,,,,,,
,,65f54bfd77f3db0d47887b37,6685aa9113c938e83b4f1ea0,672c10df22a798406efdceb7,2024-11-06_20h08.10.617,WTP_SM_Choice,2022.2.1,Win32,60.24096386,,,,,space,1.465,NAN,,NAN,1.06,4.94,,0,46,46,46,1,47,Charlie,Acc,Participant_Images/65f54bfd77f3db0d47887b37/65f54bfd77f3db0d47887b37_Images/65f54bfd77f3db0d47887b37_Image_4.jpeg,liked,4.438512181,,,,,,,,,,,,,,,,,,,,,,
,,65f54bfd77f3db0d47887b37,6685aa9113c938e83b4f1ea0,672c10df22a798406efdceb7,2024-11-06_20h08.10.617,WTP_SM_Choice,2022.2.1,Win32,60.24096386,,,,,space,1.0507,NAN,,NAN,1.06,4.94,,0,47,47,47,1,48,Charlie,Acc,Participant_Images/65f54bfd77f3db0d47887b37/65f54bfd77f3db0d47887b37_Images/65f54bfd77f3db0d47887b37_Image_6.jpeg,did not like,2.682944783,,,,,,,,,,,,,,,,,,,,,,
,,65f54bfd77f3db0d47887b37,6685aa9113c938e83b4f1ea0,672c10df22a798406efdceb7,2024-11-06_20h08.10.617,WTP_SM_Choice,2022.2.1,Win32,60.24096386,,,,,space,5.5819,NAN,,NAN,1.06,4.94,,0,48,48,48,1,49,Charlie,Acc,Participant_Images/65f54bfd77f3db0d47887b37/65f54bfd77f3db0d47887b37_Images/65f54bfd77f3db0d47887b37_Image_14.jpeg,did not like,4.51984296,,,,,,,,,,,,,,,,,,,,,,
,,65f54bfd77f3db0d47887b37,6685aa9113c938e83b4f1ea0,672c10df22a798406efdceb7,2024-11-06_20h08.10.617,WTP_SM_Choice,2022.2.1,Win32,60.24096386,,,,,,,,,,,,,,,,,,46,,,,,,space,1.6589,space,0.741,0.05,2,1.2693,0,0,0,0,1,cook a big dinner with my BF and trying new recipes together,go on subway and taking photos,0.01,0.05,8.8,0,,,,
,,65f54bfd77f3db0d47887b37,6685aa9113c938e83b4f1ea0,672c10df22a798406efdceb7,2024-11-06_20h08.10.617,WTP_SM_Choice,2022.2.1,Win32,60.24096386,,,,,,,,,,,,,,,,,,47,,,,,,,,,,0.05,2,1.7149,0,1,1,1,1,go on random road trips with friends on sunny weekends,try on random outfits in front of the mirror and hyping myself up,0.02,0.05,1.1,0,,,,
,,65f54bfd77f3db0d47887b37,6685aa9113c938e83b4f1ea0,672c10df22a798406efdceb7,2024-11-06_20h08.10.617,WTP_SM_Choice,2022.2.1,Win32,60.24096386,,,,,,,,,,,,,,,,,,48,,,,,,,,,,0.03,1,3.0889,0,2,2,2,1,make coffee every morning especially pour over coffee,laugh at dumb memes on the couch with my siblings after dinner,0.03,0.05,4.4,1,,,,
,,65f54bfd77f3db0d47887b37,6685aa9113c938e83b4f1ea0,672c10df22a798406efdceb7,2024-11-06_20h08.10.617,WTP_SM_Choice,2022.2.1,Win32,60.24096386,,,,,,,,,,,,,,,,,,49,,,,,,,,,,,,,0,3,3,3,1,listen to music in my living room,go on random road trips with friends on sunny weekends,0.04,0.05,3.3,1,,,,
,,65f54bfd77f3db0d47887b37,6685aa9113c938e83b4f1ea0,672c10df22a798406efdceb7,2024-11-06_20h08.10.617,WTP_SM_Choice,2022.2.1,Win32,60.24096386,,,,,,,,,,,,,,,,,,50,,,,,,,,,,0.05,2,6.5263,0,4,4,4,1,lay in bed with headphones on zoning out to music and staring at the ceiling,laugh at dumb memes on the couch with my siblings after dinner,0.05,0.05,1.1,1,,,,
,,65f54bfd77f3db0d47887b37,6685aa9113c938e83b4f1ea0,672c10df22a798406efdceb7,2024-11-06_20h08.10.617,WTP_SM_Choice,2022.2.1,Win32,60.24096386,,,,,,,2,,6,1.24,4.76,,0,49,49,49,1,50,Charlie,Acc,Participant_Images/65f54bfd77f3db0d47887b37/65f54bfd77f3db0d47887b37_Images/65f54bfd77f3db0d47887b37_Image_2.jpeg,liked,3.195382774,,,,,,,,,,,,,,,,,,,space,2.3648,,
,,65f54bfd77f3db0d47887b37,6685aa9113c938e83b4f1ea0,672c10df22a798406efdceb7,2024-11-06_20h08.10.617,WTP_SM_Choice,2022.2.1,Win32,60.24096386,,,space,5.5086,space,36.7762,NAN,,NAN,1.24,4.76,,0,50,50,50,1,51,Sam,Rej,Participant_Images/65f54bfd77f3db0d47887b37/65f54bfd77f3db0d47887b37_Images/65f54bfd77f3db0d47887b37_Image_11.jpeg,did not like,1.779333479,,,,,,,,,,,,,,,,,,,,,,
,,65f54bfd77f3db0d47887b37,6685aa9113c938e83b4f1ea0,672c10df22a798406efdceb7,2024-11-06_20h08.10.617,WTP_SM_Choice,2022.2.1,Win32,60.24096386,,,,,space,11.1358,NAN,,NAN,1.24,4.76,,0,51,51,51,1,52,Sam,Rej,Participant_Images/65f54bfd77f3db0d47887b37/65f54bfd77f3db0d47887b37_Images/65f54bfd77f3db0d47887b37_Image_6.jpeg,did not like,4.312468682,,,,,,,,,,,,,,,,,,,,,,
,,65f54bfd77f3db0d47887b37,6685aa9113c938e83b4f1ea0,672c10df22a798406efdceb7,2024-11-06_20h08.10.617,WTP_SM_Choice,2022.2.1,Win32,60.24096386,,,,,space,12.5352,NAN,,NAN,1.24,4.76,,0,52,52,52,1,53,Sam,Rej,Participant_Images/65f54bfd77f3db0d47887b37/65f54bfd77f3db0d47887b37_Images/65f54bfd77f3db0d47887b37_Image_24.jpeg,did not like,4.940433059,,,,,,,,,,,,,,,,,,,,,,
,,65f54bfd77f3db0d47887b37,6685aa9113c938e83b4f1ea0,672c10df22a798406efdceb7,2024-11-06_20h08.10.617,WTP_SM_Choice,2022.2.1,Win32,60.24096386,,,,,space,3.2085,NAN,,NAN,1.24,4.76,,0,53,53,53,1,54,Sam,Rej,Participant_Images/65f54bfd77f3db0d47887b37/65f54bfd77f3db0d47887b37_Images/65f54bfd77f3db0d47887b37_Image_15.jpeg,did not like,2.7105123,,,,,,,,,,,,,,,,,,,,,,
,,65f54bfd77f3db0d47887b37,6685aa9113c938e83b4f1ea0,672c10df22a798406efdceb7,2024-11-06_20h08.10.617,WTP_SM_Choice,2022.2.1,Win32,60.24096386,,,,,,,,,,,,,,,,,,51,,,,,,space,17.6355,space,8.4425,0.01,2,3.9904,0,0,0,0,1,listen to music in my living room,rewatch old sitcoms with my cousins and quoting every line,0.01,0.01,1.1,1,,,,
,,65f54bfd77f3db0d47887b37,6685aa9113c938e83b4f1ea0,672c10df22a798406efdceb7,2024-11-06_20h08.10.617,WTP_SM_Choice,2022.2.1,Win32,60.24096386,,,,,,,,,,,,,,,,,,52,,,,,,,,,,0.02,1,3.1554,0,1,1,1,1,grab late night tacos with friends after a movie,eat cereal out of the box while standing in the kitchen for way too long,0.02,0.01,3.3,0,,,,
,,65f54bfd77f3db0d47887b37,6685aa9113c938e83b4f1ea0,672c10df22a798406efdceb7,2024-11-06_20h08.10.617,WTP_SM_Choice,2022.2.1,Win32,60.24096386,,,,,,,,,,,,,,,,,,53,,,,,,,,,,0.03,1,2.1741,0,2,2,2,1,cook a big dinner with my BF and trying new recipes together,make coffee every morning especially pour over coffee,0.03,0.01,1.1,0,,,,
,,65f54bfd77f3db0d47887b37,6685aa9113c938e83b4f1ea0,672c10df22a798406efdceb7,2024-11-06_20h08.10.617,WTP_SM_Choice,2022.2.1,Win32,60.24096386,,,,,,,,,,,,,,,,,,54,,,,,,,,,,0.04,1,4.3323,0,3,3,3,1,listen to music in my living room,play board games with family during holiday get togethers,0.04,0.01,4.4,1,,,,
,,65f54bfd77f3db0d47887b37,6685aa9113c938e83b4f1ea0,672c10df22a798406efdceb7,2024-11-06_20h08.10.617,WTP_SM_Choice,2022.2.1,Win32,60.24096386,,,,,,,,,,,,,,,,,,55,,,,,,,,,,0.05,1,4.7612,0,4,4,4,1,hit up karaoke night with coworkers after a rough week,lay in bed with headphones on zoning out to music and staring at the ceiling,0.05,0.01,1.1,0,,,,
,,65f54bfd77f3db0d47887b37,6685aa9113c938e83b4f1ea0,672c10df22a798406efdceb7,2024-11-06_20h08.10.617,WTP_SM_Choice,2022.2.1,Win32,60.24096386,,,,,,,NAN,,NAN,1.39,4.61,,0,54,54,54,1,55,Sam,Rej,Participant_Images/65f54bfd77f3db0d47887b37/65f54bfd77f3db0d47887b37_Images/65f54bfd77f3db0d47887b37_Image_22.jpeg,did not like,3.602308302,,,,,,,,,,,,,,,,,,,,,,
,,65f54bfd77f3db0d47887b37,6685aa9113c938e83b4f1ea0,672c10df22a798406efdceb7,2024-11-06_20h08.10.617,WTP_SM_Choice,2022.2.1,Win32,60.24096386,,,,,space,3.0484,NAN,,NAN,1.39,4.61,,0,55,55,55,1,56,Sam,Rej,Participant_Images/65f54bfd77f3db0d47887b37/65f54bfd77f3db0d47887b37_Images/65f54bfd77f3db0d47887b37_Image_18.jpeg,liked,4.106391878,,,,,,,,,,,,,,,,,,,,,,
,,65f54bfd77f3db0d47887b37,6685aa9113c938e83b4f1ea0,672c10df22a798406efdceb7,2024-11-06_20h08.10.617,WTP_SM_Choice,2022.2.1,Win32,60.24096386,,,,,space,7.6324,NAN,,NAN,1.39,4.61,,0,56,56,56,1,57,Sam,Rej,Participant_Images/65f54bfd77f3db0d47887b37/65f54bfd77f3db0d47887b37_Images/65f54bfd77f3db0d47887b37_Image_7.jpeg,did not like,3.799433026,,,,,,,,,,,,,,,,,,,,,,
,,65f54bfd77f3db0d47887b37,6685aa9113c938e83b4f1ea0,672c10df22a798406efdceb7,2024-11-06_20h08.10.617,WTP_SM_Choice,2022.2.1,Win32,60.24096386,,,,,space,36.8767,NAN,,NAN,1.39,4.61,,0,57,57,57,1,58,Sam,Rej,Participant_Images/65f54bfd77f3db0d47887b37/65f54bfd77f3db0d47887b37_Images/65f54bfd77f3db0d47887b37_Image_25.jpeg,did not like,5.246980764,,,,,,,,,,,,,,,,,,,,,,
,,65f54bfd77f3db0d47887b37,6685aa9113c938e83b4f1ea0,672c10df22a798406efdceb7,2024-11-06_20h08.10.617,WTP_SM_Choice,2022.2.1,Win32,60.24096386,,,,,space,17.8328,NAN,,NAN,1.39,4.61,,0,58,58,58,1,59,Sam,Rej,Participant_Images/65f54bfd77f3db0d47887b37/65f54bfd77f3db0d47887b37_Images/65f54bfd77f3db0d47887b37_Image_9.jpeg,did not like,3.30081769,,,,,,,,,,,,,,,,,,,,,,
,,65f54bfd77f3db0d47887b37,6685aa9113c938e83b4f1ea0,672c10df22a798406efdceb7,2024-11-06_20h08.10.617,WTP_SM_Choice,2022.2.1,Win32,60.24096386,,,,,,,,,,,,,,,,,,56,,,,,,space,37.8213,space,4.3342,0.01,1,1.102,0,0,0,0,1,set up a bonfire with friends on a beach and talking till late,try on random outfits in front of the mirror and hyping myself up,0.01,0.02,8.8,0,,,,
,,65f54bfd77f3db0d47887b37,6685aa9113c938e83b4f1ea0,672c10df22a798406efdceb7,2024-11-06_20h08.10.617,WTP_SM_Choice,2022.2.1,Win32,60.24096386,,,,,,,,,,,,,,,,,,57,,,,,,,,,,0.02,1,4.7779,0,1,1,1,1,have long talks at a coffee shop with my best friend on rainy days,make playlists in my room for different moods,0.02,0.02,4.4,0,,,,
,,65f54bfd77f3db0d47887b37,6685aa9113c938e83b4f1ea0,672c10df22a798406efdceb7,2024-11-06_20h08.10.617,WTP_SM_Choice,2022.2.1,Win32,60.24096386,,,,,,,,,,,,,,,,,,58,,,,,,,,,,0.02,2,9.5252,0,2,2,2,1,lay in bed with headphones on zoning out to music and staring at the ceiling,cook a big dinner with my BF and trying new recipes together,0.03,0.02,4.4,1,,,,
,,65f54bfd77f3db0d47887b37,6685aa9113c938e83b4f1ea0,672c10df22a798406efdceb7,2024-11-06_20h08.10.617,WTP_SM_Choice,2022.2.1,Win32,60.24096386,,,,,,,,,,,,,,,,,,59,,,,,,,,,,0.02,2,7.7594,0,3,3,3,1,go on subway and taking photos,rewatch old sitcoms with my cousins and quoting every line,0.04,0.02,4.4,1,,,,
,,65f54bfd77f3db0d47887b37,6685aa9113c938e83b4f1ea0,672c10df22a798406efdceb7,2024-11-06_20h08.10.617,WTP_SM_Choice,2022.2.1,Win32,60.24096386,,,,,,,,,,,,,,,,,,60,,,,,,,,,,0.02,2,2.0085,0,4,4,4,1,grab late night tacos with friends after a movie,try on random outfits in front of the mirror and hyping myself up,0.05,0.02,1.1,0,,,,
,,65f54bfd77f3db0d47887b37,6685aa9113c938e83b4f1ea0,672c10df22a798406efdceb7,2024-11-06_20h08.10.617,WTP_SM_Choice,2022.2.1,Win32,60.24096386,,,,,,,NAN,,NAN,1.48,4.52,,0,59,59,59,1,60,Sam,Rej,Participant_Images/65f54bfd77f3db0d47887b37/65f54bfd77f3db0d47887b37_Images/65f54bfd77f3db0d47887b37_Image_2.jpeg,did not like,1.661473164,,,,,,,,,,,,,,,,,,,,,,
,,65f54bfd77f3db0d47887b37,6685aa9113c938e83b4f1ea0,672c10df22a798406efdceb7,2024-11-06_20h08.10.617,WTP_SM_Choice,2022.2.1,Win32,60.24096386,,,,,space,18.4339,NAN,,NAN,1.48,4.52,,0,60,60,60,1,61,Sam,Rej,Participant_Images/65f54bfd77f3db0d47887b37/65f54bfd77f3db0d47887b37_Images/65f54bfd77f3db0d47887b37_Image_4.jpeg,did not like,3.613205605,,,,,,,,,,,,,,,,,,,,,,
,,65f54bfd77f3db0d47887b37,6685aa9113c938e83b4f1ea0,672c10df22a798406efdceb7,2024-11-06_20h08.10.617,WTP_SM_Choice,2022.2.1,Win32,60.24096386,,,,,space,0.5728,NAN,,NAN,1.48,4.52,,0,61,61,61,1,62,Sam,Rej,Participant_Images/65f54bfd77f3db0d47887b37/65f54bfd77f3db0d47887b37_Images/65f54bfd77f3db0d47887b37_Image_13.jpeg,liked,4.988446431,,,,,,,,,,,,,,,,,,,,,,
,,65f54bfd77f3db0d47887b37,6685aa9113c938e83b4f1ea0,672c10df22a798406efdceb7,2024-11-06_20h08.10.617,WTP_SM_Choice,2022.2.1,Win32,60.24096386,,,,,space,3.8361,NAN,,NAN,1.48,4.52,,0,62,62,62,1,63,Sam,Rej,Participant_Images/65f54bfd77f3db0d47887b37/65f54bfd77f3db0d47887b37_Images/65f54bfd77f3db0d47887b37_Image_17.jpeg,did not like,3.470791822,,,,,,,,,,,,,,,,,,,,,,
,,65f54bfd77f3db0d47887b37,6685aa9113c938e83b4f1ea0,672c10df22a798406efdceb7,2024-11-06_20h08.10.617,WTP_SM_Choice,2022.2.1,Win32,60.24096386,,,,,space,1.7483,NAN,,NAN,1.48,4.52,,0,63,63,63,1,64,Sam,Rej,Participant_Images/65f54bfd77f3db0d47887b37/65f54bfd77f3db0d47887b37_Images/65f54bfd77f3db0d47887b37_Image_16.jpeg,liked,3.820572462,,,,,,,,,,,,,,,,,,,,,,
,,65f54bfd77f3db0d47887b37,6685aa9113c938e83b4f1ea0,672c10df22a798406efdceb7,2024-11-06_20h08.10.617,WTP_SM_Choice,2022.2.1,Win32,60.24096386,,,,,,,,,,,,,,,,,,61,,,,,,space,5.0161,space,1.7007,0.03,2,1.7221,0,0,0,0,1,eat cereal out of the box while standing in the kitchen for way too long,set up a bonfire with friends on a beach and talking till late,0.01,0.03,3.3,1,,,,
,,65f54bfd77f3db0d47887b37,6685aa9113c938e83b4f1ea0,672c10df22a798406efdceb7,2024-11-06_20h08.10.617,WTP_SM_Choice,2022.2.1,Win32,60.24096386,,,,,,,,,,,,,,,,,,62,,,,,,,,,,0.03,2,6.3428,0,1,1,1,1,go to concerts with friends and singing way too loud in the crowd,make coffee every morning especially pour over coffee,0.02,0.03,3.3,0,,,,
,,65f54bfd77f3db0d47887b37,6685aa9113c938e83b4f1ea0,672c10df22a798406efdceb7,2024-11-06_20h08.10.617,WTP_SM_Choice,2022.2.1,Win32,60.24096386,,,,,,,,,,,,,,,,,,63,,,,,,,,,,,,,0,2,2,2,1,play board games with family during holiday get togethers,make playlists in my room for different moods,0.03,0.03,3.3,0,,,,
,,65f54bfd77f3db0d47887b37,6685aa9113c938e83b4f1ea0,672c10df22a798406efdceb7,2024-11-06_20h08.10.617,WTP_SM_Choice,2022.2.1,Win32,60.24096386,,,,,,,,,,,,,,,,,,64,,,,,,,,,,0.04,1,3.9003,0,3,3,3,1,hit up karaoke night with coworkers after a rough week,listen to music in my living room,0.04,0.03,1.1,0,,,,
,,65f54bfd77f3db0d47887b37,6685aa9113c938e83b4f1ea0,672c10df22a798406efdceb7,2024-11-06_20h08.10.617,WTP_SM_Choice,2022.2.1,Win32,60.24096386,,,,,,,,,,,,,,,,,,65,,,,,,,,,,0.05,1,2.2444,0,4,4,4,1,have long talks at a coffee shop with my best friend on rainy days,try on random outfits in front of the mirror and hyping myself up,0.05,0.03,1.1,0,,,,
,,65f54bfd77f3db0d47887b37,6685aa9113c938e83b4f1ea0,672c10df22a798406efdceb7,2024-11-06_20h08.10.617,WTP_SM_Choice,2022.2.1,Win32,60.24096386,,,,,,,NAN,,NAN,1.63,4.37,,0,64,64,64,1,65,Sam,Rej,Participant_Images/65f54bfd77f3db0d47887b37/65f54bfd77f3db0d47887b37_Images/65f54bfd77f3db0d47887b37_Image_19.jpeg,did not like,2.455989137,,,,,,,,,,,,,,,,,,,,,,
,,65f54bfd77f3db0d47887b37,6685aa9113c938e83b4f1ea0,672c10df22a798406efdceb7,2024-11-06_20h08.10.617,WTP_SM_Choice,2022.2.1,Win32,60.24096386,,,,,space,3.1569,NAN,,NAN,1.63,4.37,,0,65,65,65,1,66,Sam,Rej,Participant_Images/65f54bfd77f3db0d47887b37/65f54bfd77f3db0d47887b37_Images/65f54bfd77f3db0d47887b37_Image_14.jpeg,liked,3.79605092,,,,,,,,,,,,,,,,,,,,,,
,,65f54bfd77f3db0d47887b37,6685aa9113c938e83b4f1ea0,672c10df22a798406efdceb7,2024-11-06_20h08.10.617,WTP_SM_Choice,2022.2.1,Win32,60.24096386,,,,,space,3.987,NAN,,NAN,1.63,4.37,,0,66,66,66,1,67,Sam,Rej,Participant_Images/65f54bfd77f3db0d47887b37/65f54bfd77f3db0d47887b37_Images/65f54bfd77f3db0d47887b37_Image_23.jpeg,liked,3.562416326,,,,,,,,,,,,,,,,,,,,,,
,,65f54bfd77f3db0d47887b37,6685aa9113c938e83b4f1ea0,672c10df22a798406efdceb7,2024-11-06_20h08.10.617,WTP_SM_Choice,2022.2.1,Win32,60.24096386,,,,,space,0.5171,NAN,,NAN,1.63,4.37,,0,67,67,67,1,68,Sam,Rej,Participant_Images/65f54bfd77f3db0d47887b37/65f54bfd77f3db0d47887b37_Images/65f54bfd77f3db0d47887b37_Image_3.jpeg,liked,2.843822497,,,,,,,,,,,,,,,,,,,,,,
,,65f54bfd77f3db0d47887b37,6685aa9113c938e83b4f1ea0,672c10df22a798406efdceb7,2024-11-06_20h08.10.617,WTP_SM_Choice,2022.2.1,Win32,60.24096386,,,,,space,1.6564,NAN,,NAN,1.63,4.37,,0,68,68,68,1,69,Sam,Rej,Participant_Images/65f54bfd77f3db0d47887b37/65f54bfd77f3db0d47887b37_Images/65f54bfd77f3db0d47887b37_Image_10.jpeg,did not like,3.546495948,,,,,,,,,,,,,,,,,,,,,,
,,65f54bfd77f3db0d47887b37,6685aa9113c938e83b4f1ea0,672c10df22a798406efdceb7,2024-11-06_20h08.10.617,WTP_SM_Choice,2022.2.1,Win32,60.24096386,,,,,,,,,,,,,,,,,,66,,,,,,space,23.5261,space,2.0326,0.01,1,3.6531,0,0,0,0,1,cook a big dinner with my BF and trying new recipes together,organize my phone apps and photos but getting sidetracked by old memories,0.01,0.04,1.1,0,,,,
,,65f54bfd77f3db0d47887b37,6685aa9113c938e83b4f1ea0,672c10df22a798406efdceb7,2024-11-06_20h08.10.617,WTP_SM_Choice,2022.2.1,Win32,60.24096386,,,,,,,,,,,,,,,,,,67,,,,,,,,,,0.04,2,4.742,0,1,1,1,1,go to bodega at night for a random snack run,hit up karaoke night with coworkers after a rough week,0.02,0.04,8.8,1,,,,
,,65f54bfd77f3db0d47887b37,6685aa9113c938e83b4f1ea0,672c10df22a798406efdceb7,2024-11-06_20h08.10.617,WTP_SM_Choice,2022.2.1,Win32,60.24096386,,,,,,,,,,,,,,,,,,68,,,,,,,,,,0.04,2,2.7058,0,2,2,2,1,laugh at dumb memes on the couch with my siblings after dinner,make instant noodles and eating them straight out of the pot,0.03,0.04,4.4,0,,,,
,,65f54bfd77f3db0d47887b37,6685aa9113c938e83b4f1ea0,672c10df22a798406efdceb7,2024-11-06_20h08.10.617,WTP_SM_Choice,2022.2.1,Win32,60.24096386,,,,,,,,,,,,,,,,,,69,,,,,,,,,,0.04,2,3.1961,0,3,3,3,1,eat cereal out of the box while standing in the kitchen for way too long,cook a big dinner with my BF and trying new recipes together,0.04,0.04,1.1,1,,,,
,,65f54bfd77f3db0d47887b37,6685aa9113c938e83b4f1ea0,672c10df22a798406efdceb7,2024-11-06_20h08.10.617,WTP_SM_Choice,2022.2.1,Win32,60.24096386,,,,,,,,,,,,,,,,,,70,,,,,,,,,,0.05,1,1.7098,0,4,4,4,1,eat cereal out of the box while standing in the kitchen for way too long,rewatch old sitcoms with my cousins and quoting every line,0.05,0.04,1.1,1,,,,
,,65f54bfd77f3db0d47887b37,6685aa9113c938e83b4f1ea0,672c10df22a798406efdceb7,2024-11-06_20h08.10.617,WTP_SM_Choice,2022.2.1,Win32,60.24096386,,,,,,,NAN,,NAN,1.81,4.19,,0,69,69,69,1,70,Sam,Rej,Participant_Images/65f54bfd77f3db0d47887b37/65f54bfd77f3db0d47887b37_Images/65f54bfd77f3db0d47887b37_Image_21.jpeg,did not like,1.672012706,,,,,,,,,,,,,,,,,,,,,,
,,65f54bfd77f3db0d47887b37,6685aa9113c938e83b4f1ea0,672c10df22a798406efdceb7,2024-11-06_20h08.10.617,WTP_SM_Choice,2022.2.1,Win32,60.24096386,,,,,space,1.2979,NAN,,NAN,1.81,4.19,,0,70,70,70,1,71,Sam,Rej,Participant_Images/65f54bfd77f3db0d47887b37/65f54bfd77f3db0d47887b37_Images/65f54bfd77f3db0d47887b37_Image_1.jpeg,did not like,4.942172136,,,,,,,,,,,,,,,,,,,,,,
,,65f54bfd77f3db0d47887b37,6685aa9113c938e83b4f1ea0,672c10df22a798406efdceb7,2024-11-06_20h08.10.617,WTP_SM_Choice,2022.2.1,Win32,60.24096386,,,,,space,12.8355,NAN,,NAN,1.81,4.19,,0,71,71,71,1,72,Sam,Rej,Participant_Images/65f54bfd77f3db0d47887b37/65f54bfd77f3db0d47887b37_Images/65f54bfd77f3db0d47887b37_Image_20.jpeg,did not like,2.50187214,,,,,,,,,,,,,,,,,,,,,,
,,65f54bfd77f3db0d47887b37,6685aa9113c938e83b4f1ea0,672c10df22a798406efdceb7,2024-11-06_20h08.10.617,WTP_SM_Choice,2022.2.1,Win32,60.24096386,,,,,space,4.603,NAN,,NAN,1.81,4.19,,0,72,72,72,1,73,Sam,Rej,Participant_Images/65f54bfd77f3db0d47887b37/65f54bfd77f3db0d47887b37_Images/65f54bfd77f3db0d47887b37_Image_8.jpeg,did not like,2.071164779,,,,,,,,,,,,,,,,,,,,,,
,,65f54bfd77f3db0d47887b37,6685aa9113c938e83b4f1ea0,672c10df22a798406efdceb7,2024-11-06_20h08.10.617,WTP_SM_Choice,2022.2.1,Win32,60.24096386,,,,,space,14.5386,NAN,,NAN,1.81,4.19,,0,73,73,73,1,74,Sam,Rej,Participant_Images/65f54bfd77f3db0d47887b37/65f54bfd77f3db0d47887b37_Images/65f54bfd77f3db0d47887b37_Image_12.jpeg,did not like,5.336503566,,,,,,,,,,,,,,,,,,,,,,
,,65f54bfd77f3db0d47887b37,6685aa9113c938e83b4f1ea0,672c10df22a798406efdceb7,2024-11-06_20h08.10.617,WTP_SM_Choice,2022.2.1,Win32,60.24096386,,,,,,,,,,,,,,,,,,71,,,,,,space,1.1005,space,4.034,0.05,2,2.5609,0,0,0,0,1,listen to music in my living room,go to concerts with friends and singing way too loud in the crowd,0.01,0.05,3.3,1,,,,
,,65f54bfd77f3db0d47887b37,6685aa9113c938e83b4f1ea0,672c10df22a798406efdceb7,2024-11-06_20h08.10.617,WTP_SM_Choice,2022.2.1,Win32,60.24096386,,,,,,,,,,,,,,,,,,72,,,,,,,,,,0.05,2,2.392,0,1,1,1,1,make playlists in my room for different moods,hit up karaoke night with coworkers after a rough week,0.02,0.05,8.8,1,,,,
,,65f54bfd77f3db0d47887b37,6685aa9113c938e83b4f1ea0,672c10df22a798406efdceb7,2024-11-06_20h08.10.617,WTP_SM_Choice,2022.2.1,Win32,60.24096386,,,,,,,,,,,,,,,,,,73,,,,,,,,,,0.05,2,2.5833,0,2,2,2,1,listen to music in my living room,grab late night tacos with friends after a movie,0.03,0.05,3.3,1,,,,
,,65f54bfd77f3db0d47887b37,6685aa9113c938e83b4f1ea0,672c10df22a798406efdceb7,2024-11-06_20h08.10.617,WTP_SM_Choice,2022.2.1,Win32,60.24096386,,,,,,,,,,,,,,,,,,74,,,,,,,,,,0.05,2,3.8581,0,3,3,3,1,go to bodega at night for a random snack run,go on random road trips with friends on sunny weekends,0.04,0.05,4.4,1,,,,
,,65f54bfd77f3db0d47887b37,6685aa9113c938e83b4f1ea0,672c10df22a798406efdceb7,2024-11-06_20h08.10.617,WTP_SM_Choice,2022.2.1,Win32,60.24096386,,,,,,,,,,,,,,,,,,75,,,,,,,,,,0.05,1,3.1159,0,4,4,4,1,go on subway and taking photos,go on random road trips with friends on sunny weekends,0.05,0.05,3.3,1,,,,
,,65f54bfd77f3db0d47887b37,6685aa9113c938e83b4f1ea0,672c10df22a798406efdceb7,2024-11-06_20h08.10.617,WTP_SM_Choice,2022.2.1,Win32,60.24096386,,,,,,,2,,5,2.06,3.94,,0,74,74,74,1,75,Sam,Rej,Participant_Images/65f54bfd77f3db0d47887b37/65f54bfd77f3db0d47887b37_Images/65f54bfd77f3db0d47887b37_Image_5.jpeg,liked,2.642157193,,,,,,,,,,,,,,,,,,,space,0.9895,,
,,65f54bfd77f3db0d47887b37,6685aa9113c938e83b4f1ea0,672c10df22a798406efdceb7,2024-11-06_20h08.10.617,WTP_SM_Choice,2022.2.1,Win32,60.24096386,,,space,1.3256,space,5.573,NAN,,NAN,2.06,3.94,,0,75,75,75,1,76,Riley,Rej,Participant_Images/65f54bfd77f3db0d47887b37/65f54bfd77f3db0d47887b37_Images/65f54bfd77f3db0d47887b37_Image_7.jpeg,did not like,4.456234322,,,,,,,,,,,,,,,,,,,,,,
,,65f54bfd77f3db0d47887b37,6685aa9113c938e83b4f1ea0,672c10df22a798406efdceb7,2024-11-06_20h08.10.617,WTP_SM_Choice,2022.2.1,Win32,60.24096386,,,,,space,4.6176,NAN,,NAN,2.06,3.94,,0,76,76,76,1,77,Riley,Rej,Participant_Images/65f54bfd77f3db0d47887b37/65f54bfd77f3db0d47887b37_Images/65f54bfd77f3db0d47887b37_Image_3.jpeg,did not like,4.438512181,,,,,,,,,,,,,,,,,,,,,,
,,65f54bfd77f3db0d47887b37,6685aa9113c938e83b4f1ea0,672c10df22a798406efdceb7,2024-11-06_20h08.10.617,WTP_SM_Choice,2022.2.1,Win32,60.24096386,,,,,space,1.7553,NAN,,NAN,2.06,3.94,,0,77,77,77,1,78,Riley,Rej,Participant_Images/65f54bfd77f3db0d47887b37/65f54bfd77f3db0d47887b37_Images/65f54bfd77f3db0d47887b37_Image_23.jpeg,did not like,2.682944783,,,,,,,,,,,,,,,,,,,,,,
,,65f54bfd77f3db0d47887b37,6685aa9113c938e83b4f1ea0,672c10df22a798406efdceb7,2024-11-06_20h08.10.617,WTP_SM_Choice,2022.2.1,Win32,60.24096386,,,,,space,1.6178,NAN,,NAN,2.06,3.94,,0,78,78,78,1,79,Riley,Rej,Participant_Images/65f54bfd77f3db0d47887b37/65f54bfd77f3db0d47887b37_Images/65f54bfd77f3db0d47887b37_Image_19.jpeg,did not like,4.51984296,,,,,,,,,,,,,,,,,,,,,,
,,65f54bfd77f3db0d47887b37,6685aa9113c938e83b4f1ea0,672c10df22a798406efdceb7,2024-11-06_20h08.10.617,WTP_SM_Choice,2022.2.1,Win32,60.24096386,,,,,,,,,,,,,,,,,,76,,,,,,space,1.3351,space,0.987,0.01,2,3.2944,0,0,0,0,1,organize my phone apps and photos but getting sidetracked by old memories,laugh at dumb memes on the couch with my siblings after dinner,0.01,0.01,1.1,1,,,,
,,65f54bfd77f3db0d47887b37,6685aa9113c938e83b4f1ea0,672c10df22a798406efdceb7,2024-11-06_20h08.10.617,WTP_SM_Choice,2022.2.1,Win32,60.24096386,,,,,,,,,,,,,,,,,,77,,,,,,,,,,0.01,2,1.3582,0,1,1,1,1,lay in bed with headphones on zoning out to music and staring at the ceiling,have long talks at a coffee shop with my best friend on rainy days,0.02,0.01,8.8,1,,,,
,,65f54bfd77f3db0d47887b37,6685aa9113c938e83b4f1ea0,672c10df22a798406efdceb7,2024-11-06_20h08.10.617,WTP_SM_Choice,2022.2.1,Win32,60.24096386,,,,,,,,,,,,,,,,,,78,,,,,,,,,,,,,0,2,2,2,1,grab late night tacos with friends after a movie,lay in bed with headphones on zoning out to music and staring at the ceiling,0.03,0.01,1.1,0,,,,
,,65f54bfd77f3db0d47887b37,6685aa9113c938e83b4f1ea0,672c10df22a798406efdceb7,2024-11-06_20h08.10.617,WTP_SM_Choice,2022.2.1,Win32,60.24096386,,,,,,,,,,,,,,,,,,79,,,,,,,,,,0.04,1,3.8635,0,3,3,3,1,go to concerts with friends and singing way too loud in the crowd,make instant noodles and eating them straight out of the pot,0.04,0.01,1.1,0,,,,
,,65f54bfd77f3db0d47887b37,6685aa9113c938e83b4f1ea0,672c10df22a798406efdceb7,2024-11-06_20h08.10.617,WTP_SM_Choice,2022.2.1,Win32,60.24096386,,,,,,,,,,,,,,,,,,80,,,,,,,,,,0.01,2,6.541,0,4,4,4,1,laugh at dumb memes on the couch with my siblings after dinner,try on random outfits in front of the mirror and hyping myself up,0.05,0.01,4.4,0,,,,
,,65f54bfd77f3db0d47887b37,6685aa9113c938e83b4f1ea0,672c10df22a798406efdceb7,2024-11-06_20h08.10.617,WTP_SM_Choice,2022.2.1,Win32,60.24096386,,,,,,,NAN,,NAN,2.13,3.87,,0,79,79,79,1,80,Riley,Rej,Participant_Images/65f54bfd77f3db0d47887b37/65f54bfd77f3db0d47887b37_Images/65f54bfd77f3db0d47887b37_Image_11.jpeg,did not like,3.195382774,,,,,,,,,,,,,,,,,,,,,,
,,65f54bfd77f3db0d47887b37,6685aa9113c938e83b4f1ea0,672c10df22a798406efdceb7,2024-11-06_20h08.10.617,WTP_SM_Choice,2022.2.1,Win32,60.24096386,,,,,space,8.8029,NAN,,NAN,2.13,3.87,,0,80,80,80,1,81,Riley,Rej,Participant_Images/65f54bfd77f3db0d47887b37/65f54bfd77f3db0d47887b37_Images/65f54bfd77f3db0d47887b37_Image_22.jpeg,liked,1.779333479,,,,,,,,,,,,,,,,,,,,,,
,,65f54bfd77f3db0d47887b37,6685aa9113c938e83b4f1ea0,672c10df22a798406efdceb7,2024-11-06_20h08.10.617,WTP_SM_Choice,2022.2.1,Win32,60.24096386,,,,,space,4.7014,NAN,,NAN,2.13,3.87,,0,81,81,81,1,82,Riley,Rej,Participant_Images/65f54bfd77f3db0d47887b37/65f54bfd77f3db0d47887b37_Images/65f54bfd77f3db0d47887b37_Image_14.jpeg,did not like,4.312468682,,,,,,,,,,,,,,,,,,,,,,
,,65f54bfd77f3db0d47887b37,6685aa9113c938e83b4f1ea0,672c10df22a798406efdceb7,2024-11-06_20h08.10.617,WTP_SM_Choice,2022.2.1,Win32,60.24096386,,,,,space,7.8904,NAN,,NAN,2.13,3.87,,0,82,82,82,1,83,Riley,Rej,Participant_Images/65f54bfd77f3db0d47887b37/65f54bfd77f3db0d47887b37_Images/65f54bfd77f3db0d47887b37_Image_1.jpeg,liked,4.940433059,,,,,,,,,,,,,,,,,,,,,,
,,65f54bfd77f3db0d47887b37,6685aa9113c938e83b4f1ea0,672c10df22a798406efdceb7,2024-11-06_20h08.10.617,WTP_SM_Choice,2022.2.1,Win32,60.24096386,,,,,space,0.0649,NAN,,NAN,2.13,3.87,,0,83,83,83,1,84,Riley,Rej,Participant_Images/65f54bfd77f3db0d47887b37/65f54bfd77f3db0d47887b37_Images/65f54bfd77f3db0d47887b37_Image_20.jpeg,did not like,2.7105123,,,,,,,,,,,,,,,,,,,,,,
,,65f54bfd77f3db0d47887b37,6685aa9113c938e83b4f1ea0,672c10df22a798406efdceb7,2024-11-06_20h08.10.617,WTP_SM_Choice,2022.2.1,Win32,60.24096386,,,,,,,,,,,,,,,,,,81,,,,,,space,2.0646,space,1.0591,0.02,2,1.5013,0,0,0,0,1,laugh at dumb memes on the couch with my siblings after dinner,go on subway and taking photos,0.01,0.02,3.3,0,,,,
,,65f54bfd77f3db0d47887b37,6685aa9113c938e83b4f1ea0,672c10df22a798406efdceb7,2024-11-06_20h08.10.617,WTP_SM_Choice,2022.2.1,Win32,60.24096386,,,,,,,,,,,,,,,,,,82,,,,,,,,,,,,,0,1,1,1,1,make playlists in my room for different moods,cook a big dinner with my BF and trying new recipes together,0.02,0.02,4.4,1,,,,
,,65f54bfd77f3db0d47887b37,6685aa9113c938e83b4f1ea0,672c10df22a798406efdceb7,2024-11-06_20h08.10.617,WTP_SM_Choice,2022.2.1,Win32,60.24096386,,,,,,,,,,,,,,,,,,83,,,,,,,,,,0.02,2,6.1287,0,2,2,2,1,eat cereal out of the box while standing in the kitchen for way too long,laugh at dumb memes on the couch with my siblings after dinner,0.03,0.02,1.1,1,,,,
,,65f54bfd77f3db0d47887b37,6685aa9113c938e83b4f1ea0,672c10df22a798406efdceb7,2024-11-06_20h08.10.617,WTP_SM_Choice,2022.2.1,Win32,60.24096386,,,,,,,,,,,,,,,,,,84,,,,,,,,,,0.02,2,3.442,0,3,3,3,1,lay in bed with headphones on zoning out to music and staring at the ceiling,rewatch old sitcoms with my cousins and quoting every line,0.04,0.02,3.3,1,,,,
,,65f54bfd77f3db0d47887b37,6685aa9113c938e83b4f1ea0,672c10df22a798406efdceb7,2024-11-06_20h08.10.617,WTP_SM_Choice,2022.2.1,Win32,60.24096386,,,,,,,,,,,,,,,,,,85,,,,,,,,,,0.05,1,5.7345,0,4,4,4,1,go on random road trips with friends on sunny weekends,make playlists in my room for different moods,0.05,0.02,3.3,0,,,,
,,65f54bfd77f3db0d47887b37,6685aa9113c938e83b4f1ea0,672c10df22a798406efdceb7,2024-11-06_20h08.10.617,WTP_SM_Choice,2022.2.1,Win32,60.24096386,,,,,,,NAN,,NAN,2.24,3.76,,0,84,84,84,1,85,Riley,Rej,Participant_Images/65f54bfd77f3db0d47887b37/65f54bfd77f3db0d47887b37_Images/65f54bfd77f3db0d47887b37_Image_21.jpeg,did not like,3.602308302,,,,,,,,,,,,,,,,,,,,,,
,,65f54bfd77f3db0d47887b37,6685aa9113c938e83b4f1ea0,672c10df22a798406efdceb7,2024-11-06_20h08.10.617,WTP_SM_Choice,2022.2.1,Win32,60.24096386,,,,,space,25.8843,NAN,,NAN,2.24,3.76,,0,85,85,85,1,86,Riley,Rej,Participant_Images/65f54bfd77f3db0d47887b37/65f54bfd77f3db0d47887b37_Images/65f54bfd77f3db0d47887b37_Image_13.jpeg,did not like,4.106391878,,,,,,,,,,,,,,,,,,,,,,
,,65f54bfd77f3db0d47887b37,6685aa9113c938e83b4f1ea0,672c10df22a798406efdceb7,2024-11-06_20h08.10.617,WTP_SM_Choice,2022.2.1,Win32,60.24096386,,,,,space,9.182,NAN,,NAN,2.24,3.76,,0,86,86,86,1,87,Riley,Rej,Participant_Images/65f54bfd77f3db0d47887b37/65f54bfd77f3db0d47887b37_Images/65f54bfd77f3db0d47887b37_Image_9.jpeg,did not like,3.799433026,,,,,,,,,,,,,,,,,,,,,,
,,65f54bfd77f3db0d47887b37,6685aa9113c938e83b4f1ea0,672c10df22a798406efdceb7,2024-11-06_20h08.10.617,WTP_SM_Choice,2022.2.1,Win32,60.24096386,,,,,space,8.6988,NAN,,NAN,2.24,3.76,,0,87,87,87,1,88,Riley,Rej,Participant_Images/65f54bfd77f3db0d47887b37/65f54bfd77f3db0d47887b37_Images/65f54bfd77f3db0d47887b37_Image_17.jpeg,did not like,5.246980764,,,,,,,,,,,,,,,,,,,,,,
,,65f54bfd77f3db0d47887b37,6685aa9113c938e83b4f1ea0,672c10df22a798406efdceb7,2024-11-06_20h08.10.617,WTP_SM_Choice,2022.2.1,Win32,60.24096386,,,,,space,4.1679,NAN,,NAN,2.24,3.76,,0,88,88,88,1,89,Riley,Rej,Participant_Images/65f54bfd77f3db0d47887b37/65f54bfd77f3db0d47887b37_Images/65f54bfd77f3db0d47887b37_Image_4.jpeg,did not like,3.30081769,,,,,,,,,,,,,,,,,,,,,,
,,65f54bfd77f3db0d47887b37,6685aa9113c938e83b4f1ea0,672c10df22a798406efdceb7,2024-11-06_20h08.10.617,WTP_SM_Choice,2022.2.1,Win32,60.24096386,,,,,,,,,,,,,,,,,,86,,,,,,space,8.2922,space,9.9183,0.03,2,4.3037,0,0,0,0,1,make coffee every morning especially pour over coffee,hit up karaoke night with coworkers after a rough week,0.01,0.03,1.1,1,,,,
,,65f54bfd77f3db0d47887b37,6685aa9113c938e83b4f1ea0,672c10df22a798406efdceb7,2024-11-06_20h08.10.617,WTP_SM_Choice,2022.2.1,Win32,60.24096386,,,,,,,,,,,,,,,,,,87,,,,,,,,,,0.02,1,7.1233,0,1,1,1,1,cook a big dinner with my BF and trying new recipes together,listen to music in my living room,0.02,0.03,4.4,0,,,,
,,65f54bfd77f3db0d47887b37,6685aa9113c938e83b4f1ea0,672c10df22a798406efdceb7,2024-11-06_20h08.10.617,WTP_SM_Choice,2022.2.1,Win32,60.24096386,,,,,,,,,,,,,,,,,,88,,,,,,,,,,0.03,1,5.5238,0,2,2,2,1,go on subway and taking photos,grab late night tacos with friends after a movie,0.03,0.03,1.1,1,,,,
,,65f54bfd77f3db0d47887b37,6685aa9113c938e83b4f1ea0,672c10df22a798406efdceb7,2024-11-06_20h08.10.617,WTP_SM_Choice,2022.2.1,Win32,60.24096386,,,,,,,,,,,,,,,,,,89,,,,,,,,,,0.04,1,3.4959,0,3,3,3,1,laugh at dumb memes on the couch with my siblings after dinner,make playlists in my room for different moods,0.04,0.03,3.3,0,,,,
,,65f54bfd77f3db0d47887b37,6685aa9113c938e83b4f1ea0,672c10df22a798406efdceb7,2024-11-06_20h08.10.617,WTP_SM_Choice,2022.2.1,Win32,60.24096386,,,,,,,,,,,,,,,,,,90,,,,,,,,,,0.03,2,9.5254,0,4,4,4,1,organize my phone apps and photos but getting sidetracked by old memories,have long talks at a coffee shop with my best friend on rainy days,0.05,0.03,8.8,1,,,,
,,65f54bfd77f3db0d47887b37,6685aa9113c938e83b4f1ea0,672c10df22a798406efdceb7,2024-11-06_20h08.10.617,WTP_SM_Choice,2022.2.1,Win32,60.24096386,,,,,,,NAN,,NAN,2.39,3.61,,0,89,89,89,1,90,Riley,Rej,Participant_Images/65f54bfd77f3db0d47887b37/65f54bfd77f3db0d47887b37_Images/65f54bfd77f3db0d47887b37_Image_8.jpeg,did not like,1.661473164,,,,,,,,,,,,,,,,,,,,,,
,,65f54bfd77f3db0d47887b37,6685aa9113c938e83b4f1ea0,672c10df22a798406efdceb7,2024-11-06_20h08.10.617,WTP_SM_Choice,2022.2.1,Win32,60.24096386,,,,,space,3.3678,NAN,,NAN,2.39,3.61,,0,90,90,90,1,91,Riley,Rej,Participant_Images/65f54bfd77f3db0d47887b37/65f54bfd77f3db0d47887b37_Images/65f54bfd77f3db0d47887b37_Image_18.jpeg,did not like,3.613205605,,,,,,,,,,,,,,,,,,,,,,
,,65f54bfd77f3db0d47887b37,6685aa9113c938e83b4f1ea0,672c10df22a798406efdceb7,2024-11-06_20h08.10.617,WTP_SM_Choice,2022.2.1,Win32,60.24096386,,,,,space,14.3695,NAN,,NAN,2.39,3.61,,0,91,91,91,1,92,Riley,Rej,Participant_Images/65f54bfd77f3db0d47887b37/65f54bfd77f3db0d47887b37_Images/65f54bfd77f3db0d47887b37_Image_16.jpeg,did not like,4.988446431,,,,,,,,,,,,,,,,,,,,,,
,,65f54bfd77f3db0d47887b37,6685aa9113c938e83b4f1ea0,672c10df22a798406efdceb7,2024-11-06_20h08.10.617,WTP_SM_Choice,2022.2.1,Win32,60.24096386,,,,,space,38.5113,NAN,,NAN,2.39,3.61,,0,92,92,92,1,93,Riley,Rej,Participant_Images/65f54bfd77f3db0d47887b37/65f54bfd77f3db0d47887b37_Images/65f54bfd77f3db0d47887b37_Image_12.jpeg,did not like,3.470791822,,,,,,,,,,,,,,,,,,,,,,
,,65f54bfd77f3db0d47887b37,6685aa9113c938e83b4f1ea0,672c10df22a798406efdceb7,2024-11-06_20h08.10.617,WTP_SM_Choice,2022.2.1,Win32,60.24096386,,,,,space,2.6345,NAN,,NAN,2.39,3.61,,0,93,93,93,1,94,Riley,Rej,Participant_Images/65f54bfd77f3db0d47887b37/65f54bfd77f3db0d47887b37_Images/65f54bfd77f3db0d47887b37_Image_6.jpeg,liked,3.820572462,,,,,,,,,,,,,,,,,,,,,,
,,65f54bfd77f3db0d47887b37,6685aa9113c938e83b4f1ea0,672c10df22a798406efdceb7,2024-11-06_20h08.10.617,WTP_SM_Choice,2022.2.1,Win32,60.24096386,,,,,,,,,,,,,,,,,,91,,,,,,space,7.4522,space,1.1507,0.01,1,2.7458,0,0,0,0,1,try on random outfits in front of the mirror and hyping myself up,rewatch old sitcoms with my cousins and quoting every line,0.01,0.04,3.3,1,,,,
,,65f54bfd77f3db0d47887b37,6685aa9113c938e83b4f1ea0,672c10df22a798406efdceb7,2024-11-06_20h08.10.617,WTP_SM_Choice,2022.2.1,Win32,60.24096386,,,,,,,,,,,,,,,,,,92,,,,,,,,,,0.02,1,3.5945,0,1,1,1,1,cook a big dinner with my BF and trying new recipes together,make instant noodles and eating them straight out of the pot,0.02,0.04,8.8,0,,,,
,,65f54bfd77f3db0d47887b37,6685aa9113c938e83b4f1ea0,672c10df22a798406efdceb7,2024-11-06_20h08.10.617,WTP_SM_Choice,2022.2.1,Win32,60.24096386,,,,,,,,,,,,,,,,,,93,,,,,,,,,,0.04,2,9.3949,0,2,2,2,1,organize my phone apps and photos but getting sidetracked by old memories,grab late night tacos with friends after a movie,0.03,0.04,1.1,1,,,,
,,65f54bfd77f3db0d47887b37,6685aa9113c938e83b4f1ea0,672c10df22a798406efdceb7,2024-11-06_20h08.10.617,WTP_SM_Choice,2022.2.1,Win32,60.24096386,,,,,,,,,,,,,,,,,,94,,,,,,,,,,,,,0,3,3,3,1,go to concerts with friends and singing way too loud in the crowd,go on subway and taking photos,0.04,0.04,4.4,0,,,,
,,65f54bfd77f3db0d47887b37,6685aa9113c938e83b4f1ea0,672c10df22a798406efdceb7,2024-11-06_20h08.10.617,WTP_SM_Choice,2022.2.1,Win32,60.24096386,,,,,,,,,,,,,,,,,,95,,,,,,,,,,0.05,1,1.1483,0,4,4,4,1,go on random road trips with friends on sunny weekends,make instant noodles and eating them straight out of the pot,0.05,0.04,4.4,0,,,,
,,65f54bfd77f3db0d47887b37,6685aa9113c938e83b4f1ea0,672c10df22a798406efdceb7,2024-11-06_20h08.10.617,WTP_SM_Choice,2022.2.1,Win32,60.24096386,,,,,,,NAN,,NAN,2.51,3.49,,0,94,94,94,1,95,Riley,Rej,Participant_Images/65f54bfd77f3db0d47887b37/65f54bfd77f3db0d47887b37_Images/65f54bfd77f3db0d47887b37_Image_2.jpeg,did not like,2.455989137,,,,,,,,,,,,,,,,,,,,,,
,,65f54bfd77f3db0d47887b37,6685aa9113c938e83b4f1ea0,672c10df22a798406efdceb7,2024-11-06_20h08.10.617,WTP_SM_Choice,2022.2.1,Win32,60.24096386,,,,,space,1.7852,NAN,,NAN,2.51,3.49,,0,95,95,95,1,96,Riley,Rej,Participant_Images/65f54bfd77f3db0d47887b37/65f54bfd77f3db0d47887b37_Images/65f54bfd77f3db0d47887b37_Image_24.jpeg,liked,3.79605092,,,,,,,,,,,,,,,,,,,,,,
,,65f54bfd77f3db0d47887b37,6685aa9113c938e83b4f1ea0,672c10df22a798406efdceb7,2024-11-06_20h08.10.617,WTP_SM_Choice,2022.2.1,Win32,60.24096386,,,,,space,0.6982,NAN,,NAN,2.51,3.49,,0,96,96,96,1,97,Riley,Rej,Participant_Images/65f54bfd77f3db0d47887b37/65f54bfd77f3db0d47887b37_Images/65f54bfd77f3db0d47887b37_Image_15.jpeg,liked,3.562416326,,,,,,,,,,,,,,,,,,,,,,
,,65f54bfd77f3db0d47887b37,6685aa9113c938e83b4f1ea0,672c10df22a798406efdceb7,2024-11-06_20h08.10.617,WTP_SM_Choice,2022.2.1,Win32,60.24096386,,,,,space,0.687,NAN,,NAN,2.51,3.49,,0,97,97,97,1,98,Riley,Rej,Participant_Images/65f54bfd77f3db0d47887b37/65f54bfd77f3db0d47887b37_Images/65f54bfd77f3db0d47887b37_Image_25.jpeg,liked,2.843822497,,,,,,,,,,,,,,,,,,,,,,
,,65f54bfd77f3db0d47887b37,6685aa9113c938e83b4f1ea0,672c10df22a798406efdceb7,2024-11-06_20h08.10.617,WTP_SM_Choice,2022.2.1,Win32,60.24096386,,,,,space,3.291,NAN,,NAN,2.51,3.49,,0,98,98,98,1,99,Riley,Rej,Participant_Images/65f54bfd77f3db0d47887b37/65f54bfd77f3db0d47887b37_Images/65f54bfd77f3db0d47887b37_Image_5.jpeg,liked,3.546495948,,,,,,,,,,,,,,,,,,,,,,
,,65f54bfd77f3db0d47887b37,6685aa9113c938e83b4f1ea0,672c10df22a798406efdceb7,2024-11-06_20h08.10.617,WTP_SM_Choice,2022.2.1,Win32,60.24096386,,,,,,,,,,,,,,,,,,96,,,,,,space,1.1003,space,1.9367,0.01,1,3.355,0,0,0,0,1,play board games with family during holiday get togethers,organize my phone apps and photos but getting sidetracked by old memories,0.01,0.05,3.3,0,,,,
,,65f54bfd77f3db0d47887b37,6685aa9113c938e83b4f1ea0,672c10df22a798406efdceb7,2024-11-06_20h08.10.617,WTP_SM_Choice,2022.2.1,Win32,60.24096386,,,,,,,,,,,,,,,,,,97,,,,,,,,,,0.05,2,1.8875,0,1,1,1,1,make coffee every morning especially pour over coffee,set up a bonfire with friends on a beach and talking till late,0.02,0.05,1.1,1,,,,
,,65f54bfd77f3db0d47887b37,6685aa9113c938e83b4f1ea0,672c10df22a798406efdceb7,2024-11-06_20h08.10.617,WTP_SM_Choice,2022.2.1,Win32,60.24096386,,,,,,,,,,,,,,,,,,98,,,,,,,,,,0.05,2,2.2646,0,2,2,2,1,organize my phone apps and photos but getting sidetracked by old memories,rewatch old sitcoms with my cousins and quoting every line,0.03,0.05,1.1,1,,,,
,,65f54bfd77f3db0d47887b37,6685aa9113c938e83b4f1ea0,672c10df22a798406efdceb7,2024-11-06_20h08.10.617,WTP_SM_Choice,2022.2.1,Win32,60.24096386,,,,,,,,,,,,,,,,,,99,,,,,,,,,,0.05,2,1.4643,0,3,3,3,1,go to concerts with friends and singing way too loud in the crowd,go to bodega at night for a random snack run,0.04,0.05,3.3,0,,,,
,,65f54bfd77f3db0d47887b37,6685aa9113c938e83b4f1ea0,672c10df22a798406efdceb7,2024-11-06_20h08.10.617,WTP_SM_Choice,2022.2.1,Win32,60.24096386,,,,,,,,,,,,,,,,,,100,,,,,,,,,,0.05,2,2.2588,0,4,4,4,1,rewatch old sitcoms with my cousins and quoting every line,go to bodega at night for a random snack run,0.05,0.05,4.4,0,,,,
,,65f54bfd77f3db0d47887b37,6685aa9113c938e83b4f1ea0,672c10df22a798406efdceb7,2024-11-06_20h08.10.617,WTP_SM_Choice,2022.2.1,Win32,60.24096386,,,,,,,2,,5,2.72,3.28,,0,99,99,99,1,100,Riley,Rej,Participant_Images/65f54bfd77f3db0d47887b37/65f54bfd77f3db0d47887b37_Images/65f54bfd77f3db0d47887b37_Image_10.jpeg,did not like,1.672012706,,,,,,,,,,,,,,,,,,,space,4.9676,,
,,65f54bfd77f3db0d47887b37,6685aa9113c938e83b4f1ea0,672c10df22a798406efdceb7,2024-11-06_20h08.10.617,WTP_SM_Choice,2022.2.1,Win32,60.24096386,,,,,,,,,,,,,,,,,,,,,,,,,,,,,,,,,,,,,,,,,,,,space,2.712
