endwelcomescreen_keys.keys,endwelcomescreen_keys.rt,participant,date,expName,psychopyVersion,OS,frameRate,endinstructionscreen_keys.keys,endinstructionscreen_keys.rt,endpartnermatch_keys.keys,endpartnermatch_keys.rt,sharenextphoto_key.keys,sharenextphoto_key.rt,salience_rating,key_resp.keys,stress_level,subtract_bonus,TOTAL_TASK_BONUS,stresslevel_keypress.keys,entiretaskloop.thisRepN,entiretaskloop.thisTrialN,entiretaskloop.thisN,entiretaskloop.thisIndex,entiretaskloop.ran,TrialNumber,Partner,Condition,Photos,Feedback,FeedbackWait,WTP_ins_keys1.keys,WTP_ins_keys1.rt,WTP_ins_keys2.keys,WTP_ins_keys2.rt,decision_price,responses.keys,responses.rt,WTPTaskLoop.thisRepN,WTPTaskLoop.thisTrialN,WTPTaskLoop.thisN,WTPTaskLoop.thisIndex,WTPTaskLoop.ran,right,left,leftmoney,rightmoney,WTP_ITI,Resume_keys.keys,Resume_keys.rt,end_screen_keys.keys,end_screen_keys.rt
space,1.327,65f7fbb178b358ac91094fec,2024-07-04_09h05.17.426,WTP_SM_Choice,2022.2.1,Win32,59.88023952,,,,,,,,,,,,,,,,,,,,,,,,,,,,,,,,,,,,,,,,,,,,
,,65f7fbb178b358ac91094fec,2024-07-04_09h05.17.426,WTP_SM_Choice,2022.2.1,Win32,59.88023952,space,0.8886,,,,,,,,,,,,,,,,,,,,,,,,,,,,,,,,,,,,,,,,,,
,,65f7fbb178b358ac91094fec,2024-07-04_09h05.17.426,WTP_SM_Choice,2022.2.1,Win32,59.88023952,,,space,9.3663,space,1.5339,NAN,,NAN,0,6,,0,0,0,0,1,1,Riley,Acc,Participant_Images/65f7fbb178b358ac91094fec/65f7fbb178b358ac91094fec_Images/65f7fbb178b358ac91094fec_Image_15.jpeg,did not like,3.613205605,,,,,,,,,,,,,,,,,,,,,
,,65f7fbb178b358ac91094fec,2024-07-04_09h05.17.426,WTP_SM_Choice,2022.2.1,Win32,59.88023952,,,,,space,2.5886,NAN,,NAN,0,6,,0,1,1,1,1,2,Riley,Acc,Participant_Images/65f7fbb178b358ac91094fec/65f7fbb178b358ac91094fec_Images/65f7fbb178b358ac91094fec_Image_16.jpeg,liked,4.988446431,,,,,,,,,,,,,,,,,,,,,
,,65f7fbb178b358ac91094fec,2024-07-04_09h05.17.426,WTP_SM_Choice,2022.2.1,Win32,59.88023952,,,,,space,1.368,NAN,,NAN,0,6,,0,2,2,2,1,3,Riley,Acc,Participant_Images/65f7fbb178b358ac91094fec/65f7fbb178b358ac91094fec_Images/65f7fbb178b358ac91094fec_Image_3.jpeg,liked,3.470791822,,,,,,,,,,,,,,,,,,,,,
,,65f7fbb178b358ac91094fec,2024-07-04_09h05.17.426,WTP_SM_Choice,2022.2.1,Win32,59.88023952,,,,,space,1.3903,NAN,,NAN,0,6,,0,3,3,3,1,4,Riley,Acc,Participant_Images/65f7fbb178b358ac91094fec/65f7fbb178b358ac91094fec_Images/65f7fbb178b358ac91094fec_Image_21.jpeg,did not like,3.820572462,,,,,,,,,,,,,,,,,,,,,
,,65f7fbb178b358ac91094fec,2024-07-04_09h05.17.426,WTP_SM_Choice,2022.2.1,Win32,59.88023952,,,,,,,,,,,,,,,,,,1,,,,,,space,3.0076,space,2.5428,0.01,1,0.9788,0,0,0,0,1,Design layouts,Share a homemade dinner with close friends,0.01,0.01,4.4,,,,
,,65f7fbb178b358ac91094fec,2024-07-04_09h05.17.426,WTP_SM_Choice,2022.2.1,Win32,59.88023952,,,,,,,,,,,,,,,,,,2,,,,,,,,,,0.01,2,0.9435,0,1,1,1,1,Exercise my body,Enjoy a beach day with my family,0.02,0.01,8.8,,,,
,,65f7fbb178b358ac91094fec,2024-07-04_09h05.17.426,WTP_SM_Choice,2022.2.1,Win32,59.88023952,,,,,,,,,,,,,,,,,,3,,,,,,,,,,0.01,2,0.9587,0,2,2,2,1,Read a book,Enjoy a beach day with my family,0.03,0.01,3.3,,,,
,,65f7fbb178b358ac91094fec,2024-07-04_09h05.17.426,WTP_SM_Choice,2022.2.1,Win32,59.88023952,,,,,,,,,,,,,,,,,,4,,,,,,,,,,0.01,2,1.2344,0,3,3,3,1,Read a book,Go on adventure with friends,0.04,0.01,1.1,,,,
,,65f7fbb178b358ac91094fec,2024-07-04_09h05.17.426,WTP_SM_Choice,2022.2.1,Win32,59.88023952,,,,,,,,,,,,,,,,,,5,,,,,,,,,,0.01,2,0.7589,0,4,4,4,1,Meditate,Watch movies at the theatre with my family,0.05,0.01,1.1,,,,
,,65f7fbb178b358ac91094fec,2024-07-04_09h05.17.426,WTP_SM_Choice,2022.2.1,Win32,59.88023952,,,,,,,NAN,,NAN,0.05,5.95,,0,4,4,4,1,5,Riley,Acc,Participant_Images/65f7fbb178b358ac91094fec/65f7fbb178b358ac91094fec_Images/65f7fbb178b358ac91094fec_Image_6.jpeg,liked,2.455989137,,,,,,,,,,,,,,,,,,,,,
,,65f7fbb178b358ac91094fec,2024-07-04_09h05.17.426,WTP_SM_Choice,2022.2.1,Win32,59.88023952,,,,,space,2.5196,NAN,,NAN,0.05,5.95,,0,5,5,5,1,6,Riley,Acc,Participant_Images/65f7fbb178b358ac91094fec/65f7fbb178b358ac91094fec_Images/65f7fbb178b358ac91094fec_Image_4.jpeg,liked,3.79605092,,,,,,,,,,,,,,,,,,,,,
,,65f7fbb178b358ac91094fec,2024-07-04_09h05.17.426,WTP_SM_Choice,2022.2.1,Win32,59.88023952,,,,,space,1.2947,NAN,,NAN,0.05,5.95,,0,6,6,6,1,7,Riley,Acc,Participant_Images/65f7fbb178b358ac91094fec/65f7fbb178b358ac91094fec_Images/65f7fbb178b358ac91094fec_Image_7.jpeg,did not like,3.562416326,,,,,,,,,,,,,,,,,,,,,
,,65f7fbb178b358ac91094fec,2024-07-04_09h05.17.426,WTP_SM_Choice,2022.2.1,Win32,59.88023952,,,,,space,2.1576,NAN,,NAN,0.05,5.95,,0,7,7,7,1,8,Riley,Acc,Participant_Images/65f7fbb178b358ac91094fec/65f7fbb178b358ac91094fec_Images/65f7fbb178b358ac91094fec_Image_20.jpeg,liked,2.843822497,,,,,,,,,,,,,,,,,,,,,
,,65f7fbb178b358ac91094fec,2024-07-04_09h05.17.426,WTP_SM_Choice,2022.2.1,Win32,59.88023952,,,,,space,2.5014,NAN,,NAN,0.05,5.95,,0,8,8,8,1,9,Riley,Acc,Participant_Images/65f7fbb178b358ac91094fec/65f7fbb178b358ac91094fec_Images/65f7fbb178b358ac91094fec_Image_17.jpeg,did not like,3.546495948,,,,,,,,,,,,,,,,,,,,,
,,65f7fbb178b358ac91094fec,2024-07-04_09h05.17.426,WTP_SM_Choice,2022.2.1,Win32,59.88023952,,,,,,,,,,,,,,,,,,6,,,,,,space,6.1128,space,3.6488,0.01,1,1.0247,0,0,0,0,1,Take photos,Celebrate holiday traditions with extended family during festive gatherings,0.01,0.02,3.3,,,,
,,65f7fbb178b358ac91094fec,2024-07-04_09h05.17.426,WTP_SM_Choice,2022.2.1,Win32,59.88023952,,,,,,,,,,,,,,,,,,7,,,,,,,,,,0.02,2,3.6258,0,1,1,1,1,Read a book,Watch movies at the theatre with my family,0.02,0.02,1.1,,,,
,,65f7fbb178b358ac91094fec,2024-07-04_09h05.17.426,WTP_SM_Choice,2022.2.1,Win32,59.88023952,,,,,,,,,,,,,,,,,,8,,,,,,,,,,0.02,2,8.3142,0,2,2,2,1,Design layouts,Host game nights with friends,0.03,0.02,1.1,,,,
,,65f7fbb178b358ac91094fec,2024-07-04_09h05.17.426,WTP_SM_Choice,2022.2.1,Win32,59.88023952,,,,,,,,,,,,,,,,,,9,,,,,,,,,,0.02,2,1.5058,0,3,3,3,1,Meditate,Have an indoor dinner with friends,0.04,0.02,4.4,,,,
,,65f7fbb178b358ac91094fec,2024-07-04_09h05.17.426,WTP_SM_Choice,2022.2.1,Win32,59.88023952,,,,,,,,,,,,,,,,,,10,,,,,,,,,,0.02,2,2.3695,0,4,4,4,1,Prepare a meal,Host game nights with friends,0.05,0.02,1.1,,,,
,,65f7fbb178b358ac91094fec,2024-07-04_09h05.17.426,WTP_SM_Choice,2022.2.1,Win32,59.88023952,,,,,,,NAN,,NAN,0.14,5.86,,0,9,9,9,1,10,Riley,Acc,Participant_Images/65f7fbb178b358ac91094fec/65f7fbb178b358ac91094fec_Images/65f7fbb178b358ac91094fec_Image_24.jpeg,liked,1.672012706,,,,,,,,,,,,,,,,,,,,,
,,65f7fbb178b358ac91094fec,2024-07-04_09h05.17.426,WTP_SM_Choice,2022.2.1,Win32,59.88023952,,,,,space,4.4136,NAN,,NAN,0.14,5.86,,0,10,10,10,1,11,Riley,Acc,Participant_Images/65f7fbb178b358ac91094fec/65f7fbb178b358ac91094fec_Images/65f7fbb178b358ac91094fec_Image_25.jpeg,liked,4.942172136,,,,,,,,,,,,,,,,,,,,,
,,65f7fbb178b358ac91094fec,2024-07-04_09h05.17.426,WTP_SM_Choice,2022.2.1,Win32,59.88023952,,,,,space,2.1147,NAN,,NAN,0.14,5.86,,0,11,11,11,1,12,Riley,Acc,Participant_Images/65f7fbb178b358ac91094fec/65f7fbb178b358ac91094fec_Images/65f7fbb178b358ac91094fec_Image_13.jpeg,liked,2.50187214,,,,,,,,,,,,,,,,,,,,,
,,65f7fbb178b358ac91094fec,2024-07-04_09h05.17.426,WTP_SM_Choice,2022.2.1,Win32,59.88023952,,,,,space,2.5078,NAN,,NAN,0.14,5.86,,0,12,12,12,1,13,Riley,Acc,Participant_Images/65f7fbb178b358ac91094fec/65f7fbb178b358ac91094fec_Images/65f7fbb178b358ac91094fec_Image_5.jpeg,liked,2.071164779,,,,,,,,,,,,,,,,,,,,,
,,65f7fbb178b358ac91094fec,2024-07-04_09h05.17.426,WTP_SM_Choice,2022.2.1,Win32,59.88023952,,,,,space,4.8403,NAN,,NAN,0.14,5.86,,0,13,13,13,1,14,Riley,Acc,Participant_Images/65f7fbb178b358ac91094fec/65f7fbb178b358ac91094fec_Images/65f7fbb178b358ac91094fec_Image_2.jpeg,liked,5.336503566,,,,,,,,,,,,,,,,,,,,,
,,65f7fbb178b358ac91094fec,2024-07-04_09h05.17.426,WTP_SM_Choice,2022.2.1,Win32,59.88023952,,,,,,,,,,,,,,,,,,11,,,,,,space,7.0802,space,16.8441,0.01,1,2.2834,0,0,0,0,1,Prepare a meal,Go on weekend road trips with friends,0.01,0.03,3.3,,,,
,,65f7fbb178b358ac91094fec,2024-07-04_09h05.17.426,WTP_SM_Choice,2022.2.1,Win32,59.88023952,,,,,,,,,,,,,,,,,,12,,,,,,,,,,,,,0,1,1,1,1,Watch football,Celebrate holiday traditions with extended family during festive gatherings,0.02,0.03,4.4,,,,
,,65f7fbb178b358ac91094fec,2024-07-04_09h05.17.426,WTP_SM_Choice,2022.2.1,Win32,59.88023952,,,,,,,,,,,,,,,,,,13,,,,,,,,,,0.03,1,1.6428,0,2,2,2,1,Watch football,Play board games with friends,0.03,0.03,1.1,,,,
,,65f7fbb178b358ac91094fec,2024-07-04_09h05.17.426,WTP_SM_Choice,2022.2.1,Win32,59.88023952,,,,,,,,,,,,,,,,,,14,,,,,,,,,,0.03,2,1.359,0,3,3,3,1,Clean the garden,Have an indoor dinner with friends,0.04,0.03,3.3,,,,
,,65f7fbb178b358ac91094fec,2024-07-04_09h05.17.426,WTP_SM_Choice,2022.2.1,Win32,59.88023952,,,,,,,,,,,,,,,,,,15,,,,,,,,,,0.03,2,1.1551,0,4,4,4,1,Prepare a meal,Share a homemade dinner with close friends,0.05,0.03,4.4,,,,
,,65f7fbb178b358ac91094fec,2024-07-04_09h05.17.426,WTP_SM_Choice,2022.2.1,Win32,59.88023952,,,,,,,NAN,,NAN,0.24,5.76,,0,14,14,14,1,15,Riley,Acc,Participant_Images/65f7fbb178b358ac91094fec/65f7fbb178b358ac91094fec_Images/65f7fbb178b358ac91094fec_Image_23.jpeg,liked,2.642157193,,,,,,,,,,,,,,,,,,,,,
,,65f7fbb178b358ac91094fec,2024-07-04_09h05.17.426,WTP_SM_Choice,2022.2.1,Win32,59.88023952,,,,,space,1.4031,NAN,,NAN,0.24,5.76,,0,15,15,15,1,16,Riley,Acc,Participant_Images/65f7fbb178b358ac91094fec/65f7fbb178b358ac91094fec_Images/65f7fbb178b358ac91094fec_Image_19.jpeg,did not like,4.456234322,,,,,,,,,,,,,,,,,,,,,
,,65f7fbb178b358ac91094fec,2024-07-04_09h05.17.426,WTP_SM_Choice,2022.2.1,Win32,59.88023952,,,,,space,41.1745,NAN,,NAN,0.24,5.76,,0,16,16,16,1,17,Riley,Acc,Participant_Images/65f7fbb178b358ac91094fec/65f7fbb178b358ac91094fec_Images/65f7fbb178b358ac91094fec_Image_18.jpeg,liked,4.438512181,,,,,,,,,,,,,,,,,,,,,
,,65f7fbb178b358ac91094fec,2024-07-04_09h05.17.426,WTP_SM_Choice,2022.2.1,Win32,59.88023952,,,,,space,1.2005,NAN,,NAN,0.24,5.76,,0,17,17,17,1,18,Riley,Acc,Participant_Images/65f7fbb178b358ac91094fec/65f7fbb178b358ac91094fec_Images/65f7fbb178b358ac91094fec_Image_12.jpeg,liked,2.682944783,,,,,,,,,,,,,,,,,,,,,
,,65f7fbb178b358ac91094fec,2024-07-04_09h05.17.426,WTP_SM_Choice,2022.2.1,Win32,59.88023952,,,,,space,0.9811,NAN,,NAN,0.24,5.76,,0,18,18,18,1,19,Riley,Acc,Participant_Images/65f7fbb178b358ac91094fec/65f7fbb178b358ac91094fec_Images/65f7fbb178b358ac91094fec_Image_10.jpeg,liked,4.51984296,,,,,,,,,,,,,,,,,,,,,
,,65f7fbb178b358ac91094fec,2024-07-04_09h05.17.426,WTP_SM_Choice,2022.2.1,Win32,59.88023952,,,,,,,,,,,,,,,,,,16,,,,,,space,1.063,space,1.142,0.01,1,1.4818,0,0,0,0,1,Read a book,Share a homemade dinner with close friends,0.01,0.04,1.1,,,,
,,65f7fbb178b358ac91094fec,2024-07-04_09h05.17.426,WTP_SM_Choice,2022.2.1,Win32,59.88023952,,,,,,,,,,,,,,,,,,17,,,,,,,,,,0.02,1,1.4494,0,1,1,1,1,Prepare a meal,Watch movies at the theatre with my family,0.02,0.04,8.8,,,,
,,65f7fbb178b358ac91094fec,2024-07-04_09h05.17.426,WTP_SM_Choice,2022.2.1,Win32,59.88023952,,,,,,,,,,,,,,,,,,18,,,,,,,,,,0.03,1,1.4874,0,2,2,2,1,Read a book,Have an indoor dinner with friends,0.03,0.04,3.3,,,,
,,65f7fbb178b358ac91094fec,2024-07-04_09h05.17.426,WTP_SM_Choice,2022.2.1,Win32,59.88023952,,,,,,,,,,,,,,,,,,19,,,,,,,,,,0.04,1,1.6948,0,3,3,3,1,Take a walk,Share a homemade dinner with close friends,0.04,0.04,3.3,,,,
,,65f7fbb178b358ac91094fec,2024-07-04_09h05.17.426,WTP_SM_Choice,2022.2.1,Win32,59.88023952,,,,,,,,,,,,,,,,,,20,,,,,,,,,,0.04,2,1.9988,0,4,4,4,1,Take photos,Enjoy a beach day with my family,0.05,0.04,1.1,,,,
,,65f7fbb178b358ac91094fec,2024-07-04_09h05.17.426,WTP_SM_Choice,2022.2.1,Win32,59.88023952,,,,,,,NAN,,NAN,0.38,5.62,,0,19,19,19,1,20,Riley,Acc,Participant_Images/65f7fbb178b358ac91094fec/65f7fbb178b358ac91094fec_Images/65f7fbb178b358ac91094fec_Image_9.jpeg,liked,3.195382774,,,,,,,,,,,,,,,,,,,,,
,,65f7fbb178b358ac91094fec,2024-07-04_09h05.17.426,WTP_SM_Choice,2022.2.1,Win32,59.88023952,,,,,space,2.6144,NAN,,NAN,0.38,5.62,,0,20,20,20,1,21,Riley,Acc,Participant_Images/65f7fbb178b358ac91094fec/65f7fbb178b358ac91094fec_Images/65f7fbb178b358ac91094fec_Image_1.jpeg,liked,1.779333479,,,,,,,,,,,,,,,,,,,,,
,,65f7fbb178b358ac91094fec,2024-07-04_09h05.17.426,WTP_SM_Choice,2022.2.1,Win32,59.88023952,,,,,space,0.9661,NAN,,NAN,0.38,5.62,,0,21,21,21,1,22,Riley,Acc,Participant_Images/65f7fbb178b358ac91094fec/65f7fbb178b358ac91094fec_Images/65f7fbb178b358ac91094fec_Image_22.jpeg,liked,4.312468682,,,,,,,,,,,,,,,,,,,,,
,,65f7fbb178b358ac91094fec,2024-07-04_09h05.17.426,WTP_SM_Choice,2022.2.1,Win32,59.88023952,,,,,space,1.188,NAN,,NAN,0.38,5.62,,0,22,22,22,1,23,Riley,Acc,Participant_Images/65f7fbb178b358ac91094fec/65f7fbb178b358ac91094fec_Images/65f7fbb178b358ac91094fec_Image_11.jpeg,did not like,4.940433059,,,,,,,,,,,,,,,,,,,,,
,,65f7fbb178b358ac91094fec,2024-07-04_09h05.17.426,WTP_SM_Choice,2022.2.1,Win32,59.88023952,,,,,space,1.3011,NAN,,NAN,0.38,5.62,,0,23,23,23,1,24,Riley,Acc,Participant_Images/65f7fbb178b358ac91094fec/65f7fbb178b358ac91094fec_Images/65f7fbb178b358ac91094fec_Image_8.jpeg,liked,2.7105123,,,,,,,,,,,,,,,,,,,,,
,,65f7fbb178b358ac91094fec,2024-07-04_09h05.17.426,WTP_SM_Choice,2022.2.1,Win32,59.88023952,,,,,,,,,,,,,,,,,,21,,,,,,space,1.6162,space,2.9344,0.01,1,1.619,0,0,0,0,1,Clean the garden,Go on weekend road trips with friends,0.01,0.05,8.8,,,,
,,65f7fbb178b358ac91094fec,2024-07-04_09h05.17.426,WTP_SM_Choice,2022.2.1,Win32,59.88023952,,,,,,,,,,,,,,,,,,22,,,,,,,,,,0.02,1,1.8558,0,1,1,1,1,Clean the garden,Play board games with friends,0.02,0.05,4.4,,,,
,,65f7fbb178b358ac91094fec,2024-07-04_09h05.17.426,WTP_SM_Choice,2022.2.1,Win32,59.88023952,,,,,,,,,,,,,,,,,,23,,,,,,,,,,0.03,1,1.3129,0,2,2,2,1,Prepare a meal,Have an indoor dinner with friends,0.03,0.05,1.1,,,,
,,65f7fbb178b358ac91094fec,2024-07-04_09h05.17.426,WTP_SM_Choice,2022.2.1,Win32,59.88023952,,,,,,,,,,,,,,,,,,24,,,,,,,,,,0.04,1,1.5738,0,3,3,3,1,Design layouts,Go on adventure with friends,0.04,0.05,4.4,,,,
,,65f7fbb178b358ac91094fec,2024-07-04_09h05.17.426,WTP_SM_Choice,2022.2.1,Win32,59.88023952,,,,,,,,,,,,,,,,,,25,,,,,,,,,,0.05,1,1.6606,0,4,4,4,1,Take a walk,Go on adventure with friends,0.05,0.05,3.3,,,,
,,65f7fbb178b358ac91094fec,2024-07-04_09h05.17.426,WTP_SM_Choice,2022.2.1,Win32,59.88023952,,,,,,,3,,9,0.53,5.47,,0,24,24,24,1,25,Riley,Acc,Participant_Images/65f7fbb178b358ac91094fec/65f7fbb178b358ac91094fec_Images/65f7fbb178b358ac91094fec_Image_14.jpeg,did not like,3.602308302,,,,,,,,,,,,,,,,,,space,1.3063,,
,,65f7fbb178b358ac91094fec,2024-07-04_09h05.17.426,WTP_SM_Choice,2022.2.1,Win32,59.88023952,,,space,9.2111,space,1.5969,NAN,,NAN,0.53,5.47,,0,25,25,25,1,26,Charlie,Rej,Participant_Images/65f7fbb178b358ac91094fec/65f7fbb178b358ac91094fec_Images/65f7fbb178b358ac91094fec_Image_8.jpeg,liked,4.106391878,,,,,,,,,,,,,,,,,,,,,
,,65f7fbb178b358ac91094fec,2024-07-04_09h05.17.426,WTP_SM_Choice,2022.2.1,Win32,59.88023952,,,,,space,1.2372,NAN,,NAN,0.53,5.47,,0,26,26,26,1,27,Charlie,Rej,Participant_Images/65f7fbb178b358ac91094fec/65f7fbb178b358ac91094fec_Images/65f7fbb178b358ac91094fec_Image_7.jpeg,did not like,3.799433026,,,,,,,,,,,,,,,,,,,,,
,,65f7fbb178b358ac91094fec,2024-07-04_09h05.17.426,WTP_SM_Choice,2022.2.1,Win32,59.88023952,,,,,space,1.1153,NAN,,NAN,0.53,5.47,,0,27,27,27,1,28,Charlie,Rej,Participant_Images/65f7fbb178b358ac91094fec/65f7fbb178b358ac91094fec_Images/65f7fbb178b358ac91094fec_Image_24.jpeg,liked,5.246980764,,,,,,,,,,,,,,,,,,,,,
,,65f7fbb178b358ac91094fec,2024-07-04_09h05.17.426,WTP_SM_Choice,2022.2.1,Win32,59.88023952,,,,,space,1.5306,NAN,,NAN,0.53,5.47,,0,28,28,28,1,29,Charlie,Rej,Participant_Images/65f7fbb178b358ac91094fec/65f7fbb178b358ac91094fec_Images/65f7fbb178b358ac91094fec_Image_1.jpeg,liked,3.30081769,,,,,,,,,,,,,,,,,,,,,
,,65f7fbb178b358ac91094fec,2024-07-04_09h05.17.426,WTP_SM_Choice,2022.2.1,Win32,59.88023952,,,,,,,,,,,,,,,,,,26,,,,,,space,1.627,space,1.2038,0.01,1,1.5239,0,0,0,0,1,Take photos,Share a homemade dinner with close friends,0.01,0.01,4.4,,,,
,,65f7fbb178b358ac91094fec,2024-07-04_09h05.17.426,WTP_SM_Choice,2022.2.1,Win32,59.88023952,,,,,,,,,,,,,,,,,,27,,,,,,,,,,0.01,2,1.5454,0,1,1,1,1,Watch football,Share a homemade dinner with close friends,0.02,0.01,3.3,,,,
,,65f7fbb178b358ac91094fec,2024-07-04_09h05.17.426,WTP_SM_Choice,2022.2.1,Win32,59.88023952,,,,,,,,,,,,,,,,,,28,,,,,,,,,,0.01,2,2.6304,0,2,2,2,1,Take in fresh air,Go on adventure with friends,0.03,0.01,3.3,,,,
,,65f7fbb178b358ac91094fec,2024-07-04_09h05.17.426,WTP_SM_Choice,2022.2.1,Win32,59.88023952,,,,,,,,,,,,,,,,,,29,,,,,,,,,,0.01,2,1.8902,0,3,3,3,1,Meditate,Attend outdoor music festivals with my partner,0.04,0.01,4.4,,,,
,,65f7fbb178b358ac91094fec,2024-07-04_09h05.17.426,WTP_SM_Choice,2022.2.1,Win32,59.88023952,,,,,,,,,,,,,,,,,,30,,,,,,,,,,0.01,2,1.8992,0,4,4,4,1,Meditate,Go on adventure with friends,0.05,0.01,8.8,,,,
,,65f7fbb178b358ac91094fec,2024-07-04_09h05.17.426,WTP_SM_Choice,2022.2.1,Win32,59.88023952,,,,,,,NAN,,NAN,0.58,5.42,,0,29,29,29,1,30,Charlie,Rej,Participant_Images/65f7fbb178b358ac91094fec/65f7fbb178b358ac91094fec_Images/65f7fbb178b358ac91094fec_Image_13.jpeg,did not like,1.661473164,,,,,,,,,,,,,,,,,,,,,
,,65f7fbb178b358ac91094fec,2024-07-04_09h05.17.426,WTP_SM_Choice,2022.2.1,Win32,59.88023952,,,,,space,3.4193,NAN,,NAN,0.58,5.42,,0,30,30,30,1,31,Charlie,Rej,Participant_Images/65f7fbb178b358ac91094fec/65f7fbb178b358ac91094fec_Images/65f7fbb178b358ac91094fec_Image_3.jpeg,did not like,3.613205605,,,,,,,,,,,,,,,,,,,,,
,,65f7fbb178b358ac91094fec,2024-07-04_09h05.17.426,WTP_SM_Choice,2022.2.1,Win32,59.88023952,,,,,space,2.3295,NAN,,NAN,0.58,5.42,,0,31,31,31,1,32,Charlie,Rej,Participant_Images/65f7fbb178b358ac91094fec/65f7fbb178b358ac91094fec_Images/65f7fbb178b358ac91094fec_Image_10.jpeg,liked,4.988446431,,,,,,,,,,,,,,,,,,,,,
,,65f7fbb178b358ac91094fec,2024-07-04_09h05.17.426,WTP_SM_Choice,2022.2.1,Win32,59.88023952,,,,,space,1.9294,NAN,,NAN,0.58,5.42,,0,32,32,32,1,33,Charlie,Rej,Participant_Images/65f7fbb178b358ac91094fec/65f7fbb178b358ac91094fec_Images/65f7fbb178b358ac91094fec_Image_2.jpeg,did not like,3.470791822,,,,,,,,,,,,,,,,,,,,,
,,65f7fbb178b358ac91094fec,2024-07-04_09h05.17.426,WTP_SM_Choice,2022.2.1,Win32,59.88023952,,,,,space,0.9848,NAN,,NAN,0.58,5.42,,0,33,33,33,1,34,Charlie,Rej,Participant_Images/65f7fbb178b358ac91094fec/65f7fbb178b358ac91094fec_Images/65f7fbb178b358ac91094fec_Image_16.jpeg,liked,3.820572462,,,,,,,,,,,,,,,,,,,,,
,,65f7fbb178b358ac91094fec,2024-07-04_09h05.17.426,WTP_SM_Choice,2022.2.1,Win32,59.88023952,,,,,,,,,,,,,,,,,,31,,,,,,space,246.1695,space,1.7659,0.01,1,1.1716,0,0,0,0,1,Take photos,Go on weekend road trips with friends,0.01,0.02,8.8,,,,
,,65f7fbb178b358ac91094fec,2024-07-04_09h05.17.426,WTP_SM_Choice,2022.2.1,Win32,59.88023952,,,,,,,,,,,,,,,,,,32,,,,,,,,,,0.02,2,1.7087,0,1,1,1,1,Take photos,Watch movies at the theatre with my family,0.02,0.02,1.1,,,,
,,65f7fbb178b358ac91094fec,2024-07-04_09h05.17.426,WTP_SM_Choice,2022.2.1,Win32,59.88023952,,,,,,,,,,,,,,,,,,33,,,,,,,,,,0.02,2,1.8722,0,2,2,2,1,Meditate,Go on weekend road trips with friends,0.03,0.02,4.4,,,,
,,65f7fbb178b358ac91094fec,2024-07-04_09h05.17.426,WTP_SM_Choice,2022.2.1,Win32,59.88023952,,,,,,,,,,,,,,,,,,34,,,,,,,,,,0.02,2,1.4393,0,3,3,3,1,Design layouts,Play board games with friends,0.04,0.02,3.3,,,,
,,65f7fbb178b358ac91094fec,2024-07-04_09h05.17.426,WTP_SM_Choice,2022.2.1,Win32,59.88023952,,,,,,,,,,,,,,,,,,35,,,,,,,,,,0.02,2,2.0573,0,4,4,4,1,Watch football,Watch movies at the theatre with my family,0.05,0.02,1.1,,,,
,,65f7fbb178b358ac91094fec,2024-07-04_09h05.17.426,WTP_SM_Choice,2022.2.1,Win32,59.88023952,,,,,,,NAN,,NAN,0.67,5.33,,0,34,34,34,1,35,Charlie,Rej,Participant_Images/65f7fbb178b358ac91094fec/65f7fbb178b358ac91094fec_Images/65f7fbb178b358ac91094fec_Image_11.jpeg,did not like,2.455989137,,,,,,,,,,,,,,,,,,,,,
,,65f7fbb178b358ac91094fec,2024-07-04_09h05.17.426,WTP_SM_Choice,2022.2.1,Win32,59.88023952,,,,,space,2.6525,NAN,,NAN,0.67,5.33,,0,35,35,35,1,36,Charlie,Rej,Participant_Images/65f7fbb178b358ac91094fec/65f7fbb178b358ac91094fec_Images/65f7fbb178b358ac91094fec_Image_22.jpeg,did not like,3.79605092,,,,,,,,,,,,,,,,,,,,,
,,65f7fbb178b358ac91094fec,2024-07-04_09h05.17.426,WTP_SM_Choice,2022.2.1,Win32,59.88023952,,,,,space,3.6178,NAN,,NAN,0.67,5.33,,0,36,36,36,1,37,Charlie,Rej,Participant_Images/65f7fbb178b358ac91094fec/65f7fbb178b358ac91094fec_Images/65f7fbb178b358ac91094fec_Image_23.jpeg,did not like,3.562416326,,,,,,,,,,,,,,,,,,,,,
,,65f7fbb178b358ac91094fec,2024-07-04_09h05.17.426,WTP_SM_Choice,2022.2.1,Win32,59.88023952,,,,,space,1.6243,NAN,,NAN,0.67,5.33,,0,37,37,37,1,38,Charlie,Rej,Participant_Images/65f7fbb178b358ac91094fec/65f7fbb178b358ac91094fec_Images/65f7fbb178b358ac91094fec_Image_14.jpeg,liked,2.843822497,,,,,,,,,,,,,,,,,,,,,
,,65f7fbb178b358ac91094fec,2024-07-04_09h05.17.426,WTP_SM_Choice,2022.2.1,Win32,59.88023952,,,,,space,6.3187,NAN,,NAN,0.67,5.33,,0,38,38,38,1,39,Charlie,Rej,Participant_Images/65f7fbb178b358ac91094fec/65f7fbb178b358ac91094fec_Images/65f7fbb178b358ac91094fec_Image_17.jpeg,did not like,3.546495948,,,,,,,,,,,,,,,,,,,,,
,,65f7fbb178b358ac91094fec,2024-07-04_09h05.17.426,WTP_SM_Choice,2022.2.1,Win32,59.88023952,,,,,,,,,,,,,,,,,,36,,,,,,space,45.7272,space,4.6629,0.01,1,1.6251,0,0,0,0,1,Design layouts,Have an indoor dinner with friends,0.01,0.03,3.3,,,,
,,65f7fbb178b358ac91094fec,2024-07-04_09h05.17.426,WTP_SM_Choice,2022.2.1,Win32,59.88023952,,,,,,,,,,,,,,,,,,37,,,,,,,,,,0.02,1,3.3441,0,1,1,1,1,Take a walk,Celebrate holiday traditions with extended family during festive gatherings,0.02,0.03,1.1,,,,
,,65f7fbb178b358ac91094fec,2024-07-04_09h05.17.426,WTP_SM_Choice,2022.2.1,Win32,59.88023952,,,,,,,,,,,,,,,,,,38,,,,,,,,,,0.03,2,8.8934,0,2,2,2,1,Clean the garden,Enjoy a beach day with my family,0.03,0.03,1.1,,,,
,,65f7fbb178b358ac91094fec,2024-07-04_09h05.17.426,WTP_SM_Choice,2022.2.1,Win32,59.88023952,,,,,,,,,,,,,,,,,,39,,,,,,,,,,0.03,2,6.9301,0,3,3,3,1,Take a walk,Host game nights with friends,0.04,0.03,3.3,,,,
,,65f7fbb178b358ac91094fec,2024-07-04_09h05.17.426,WTP_SM_Choice,2022.2.1,Win32,59.88023952,,,,,,,,,,,,,,,,,,40,,,,,,,,,,0.03,2,1.4246,0,4,4,4,1,Clean the garden,Celebrate holiday traditions with extended family during festive gatherings,0.05,0.03,4.4,,,,
,,65f7fbb178b358ac91094fec,2024-07-04_09h05.17.426,WTP_SM_Choice,2022.2.1,Win32,59.88023952,,,,,,,NAN,,NAN,0.79,5.21,,0,39,39,39,1,40,Charlie,Rej,Participant_Images/65f7fbb178b358ac91094fec/65f7fbb178b358ac91094fec_Images/65f7fbb178b358ac91094fec_Image_12.jpeg,did not like,1.672012706,,,,,,,,,,,,,,,,,,,,,
,,65f7fbb178b358ac91094fec,2024-07-04_09h05.17.426,WTP_SM_Choice,2022.2.1,Win32,59.88023952,,,,,space,28.3736,NAN,,NAN,0.79,5.21,,0,40,40,40,1,41,Charlie,Rej,Participant_Images/65f7fbb178b358ac91094fec/65f7fbb178b358ac91094fec_Images/65f7fbb178b358ac91094fec_Image_20.jpeg,did not like,4.942172136,,,,,,,,,,,,,,,,,,,,,
,,65f7fbb178b358ac91094fec,2024-07-04_09h05.17.426,WTP_SM_Choice,2022.2.1,Win32,59.88023952,,,,,space,4.5993,NAN,,NAN,0.79,5.21,,0,41,41,41,1,42,Charlie,Rej,Participant_Images/65f7fbb178b358ac91094fec/65f7fbb178b358ac91094fec_Images/65f7fbb178b358ac91094fec_Image_5.jpeg,did not like,2.50187214,,,,,,,,,,,,,,,,,,,,,
,,65f7fbb178b358ac91094fec,2024-07-04_09h05.17.426,WTP_SM_Choice,2022.2.1,Win32,59.88023952,,,,,space,1.2877,NAN,,NAN,0.79,5.21,,0,42,42,42,1,43,Charlie,Rej,Participant_Images/65f7fbb178b358ac91094fec/65f7fbb178b358ac91094fec_Images/65f7fbb178b358ac91094fec_Image_21.jpeg,did not like,2.071164779,,,,,,,,,,,,,,,,,,,,,
,,65f7fbb178b358ac91094fec,2024-07-04_09h05.17.426,WTP_SM_Choice,2022.2.1,Win32,59.88023952,,,,,space,1.6898,NAN,,NAN,0.79,5.21,,0,43,43,43,1,44,Charlie,Rej,Participant_Images/65f7fbb178b358ac91094fec/65f7fbb178b358ac91094fec_Images/65f7fbb178b358ac91094fec_Image_25.jpeg,did not like,5.336503566,,,,,,,,,,,,,,,,,,,,,
,,65f7fbb178b358ac91094fec,2024-07-04_09h05.17.426,WTP_SM_Choice,2022.2.1,Win32,59.88023952,,,,,,,,,,,,,,,,,,41,,,,,,space,2.2325,space,98.0136,0.01,1,1.4847,0,0,0,0,1,Read a book,Go on weekend road trips with friends,0.01,0.04,1.1,,,,
,,65f7fbb178b358ac91094fec,2024-07-04_09h05.17.426,WTP_SM_Choice,2022.2.1,Win32,59.88023952,,,,,,,,,,,,,,,,,,42,,,,,,,,,,0.02,1,2.4298,0,1,1,1,1,Read a book,Celebrate holiday traditions with extended family during festive gatherings,0.02,0.04,3.3,,,,
,,65f7fbb178b358ac91094fec,2024-07-04_09h05.17.426,WTP_SM_Choice,2022.2.1,Win32,59.88023952,,,,,,,,,,,,,,,,,,43,,,,,,,,,,0.03,1,1.6379,0,2,2,2,1,Meditate,Host game nights with friends,0.03,0.04,1.1,,,,
,,65f7fbb178b358ac91094fec,2024-07-04_09h05.17.426,WTP_SM_Choice,2022.2.1,Win32,59.88023952,,,,,,,,,,,,,,,,,,44,,,,,,,,,,0.04,1,3.0631,0,3,3,3,1,Exercise my body,Host game nights with friends,0.04,0.04,1.1,,,,
,,65f7fbb178b358ac91094fec,2024-07-04_09h05.17.426,WTP_SM_Choice,2022.2.1,Win32,59.88023952,,,,,,,,,,,,,,,,,,45,,,,,,,,,,0.04,2,1.6676,0,4,4,4,1,Meditate,Enjoy a beach day with my family,0.05,0.04,4.4,,,,
,,65f7fbb178b358ac91094fec,2024-07-04_09h05.17.426,WTP_SM_Choice,2022.2.1,Win32,59.88023952,,,,,,,NAN,,NAN,0.93,5.07,,0,44,44,44,1,45,Charlie,Rej,Participant_Images/65f7fbb178b358ac91094fec/65f7fbb178b358ac91094fec_Images/65f7fbb178b358ac91094fec_Image_15.jpeg,did not like,2.642157193,,,,,,,,,,,,,,,,,,,,,
,,65f7fbb178b358ac91094fec,2024-07-04_09h05.17.426,WTP_SM_Choice,2022.2.1,Win32,59.88023952,,,,,space,1436.9402,NAN,,NAN,0.93,5.07,,0,45,45,45,1,46,Charlie,Rej,Participant_Images/65f7fbb178b358ac91094fec/65f7fbb178b358ac91094fec_Images/65f7fbb178b358ac91094fec_Image_4.jpeg,did not like,4.456234322,,,,,,,,,,,,,,,,,,,,,
,,65f7fbb178b358ac91094fec,2024-07-04_09h05.17.426,WTP_SM_Choice,2022.2.1,Win32,59.88023952,,,,,space,2.5557,NAN,,NAN,0.93,5.07,,0,46,46,46,1,47,Charlie,Rej,Participant_Images/65f7fbb178b358ac91094fec/65f7fbb178b358ac91094fec_Images/65f7fbb178b358ac91094fec_Image_19.jpeg,did not like,4.438512181,,,,,,,,,,,,,,,,,,,,,
,,65f7fbb178b358ac91094fec,2024-07-04_09h05.17.426,WTP_SM_Choice,2022.2.1,Win32,59.88023952,,,,,space,1.8178,NAN,,NAN,0.93,5.07,,0,47,47,47,1,48,Charlie,Rej,Participant_Images/65f7fbb178b358ac91094fec/65f7fbb178b358ac91094fec_Images/65f7fbb178b358ac91094fec_Image_9.jpeg,did not like,2.682944783,,,,,,,,,,,,,,,,,,,,,
,,65f7fbb178b358ac91094fec,2024-07-04_09h05.17.426,WTP_SM_Choice,2022.2.1,Win32,59.88023952,,,,,space,8.7585,NAN,,NAN,0.93,5.07,,0,48,48,48,1,49,Charlie,Rej,Participant_Images/65f7fbb178b358ac91094fec/65f7fbb178b358ac91094fec_Images/65f7fbb178b358ac91094fec_Image_18.jpeg,did not like,4.51984296,,,,,,,,,,,,,,,,,,,,,
,,65f7fbb178b358ac91094fec,2024-07-04_09h05.17.426,WTP_SM_Choice,2022.2.1,Win32,59.88023952,,,,,,,,,,,,,,,,,,46,,,,,,space,1.7274,space,3.5974,0.05,2,1.4991,0,0,0,0,1,Take a walk,Enjoy a beach day with my family,0.01,0.05,8.8,,,,
,,65f7fbb178b358ac91094fec,2024-07-04_09h05.17.426,WTP_SM_Choice,2022.2.1,Win32,59.88023952,,,,,,,,,,,,,,,,,,47,,,,,,,,,,0.02,1,1.9896,0,1,1,1,1,Watch football,Enjoy a beach day with my family,0.02,0.05,1.1,,,,
,,65f7fbb178b358ac91094fec,2024-07-04_09h05.17.426,WTP_SM_Choice,2022.2.1,Win32,59.88023952,,,,,,,,,,,,,,,,,,48,,,,,,,,,,0.03,1,1.1538,0,2,2,2,1,Take in fresh air,Celebrate holiday traditions with extended family during festive gatherings,0.03,0.05,4.4,,,,
,,65f7fbb178b358ac91094fec,2024-07-04_09h05.17.426,WTP_SM_Choice,2022.2.1,Win32,59.88023952,,,,,,,,,,,,,,,,,,49,,,,,,,,,,0.04,1,2.6277,0,3,3,3,1,Clean the garden,Watch movies at the theatre with my family,0.04,0.05,3.3,,,,
,,65f7fbb178b358ac91094fec,2024-07-04_09h05.17.426,WTP_SM_Choice,2022.2.1,Win32,59.88023952,,,,,,,,,,,,,,,,,,50,,,,,,,,,,0.05,2,5.008,0,4,4,4,1,Design layouts,Celebrate holiday traditions with extended family during festive gatherings,0.05,0.05,1.1,,,,
,,65f7fbb178b358ac91094fec,2024-07-04_09h05.17.426,WTP_SM_Choice,2022.2.1,Win32,59.88023952,,,,,,,5,,9,1.12,4.88,,0,49,49,49,1,50,Charlie,Rej,Participant_Images/65f7fbb178b358ac91094fec/65f7fbb178b358ac91094fec_Images/65f7fbb178b358ac91094fec_Image_6.jpeg,liked,3.195382774,,,,,,,,,,,,,,,,,,space,2.1831,,
,,65f7fbb178b358ac91094fec,2024-07-04_09h05.17.426,WTP_SM_Choice,2022.2.1,Win32,59.88023952,,,space,4.2684,space,3.2066,NAN,,NAN,1.12,4.88,,0,50,50,50,1,51,Sam,Acc,Participant_Images/65f7fbb178b358ac91094fec/65f7fbb178b358ac91094fec_Images/65f7fbb178b358ac91094fec_Image_4.jpeg,did not like,1.779333479,,,,,,,,,,,,,,,,,,,,,
,,65f7fbb178b358ac91094fec,2024-07-04_09h05.17.426,WTP_SM_Choice,2022.2.1,Win32,59.88023952,,,,,space,1.1459,NAN,,NAN,1.12,4.88,,0,51,51,51,1,52,Sam,Acc,Participant_Images/65f7fbb178b358ac91094fec/65f7fbb178b358ac91094fec_Images/65f7fbb178b358ac91094fec_Image_6.jpeg,liked,4.312468682,,,,,,,,,,,,,,,,,,,,,
,,65f7fbb178b358ac91094fec,2024-07-04_09h05.17.426,WTP_SM_Choice,2022.2.1,Win32,59.88023952,,,,,space,4.963,NAN,,NAN,1.12,4.88,,0,52,52,52,1,53,Sam,Acc,Participant_Images/65f7fbb178b358ac91094fec/65f7fbb178b358ac91094fec_Images/65f7fbb178b358ac91094fec_Image_19.jpeg,did not like,4.940433059,,,,,,,,,,,,,,,,,,,,,
,,65f7fbb178b358ac91094fec,2024-07-04_09h05.17.426,WTP_SM_Choice,2022.2.1,Win32,59.88023952,,,,,space,4.6298,NAN,,NAN,1.12,4.88,,0,53,53,53,1,54,Sam,Acc,Participant_Images/65f7fbb178b358ac91094fec/65f7fbb178b358ac91094fec_Images/65f7fbb178b358ac91094fec_Image_1.jpeg,liked,2.7105123,,,,,,,,,,,,,,,,,,,,,
,,65f7fbb178b358ac91094fec,2024-07-04_09h05.17.426,WTP_SM_Choice,2022.2.1,Win32,59.88023952,,,,,,,,,,,,,,,,,,51,,,,,,space,1.0155,space,0.7844,0.01,1,1.786,0,0,0,0,1,Take in fresh air,Have an indoor dinner with friends,0.01,0.01,1.1,,,,
,,65f7fbb178b358ac91094fec,2024-07-04_09h05.17.426,WTP_SM_Choice,2022.2.1,Win32,59.88023952,,,,,,,,,,,,,,,,,,52,,,,,,,,,,0.02,1,3.217,0,1,1,1,1,Exercise my body,Play board games with friends,0.02,0.01,3.3,,,,
,,65f7fbb178b358ac91094fec,2024-07-04_09h05.17.426,WTP_SM_Choice,2022.2.1,Win32,59.88023952,,,,,,,,,,,,,,,,,,53,,,,,,,,,,0.01,2,1.5906,0,2,2,2,1,Prepare a meal,Enjoy a beach day with my family,0.03,0.01,1.1,,,,
,,65f7fbb178b358ac91094fec,2024-07-04_09h05.17.426,WTP_SM_Choice,2022.2.1,Win32,59.88023952,,,,,,,,,,,,,,,,,,54,,,,,,,,,,0.01,2,2.1272,0,3,3,3,1,Watch football,Go on weekend road trips with friends,0.04,0.01,4.4,,,,
,,65f7fbb178b358ac91094fec,2024-07-04_09h05.17.426,WTP_SM_Choice,2022.2.1,Win32,59.88023952,,,,,,,,,,,,,,,,,,55,,,,,,,,,,0.01,2,0.9124,0,4,4,4,1,Take in fresh air,Play board games with friends,0.05,0.01,1.1,,,,
,,65f7fbb178b358ac91094fec,2024-07-04_09h05.17.426,WTP_SM_Choice,2022.2.1,Win32,59.88023952,,,,,,,NAN,,NAN,1.18,4.82,,0,54,54,54,1,55,Sam,Acc,Participant_Images/65f7fbb178b358ac91094fec/65f7fbb178b358ac91094fec_Images/65f7fbb178b358ac91094fec_Image_8.jpeg,liked,3.602308302,,,,,,,,,,,,,,,,,,,,,
,,65f7fbb178b358ac91094fec,2024-07-04_09h05.17.426,WTP_SM_Choice,2022.2.1,Win32,59.88023952,,,,,space,1.3488,NAN,,NAN,1.18,4.82,,0,55,55,55,1,56,Sam,Acc,Participant_Images/65f7fbb178b358ac91094fec/65f7fbb178b358ac91094fec_Images/65f7fbb178b358ac91094fec_Image_24.jpeg,liked,4.106391878,,,,,,,,,,,,,,,,,,,,,
,,65f7fbb178b358ac91094fec,2024-07-04_09h05.17.426,WTP_SM_Choice,2022.2.1,Win32,59.88023952,,,,,space,3.2866,NAN,,NAN,1.18,4.82,,0,56,56,56,1,57,Sam,Acc,Participant_Images/65f7fbb178b358ac91094fec/65f7fbb178b358ac91094fec_Images/65f7fbb178b358ac91094fec_Image_17.jpeg,did not like,3.799433026,,,,,,,,,,,,,,,,,,,,,
,,65f7fbb178b358ac91094fec,2024-07-04_09h05.17.426,WTP_SM_Choice,2022.2.1,Win32,59.88023952,,,,,space,1.6558,NAN,,NAN,1.18,4.82,,0,57,57,57,1,58,Sam,Acc,Participant_Images/65f7fbb178b358ac91094fec/65f7fbb178b358ac91094fec_Images/65f7fbb178b358ac91094fec_Image_15.jpeg,did not like,5.246980764,,,,,,,,,,,,,,,,,,,,,
,,65f7fbb178b358ac91094fec,2024-07-04_09h05.17.426,WTP_SM_Choice,2022.2.1,Win32,59.88023952,,,,,space,1.7337,NAN,,NAN,1.18,4.82,,0,58,58,58,1,59,Sam,Acc,Participant_Images/65f7fbb178b358ac91094fec/65f7fbb178b358ac91094fec_Images/65f7fbb178b358ac91094fec_Image_3.jpeg,liked,3.30081769,,,,,,,,,,,,,,,,,,,,,
,,65f7fbb178b358ac91094fec,2024-07-04_09h05.17.426,WTP_SM_Choice,2022.2.1,Win32,59.88023952,,,,,,,,,,,,,,,,,,56,,,,,,space,1.3762,space,0.5494,0.01,1,2.3769,0,0,0,0,1,Read a book,Play board games with friends,0.01,0.02,8.8,,,,
,,65f7fbb178b358ac91094fec,2024-07-04_09h05.17.426,WTP_SM_Choice,2022.2.1,Win32,59.88023952,,,,,,,,,,,,,,,,,,57,,,,,,,,,,0.02,2,1.2953,0,1,1,1,1,Take a walk,Attend outdoor music festivals with my partner,0.02,0.02,4.4,,,,
,,65f7fbb178b358ac91094fec,2024-07-04_09h05.17.426,WTP_SM_Choice,2022.2.1,Win32,59.88023952,,,,,,,,,,,,,,,,,,58,,,,,,,,,,0.02,2,1.1393,0,2,2,2,1,Prepare a meal,Go on adventure with friends,0.03,0.02,4.4,,,,
,,65f7fbb178b358ac91094fec,2024-07-04_09h05.17.426,WTP_SM_Choice,2022.2.1,Win32,59.88023952,,,,,,,,,,,,,,,,,,59,,,,,,,,,,0.02,2,1.3957,0,3,3,3,1,Take in fresh air,Go on weekend road trips with friends,0.04,0.02,4.4,,,,
,,65f7fbb178b358ac91094fec,2024-07-04_09h05.17.426,WTP_SM_Choice,2022.2.1,Win32,59.88023952,,,,,,,,,,,,,,,,,,60,,,,,,,,,,0.02,2,1.9384,0,4,4,4,1,Design layouts,Attend outdoor music festivals with my partner,0.05,0.02,1.1,,,,
,,65f7fbb178b358ac91094fec,2024-07-04_09h05.17.426,WTP_SM_Choice,2022.2.1,Win32,59.88023952,,,,,,,NAN,,NAN,1.27,4.73,,0,59,59,59,1,60,Sam,Acc,Participant_Images/65f7fbb178b358ac91094fec/65f7fbb178b358ac91094fec_Images/65f7fbb178b358ac91094fec_Image_11.jpeg,liked,1.661473164,,,,,,,,,,,,,,,,,,,,,
,,65f7fbb178b358ac91094fec,2024-07-04_09h05.17.426,WTP_SM_Choice,2022.2.1,Win32,59.88023952,,,,,space,1.5667,NAN,,NAN,1.27,4.73,,0,60,60,60,1,61,Sam,Acc,Participant_Images/65f7fbb178b358ac91094fec/65f7fbb178b358ac91094fec_Images/65f7fbb178b358ac91094fec_Image_16.jpeg,liked,3.613205605,,,,,,,,,,,,,,,,,,,,,
,,65f7fbb178b358ac91094fec,2024-07-04_09h05.17.426,WTP_SM_Choice,2022.2.1,Win32,59.88023952,,,,,space,2.4993,NAN,,NAN,1.27,4.73,,0,61,61,61,1,62,Sam,Acc,Participant_Images/65f7fbb178b358ac91094fec/65f7fbb178b358ac91094fec_Images/65f7fbb178b358ac91094fec_Image_12.jpeg,liked,4.988446431,,,,,,,,,,,,,,,,,,,,,
,,65f7fbb178b358ac91094fec,2024-07-04_09h05.17.426,WTP_SM_Choice,2022.2.1,Win32,59.88023952,,,,,space,1.4084,NAN,,NAN,1.27,4.73,,0,62,62,62,1,63,Sam,Acc,Participant_Images/65f7fbb178b358ac91094fec/65f7fbb178b358ac91094fec_Images/65f7fbb178b358ac91094fec_Image_2.jpeg,liked,3.470791822,,,,,,,,,,,,,,,,,,,,,
,,65f7fbb178b358ac91094fec,2024-07-04_09h05.17.426,WTP_SM_Choice,2022.2.1,Win32,59.88023952,,,,,space,1.4341,NAN,,NAN,1.27,4.73,,0,63,63,63,1,64,Sam,Acc,Participant_Images/65f7fbb178b358ac91094fec/65f7fbb178b358ac91094fec_Images/65f7fbb178b358ac91094fec_Image_10.jpeg,liked,3.820572462,,,,,,,,,,,,,,,,,,,,,
,,65f7fbb178b358ac91094fec,2024-07-04_09h05.17.426,WTP_SM_Choice,2022.2.1,Win32,59.88023952,,,,,,,,,,,,,,,,,,61,,,,,,space,1.713,space,0.7013,0.01,1,1.5008,0,0,0,0,1,Clean the garden,Go on adventure with friends,0.01,0.03,3.3,,,,
,,65f7fbb178b358ac91094fec,2024-07-04_09h05.17.426,WTP_SM_Choice,2022.2.1,Win32,59.88023952,,,,,,,,,,,,,,,,,,62,,,,,,,,,,0.02,1,1.9456,0,1,1,1,1,Exercise my body,Have an indoor dinner with friends,0.02,0.03,3.3,,,,
,,65f7fbb178b358ac91094fec,2024-07-04_09h05.17.426,WTP_SM_Choice,2022.2.1,Win32,59.88023952,,,,,,,,,,,,,,,,,,63,,,,,,,,,,0.03,1,3.0764,0,2,2,2,1,Take a walk,Go on weekend road trips with friends,0.03,0.03,3.3,,,,
,,65f7fbb178b358ac91094fec,2024-07-04_09h05.17.426,WTP_SM_Choice,2022.2.1,Win32,59.88023952,,,,,,,,,,,,,,,,,,64,,,,,,,,,,0.03,2,1.6751,0,3,3,3,1,Meditate,Share a homemade dinner with close friends,0.04,0.03,1.1,,,,
,,65f7fbb178b358ac91094fec,2024-07-04_09h05.17.426,WTP_SM_Choice,2022.2.1,Win32,59.88023952,,,,,,,,,,,,,,,,,,65,,,,,,,,,,0.03,2,2.1473,0,4,4,4,1,Clean the garden,Share a homemade dinner with close friends,0.05,0.03,1.1,,,,
,,65f7fbb178b358ac91094fec,2024-07-04_09h05.17.426,WTP_SM_Choice,2022.2.1,Win32,59.88023952,,,,,,,NAN,,NAN,1.39,4.61,,0,64,64,64,1,65,Sam,Acc,Participant_Images/65f7fbb178b358ac91094fec/65f7fbb178b358ac91094fec_Images/65f7fbb178b358ac91094fec_Image_14.jpeg,did not like,2.455989137,,,,,,,,,,,,,,,,,,,,,
,,65f7fbb178b358ac91094fec,2024-07-04_09h05.17.426,WTP_SM_Choice,2022.2.1,Win32,59.88023952,,,,,space,57.715,NAN,,NAN,1.39,4.61,,0,65,65,65,1,66,Sam,Acc,Participant_Images/65f7fbb178b358ac91094fec/65f7fbb178b358ac91094fec_Images/65f7fbb178b358ac91094fec_Image_20.jpeg,did not like,3.79605092,,,,,,,,,,,,,,,,,,,,,
,,65f7fbb178b358ac91094fec,2024-07-04_09h05.17.426,WTP_SM_Choice,2022.2.1,Win32,59.88023952,,,,,space,1.2729,NAN,,NAN,1.39,4.61,,0,66,66,66,1,67,Sam,Acc,Participant_Images/65f7fbb178b358ac91094fec/65f7fbb178b358ac91094fec_Images/65f7fbb178b358ac91094fec_Image_23.jpeg,liked,3.562416326,,,,,,,,,,,,,,,,,,,,,
,,65f7fbb178b358ac91094fec,2024-07-04_09h05.17.426,WTP_SM_Choice,2022.2.1,Win32,59.88023952,,,,,space,1.5612,NAN,,NAN,1.39,4.61,,0,67,67,67,1,68,Sam,Acc,Participant_Images/65f7fbb178b358ac91094fec/65f7fbb178b358ac91094fec_Images/65f7fbb178b358ac91094fec_Image_25.jpeg,liked,2.843822497,,,,,,,,,,,,,,,,,,,,,
,,65f7fbb178b358ac91094fec,2024-07-04_09h05.17.426,WTP_SM_Choice,2022.2.1,Win32,59.88023952,,,,,space,2.2434,NAN,,NAN,1.39,4.61,,0,68,68,68,1,69,Sam,Acc,Participant_Images/65f7fbb178b358ac91094fec/65f7fbb178b358ac91094fec_Images/65f7fbb178b358ac91094fec_Image_21.jpeg,liked,3.546495948,,,,,,,,,,,,,,,,,,,,,
,,65f7fbb178b358ac91094fec,2024-07-04_09h05.17.426,WTP_SM_Choice,2022.2.1,Win32,59.88023952,,,,,,,,,,,,,,,,,,66,,,,,,space,1.266,space,0.5657,0.01,1,2.4744,0,0,0,0,1,Watch football,Attend outdoor music festivals with my partner,0.01,0.04,1.1,,,,
,,65f7fbb178b358ac91094fec,2024-07-04_09h05.17.426,WTP_SM_Choice,2022.2.1,Win32,59.88023952,,,,,,,,,,,,,,,,,,67,,,,,,,,,,0.02,1,4.0899,0,1,1,1,1,Meditate,Celebrate holiday traditions with extended family during festive gatherings,0.02,0.04,8.8,,,,
,,65f7fbb178b358ac91094fec,2024-07-04_09h05.17.426,WTP_SM_Choice,2022.2.1,Win32,59.88023952,,,,,,,,,,,,,,,,,,68,,,,,,,,,,0.03,1,1.4884,0,2,2,2,1,Design layouts,Enjoy a beach day with my family,0.03,0.04,4.4,,,,
,,65f7fbb178b358ac91094fec,2024-07-04_09h05.17.426,WTP_SM_Choice,2022.2.1,Win32,59.88023952,,,,,,,,,,,,,,,,,,69,,,,,,,,,,0.04,1,2.4075,0,3,3,3,1,Exercise my body,Watch movies at the theatre with my family,0.04,0.04,1.1,,,,
,,65f7fbb178b358ac91094fec,2024-07-04_09h05.17.426,WTP_SM_Choice,2022.2.1,Win32,59.88023952,,,,,,,,,,,,,,,,,,70,,,,,,,,,,0.04,2,1.3864,0,4,4,4,1,Read a book,Attend outdoor music festivals with my partner,0.05,0.04,1.1,,,,
,,65f7fbb178b358ac91094fec,2024-07-04_09h05.17.426,WTP_SM_Choice,2022.2.1,Win32,59.88023952,,,,,,,NAN,,NAN,1.53,4.47,,0,69,69,69,1,70,Sam,Acc,Participant_Images/65f7fbb178b358ac91094fec/65f7fbb178b358ac91094fec_Images/65f7fbb178b358ac91094fec_Image_22.jpeg,liked,1.672012706,,,,,,,,,,,,,,,,,,,,,
,,65f7fbb178b358ac91094fec,2024-07-04_09h05.17.426,WTP_SM_Choice,2022.2.1,Win32,59.88023952,,,,,space,1.4585,NAN,,NAN,1.53,4.47,,0,70,70,70,1,71,Sam,Acc,Participant_Images/65f7fbb178b358ac91094fec/65f7fbb178b358ac91094fec_Images/65f7fbb178b358ac91094fec_Image_5.jpeg,liked,4.942172136,,,,,,,,,,,,,,,,,,,,,
,,65f7fbb178b358ac91094fec,2024-07-04_09h05.17.426,WTP_SM_Choice,2022.2.1,Win32,59.88023952,,,,,space,13.2405,NAN,,NAN,1.53,4.47,,0,71,71,71,1,72,Sam,Acc,Participant_Images/65f7fbb178b358ac91094fec/65f7fbb178b358ac91094fec_Images/65f7fbb178b358ac91094fec_Image_18.jpeg,did not like,2.50187214,,,,,,,,,,,,,,,,,,,,,
,,65f7fbb178b358ac91094fec,2024-07-04_09h05.17.426,WTP_SM_Choice,2022.2.1,Win32,59.88023952,,,,,space,9.5637,NAN,,NAN,1.53,4.47,,0,72,72,72,1,73,Sam,Acc,Participant_Images/65f7fbb178b358ac91094fec/65f7fbb178b358ac91094fec_Images/65f7fbb178b358ac91094fec_Image_13.jpeg,liked,2.071164779,,,,,,,,,,,,,,,,,,,,,
,,65f7fbb178b358ac91094fec,2024-07-04_09h05.17.426,WTP_SM_Choice,2022.2.1,Win32,59.88023952,,,,,space,8.8889,NAN,,NAN,1.53,4.47,,0,73,73,73,1,74,Sam,Acc,Participant_Images/65f7fbb178b358ac91094fec/65f7fbb178b358ac91094fec_Images/65f7fbb178b358ac91094fec_Image_7.jpeg,liked,5.336503566,,,,,,,,,,,,,,,,,,,,,
,,65f7fbb178b358ac91094fec,2024-07-04_09h05.17.426,WTP_SM_Choice,2022.2.1,Win32,59.88023952,,,,,,,,,,,,,,,,,,71,,,,,,space,16.7629,space,0.6828,0.01,1,1.4774,0,0,0,0,1,Exercise my body,Go on adventure with friends,0.01,0.05,3.3,,,,
,,65f7fbb178b358ac91094fec,2024-07-04_09h05.17.426,WTP_SM_Choice,2022.2.1,Win32,59.88023952,,,,,,,,,,,,,,,,,,72,,,,,,,,,,0.02,1,1.6271,0,1,1,1,1,Take in fresh air,Watch movies at the theatre with my family,0.02,0.05,8.8,,,,
,,65f7fbb178b358ac91094fec,2024-07-04_09h05.17.426,WTP_SM_Choice,2022.2.1,Win32,59.88023952,,,,,,,,,,,,,,,,,,73,,,,,,,,,,0.03,1,1.5759,0,2,2,2,1,Watch football,Have an indoor dinner with friends,0.03,0.05,3.3,,,,
,,65f7fbb178b358ac91094fec,2024-07-04_09h05.17.426,WTP_SM_Choice,2022.2.1,Win32,59.88023952,,,,,,,,,,,,,,,,,,74,,,,,,,,,,0.04,1,3.174,0,3,3,3,1,Take in fresh air,Share a homemade dinner with close friends,0.04,0.05,4.4,,,,
,,65f7fbb178b358ac91094fec,2024-07-04_09h05.17.426,WTP_SM_Choice,2022.2.1,Win32,59.88023952,,,,,,,,,,,,,,,,,,75,,,,,,,,,,0.05,1,2.379,0,4,4,4,1,Take in fresh air,Attend outdoor music festivals with my partner,0.05,0.05,3.3,,,,
,,65f7fbb178b358ac91094fec,2024-07-04_09h05.17.426,WTP_SM_Choice,2022.2.1,Win32,59.88023952,,,,,,,3,,7,1.68,4.32,,0,74,74,74,1,75,Sam,Acc,Participant_Images/65f7fbb178b358ac91094fec/65f7fbb178b358ac91094fec_Images/65f7fbb178b358ac91094fec_Image_9.jpeg,liked,2.642157193,,,,,,,,,,,,,,,,,,space,1.5498,,
,,65f7fbb178b358ac91094fec,2024-07-04_09h05.17.426,WTP_SM_Choice,2022.2.1,Win32,59.88023952,,,space,2.0836,space,358.8611,NAN,,NAN,1.68,4.32,,0,75,75,75,1,76,Alex,Rej,Participant_Images/65f7fbb178b358ac91094fec/65f7fbb178b358ac91094fec_Images/65f7fbb178b358ac91094fec_Image_21.jpeg,did not like,4.456234322,,,,,,,,,,,,,,,,,,,,,
,,65f7fbb178b358ac91094fec,2024-07-04_09h05.17.426,WTP_SM_Choice,2022.2.1,Win32,59.88023952,,,,,space,2.0981,NAN,,NAN,1.68,4.32,,0,76,76,76,1,77,Alex,Rej,Participant_Images/65f7fbb178b358ac91094fec/65f7fbb178b358ac91094fec_Images/65f7fbb178b358ac91094fec_Image_17.jpeg,did not like,4.438512181,,,,,,,,,,,,,,,,,,,,,
,,65f7fbb178b358ac91094fec,2024-07-04_09h05.17.426,WTP_SM_Choice,2022.2.1,Win32,59.88023952,,,,,space,1.1952,NAN,,NAN,1.68,4.32,,0,77,77,77,1,78,Alex,Rej,Participant_Images/65f7fbb178b358ac91094fec/65f7fbb178b358ac91094fec_Images/65f7fbb178b358ac91094fec_Image_24.jpeg,did not like,2.682944783,,,,,,,,,,,,,,,,,,,,,
,,65f7fbb178b358ac91094fec,2024-07-04_09h05.17.426,WTP_SM_Choice,2022.2.1,Win32,59.88023952,,,,,space,1.224,NAN,,NAN,1.68,4.32,,0,78,78,78,1,79,Alex,Rej,Participant_Images/65f7fbb178b358ac91094fec/65f7fbb178b358ac91094fec_Images/65f7fbb178b358ac91094fec_Image_20.jpeg,did not like,4.51984296,,,,,,,,,,,,,,,,,,,,,
,,65f7fbb178b358ac91094fec,2024-07-04_09h05.17.426,WTP_SM_Choice,2022.2.1,Win32,59.88023952,,,,,,,,,,,,,,,,,,76,,,,,,space,1.7975,space,11.0435,0.01,1,1.6272,0,0,0,0,1,Clean the garden,Attend outdoor music festivals with my partner,0.01,0.01,1.1,,,,
,,65f7fbb178b358ac91094fec,2024-07-04_09h05.17.426,WTP_SM_Choice,2022.2.1,Win32,59.88023952,,,,,,,,,,,,,,,,,,77,,,,,,,,,,0.02,1,6.4936,0,1,1,1,1,Take photos,Play board games with friends,0.02,0.01,8.8,,,,
,,65f7fbb178b358ac91094fec,2024-07-04_09h05.17.426,WTP_SM_Choice,2022.2.1,Win32,59.88023952,,,,,,,,,,,,,,,,,,78,,,,,,,,,,0.01,2,3.6086,0,2,2,2,1,Take photos,Go on adventure with friends,0.03,0.01,1.1,,,,
,,65f7fbb178b358ac91094fec,2024-07-04_09h05.17.426,WTP_SM_Choice,2022.2.1,Win32,59.88023952,,,,,,,,,,,,,,,,,,79,,,,,,,,,,0.01,2,2.4994,0,3,3,3,1,Design layouts,Go on weekend road trips with friends,0.04,0.01,1.1,,,,
,,65f7fbb178b358ac91094fec,2024-07-04_09h05.17.426,WTP_SM_Choice,2022.2.1,Win32,59.88023952,,,,,,,,,,,,,,,,,,80,,,,,,,,,,0.01,2,1.2779,0,4,4,4,1,Exercise my body,Go on weekend road trips with friends,0.05,0.01,4.4,,,,
,,65f7fbb178b358ac91094fec,2024-07-04_09h05.17.426,WTP_SM_Choice,2022.2.1,Win32,59.88023952,,,,,,,NAN,,NAN,1.74,4.26,,0,79,79,79,1,80,Alex,Rej,Participant_Images/65f7fbb178b358ac91094fec/65f7fbb178b358ac91094fec_Images/65f7fbb178b358ac91094fec_Image_3.jpeg,did not like,3.195382774,,,,,,,,,,,,,,,,,,,,,
,,65f7fbb178b358ac91094fec,2024-07-04_09h05.17.426,WTP_SM_Choice,2022.2.1,Win32,59.88023952,,,,,space,2.3731,NAN,,NAN,1.74,4.26,,0,80,80,80,1,81,Alex,Rej,Participant_Images/65f7fbb178b358ac91094fec/65f7fbb178b358ac91094fec_Images/65f7fbb178b358ac91094fec_Image_13.jpeg,did not like,1.779333479,,,,,,,,,,,,,,,,,,,,,
,,65f7fbb178b358ac91094fec,2024-07-04_09h05.17.426,WTP_SM_Choice,2022.2.1,Win32,59.88023952,,,,,space,4.2476,NAN,,NAN,1.74,4.26,,0,81,81,81,1,82,Alex,Rej,Participant_Images/65f7fbb178b358ac91094fec/65f7fbb178b358ac91094fec_Images/65f7fbb178b358ac91094fec_Image_19.jpeg,did not like,4.312468682,,,,,,,,,,,,,,,,,,,,,
,,65f7fbb178b358ac91094fec,2024-07-04_09h05.17.426,WTP_SM_Choice,2022.2.1,Win32,59.88023952,,,,,space,1.4998,NAN,,NAN,1.74,4.26,,0,82,82,82,1,83,Alex,Rej,Participant_Images/65f7fbb178b358ac91094fec/65f7fbb178b358ac91094fec_Images/65f7fbb178b358ac91094fec_Image_5.jpeg,liked,4.940433059,,,,,,,,,,,,,,,,,,,,,
,,65f7fbb178b358ac91094fec,2024-07-04_09h05.17.426,WTP_SM_Choice,2022.2.1,Win32,59.88023952,,,,,space,2.0756,NAN,,NAN,1.74,4.26,,0,83,83,83,1,84,Alex,Rej,Participant_Images/65f7fbb178b358ac91094fec/65f7fbb178b358ac91094fec_Images/65f7fbb178b358ac91094fec_Image_12.jpeg,liked,2.7105123,,,,,,,,,,,,,,,,,,,,,
,,65f7fbb178b358ac91094fec,2024-07-04_09h05.17.426,WTP_SM_Choice,2022.2.1,Win32,59.88023952,,,,,,,,,,,,,,,,,,81,,,,,,space,0.7823,space,0.4844,0.01,1,1.8259,0,0,0,0,1,Prepare a meal,Attend outdoor music festivals with my partner,0.01,0.02,3.3,,,,
,,65f7fbb178b358ac91094fec,2024-07-04_09h05.17.426,WTP_SM_Choice,2022.2.1,Win32,59.88023952,,,,,,,,,,,,,,,,,,82,,,,,,,,,,0.02,1,3.5504,0,1,1,1,1,Design layouts,Watch movies at the theatre with my family,0.02,0.02,4.4,,,,
,,65f7fbb178b358ac91094fec,2024-07-04_09h05.17.426,WTP_SM_Choice,2022.2.1,Win32,59.88023952,,,,,,,,,,,,,,,,,,83,,,,,,,,,,0.02,2,3.0574,0,2,2,2,1,Take a walk,Play board games with friends,0.03,0.02,1.1,,,,
,,65f7fbb178b358ac91094fec,2024-07-04_09h05.17.426,WTP_SM_Choice,2022.2.1,Win32,59.88023952,,,,,,,,,,,,,,,,,,84,,,,,,,,,,0.02,2,1.7544,0,3,3,3,1,Take a walk,Have an indoor dinner with friends,0.04,0.02,3.3,,,,
,,65f7fbb178b358ac91094fec,2024-07-04_09h05.17.426,WTP_SM_Choice,2022.2.1,Win32,59.88023952,,,,,,,,,,,,,,,,,,85,,,,,,,,,,0.02,2,2.694,0,4,4,4,1,Exercise my body,Attend outdoor music festivals with my partner,0.05,0.02,3.3,,,,
,,65f7fbb178b358ac91094fec,2024-07-04_09h05.17.426,WTP_SM_Choice,2022.2.1,Win32,59.88023952,,,,,,,NAN,,NAN,1.83,4.17,,0,84,84,84,1,85,Alex,Rej,Participant_Images/65f7fbb178b358ac91094fec/65f7fbb178b358ac91094fec_Images/65f7fbb178b358ac91094fec_Image_10.jpeg,liked,3.602308302,,,,,,,,,,,,,,,,,,,,,
,,65f7fbb178b358ac91094fec,2024-07-04_09h05.17.426,WTP_SM_Choice,2022.2.1,Win32,59.88023952,,,,,space,3.1904,NAN,,NAN,1.83,4.17,,0,85,85,85,1,86,Alex,Rej,Participant_Images/65f7fbb178b358ac91094fec/65f7fbb178b358ac91094fec_Images/65f7fbb178b358ac91094fec_Image_16.jpeg,did not like,4.106391878,,,,,,,,,,,,,,,,,,,,,
,,65f7fbb178b358ac91094fec,2024-07-04_09h05.17.426,WTP_SM_Choice,2022.2.1,Win32,59.88023952,,,,,space,8.355,NAN,,NAN,1.83,4.17,,0,86,86,86,1,87,Alex,Rej,Participant_Images/65f7fbb178b358ac91094fec/65f7fbb178b358ac91094fec_Images/65f7fbb178b358ac91094fec_Image_11.jpeg,did not like,3.799433026,,,,,,,,,,,,,,,,,,,,,
,,65f7fbb178b358ac91094fec,2024-07-04_09h05.17.426,WTP_SM_Choice,2022.2.1,Win32,59.88023952,,,,,space,1.3308,NAN,,NAN,1.83,4.17,,0,87,87,87,1,88,Alex,Rej,Participant_Images/65f7fbb178b358ac91094fec/65f7fbb178b358ac91094fec_Images/65f7fbb178b358ac91094fec_Image_8.jpeg,did not like,5.246980764,,,,,,,,,,,,,,,,,,,,,
,,65f7fbb178b358ac91094fec,2024-07-04_09h05.17.426,WTP_SM_Choice,2022.2.1,Win32,59.88023952,,,,,space,2.0778,NAN,,NAN,1.83,4.17,,0,88,88,88,1,89,Alex,Rej,Participant_Images/65f7fbb178b358ac91094fec/65f7fbb178b358ac91094fec_Images/65f7fbb178b358ac91094fec_Image_18.jpeg,did not like,3.30081769,,,,,,,,,,,,,,,,,,,,,
,,65f7fbb178b358ac91094fec,2024-07-04_09h05.17.426,WTP_SM_Choice,2022.2.1,Win32,59.88023952,,,,,,,,,,,,,,,,,,86,,,,,,space,2.166,space,0.4672,0.01,1,2.2163,0,0,0,0,1,Exercise my body,Share a homemade dinner with close friends,0.01,0.03,1.1,,,,
,,65f7fbb178b358ac91094fec,2024-07-04_09h05.17.426,WTP_SM_Choice,2022.2.1,Win32,59.88023952,,,,,,,,,,,,,,,,,,87,,,,,,,,,,0.02,1,2.6883,0,1,1,1,1,Take a walk,Watch movies at the theatre with my family,0.02,0.03,4.4,,,,
,,65f7fbb178b358ac91094fec,2024-07-04_09h05.17.426,WTP_SM_Choice,2022.2.1,Win32,59.88023952,,,,,,,,,,,,,,,,,,88,,,,,,,,,,0.03,1,3.7308,0,2,2,2,1,Take photos,Host game nights with friends,0.03,0.03,1.1,,,,
,,65f7fbb178b358ac91094fec,2024-07-04_09h05.17.426,WTP_SM_Choice,2022.2.1,Win32,59.88023952,,,,,,,,,,,,,,,,,,89,,,,,,,,,,0.03,2,2.8366,0,3,3,3,1,Take in fresh air,Host game nights with friends,0.04,0.03,3.3,,,,
,,65f7fbb178b358ac91094fec,2024-07-04_09h05.17.426,WTP_SM_Choice,2022.2.1,Win32,59.88023952,,,,,,,,,,,,,,,,,,90,,,,,,,,,,0.03,2,4.0663,0,4,4,4,1,Clean the garden,Host game nights with friends,0.05,0.03,8.8,,,,
,,65f7fbb178b358ac91094fec,2024-07-04_09h05.17.426,WTP_SM_Choice,2022.2.1,Win32,59.88023952,,,,,,,NAN,,NAN,1.95,4.05,,0,89,89,89,1,90,Alex,Rej,Participant_Images/65f7fbb178b358ac91094fec/65f7fbb178b358ac91094fec_Images/65f7fbb178b358ac91094fec_Image_2.jpeg,did not like,1.661473164,,,,,,,,,,,,,,,,,,,,,
,,65f7fbb178b358ac91094fec,2024-07-04_09h05.17.426,WTP_SM_Choice,2022.2.1,Win32,59.88023952,,,,,space,1.5501,NAN,,NAN,1.95,4.05,,0,90,90,90,1,91,Alex,Rej,Participant_Images/65f7fbb178b358ac91094fec/65f7fbb178b358ac91094fec_Images/65f7fbb178b358ac91094fec_Image_14.jpeg,did not like,3.613205605,,,,,,,,,,,,,,,,,,,,,
,,65f7fbb178b358ac91094fec,2024-07-04_09h05.17.426,WTP_SM_Choice,2022.2.1,Win32,59.88023952,,,,,space,1.4421,NAN,,NAN,1.95,4.05,,0,91,91,91,1,92,Alex,Rej,Participant_Images/65f7fbb178b358ac91094fec/65f7fbb178b358ac91094fec_Images/65f7fbb178b358ac91094fec_Image_1.jpeg,did not like,4.988446431,,,,,,,,,,,,,,,,,,,,,
,,65f7fbb178b358ac91094fec,2024-07-04_09h05.17.426,WTP_SM_Choice,2022.2.1,Win32,59.88023952,,,,,space,4.9179,NAN,,NAN,1.95,4.05,,0,92,92,92,1,93,Alex,Rej,Participant_Images/65f7fbb178b358ac91094fec/65f7fbb178b358ac91094fec_Images/65f7fbb178b358ac91094fec_Image_6.jpeg,liked,3.470791822,,,,,,,,,,,,,,,,,,,,,
,,65f7fbb178b358ac91094fec,2024-07-04_09h05.17.426,WTP_SM_Choice,2022.2.1,Win32,59.88023952,,,,,space,3.2757,NAN,,NAN,1.95,4.05,,0,93,93,93,1,94,Alex,Rej,Participant_Images/65f7fbb178b358ac91094fec/65f7fbb178b358ac91094fec_Images/65f7fbb178b358ac91094fec_Image_4.jpeg,did not like,3.820572462,,,,,,,,,,,,,,,,,,,,,
,,65f7fbb178b358ac91094fec,2024-07-04_09h05.17.426,WTP_SM_Choice,2022.2.1,Win32,59.88023952,,,,,,,,,,,,,,,,,,91,,,,,,space,0.8492,space,0.5673,0.01,1,1.6946,0,0,0,0,1,Watch football,Go on adventure with friends,0.01,0.04,3.3,,,,
,,65f7fbb178b358ac91094fec,2024-07-04_09h05.17.426,WTP_SM_Choice,2022.2.1,Win32,59.88023952,,,,,,,,,,,,,,,,,,92,,,,,,,,,,0.04,2,3.7211,0,1,1,1,1,Prepare a meal,Play board games with friends,0.02,0.04,8.8,,,,
,,65f7fbb178b358ac91094fec,2024-07-04_09h05.17.426,WTP_SM_Choice,2022.2.1,Win32,59.88023952,,,,,,,,,,,,,,,,,,93,,,,,,,,,,0.04,2,1.3376,0,2,2,2,1,Take photos,Have an indoor dinner with friends,0.03,0.04,1.1,,,,
,,65f7fbb178b358ac91094fec,2024-07-04_09h05.17.426,WTP_SM_Choice,2022.2.1,Win32,59.88023952,,,,,,,,,,,,,,,,,,94,,,,,,,,,,0.04,1,6.0367,0,3,3,3,1,Read a book,Host game nights with friends,0.04,0.04,4.4,,,,
,,65f7fbb178b358ac91094fec,2024-07-04_09h05.17.426,WTP_SM_Choice,2022.2.1,Win32,59.88023952,,,,,,,,,,,,,,,,,,95,,,,,,,,,,0.05,1,3.5604,0,4,4,4,1,Take photos,Attend outdoor music festivals with my partner,0.05,0.04,4.4,,,,
,,65f7fbb178b358ac91094fec,2024-07-04_09h05.17.426,WTP_SM_Choice,2022.2.1,Win32,59.88023952,,,,,,,NAN,,NAN,2.13,3.87,,0,94,94,94,1,95,Alex,Rej,Participant_Images/65f7fbb178b358ac91094fec/65f7fbb178b358ac91094fec_Images/65f7fbb178b358ac91094fec_Image_23.jpeg,liked,2.455989137,,,,,,,,,,,,,,,,,,,,,
,,65f7fbb178b358ac91094fec,2024-07-04_09h05.17.426,WTP_SM_Choice,2022.2.1,Win32,59.88023952,,,,,space,1.4319,NAN,,NAN,2.13,3.87,,0,95,95,95,1,96,Alex,Rej,Participant_Images/65f7fbb178b358ac91094fec/65f7fbb178b358ac91094fec_Images/65f7fbb178b358ac91094fec_Image_25.jpeg,liked,3.79605092,,,,,,,,,,,,,,,,,,,,,
,,65f7fbb178b358ac91094fec,2024-07-04_09h05.17.426,WTP_SM_Choice,2022.2.1,Win32,59.88023952,,,,,space,0.9231,NAN,,NAN,2.13,3.87,,0,96,96,96,1,97,Alex,Rej,Participant_Images/65f7fbb178b358ac91094fec/65f7fbb178b358ac91094fec_Images/65f7fbb178b358ac91094fec_Image_9.jpeg,did not like,3.562416326,,,,,,,,,,,,,,,,,,,,,
,,65f7fbb178b358ac91094fec,2024-07-04_09h05.17.426,WTP_SM_Choice,2022.2.1,Win32,59.88023952,,,,,space,1.4521,NAN,,NAN,2.13,3.87,,0,97,97,97,1,98,Alex,Rej,Participant_Images/65f7fbb178b358ac91094fec/65f7fbb178b358ac91094fec_Images/65f7fbb178b358ac91094fec_Image_15.jpeg,did not like,2.843822497,,,,,,,,,,,,,,,,,,,,,
,,65f7fbb178b358ac91094fec,2024-07-04_09h05.17.426,WTP_SM_Choice,2022.2.1,Win32,59.88023952,,,,,space,1.1324,NAN,,NAN,2.13,3.87,,0,98,98,98,1,99,Alex,Rej,Participant_Images/65f7fbb178b358ac91094fec/65f7fbb178b358ac91094fec_Images/65f7fbb178b358ac91094fec_Image_7.jpeg,did not like,3.546495948,,,,,,,,,,,,,,,,,,,,,
,,65f7fbb178b358ac91094fec,2024-07-04_09h05.17.426,WTP_SM_Choice,2022.2.1,Win32,59.88023952,,,,,,,,,,,,,,,,,,96,,,,,,space,2.1314,space,0.4643,0.05,2,1.9272,0,0,0,0,1,Prepare a meal,Celebrate holiday traditions with extended family during festive gatherings,0.01,0.05,3.3,,,,
,,65f7fbb178b358ac91094fec,2024-07-04_09h05.17.426,WTP_SM_Choice,2022.2.1,Win32,59.88023952,,,,,,,,,,,,,,,,,,97,,,,,,,,,,0.05,2,2.5822,0,1,1,1,1,Meditate,Play board games with friends,0.02,0.05,1.1,,,,
,,65f7fbb178b358ac91094fec,2024-07-04_09h05.17.426,WTP_SM_Choice,2022.2.1,Win32,59.88023952,,,,,,,,,,,,,,,,,,98,,,,,,,,,,0.05,2,1.5892,0,2,2,2,1,Take in fresh air,Enjoy a beach day with my family,0.03,0.05,1.1,,,,
,,65f7fbb178b358ac91094fec,2024-07-04_09h05.17.426,WTP_SM_Choice,2022.2.1,Win32,59.88023952,,,,,,,,,,,,,,,,,,99,,,,,,,,,,0.05,2,2.6468,0,3,3,3,1,Watch football,Host game nights with friends,0.04,0.05,3.3,,,,
,,65f7fbb178b358ac91094fec,2024-07-04_09h05.17.426,WTP_SM_Choice,2022.2.1,Win32,59.88023952,,,,,,,,,,,,,,,,,,100,,,,,,,,,,0.05,2,2.3748,0,4,4,4,1,Exercise my body,Celebrate holiday traditions with extended family during festive gatherings,0.05,0.05,4.4,,,,
,,65f7fbb178b358ac91094fec,2024-07-04_09h05.17.426,WTP_SM_Choice,2022.2.1,Win32,59.88023952,,,,,,,4,,7,2.38,3.62,,0,99,99,99,1,100,Alex,Rej,Participant_Images/65f7fbb178b358ac91094fec/65f7fbb178b358ac91094fec_Images/65f7fbb178b358ac91094fec_Image_22.jpeg,liked,1.672012706,,,,,,,,,,,,,,,,,,space,3.9672,,
,,65f7fbb178b358ac91094fec,2024-07-04_09h05.17.426,WTP_SM_Choice,2022.2.1,Win32,59.88023952,,,,,,,,,,,,,,,,,,,,,,,,,,,,,,,,,,,,,,,,,,,space,13.1391
