endwelcomescreen_keys.keys,endwelcomescreen_keys.rt,participant,STUDY_ID,SESSION_ID,date,expName,psychopyVersion,OS,frameRate,endinstructionscreen_keys.keys,endinstructionscreen_keys.rt,endpartnermatch_keys.keys,endpartnermatch_keys.rt,sharenextphoto_key.keys,sharenextphoto_key.rt,salience_rating,key_resp.keys,stress_level,subtract_bonus,TOTAL_TASK_BONUS,stresslevel_keypress.keys,entiretaskloop.thisRepN,entiretaskloop.thisTrialN,entiretaskloop.thisN,entiretaskloop.thisIndex,entiretaskloop.ran,TrialNumber,Partner,Condition,Photos,Feedback,FeedbackWait,WTP_ins_keys1.keys,WTP_ins_keys1.rt,WTP_ins_keys2.keys,WTP_ins_keys2.rt,decision_price,responses.keys,responses.rt,WTPTaskLoop.thisRepN,WTPTaskLoop.thisTrialN,WTPTaskLoop.thisN,WTPTaskLoop.thisIndex,WTPTaskLoop.ran,right,left,leftmoney,rightmoney,WTP_ITI,social_left,Resume_keys.keys,Resume_keys.rt,end_screen_keys.keys,end_screen_keys.rt
space,4.8232,65fb2f8291cf16104e63effc,6685aa9113c938e83b4f1ea0,66d5a39caba459a0a10a4059,2024-09-02_07h38.30.100,WTP_SM_Choice,2022.2.1,Win32,59.88023952,,,,,,,,,,,,,,,,,,,,,,,,,,,,,,,,,,,,,,,,,,,,,
,,65fb2f8291cf16104e63effc,6685aa9113c938e83b4f1ea0,66d5a39caba459a0a10a4059,2024-09-02_07h38.30.100,WTP_SM_Choice,2022.2.1,Win32,59.88023952,space,13.0003,,,,,,,,,,,,,,,,,,,,,,,,,,,,,,,,,,,,,,,,,,,
,,65fb2f8291cf16104e63effc,6685aa9113c938e83b4f1ea0,66d5a39caba459a0a10a4059,2024-09-02_07h38.30.100,WTP_SM_Choice,2022.2.1,Win32,59.88023952,,,space,2.1209,space,1.0154,NAN,,NAN,0,6,,0,0,0,0,1,1,Alex,Rej,Participant_Images/65fb2f8291cf16104e63effc/65fb2f8291cf16104e63effc_Images/65fb2f8291cf16104e63effc_Image_3.jpeg,did not like,3.613205605,,,,,,,,,,,,,,,,,,,,,,
,,65fb2f8291cf16104e63effc,6685aa9113c938e83b4f1ea0,66d5a39caba459a0a10a4059,2024-09-02_07h38.30.100,WTP_SM_Choice,2022.2.1,Win32,59.88023952,,,,,space,1.1727,NAN,,NAN,0,6,,0,1,1,1,1,2,Alex,Rej,Participant_Images/65fb2f8291cf16104e63effc/65fb2f8291cf16104e63effc_Images/65fb2f8291cf16104e63effc_Image_17.jpeg,liked,4.988446431,,,,,,,,,,,,,,,,,,,,,,
,,65fb2f8291cf16104e63effc,6685aa9113c938e83b4f1ea0,66d5a39caba459a0a10a4059,2024-09-02_07h38.30.100,WTP_SM_Choice,2022.2.1,Win32,59.88023952,,,,,space,1.3065,NAN,,NAN,0,6,,0,2,2,2,1,3,Alex,Rej,Participant_Images/65fb2f8291cf16104e63effc/65fb2f8291cf16104e63effc_Images/65fb2f8291cf16104e63effc_Image_18.jpeg,liked,3.470791822,,,,,,,,,,,,,,,,,,,,,,
,,65fb2f8291cf16104e63effc,6685aa9113c938e83b4f1ea0,66d5a39caba459a0a10a4059,2024-09-02_07h38.30.100,WTP_SM_Choice,2022.2.1,Win32,59.88023952,,,,,space,1.1773,NAN,,NAN,0,6,,0,3,3,3,1,4,Alex,Rej,Participant_Images/65fb2f8291cf16104e63effc/65fb2f8291cf16104e63effc_Images/65fb2f8291cf16104e63effc_Image_22.jpeg,did not like,3.820572462,,,,,,,,,,,,,,,,,,,,,,
,,65fb2f8291cf16104e63effc,6685aa9113c938e83b4f1ea0,66d5a39caba459a0a10a4059,2024-09-02_07h38.30.100,WTP_SM_Choice,2022.2.1,Win32,59.88023952,,,,,,,,,,,,,,,,,,1,,,,,,space,11.957,space,7.5658,0.01,1,5.9077,0,0,0,0,1,Shop online from my couch,Play on the beach with my dog and children,0.01,0.01,4.4,1,,,,
,,65fb2f8291cf16104e63effc,6685aa9113c938e83b4f1ea0,66d5a39caba459a0a10a4059,2024-09-02_07h38.30.100,WTP_SM_Choice,2022.2.1,Win32,59.88023952,,,,,,,,,,,,,,,,,,2,,,,,,,,,,0.02,1,5.5168,0,1,1,1,1,Listen to music on a walk ,Go out for breakfast with my mom,0.02,0.01,8.8,1,,,,
,,65fb2f8291cf16104e63effc,6685aa9113c938e83b4f1ea0,66d5a39caba459a0a10a4059,2024-09-02_07h38.30.100,WTP_SM_Choice,2022.2.1,Win32,59.88023952,,,,,,,,,,,,,,,,,,3,,,,,,,,,,0.01,2,3.9344,0,2,2,2,1,Pick vegetables from my garden ,Get drinks with my best friend after work,0.03,0.01,3.3,1,,,,
,,65fb2f8291cf16104e63effc,6685aa9113c938e83b4f1ea0,66d5a39caba459a0a10a4059,2024-09-02_07h38.30.100,WTP_SM_Choice,2022.2.1,Win32,59.88023952,,,,,,,,,,,,,,,,,,4,,,,,,,,,,0.01,2,4.4044,0,3,3,3,1,Watch tv with my children in the evening,Shop online from my couch,0.04,0.01,1.1,0,,,,
,,65fb2f8291cf16104e63effc,6685aa9113c938e83b4f1ea0,66d5a39caba459a0a10a4059,2024-09-02_07h38.30.100,WTP_SM_Choice,2022.2.1,Win32,59.88023952,,,,,,,,,,,,,,,,,,5,,,,,,,,,,0.01,2,5.3007,0,4,4,4,1,Go out for dinner with my dad,Pick vegetables from my garden ,0.05,0.01,1.1,0,,,,
,,65fb2f8291cf16104e63effc,6685aa9113c938e83b4f1ea0,66d5a39caba459a0a10a4059,2024-09-02_07h38.30.100,WTP_SM_Choice,2022.2.1,Win32,59.88023952,,,,,,,NAN,,NAN,0.06,5.94,,0,4,4,4,1,5,Alex,Rej,Participant_Images/65fb2f8291cf16104e63effc/65fb2f8291cf16104e63effc_Images/65fb2f8291cf16104e63effc_Image_2.jpeg,liked,2.455989137,,,,,,,,,,,,,,,,,,,,,,
,,65fb2f8291cf16104e63effc,6685aa9113c938e83b4f1ea0,66d5a39caba459a0a10a4059,2024-09-02_07h38.30.100,WTP_SM_Choice,2022.2.1,Win32,59.88023952,,,,,space,1.1738,NAN,,NAN,0.06,5.94,,0,5,5,5,1,6,Alex,Rej,Participant_Images/65fb2f8291cf16104e63effc/65fb2f8291cf16104e63effc_Images/65fb2f8291cf16104e63effc_Image_9.jpeg,liked,3.79605092,,,,,,,,,,,,,,,,,,,,,,
,,65fb2f8291cf16104e63effc,6685aa9113c938e83b4f1ea0,66d5a39caba459a0a10a4059,2024-09-02_07h38.30.100,WTP_SM_Choice,2022.2.1,Win32,59.88023952,,,,,space,0.9737,NAN,,NAN,0.06,5.94,,0,6,6,6,1,7,Alex,Rej,Participant_Images/65fb2f8291cf16104e63effc/65fb2f8291cf16104e63effc_Images/65fb2f8291cf16104e63effc_Image_8.jpeg,did not like,3.562416326,,,,,,,,,,,,,,,,,,,,,,
,,65fb2f8291cf16104e63effc,6685aa9113c938e83b4f1ea0,66d5a39caba459a0a10a4059,2024-09-02_07h38.30.100,WTP_SM_Choice,2022.2.1,Win32,59.88023952,,,,,space,1.0781,NAN,,NAN,0.06,5.94,,0,7,7,7,1,8,Alex,Rej,Participant_Images/65fb2f8291cf16104e63effc/65fb2f8291cf16104e63effc_Images/65fb2f8291cf16104e63effc_Image_5.jpeg,did not like,2.843822497,,,,,,,,,,,,,,,,,,,,,,
,,65fb2f8291cf16104e63effc,6685aa9113c938e83b4f1ea0,66d5a39caba459a0a10a4059,2024-09-02_07h38.30.100,WTP_SM_Choice,2022.2.1,Win32,59.88023952,,,,,space,1.1509,NAN,,NAN,0.06,5.94,,0,8,8,8,1,9,Alex,Rej,Participant_Images/65fb2f8291cf16104e63effc/65fb2f8291cf16104e63effc_Images/65fb2f8291cf16104e63effc_Image_6.jpeg,did not like,3.546495948,,,,,,,,,,,,,,,,,,,,,,
,,65fb2f8291cf16104e63effc,6685aa9113c938e83b4f1ea0,66d5a39caba459a0a10a4059,2024-09-02_07h38.30.100,WTP_SM_Choice,2022.2.1,Win32,59.88023952,,,,,,,,,,,,,,,,,,6,,,,,,space,5.7615,space,5.3786,0.01,1,3.4322,0,0,0,0,1,Bake cupcakes on a rainy afternoon,Play on the beach with my dog and children,0.01,0.02,3.3,1,,,,
,,65fb2f8291cf16104e63effc,6685aa9113c938e83b4f1ea0,66d5a39caba459a0a10a4059,2024-09-02_07h38.30.100,WTP_SM_Choice,2022.2.1,Win32,59.88023952,,,,,,,,,,,,,,,,,,7,,,,,,,,,,0.02,2,3.1654,0,1,1,1,1,Go out for dinner with my dad,Listen to music on a walk ,0.02,0.02,1.1,0,,,,
,,65fb2f8291cf16104e63effc,6685aa9113c938e83b4f1ea0,66d5a39caba459a0a10a4059,2024-09-02_07h38.30.100,WTP_SM_Choice,2022.2.1,Win32,59.88023952,,,,,,,,,,,,,,,,,,8,,,,,,,,,,0.02,2,3.3156,0,2,2,2,1,Go to an outdoor concert with my husband,Listen to music on a walk ,0.03,0.02,1.1,0,,,,
,,65fb2f8291cf16104e63effc,6685aa9113c938e83b4f1ea0,66d5a39caba459a0a10a4059,2024-09-02_07h38.30.100,WTP_SM_Choice,2022.2.1,Win32,59.88023952,,,,,,,,,,,,,,,,,,9,,,,,,,,,,0.02,2,4.6969,0,3,3,3,1,Go to the movies with my family on a sunday afternoon,Listen to music on a walk ,0.04,0.02,4.4,0,,,,
,,65fb2f8291cf16104e63effc,6685aa9113c938e83b4f1ea0,66d5a39caba459a0a10a4059,2024-09-02_07h38.30.100,WTP_SM_Choice,2022.2.1,Win32,59.88023952,,,,,,,,,,,,,,,,,,10,,,,,,,,,,0.02,2,3.8381,0,4,4,4,1,Watch tv with my children in the evening,Bake cupcakes on a rainy afternoon,0.05,0.02,1.1,0,,,,
,,65fb2f8291cf16104e63effc,6685aa9113c938e83b4f1ea0,66d5a39caba459a0a10a4059,2024-09-02_07h38.30.100,WTP_SM_Choice,2022.2.1,Win32,59.88023952,,,,,,,NAN,,NAN,0.15,5.85,,0,9,9,9,1,10,Alex,Rej,Participant_Images/65fb2f8291cf16104e63effc/65fb2f8291cf16104e63effc_Images/65fb2f8291cf16104e63effc_Image_15.jpeg,did not like,1.672012706,,,,,,,,,,,,,,,,,,,,,,
,,65fb2f8291cf16104e63effc,6685aa9113c938e83b4f1ea0,66d5a39caba459a0a10a4059,2024-09-02_07h38.30.100,WTP_SM_Choice,2022.2.1,Win32,59.88023952,,,,,space,1.2741,NAN,,NAN,0.15,5.85,,0,10,10,10,1,11,Alex,Rej,Participant_Images/65fb2f8291cf16104e63effc/65fb2f8291cf16104e63effc_Images/65fb2f8291cf16104e63effc_Image_19.jpeg,did not like,4.942172136,,,,,,,,,,,,,,,,,,,,,,
,,65fb2f8291cf16104e63effc,6685aa9113c938e83b4f1ea0,66d5a39caba459a0a10a4059,2024-09-02_07h38.30.100,WTP_SM_Choice,2022.2.1,Win32,59.88023952,,,,,space,0.4737,NAN,,NAN,0.15,5.85,,0,11,11,11,1,12,Alex,Rej,Participant_Images/65fb2f8291cf16104e63effc/65fb2f8291cf16104e63effc_Images/65fb2f8291cf16104e63effc_Image_4.jpeg,did not like,2.50187214,,,,,,,,,,,,,,,,,,,,,,
,,65fb2f8291cf16104e63effc,6685aa9113c938e83b4f1ea0,66d5a39caba459a0a10a4059,2024-09-02_07h38.30.100,WTP_SM_Choice,2022.2.1,Win32,59.88023952,,,,,space,0.6543,NAN,,NAN,0.15,5.85,,0,12,12,12,1,13,Alex,Rej,Participant_Images/65fb2f8291cf16104e63effc/65fb2f8291cf16104e63effc_Images/65fb2f8291cf16104e63effc_Image_12.jpeg,did not like,2.071164779,,,,,,,,,,,,,,,,,,,,,,
,,65fb2f8291cf16104e63effc,6685aa9113c938e83b4f1ea0,66d5a39caba459a0a10a4059,2024-09-02_07h38.30.100,WTP_SM_Choice,2022.2.1,Win32,59.88023952,,,,,space,0.5681,NAN,,NAN,0.15,5.85,,0,13,13,13,1,14,Alex,Rej,Participant_Images/65fb2f8291cf16104e63effc/65fb2f8291cf16104e63effc_Images/65fb2f8291cf16104e63effc_Image_10.jpeg,liked,5.336503566,,,,,,,,,,,,,,,,,,,,,,
,,65fb2f8291cf16104e63effc,6685aa9113c938e83b4f1ea0,66d5a39caba459a0a10a4059,2024-09-02_07h38.30.100,WTP_SM_Choice,2022.2.1,Win32,59.88023952,,,,,,,,,,,,,,,,,,11,,,,,,space,3.5232,space,1.1211,0.01,1,2.7376,0,0,0,0,1,Read in my comfy bed,Go to the movies with my family,0.01,0.03,3.3,1,,,,
,,65fb2f8291cf16104e63effc,6685aa9113c938e83b4f1ea0,66d5a39caba459a0a10a4059,2024-09-02_07h38.30.100,WTP_SM_Choice,2022.2.1,Win32,59.88023952,,,,,,,,,,,,,,,,,,12,,,,,,,,,,0.02,1,3.1136,0,1,1,1,1,Take my dog for a walk on a sunny day,Go to an outdoor concert with my husband,0.02,0.03,4.4,1,,,,
,,65fb2f8291cf16104e63effc,6685aa9113c938e83b4f1ea0,66d5a39caba459a0a10a4059,2024-09-02_07h38.30.100,WTP_SM_Choice,2022.2.1,Win32,59.88023952,,,,,,,,,,,,,,,,,,13,,,,,,,,,,0.03,1,4.5623,0,2,2,2,1,Watch tv with my children in the evening,Read in my comfy bed,0.03,0.03,1.1,0,,,,
,,65fb2f8291cf16104e63effc,6685aa9113c938e83b4f1ea0,66d5a39caba459a0a10a4059,2024-09-02_07h38.30.100,WTP_SM_Choice,2022.2.1,Win32,59.88023952,,,,,,,,,,,,,,,,,,14,,,,,,,,,,0.03,2,3.5673,0,3,3,3,1,Go out for dinner with my dad,Bake cupcakes on a rainy afternoon,0.04,0.03,3.3,0,,,,
,,65fb2f8291cf16104e63effc,6685aa9113c938e83b4f1ea0,66d5a39caba459a0a10a4059,2024-09-02_07h38.30.100,WTP_SM_Choice,2022.2.1,Win32,59.88023952,,,,,,,,,,,,,,,,,,15,,,,,,,,,,0.03,2,3.2273,0,4,4,4,1,Go to an outdoor concert with my husband,Bake cupcakes on a rainy afternoon,0.05,0.03,4.4,0,,,,
,,65fb2f8291cf16104e63effc,6685aa9113c938e83b4f1ea0,66d5a39caba459a0a10a4059,2024-09-02_07h38.30.100,WTP_SM_Choice,2022.2.1,Win32,59.88023952,,,,,,,NAN,,NAN,0.27,5.73,,0,14,14,14,1,15,Alex,Rej,Participant_Images/65fb2f8291cf16104e63effc/65fb2f8291cf16104e63effc_Images/65fb2f8291cf16104e63effc_Image_20.jpeg,did not like,2.642157193,,,,,,,,,,,,,,,,,,,,,,
,,65fb2f8291cf16104e63effc,6685aa9113c938e83b4f1ea0,66d5a39caba459a0a10a4059,2024-09-02_07h38.30.100,WTP_SM_Choice,2022.2.1,Win32,59.88023952,,,,,space,0.5747,NAN,,NAN,0.27,5.73,,0,15,15,15,1,16,Alex,Rej,Participant_Images/65fb2f8291cf16104e63effc/65fb2f8291cf16104e63effc_Images/65fb2f8291cf16104e63effc_Image_13.jpeg,did not like,4.456234322,,,,,,,,,,,,,,,,,,,,,,
,,65fb2f8291cf16104e63effc,6685aa9113c938e83b4f1ea0,66d5a39caba459a0a10a4059,2024-09-02_07h38.30.100,WTP_SM_Choice,2022.2.1,Win32,59.88023952,,,,,space,0.8082,NAN,,NAN,0.27,5.73,,0,16,16,16,1,17,Alex,Rej,Participant_Images/65fb2f8291cf16104e63effc/65fb2f8291cf16104e63effc_Images/65fb2f8291cf16104e63effc_Image_25.jpeg,did not like,4.438512181,,,,,,,,,,,,,,,,,,,,,,
,,65fb2f8291cf16104e63effc,6685aa9113c938e83b4f1ea0,66d5a39caba459a0a10a4059,2024-09-02_07h38.30.100,WTP_SM_Choice,2022.2.1,Win32,59.88023952,,,,,space,0.5215,NAN,,NAN,0.27,5.73,,0,17,17,17,1,18,Alex,Rej,Participant_Images/65fb2f8291cf16104e63effc/65fb2f8291cf16104e63effc_Images/65fb2f8291cf16104e63effc_Image_14.jpeg,liked,2.682944783,,,,,,,,,,,,,,,,,,,,,,
,,65fb2f8291cf16104e63effc,6685aa9113c938e83b4f1ea0,66d5a39caba459a0a10a4059,2024-09-02_07h38.30.100,WTP_SM_Choice,2022.2.1,Win32,59.88023952,,,,,space,0.4011,NAN,,NAN,0.27,5.73,,0,18,18,18,1,19,Alex,Rej,Participant_Images/65fb2f8291cf16104e63effc/65fb2f8291cf16104e63effc_Images/65fb2f8291cf16104e63effc_Image_7.jpeg,did not like,4.51984296,,,,,,,,,,,,,,,,,,,,,,
,,65fb2f8291cf16104e63effc,6685aa9113c938e83b4f1ea0,66d5a39caba459a0a10a4059,2024-09-02_07h38.30.100,WTP_SM_Choice,2022.2.1,Win32,59.88023952,,,,,,,,,,,,,,,,,,16,,,,,,space,2.8783,space,1.0597,0.01,1,3.2912,0,0,0,0,1,Play Sodoku on a quiet afternoon in my living room,Go out for dinner with my dad,0.01,0.04,1.1,1,,,,
,,65fb2f8291cf16104e63effc,6685aa9113c938e83b4f1ea0,66d5a39caba459a0a10a4059,2024-09-02_07h38.30.100,WTP_SM_Choice,2022.2.1,Win32,59.88023952,,,,,,,,,,,,,,,,,,17,,,,,,,,,,0.04,2,4.2627,0,1,1,1,1,Bake cupcakes with my children,Take my dog to the dogpark,0.02,0.04,8.8,0,,,,
,,65fb2f8291cf16104e63effc,6685aa9113c938e83b4f1ea0,66d5a39caba459a0a10a4059,2024-09-02_07h38.30.100,WTP_SM_Choice,2022.2.1,Win32,59.88023952,,,,,,,,,,,,,,,,,,18,,,,,,,,,,0.04,2,2.9553,0,2,2,2,1,Bake cupcakes with my children,Shop online from my couch,0.03,0.04,3.3,0,,,,
,,65fb2f8291cf16104e63effc,6685aa9113c938e83b4f1ea0,66d5a39caba459a0a10a4059,2024-09-02_07h38.30.100,WTP_SM_Choice,2022.2.1,Win32,59.88023952,,,,,,,,,,,,,,,,,,19,,,,,,,,,,0.04,2,3.0982,0,3,3,3,1,Go out for breakfast with my mom,Take my dog to the dogpark,0.04,0.04,3.3,0,,,,
,,65fb2f8291cf16104e63effc,6685aa9113c938e83b4f1ea0,66d5a39caba459a0a10a4059,2024-09-02_07h38.30.100,WTP_SM_Choice,2022.2.1,Win32,59.88023952,,,,,,,,,,,,,,,,,,20,,,,,,,,,,0.04,2,3.9032,0,4,4,4,1,Lounge on the beach on a warm sunny day,Go out for dinner with my dad,0.05,0.04,1.1,1,,,,
,,65fb2f8291cf16104e63effc,6685aa9113c938e83b4f1ea0,66d5a39caba459a0a10a4059,2024-09-02_07h38.30.100,WTP_SM_Choice,2022.2.1,Win32,59.88023952,,,,,,,NAN,,NAN,0.44,5.56,,0,19,19,19,1,20,Alex,Rej,Participant_Images/65fb2f8291cf16104e63effc/65fb2f8291cf16104e63effc_Images/65fb2f8291cf16104e63effc_Image_16.jpeg,liked,3.195382774,,,,,,,,,,,,,,,,,,,,,,
,,65fb2f8291cf16104e63effc,6685aa9113c938e83b4f1ea0,66d5a39caba459a0a10a4059,2024-09-02_07h38.30.100,WTP_SM_Choice,2022.2.1,Win32,59.88023952,,,,,space,0.3836,NAN,,NAN,0.44,5.56,,0,20,20,20,1,21,Alex,Rej,Participant_Images/65fb2f8291cf16104e63effc/65fb2f8291cf16104e63effc_Images/65fb2f8291cf16104e63effc_Image_24.jpeg,did not like,1.779333479,,,,,,,,,,,,,,,,,,,,,,
,,65fb2f8291cf16104e63effc,6685aa9113c938e83b4f1ea0,66d5a39caba459a0a10a4059,2024-09-02_07h38.30.100,WTP_SM_Choice,2022.2.1,Win32,59.88023952,,,,,space,0.3888,NAN,,NAN,0.44,5.56,,0,21,21,21,1,22,Alex,Rej,Participant_Images/65fb2f8291cf16104e63effc/65fb2f8291cf16104e63effc_Images/65fb2f8291cf16104e63effc_Image_23.jpeg,did not like,4.312468682,,,,,,,,,,,,,,,,,,,,,,
,,65fb2f8291cf16104e63effc,6685aa9113c938e83b4f1ea0,66d5a39caba459a0a10a4059,2024-09-02_07h38.30.100,WTP_SM_Choice,2022.2.1,Win32,59.88023952,,,,,space,0.451,NAN,,NAN,0.44,5.56,,0,22,22,22,1,23,Alex,Rej,Participant_Images/65fb2f8291cf16104e63effc/65fb2f8291cf16104e63effc_Images/65fb2f8291cf16104e63effc_Image_1.jpeg,did not like,4.940433059,,,,,,,,,,,,,,,,,,,,,,
,,65fb2f8291cf16104e63effc,6685aa9113c938e83b4f1ea0,66d5a39caba459a0a10a4059,2024-09-02_07h38.30.100,WTP_SM_Choice,2022.2.1,Win32,59.88023952,,,,,space,0.4506,NAN,,NAN,0.44,5.56,,0,23,23,23,1,24,Alex,Rej,Participant_Images/65fb2f8291cf16104e63effc/65fb2f8291cf16104e63effc_Images/65fb2f8291cf16104e63effc_Image_21.jpeg,did not like,2.7105123,,,,,,,,,,,,,,,,,,,,,,
,,65fb2f8291cf16104e63effc,6685aa9113c938e83b4f1ea0,66d5a39caba459a0a10a4059,2024-09-02_07h38.30.100,WTP_SM_Choice,2022.2.1,Win32,59.88023952,,,,,,,,,,,,,,,,,,21,,,,,,space,1.7911,space,1.4753,0.05,2,4.5463,0,0,0,0,1,Go out to dinner with my husband,Lounge on the beach on a warm sunny day,0.01,0.05,8.8,0,,,,
,,65fb2f8291cf16104e63effc,6685aa9113c938e83b4f1ea0,66d5a39caba459a0a10a4059,2024-09-02_07h38.30.100,WTP_SM_Choice,2022.2.1,Win32,59.88023952,,,,,,,,,,,,,,,,,,22,,,,,,,,,,0.02,1,4.5625,0,1,1,1,1,Do crossword puzzles on my patio,Get drinks with my best friend after work,0.02,0.05,4.4,1,,,,
,,65fb2f8291cf16104e63effc,6685aa9113c938e83b4f1ea0,66d5a39caba459a0a10a4059,2024-09-02_07h38.30.100,WTP_SM_Choice,2022.2.1,Win32,59.88023952,,,,,,,,,,,,,,,,,,23,,,,,,,,,,0.03,1,4.364,0,2,2,2,1,Play Sodoku on a quiet afternoon in my living room,Watch tv with my children in the evening,0.03,0.05,1.1,1,,,,
,,65fb2f8291cf16104e63effc,6685aa9113c938e83b4f1ea0,66d5a39caba459a0a10a4059,2024-09-02_07h38.30.100,WTP_SM_Choice,2022.2.1,Win32,59.88023952,,,,,,,,,,,,,,,,,,24,,,,,,,,,,0.05,2,3.7021,0,3,3,3,1,Go to the movies with my family on a sunday afternoon,Play Sodoku on a quiet afternoon in my living room,0.04,0.05,4.4,0,,,,
,,65fb2f8291cf16104e63effc,6685aa9113c938e83b4f1ea0,66d5a39caba459a0a10a4059,2024-09-02_07h38.30.100,WTP_SM_Choice,2022.2.1,Win32,59.88023952,,,,,,,,,,,,,,,,,,25,,,,,,,,,,0.05,1,3.3061,0,4,4,4,1,Get drinks with my best friend after work,Play Sodoku on a quiet afternoon in my living room,0.05,0.05,3.3,0,,,,
,,65fb2f8291cf16104e63effc,6685aa9113c938e83b4f1ea0,66d5a39caba459a0a10a4059,2024-09-02_07h38.30.100,WTP_SM_Choice,2022.2.1,Win32,59.88023952,,,,,,,1,,5,0.64,5.36,,0,24,24,24,1,25,Alex,Rej,Participant_Images/65fb2f8291cf16104e63effc/65fb2f8291cf16104e63effc_Images/65fb2f8291cf16104e63effc_Image_11.jpeg,did not like,3.602308302,,,,,,,,,,,,,,,,,,,space,1.0994,,
,,65fb2f8291cf16104e63effc,6685aa9113c938e83b4f1ea0,66d5a39caba459a0a10a4059,2024-09-02_07h38.30.100,WTP_SM_Choice,2022.2.1,Win32,59.88023952,,,space,2.0276,space,0.4785,NAN,,NAN,0.64,5.36,,0,25,25,25,1,26,Riley,Rej,Participant_Images/65fb2f8291cf16104e63effc/65fb2f8291cf16104e63effc_Images/65fb2f8291cf16104e63effc_Image_1.jpeg,did not like,4.106391878,,,,,,,,,,,,,,,,,,,,,,
,,65fb2f8291cf16104e63effc,6685aa9113c938e83b4f1ea0,66d5a39caba459a0a10a4059,2024-09-02_07h38.30.100,WTP_SM_Choice,2022.2.1,Win32,59.88023952,,,,,space,0.4732,NAN,,NAN,0.64,5.36,,0,26,26,26,1,27,Riley,Rej,Participant_Images/65fb2f8291cf16104e63effc/65fb2f8291cf16104e63effc_Images/65fb2f8291cf16104e63effc_Image_13.jpeg,liked,3.799433026,,,,,,,,,,,,,,,,,,,,,,
,,65fb2f8291cf16104e63effc,6685aa9113c938e83b4f1ea0,66d5a39caba459a0a10a4059,2024-09-02_07h38.30.100,WTP_SM_Choice,2022.2.1,Win32,59.88023952,,,,,space,0.3538,NAN,,NAN,0.64,5.36,,0,27,27,27,1,28,Riley,Rej,Participant_Images/65fb2f8291cf16104e63effc/65fb2f8291cf16104e63effc_Images/65fb2f8291cf16104e63effc_Image_17.jpeg,did not like,5.246980764,,,,,,,,,,,,,,,,,,,,,,
,,65fb2f8291cf16104e63effc,6685aa9113c938e83b4f1ea0,66d5a39caba459a0a10a4059,2024-09-02_07h38.30.100,WTP_SM_Choice,2022.2.1,Win32,59.88023952,,,,,space,0.4072,NAN,,NAN,0.64,5.36,,0,28,28,28,1,29,Riley,Rej,Participant_Images/65fb2f8291cf16104e63effc/65fb2f8291cf16104e63effc_Images/65fb2f8291cf16104e63effc_Image_19.jpeg,did not like,3.30081769,,,,,,,,,,,,,,,,,,,,,,
,,65fb2f8291cf16104e63effc,6685aa9113c938e83b4f1ea0,66d5a39caba459a0a10a4059,2024-09-02_07h38.30.100,WTP_SM_Choice,2022.2.1,Win32,59.88023952,,,,,,,,,,,,,,,,,,26,,,,,,space,2.0835,space,0.9243,0.01,2,3.0732,0,0,0,0,1,Go out for breakfast with my mom,Play Sodoku on a quiet afternoon in my living room,0.01,0.01,4.4,0,,,,
,,65fb2f8291cf16104e63effc,6685aa9113c938e83b4f1ea0,66d5a39caba459a0a10a4059,2024-09-02_07h38.30.100,WTP_SM_Choice,2022.2.1,Win32,59.88023952,,,,,,,,,,,,,,,,,,27,,,,,,,,,,0.02,1,3.6419,0,1,1,1,1,Pick vegetables from my garden ,Go to the movies with my family on a sunday afternoon,0.02,0.01,3.3,1,,,,
,,65fb2f8291cf16104e63effc,6685aa9113c938e83b4f1ea0,66d5a39caba459a0a10a4059,2024-09-02_07h38.30.100,WTP_SM_Choice,2022.2.1,Win32,59.88023952,,,,,,,,,,,,,,,,,,28,,,,,,,,,,0.01,2,2.6649,0,2,2,2,1,Go to the movies with my family,Do crossword puzzles on my patio,0.03,0.01,3.3,0,,,,
,,65fb2f8291cf16104e63effc,6685aa9113c938e83b4f1ea0,66d5a39caba459a0a10a4059,2024-09-02_07h38.30.100,WTP_SM_Choice,2022.2.1,Win32,59.88023952,,,,,,,,,,,,,,,,,,29,,,,,,,,,,0.01,2,2.9515,0,3,3,3,1,Play on the beach with my dog and children,Pick vegetables from my garden ,0.04,0.01,4.4,0,,,,
,,65fb2f8291cf16104e63effc,6685aa9113c938e83b4f1ea0,66d5a39caba459a0a10a4059,2024-09-02_07h38.30.100,WTP_SM_Choice,2022.2.1,Win32,59.88023952,,,,,,,,,,,,,,,,,,30,,,,,,,,,,0.01,2,3.086,0,4,4,4,1,Go out to dinner with my husband,Play Sodoku on a quiet afternoon in my living room,0.05,0.01,8.8,0,,,,
,,65fb2f8291cf16104e63effc,6685aa9113c938e83b4f1ea0,66d5a39caba459a0a10a4059,2024-09-02_07h38.30.100,WTP_SM_Choice,2022.2.1,Win32,59.88023952,,,,,,,NAN,,NAN,0.7,5.3,,0,29,29,29,1,30,Riley,Rej,Participant_Images/65fb2f8291cf16104e63effc/65fb2f8291cf16104e63effc_Images/65fb2f8291cf16104e63effc_Image_23.jpeg,did not like,1.661473164,,,,,,,,,,,,,,,,,,,,,,
,,65fb2f8291cf16104e63effc,6685aa9113c938e83b4f1ea0,66d5a39caba459a0a10a4059,2024-09-02_07h38.30.100,WTP_SM_Choice,2022.2.1,Win32,59.88023952,,,,,space,0.3549,NAN,,NAN,0.7,5.3,,0,30,30,30,1,31,Riley,Rej,Participant_Images/65fb2f8291cf16104e63effc/65fb2f8291cf16104e63effc_Images/65fb2f8291cf16104e63effc_Image_20.jpeg,did not like,3.613205605,,,,,,,,,,,,,,,,,,,,,,
,,65fb2f8291cf16104e63effc,6685aa9113c938e83b4f1ea0,66d5a39caba459a0a10a4059,2024-09-02_07h38.30.100,WTP_SM_Choice,2022.2.1,Win32,59.88023952,,,,,space,0.4167,NAN,,NAN,0.7,5.3,,0,31,31,31,1,32,Riley,Rej,Participant_Images/65fb2f8291cf16104e63effc/65fb2f8291cf16104e63effc_Images/65fb2f8291cf16104e63effc_Image_25.jpeg,did not like,4.988446431,,,,,,,,,,,,,,,,,,,,,,
,,65fb2f8291cf16104e63effc,6685aa9113c938e83b4f1ea0,66d5a39caba459a0a10a4059,2024-09-02_07h38.30.100,WTP_SM_Choice,2022.2.1,Win32,59.88023952,,,,,space,0.3841,NAN,,NAN,0.7,5.3,,0,32,32,32,1,33,Riley,Rej,Participant_Images/65fb2f8291cf16104e63effc/65fb2f8291cf16104e63effc_Images/65fb2f8291cf16104e63effc_Image_10.jpeg,did not like,3.470791822,,,,,,,,,,,,,,,,,,,,,,
,,65fb2f8291cf16104e63effc,6685aa9113c938e83b4f1ea0,66d5a39caba459a0a10a4059,2024-09-02_07h38.30.100,WTP_SM_Choice,2022.2.1,Win32,59.88023952,,,,,space,0.521,NAN,,NAN,0.7,5.3,,0,33,33,33,1,34,Riley,Rej,Participant_Images/65fb2f8291cf16104e63effc/65fb2f8291cf16104e63effc_Images/65fb2f8291cf16104e63effc_Image_4.jpeg,did not like,3.820572462,,,,,,,,,,,,,,,,,,,,,,
,,65fb2f8291cf16104e63effc,6685aa9113c938e83b4f1ea0,66d5a39caba459a0a10a4059,2024-09-02_07h38.30.100,WTP_SM_Choice,2022.2.1,Win32,59.88023952,,,,,,,,,,,,,,,,,,31,,,,,,space,0.8215,space,0.7831,0.01,1,2.3892,0,0,0,0,1,Shop online from my couch,Go out for breakfast with my mom,0.01,0.02,8.8,1,,,,
,,65fb2f8291cf16104e63effc,6685aa9113c938e83b4f1ea0,66d5a39caba459a0a10a4059,2024-09-02_07h38.30.100,WTP_SM_Choice,2022.2.1,Win32,59.88023952,,,,,,,,,,,,,,,,,,32,,,,,,,,,,0.02,1,3.309,0,1,1,1,1,Lounge on the beach on a warm sunny day,Go to the movies with my family,0.02,0.02,1.1,1,,,,
,,65fb2f8291cf16104e63effc,6685aa9113c938e83b4f1ea0,66d5a39caba459a0a10a4059,2024-09-02_07h38.30.100,WTP_SM_Choice,2022.2.1,Win32,59.88023952,,,,,,,,,,,,,,,,,,33,,,,,,,,,,0.03,1,3.9974,0,2,2,2,1,Read in my comfy bed,Go to the movies with my family on a sunday afternoon,0.03,0.02,4.4,1,,,,
,,65fb2f8291cf16104e63effc,6685aa9113c938e83b4f1ea0,66d5a39caba459a0a10a4059,2024-09-02_07h38.30.100,WTP_SM_Choice,2022.2.1,Win32,59.88023952,,,,,,,,,,,,,,,,,,34,,,,,,,,,,0.04,1,3.5784,0,3,3,3,1,Lounge on the beach on a warm sunny day,Go to the movies with my family on a sunday afternoon,0.04,0.02,3.3,1,,,,
,,65fb2f8291cf16104e63effc,6685aa9113c938e83b4f1ea0,66d5a39caba459a0a10a4059,2024-09-02_07h38.30.100,WTP_SM_Choice,2022.2.1,Win32,59.88023952,,,,,,,,,,,,,,,,,,35,,,,,,,,,,0.02,2,3.058,0,4,4,4,1,Watch tv with my children in the evening,Listen to music on a walk ,0.05,0.02,1.1,0,,,,
,,65fb2f8291cf16104e63effc,6685aa9113c938e83b4f1ea0,66d5a39caba459a0a10a4059,2024-09-02_07h38.30.100,WTP_SM_Choice,2022.2.1,Win32,59.88023952,,,,,,,NAN,,NAN,0.82,5.18,,0,34,34,34,1,35,Riley,Rej,Participant_Images/65fb2f8291cf16104e63effc/65fb2f8291cf16104e63effc_Images/65fb2f8291cf16104e63effc_Image_2.jpeg,did not like,2.455989137,,,,,,,,,,,,,,,,,,,,,,
,,65fb2f8291cf16104e63effc,6685aa9113c938e83b4f1ea0,66d5a39caba459a0a10a4059,2024-09-02_07h38.30.100,WTP_SM_Choice,2022.2.1,Win32,59.88023952,,,,,space,0.3416,NAN,,NAN,0.82,5.18,,0,35,35,35,1,36,Riley,Rej,Participant_Images/65fb2f8291cf16104e63effc/65fb2f8291cf16104e63effc_Images/65fb2f8291cf16104e63effc_Image_6.jpeg,liked,3.79605092,,,,,,,,,,,,,,,,,,,,,,
,,65fb2f8291cf16104e63effc,6685aa9113c938e83b4f1ea0,66d5a39caba459a0a10a4059,2024-09-02_07h38.30.100,WTP_SM_Choice,2022.2.1,Win32,59.88023952,,,,,space,0.4403,NAN,,NAN,0.82,5.18,,0,36,36,36,1,37,Riley,Rej,Participant_Images/65fb2f8291cf16104e63effc/65fb2f8291cf16104e63effc_Images/65fb2f8291cf16104e63effc_Image_14.jpeg,did not like,3.562416326,,,,,,,,,,,,,,,,,,,,,,
,,65fb2f8291cf16104e63effc,6685aa9113c938e83b4f1ea0,66d5a39caba459a0a10a4059,2024-09-02_07h38.30.100,WTP_SM_Choice,2022.2.1,Win32,59.88023952,,,,,space,0.4714,NAN,,NAN,0.82,5.18,,0,37,37,37,1,38,Riley,Rej,Participant_Images/65fb2f8291cf16104e63effc/65fb2f8291cf16104e63effc_Images/65fb2f8291cf16104e63effc_Image_5.jpeg,did not like,2.843822497,,,,,,,,,,,,,,,,,,,,,,
,,65fb2f8291cf16104e63effc,6685aa9113c938e83b4f1ea0,66d5a39caba459a0a10a4059,2024-09-02_07h38.30.100,WTP_SM_Choice,2022.2.1,Win32,59.88023952,,,,,space,0.4832,NAN,,NAN,0.82,5.18,,0,38,38,38,1,39,Riley,Rej,Participant_Images/65fb2f8291cf16104e63effc/65fb2f8291cf16104e63effc_Images/65fb2f8291cf16104e63effc_Image_18.jpeg,did not like,3.546495948,,,,,,,,,,,,,,,,,,,,,,
,,65fb2f8291cf16104e63effc,6685aa9113c938e83b4f1ea0,66d5a39caba459a0a10a4059,2024-09-02_07h38.30.100,WTP_SM_Choice,2022.2.1,Win32,59.88023952,,,,,,,,,,,,,,,,,,36,,,,,,space,0.8945,space,0.9168,0.01,1,2.9563,0,0,0,0,1,Bake cupcakes on a rainy afternoon,Go out for breakfast with my mom,0.01,0.03,3.3,1,,,,
,,65fb2f8291cf16104e63effc,6685aa9113c938e83b4f1ea0,66d5a39caba459a0a10a4059,2024-09-02_07h38.30.100,WTP_SM_Choice,2022.2.1,Win32,59.88023952,,,,,,,,,,,,,,,,,,37,,,,,,,,,,0.02,1,2.4459,0,1,1,1,1,Read in my comfy bed,Go out for breakfast with my mom,0.02,0.03,1.1,1,,,,
,,65fb2f8291cf16104e63effc,6685aa9113c938e83b4f1ea0,66d5a39caba459a0a10a4059,2024-09-02_07h38.30.100,WTP_SM_Choice,2022.2.1,Win32,59.88023952,,,,,,,,,,,,,,,,,,38,,,,,,,,,,0.03,2,3.5713,0,2,2,2,1,Take my dog for a walk on a sunny day,Get drinks with my best friend after work,0.03,0.03,1.1,1,,,,
,,65fb2f8291cf16104e63effc,6685aa9113c938e83b4f1ea0,66d5a39caba459a0a10a4059,2024-09-02_07h38.30.100,WTP_SM_Choice,2022.2.1,Win32,59.88023952,,,,,,,,,,,,,,,,,,39,,,,,,,,,,0.03,2,2.9025,0,3,3,3,1,Bake cupcakes with my children,Take my dog for a walk on a sunny day,0.04,0.03,3.3,0,,,,
,,65fb2f8291cf16104e63effc,6685aa9113c938e83b4f1ea0,66d5a39caba459a0a10a4059,2024-09-02_07h38.30.100,WTP_SM_Choice,2022.2.1,Win32,59.88023952,,,,,,,,,,,,,,,,,,40,,,,,,,,,,0.03,2,2.7481,0,4,4,4,1,Lounge on the beach on a warm sunny day,Get drinks with my best friend after work,0.05,0.03,4.4,1,,,,
,,65fb2f8291cf16104e63effc,6685aa9113c938e83b4f1ea0,66d5a39caba459a0a10a4059,2024-09-02_07h38.30.100,WTP_SM_Choice,2022.2.1,Win32,59.88023952,,,,,,,NAN,,NAN,0.94,5.06,,0,39,39,39,1,40,Riley,Rej,Participant_Images/65fb2f8291cf16104e63effc/65fb2f8291cf16104e63effc_Images/65fb2f8291cf16104e63effc_Image_24.jpeg,liked,1.672012706,,,,,,,,,,,,,,,,,,,,,,
,,65fb2f8291cf16104e63effc,6685aa9113c938e83b4f1ea0,66d5a39caba459a0a10a4059,2024-09-02_07h38.30.100,WTP_SM_Choice,2022.2.1,Win32,59.88023952,,,,,space,0.5179,NAN,,NAN,0.94,5.06,,0,40,40,40,1,41,Riley,Rej,Participant_Images/65fb2f8291cf16104e63effc/65fb2f8291cf16104e63effc_Images/65fb2f8291cf16104e63effc_Image_16.jpeg,did not like,4.942172136,,,,,,,,,,,,,,,,,,,,,,
,,65fb2f8291cf16104e63effc,6685aa9113c938e83b4f1ea0,66d5a39caba459a0a10a4059,2024-09-02_07h38.30.100,WTP_SM_Choice,2022.2.1,Win32,59.88023952,,,,,space,0.4263,NAN,,NAN,0.94,5.06,,0,41,41,41,1,42,Riley,Rej,Participant_Images/65fb2f8291cf16104e63effc/65fb2f8291cf16104e63effc_Images/65fb2f8291cf16104e63effc_Image_15.jpeg,liked,2.50187214,,,,,,,,,,,,,,,,,,,,,,
,,65fb2f8291cf16104e63effc,6685aa9113c938e83b4f1ea0,66d5a39caba459a0a10a4059,2024-09-02_07h38.30.100,WTP_SM_Choice,2022.2.1,Win32,59.88023952,,,,,space,0.3836,NAN,,NAN,0.94,5.06,,0,42,42,42,1,43,Riley,Rej,Participant_Images/65fb2f8291cf16104e63effc/65fb2f8291cf16104e63effc_Images/65fb2f8291cf16104e63effc_Image_22.jpeg,liked,2.071164779,,,,,,,,,,,,,,,,,,,,,,
,,65fb2f8291cf16104e63effc,6685aa9113c938e83b4f1ea0,66d5a39caba459a0a10a4059,2024-09-02_07h38.30.100,WTP_SM_Choice,2022.2.1,Win32,59.88023952,,,,,space,0.5565,NAN,,NAN,0.94,5.06,,0,43,43,43,1,44,Riley,Rej,Participant_Images/65fb2f8291cf16104e63effc/65fb2f8291cf16104e63effc_Images/65fb2f8291cf16104e63effc_Image_8.jpeg,did not like,5.336503566,,,,,,,,,,,,,,,,,,,,,,
,,65fb2f8291cf16104e63effc,6685aa9113c938e83b4f1ea0,66d5a39caba459a0a10a4059,2024-09-02_07h38.30.100,WTP_SM_Choice,2022.2.1,Win32,59.88023952,,,,,,,,,,,,,,,,,,41,,,,,,space,0.5669,space,0.4833,0.01,1,2.1274,0,0,0,0,1,Read in my comfy bed,Bake cupcakes with my children,0.01,0.04,1.1,1,,,,
,,65fb2f8291cf16104e63effc,6685aa9113c938e83b4f1ea0,66d5a39caba459a0a10a4059,2024-09-02_07h38.30.100,WTP_SM_Choice,2022.2.1,Win32,59.88023952,,,,,,,,,,,,,,,,,,42,,,,,,,,,,0.02,1,2.5194,0,1,1,1,1,Lounge on the beach on a warm sunny day,Go to an outdoor concert with my husband,0.02,0.04,3.3,1,,,,
,,65fb2f8291cf16104e63effc,6685aa9113c938e83b4f1ea0,66d5a39caba459a0a10a4059,2024-09-02_07h38.30.100,WTP_SM_Choice,2022.2.1,Win32,59.88023952,,,,,,,,,,,,,,,,,,43,,,,,,,,,,0.03,1,2.6668,0,2,2,2,1,Shop online from my couch,Go to the movies with my family on a sunday afternoon,0.03,0.04,1.1,1,,,,
,,65fb2f8291cf16104e63effc,6685aa9113c938e83b4f1ea0,66d5a39caba459a0a10a4059,2024-09-02_07h38.30.100,WTP_SM_Choice,2022.2.1,Win32,59.88023952,,,,,,,,,,,,,,,,,,44,,,,,,,,,,0.04,1,2.288,0,3,3,3,1,Do crossword puzzles on my patio,Go out to dinner with my husband,0.04,0.04,1.1,1,,,,
,,65fb2f8291cf16104e63effc,6685aa9113c938e83b4f1ea0,66d5a39caba459a0a10a4059,2024-09-02_07h38.30.100,WTP_SM_Choice,2022.2.1,Win32,59.88023952,,,,,,,,,,,,,,,,,,45,,,,,,,,,,0.04,2,2.5353,0,4,4,4,1,Go to the movies with my family,Play Sodoku on a quiet afternoon in my living room,0.05,0.04,4.4,0,,,,
,,65fb2f8291cf16104e63effc,6685aa9113c938e83b4f1ea0,66d5a39caba459a0a10a4059,2024-09-02_07h38.30.100,WTP_SM_Choice,2022.2.1,Win32,59.88023952,,,,,,,NAN,,NAN,1.08,4.92,,0,44,44,44,1,45,Riley,Rej,Participant_Images/65fb2f8291cf16104e63effc/65fb2f8291cf16104e63effc_Images/65fb2f8291cf16104e63effc_Image_3.jpeg,did not like,2.642157193,,,,,,,,,,,,,,,,,,,,,,
,,65fb2f8291cf16104e63effc,6685aa9113c938e83b4f1ea0,66d5a39caba459a0a10a4059,2024-09-02_07h38.30.100,WTP_SM_Choice,2022.2.1,Win32,59.88023952,,,,,space,0.3895,NAN,,NAN,1.08,4.92,,0,45,45,45,1,46,Riley,Rej,Participant_Images/65fb2f8291cf16104e63effc/65fb2f8291cf16104e63effc_Images/65fb2f8291cf16104e63effc_Image_9.jpeg,liked,4.456234322,,,,,,,,,,,,,,,,,,,,,,
,,65fb2f8291cf16104e63effc,6685aa9113c938e83b4f1ea0,66d5a39caba459a0a10a4059,2024-09-02_07h38.30.100,WTP_SM_Choice,2022.2.1,Win32,59.88023952,,,,,space,0.3,NAN,,NAN,1.08,4.92,,0,46,46,46,1,47,Riley,Rej,Participant_Images/65fb2f8291cf16104e63effc/65fb2f8291cf16104e63effc_Images/65fb2f8291cf16104e63effc_Image_12.jpeg,did not like,4.438512181,,,,,,,,,,,,,,,,,,,,,,
,,65fb2f8291cf16104e63effc,6685aa9113c938e83b4f1ea0,66d5a39caba459a0a10a4059,2024-09-02_07h38.30.100,WTP_SM_Choice,2022.2.1,Win32,59.88023952,,,,,space,0.539,NAN,,NAN,1.08,4.92,,0,47,47,47,1,48,Riley,Rej,Participant_Images/65fb2f8291cf16104e63effc/65fb2f8291cf16104e63effc_Images/65fb2f8291cf16104e63effc_Image_11.jpeg,did not like,2.682944783,,,,,,,,,,,,,,,,,,,,,,
,,65fb2f8291cf16104e63effc,6685aa9113c938e83b4f1ea0,66d5a39caba459a0a10a4059,2024-09-02_07h38.30.100,WTP_SM_Choice,2022.2.1,Win32,59.88023952,,,,,space,0.4701,NAN,,NAN,1.08,4.92,,0,48,48,48,1,49,Riley,Rej,Participant_Images/65fb2f8291cf16104e63effc/65fb2f8291cf16104e63effc_Images/65fb2f8291cf16104e63effc_Image_7.jpeg,did not like,4.51984296,,,,,,,,,,,,,,,,,,,,,,
,,65fb2f8291cf16104e63effc,6685aa9113c938e83b4f1ea0,66d5a39caba459a0a10a4059,2024-09-02_07h38.30.100,WTP_SM_Choice,2022.2.1,Win32,59.88023952,,,,,,,,,,,,,,,,,,46,,,,,,space,0.7855,space,0.567,0.05,2,2.5494,0,0,0,0,1,Go out to dinner with my husband,Take my dog for a walk on a sunny day,0.01,0.05,8.8,0,,,,
,,65fb2f8291cf16104e63effc,6685aa9113c938e83b4f1ea0,66d5a39caba459a0a10a4059,2024-09-02_07h38.30.100,WTP_SM_Choice,2022.2.1,Win32,59.88023952,,,,,,,,,,,,,,,,,,47,,,,,,,,,,0.05,2,2.2268,0,1,1,1,1,Go out to dinner with my husband,Listen to music on a walk ,0.02,0.05,1.1,0,,,,
,,65fb2f8291cf16104e63effc,6685aa9113c938e83b4f1ea0,66d5a39caba459a0a10a4059,2024-09-02_07h38.30.100,WTP_SM_Choice,2022.2.1,Win32,59.88023952,,,,,,,,,,,,,,,,,,48,,,,,,,,,,0.05,2,3.6484,0,2,2,2,1,Watch tv with my children in the evening,Do crossword puzzles on my patio,0.03,0.05,4.4,0,,,,
,,65fb2f8291cf16104e63effc,6685aa9113c938e83b4f1ea0,66d5a39caba459a0a10a4059,2024-09-02_07h38.30.100,WTP_SM_Choice,2022.2.1,Win32,59.88023952,,,,,,,,,,,,,,,,,,49,,,,,,,,,,0.05,2,2.5193,0,3,3,3,1,Go out for dinner with my dad,Do crossword puzzles on my patio,0.04,0.05,3.3,0,,,,
,,65fb2f8291cf16104e63effc,6685aa9113c938e83b4f1ea0,66d5a39caba459a0a10a4059,2024-09-02_07h38.30.100,WTP_SM_Choice,2022.2.1,Win32,59.88023952,,,,,,,,,,,,,,,,,,50,,,,,,,,,,0.05,2,2.4526,0,4,4,4,1,Watch tv with my children in the evening,Take my dog for a walk on a sunny day,0.05,0.05,1.1,0,,,,
,,65fb2f8291cf16104e63effc,6685aa9113c938e83b4f1ea0,66d5a39caba459a0a10a4059,2024-09-02_07h38.30.100,WTP_SM_Choice,2022.2.1,Win32,59.88023952,,,,,,,1,,5,1.33,4.67,,0,49,49,49,1,50,Riley,Rej,Participant_Images/65fb2f8291cf16104e63effc/65fb2f8291cf16104e63effc_Images/65fb2f8291cf16104e63effc_Image_21.jpeg,liked,3.195382774,,,,,,,,,,,,,,,,,,,space,1.3936,,
,,65fb2f8291cf16104e63effc,6685aa9113c938e83b4f1ea0,66d5a39caba459a0a10a4059,2024-09-02_07h38.30.100,WTP_SM_Choice,2022.2.1,Win32,59.88023952,,,space,1.5654,space,0.3473,NAN,,NAN,1.33,4.67,,0,50,50,50,1,51,Sam,Acc,Participant_Images/65fb2f8291cf16104e63effc/65fb2f8291cf16104e63effc_Images/65fb2f8291cf16104e63effc_Image_19.jpeg,did not like,1.779333479,,,,,,,,,,,,,,,,,,,,,,
,,65fb2f8291cf16104e63effc,6685aa9113c938e83b4f1ea0,66d5a39caba459a0a10a4059,2024-09-02_07h38.30.100,WTP_SM_Choice,2022.2.1,Win32,59.88023952,,,,,space,0.3365,NAN,,NAN,1.33,4.67,,0,51,51,51,1,52,Sam,Acc,Participant_Images/65fb2f8291cf16104e63effc/65fb2f8291cf16104e63effc_Images/65fb2f8291cf16104e63effc_Image_8.jpeg,liked,4.312468682,,,,,,,,,,,,,,,,,,,,,,
,,65fb2f8291cf16104e63effc,6685aa9113c938e83b4f1ea0,66d5a39caba459a0a10a4059,2024-09-02_07h38.30.100,WTP_SM_Choice,2022.2.1,Win32,59.88023952,,,,,space,0.4523,NAN,,NAN,1.33,4.67,,0,52,52,52,1,53,Sam,Acc,Participant_Images/65fb2f8291cf16104e63effc/65fb2f8291cf16104e63effc_Images/65fb2f8291cf16104e63effc_Image_10.jpeg,liked,4.940433059,,,,,,,,,,,,,,,,,,,,,,
,,65fb2f8291cf16104e63effc,6685aa9113c938e83b4f1ea0,66d5a39caba459a0a10a4059,2024-09-02_07h38.30.100,WTP_SM_Choice,2022.2.1,Win32,59.88023952,,,,,space,0.3889,NAN,,NAN,1.33,4.67,,0,53,53,53,1,54,Sam,Acc,Participant_Images/65fb2f8291cf16104e63effc/65fb2f8291cf16104e63effc_Images/65fb2f8291cf16104e63effc_Image_25.jpeg,did not like,2.7105123,,,,,,,,,,,,,,,,,,,,,,
,,65fb2f8291cf16104e63effc,6685aa9113c938e83b4f1ea0,66d5a39caba459a0a10a4059,2024-09-02_07h38.30.100,WTP_SM_Choice,2022.2.1,Win32,59.88023952,,,,,,,,,,,,,,,,,,51,,,,,,space,0.5293,space,0.4141,0.01,1,2.1491,0,0,0,0,1,Listen to music on a walk ,Go to the movies with my family,0.01,0.01,1.1,1,,,,
,,65fb2f8291cf16104e63effc,6685aa9113c938e83b4f1ea0,66d5a39caba459a0a10a4059,2024-09-02_07h38.30.100,WTP_SM_Choice,2022.2.1,Win32,59.88023952,,,,,,,,,,,,,,,,,,52,,,,,,,,,,0.02,1,2.1519,0,1,1,1,1,Shop online from my couch,Go to the movies with my family,0.02,0.01,3.3,1,,,,
,,65fb2f8291cf16104e63effc,6685aa9113c938e83b4f1ea0,66d5a39caba459a0a10a4059,2024-09-02_07h38.30.100,WTP_SM_Choice,2022.2.1,Win32,59.88023952,,,,,,,,,,,,,,,,,,53,,,,,,,,,,0.01,2,2.3223,0,2,2,2,1,Take my dog to the dogpark,Get drinks with my best friend after work,0.03,0.01,1.1,1,,,,
,,65fb2f8291cf16104e63effc,6685aa9113c938e83b4f1ea0,66d5a39caba459a0a10a4059,2024-09-02_07h38.30.100,WTP_SM_Choice,2022.2.1,Win32,59.88023952,,,,,,,,,,,,,,,,,,54,,,,,,,,,,0.01,2,2.4358,0,3,3,3,1,Go out to dinner with my husband,Bake cupcakes on a rainy afternoon,0.04,0.01,4.4,0,,,,
,,65fb2f8291cf16104e63effc,6685aa9113c938e83b4f1ea0,66d5a39caba459a0a10a4059,2024-09-02_07h38.30.100,WTP_SM_Choice,2022.2.1,Win32,59.88023952,,,,,,,,,,,,,,,,,,55,,,,,,,,,,0.05,1,2.3904,0,4,4,4,1,Take my dog to the dogpark,Go to the movies with my family,0.05,0.01,1.1,1,,,,
,,65fb2f8291cf16104e63effc,6685aa9113c938e83b4f1ea0,66d5a39caba459a0a10a4059,2024-09-02_07h38.30.100,WTP_SM_Choice,2022.2.1,Win32,59.88023952,,,,,,,NAN,,NAN,1.43,4.57,,0,54,54,54,1,55,Sam,Acc,Participant_Images/65fb2f8291cf16104e63effc/65fb2f8291cf16104e63effc_Images/65fb2f8291cf16104e63effc_Image_17.jpeg,liked,3.602308302,,,,,,,,,,,,,,,,,,,,,,
,,65fb2f8291cf16104e63effc,6685aa9113c938e83b4f1ea0,66d5a39caba459a0a10a4059,2024-09-02_07h38.30.100,WTP_SM_Choice,2022.2.1,Win32,59.88023952,,,,,space,0.5747,NAN,,NAN,1.43,4.57,,0,55,55,55,1,56,Sam,Acc,Participant_Images/65fb2f8291cf16104e63effc/65fb2f8291cf16104e63effc_Images/65fb2f8291cf16104e63effc_Image_7.jpeg,liked,4.106391878,,,,,,,,,,,,,,,,,,,,,,
,,65fb2f8291cf16104e63effc,6685aa9113c938e83b4f1ea0,66d5a39caba459a0a10a4059,2024-09-02_07h38.30.100,WTP_SM_Choice,2022.2.1,Win32,59.88023952,,,,,space,0.3749,NAN,,NAN,1.43,4.57,,0,56,56,56,1,57,Sam,Acc,Participant_Images/65fb2f8291cf16104e63effc/65fb2f8291cf16104e63effc_Images/65fb2f8291cf16104e63effc_Image_15.jpeg,liked,3.799433026,,,,,,,,,,,,,,,,,,,,,,
,,65fb2f8291cf16104e63effc,6685aa9113c938e83b4f1ea0,66d5a39caba459a0a10a4059,2024-09-02_07h38.30.100,WTP_SM_Choice,2022.2.1,Win32,59.88023952,,,,,space,0.3607,NAN,,NAN,1.43,4.57,,0,57,57,57,1,58,Sam,Acc,Participant_Images/65fb2f8291cf16104e63effc/65fb2f8291cf16104e63effc_Images/65fb2f8291cf16104e63effc_Image_4.jpeg,liked,5.246980764,,,,,,,,,,,,,,,,,,,,,,
,,65fb2f8291cf16104e63effc,6685aa9113c938e83b4f1ea0,66d5a39caba459a0a10a4059,2024-09-02_07h38.30.100,WTP_SM_Choice,2022.2.1,Win32,59.88023952,,,,,space,1.3306,NAN,,NAN,1.43,4.57,,0,58,58,58,1,59,Sam,Acc,Participant_Images/65fb2f8291cf16104e63effc/65fb2f8291cf16104e63effc_Images/65fb2f8291cf16104e63effc_Image_3.jpeg,liked,3.30081769,,,,,,,,,,,,,,,,,,,,,,
,,65fb2f8291cf16104e63effc,6685aa9113c938e83b4f1ea0,66d5a39caba459a0a10a4059,2024-09-02_07h38.30.100,WTP_SM_Choice,2022.2.1,Win32,59.88023952,,,,,,,,,,,,,,,,,,56,,,,,,space,0.2979,space,0.6208,0.01,1,2.0034,0,0,0,0,1,Pick vegetables from my garden ,Go out to dinner with my husband,0.01,0.02,8.8,1,,,,
,,65fb2f8291cf16104e63effc,6685aa9113c938e83b4f1ea0,66d5a39caba459a0a10a4059,2024-09-02_07h38.30.100,WTP_SM_Choice,2022.2.1,Win32,59.88023952,,,,,,,,,,,,,,,,,,57,,,,,,,,,,0.02,2,3.1521,0,1,1,1,1,Go to the movies with my family on a sunday afternoon,Do crossword puzzles on my patio,0.02,0.02,4.4,0,,,,
,,65fb2f8291cf16104e63effc,6685aa9113c938e83b4f1ea0,66d5a39caba459a0a10a4059,2024-09-02_07h38.30.100,WTP_SM_Choice,2022.2.1,Win32,59.88023952,,,,,,,,,,,,,,,,,,58,,,,,,,,,,0.02,2,2.7575,0,2,2,2,1,Get drinks with my best friend after work,Listen to music on a walk ,0.03,0.02,4.4,0,,,,
,,65fb2f8291cf16104e63effc,6685aa9113c938e83b4f1ea0,66d5a39caba459a0a10a4059,2024-09-02_07h38.30.100,WTP_SM_Choice,2022.2.1,Win32,59.88023952,,,,,,,,,,,,,,,,,,59,,,,,,,,,,0.04,1,2.8464,0,3,3,3,1,Take my dog to the dogpark,Go to the movies with my family on a sunday afternoon,0.04,0.02,4.4,1,,,,
,,65fb2f8291cf16104e63effc,6685aa9113c938e83b4f1ea0,66d5a39caba459a0a10a4059,2024-09-02_07h38.30.100,WTP_SM_Choice,2022.2.1,Win32,59.88023952,,,,,,,,,,,,,,,,,,60,,,,,,,,,,0.02,2,2.524,0,4,4,4,1,Go out for dinner with my dad,Read in my comfy bed,0.05,0.02,1.1,0,,,,
,,65fb2f8291cf16104e63effc,6685aa9113c938e83b4f1ea0,66d5a39caba459a0a10a4059,2024-09-02_07h38.30.100,WTP_SM_Choice,2022.2.1,Win32,59.88023952,,,,,,,NAN,,NAN,1.54,4.46,,0,59,59,59,1,60,Sam,Acc,Participant_Images/65fb2f8291cf16104e63effc/65fb2f8291cf16104e63effc_Images/65fb2f8291cf16104e63effc_Image_20.jpeg,liked,1.661473164,,,,,,,,,,,,,,,,,,,,,,
,,65fb2f8291cf16104e63effc,6685aa9113c938e83b4f1ea0,66d5a39caba459a0a10a4059,2024-09-02_07h38.30.100,WTP_SM_Choice,2022.2.1,Win32,59.88023952,,,,,space,0.2892,NAN,,NAN,1.54,4.46,,0,60,60,60,1,61,Sam,Acc,Participant_Images/65fb2f8291cf16104e63effc/65fb2f8291cf16104e63effc_Images/65fb2f8291cf16104e63effc_Image_16.jpeg,liked,3.613205605,,,,,,,,,,,,,,,,,,,,,,
,,65fb2f8291cf16104e63effc,6685aa9113c938e83b4f1ea0,66d5a39caba459a0a10a4059,2024-09-02_07h38.30.100,WTP_SM_Choice,2022.2.1,Win32,59.88023952,,,,,space,0.4501,NAN,,NAN,1.54,4.46,,0,61,61,61,1,62,Sam,Acc,Participant_Images/65fb2f8291cf16104e63effc/65fb2f8291cf16104e63effc_Images/65fb2f8291cf16104e63effc_Image_12.jpeg,liked,4.988446431,,,,,,,,,,,,,,,,,,,,,,
,,65fb2f8291cf16104e63effc,6685aa9113c938e83b4f1ea0,66d5a39caba459a0a10a4059,2024-09-02_07h38.30.100,WTP_SM_Choice,2022.2.1,Win32,59.88023952,,,,,space,0.5336,NAN,,NAN,1.54,4.46,,0,62,62,62,1,63,Sam,Acc,Participant_Images/65fb2f8291cf16104e63effc/65fb2f8291cf16104e63effc_Images/65fb2f8291cf16104e63effc_Image_13.jpeg,did not like,3.470791822,,,,,,,,,,,,,,,,,,,,,,
,,65fb2f8291cf16104e63effc,6685aa9113c938e83b4f1ea0,66d5a39caba459a0a10a4059,2024-09-02_07h38.30.100,WTP_SM_Choice,2022.2.1,Win32,59.88023952,,,,,space,0.4672,NAN,,NAN,1.54,4.46,,0,63,63,63,1,64,Sam,Acc,Participant_Images/65fb2f8291cf16104e63effc/65fb2f8291cf16104e63effc_Images/65fb2f8291cf16104e63effc_Image_11.jpeg,did not like,3.820572462,,,,,,,,,,,,,,,,,,,,,,
,,65fb2f8291cf16104e63effc,6685aa9113c938e83b4f1ea0,66d5a39caba459a0a10a4059,2024-09-02_07h38.30.100,WTP_SM_Choice,2022.2.1,Win32,59.88023952,,,,,,,,,,,,,,,,,,61,,,,,,space,0.5201,space,0.6046,0.03,2,1.9483,0,0,0,0,1,Watch tv with my children in the evening,Take my dog to the dogpark,0.01,0.03,3.3,0,,,,
,,65fb2f8291cf16104e63effc,6685aa9113c938e83b4f1ea0,66d5a39caba459a0a10a4059,2024-09-02_07h38.30.100,WTP_SM_Choice,2022.2.1,Win32,59.88023952,,,,,,,,,,,,,,,,,,62,,,,,,,,,,0.02,1,2.2963,0,1,1,1,1,Pick vegetables from my garden ,Watch tv with my children in the evening,0.02,0.03,3.3,1,,,,
,,65fb2f8291cf16104e63effc,6685aa9113c938e83b4f1ea0,66d5a39caba459a0a10a4059,2024-09-02_07h38.30.100,WTP_SM_Choice,2022.2.1,Win32,59.88023952,,,,,,,,,,,,,,,,,,63,,,,,,,,,,0.03,2,2.2181,0,2,2,2,1,Play on the beach with my dog and children,Do crossword puzzles on my patio,0.03,0.03,3.3,0,,,,
,,65fb2f8291cf16104e63effc,6685aa9113c938e83b4f1ea0,66d5a39caba459a0a10a4059,2024-09-02_07h38.30.100,WTP_SM_Choice,2022.2.1,Win32,59.88023952,,,,,,,,,,,,,,,,,,64,,,,,,,,,,0.04,1,2.6095,0,3,3,3,1,Get drinks with my best friend after work,Shop online from my couch,0.04,0.03,1.1,0,,,,
,,65fb2f8291cf16104e63effc,6685aa9113c938e83b4f1ea0,66d5a39caba459a0a10a4059,2024-09-02_07h38.30.100,WTP_SM_Choice,2022.2.1,Win32,59.88023952,,,,,,,,,,,,,,,,,,65,,,,,,,,,,0.03,2,3.1865,0,4,4,4,1,Go out for breakfast with my mom,Lounge on the beach on a warm sunny day,0.05,0.03,1.1,0,,,,
,,65fb2f8291cf16104e63effc,6685aa9113c938e83b4f1ea0,66d5a39caba459a0a10a4059,2024-09-02_07h38.30.100,WTP_SM_Choice,2022.2.1,Win32,59.88023952,,,,,,,NAN,,NAN,1.69,4.31,,0,64,64,64,1,65,Sam,Acc,Participant_Images/65fb2f8291cf16104e63effc/65fb2f8291cf16104e63effc_Images/65fb2f8291cf16104e63effc_Image_24.jpeg,liked,2.455989137,,,,,,,,,,,,,,,,,,,,,,
,,65fb2f8291cf16104e63effc,6685aa9113c938e83b4f1ea0,66d5a39caba459a0a10a4059,2024-09-02_07h38.30.100,WTP_SM_Choice,2022.2.1,Win32,59.88023952,,,,,space,0.3336,NAN,,NAN,1.69,4.31,,0,65,65,65,1,66,Sam,Acc,Participant_Images/65fb2f8291cf16104e63effc/65fb2f8291cf16104e63effc_Images/65fb2f8291cf16104e63effc_Image_22.jpeg,liked,3.79605092,,,,,,,,,,,,,,,,,,,,,,
,,65fb2f8291cf16104e63effc,6685aa9113c938e83b4f1ea0,66d5a39caba459a0a10a4059,2024-09-02_07h38.30.100,WTP_SM_Choice,2022.2.1,Win32,59.88023952,,,,,space,0.3487,NAN,,NAN,1.69,4.31,,0,66,66,66,1,67,Sam,Acc,Participant_Images/65fb2f8291cf16104e63effc/65fb2f8291cf16104e63effc_Images/65fb2f8291cf16104e63effc_Image_23.jpeg,liked,3.562416326,,,,,,,,,,,,,,,,,,,,,,
,,65fb2f8291cf16104e63effc,6685aa9113c938e83b4f1ea0,66d5a39caba459a0a10a4059,2024-09-02_07h38.30.100,WTP_SM_Choice,2022.2.1,Win32,59.88023952,,,,,space,0.4665,NAN,,NAN,1.69,4.31,,0,67,67,67,1,68,Sam,Acc,Participant_Images/65fb2f8291cf16104e63effc/65fb2f8291cf16104e63effc_Images/65fb2f8291cf16104e63effc_Image_14.jpeg,did not like,2.843822497,,,,,,,,,,,,,,,,,,,,,,
,,65fb2f8291cf16104e63effc,6685aa9113c938e83b4f1ea0,66d5a39caba459a0a10a4059,2024-09-02_07h38.30.100,WTP_SM_Choice,2022.2.1,Win32,59.88023952,,,,,space,0.4831,NAN,,NAN,1.69,4.31,,0,68,68,68,1,69,Sam,Acc,Participant_Images/65fb2f8291cf16104e63effc/65fb2f8291cf16104e63effc_Images/65fb2f8291cf16104e63effc_Image_6.jpeg,liked,3.546495948,,,,,,,,,,,,,,,,,,,,,,
,,65fb2f8291cf16104e63effc,6685aa9113c938e83b4f1ea0,66d5a39caba459a0a10a4059,2024-09-02_07h38.30.100,WTP_SM_Choice,2022.2.1,Win32,59.88023952,,,,,,,,,,,,,,,,,,66,,,,,,space,0.5163,space,0.4777,0.01,1,2.3636,0,0,0,0,1,Lounge on the beach on a warm sunny day,Bake cupcakes with my children,0.01,0.04,1.1,1,,,,
,,65fb2f8291cf16104e63effc,6685aa9113c938e83b4f1ea0,66d5a39caba459a0a10a4059,2024-09-02_07h38.30.100,WTP_SM_Choice,2022.2.1,Win32,59.88023952,,,,,,,,,,,,,,,,,,67,,,,,,,,,,0.04,2,1.9998,0,1,1,1,1,Play on the beach with my dog and children,Read in my comfy bed,0.02,0.04,8.8,0,,,,
,,65fb2f8291cf16104e63effc,6685aa9113c938e83b4f1ea0,66d5a39caba459a0a10a4059,2024-09-02_07h38.30.100,WTP_SM_Choice,2022.2.1,Win32,59.88023952,,,,,,,,,,,,,,,,,,68,,,,,,,,,,0.04,2,2.7614,0,2,2,2,1,Go to an outdoor concert with my husband,Play Sodoku on a quiet afternoon in my living room,0.03,0.04,4.4,0,,,,
,,65fb2f8291cf16104e63effc,6685aa9113c938e83b4f1ea0,66d5a39caba459a0a10a4059,2024-09-02_07h38.30.100,WTP_SM_Choice,2022.2.1,Win32,59.88023952,,,,,,,,,,,,,,,,,,69,,,,,,,,,,0.04,1,2.2669,0,3,3,3,1,Get drinks with my best friend after work,Bake cupcakes on a rainy afternoon,0.04,0.04,1.1,0,,,,
,,65fb2f8291cf16104e63effc,6685aa9113c938e83b4f1ea0,66d5a39caba459a0a10a4059,2024-09-02_07h38.30.100,WTP_SM_Choice,2022.2.1,Win32,59.88023952,,,,,,,,,,,,,,,,,,70,,,,,,,,,,0.05,1,2.0221,0,4,4,4,1,Do crossword puzzles on my patio,Go out for breakfast with my mom,0.05,0.04,1.1,1,,,,
,,65fb2f8291cf16104e63effc,6685aa9113c938e83b4f1ea0,66d5a39caba459a0a10a4059,2024-09-02_07h38.30.100,WTP_SM_Choice,2022.2.1,Win32,59.88023952,,,,,,,NAN,,NAN,1.87,4.13,,0,69,69,69,1,70,Sam,Acc,Participant_Images/65fb2f8291cf16104e63effc/65fb2f8291cf16104e63effc_Images/65fb2f8291cf16104e63effc_Image_2.jpeg,did not like,1.672012706,,,,,,,,,,,,,,,,,,,,,,
,,65fb2f8291cf16104e63effc,6685aa9113c938e83b4f1ea0,66d5a39caba459a0a10a4059,2024-09-02_07h38.30.100,WTP_SM_Choice,2022.2.1,Win32,59.88023952,,,,,space,0.7335,NAN,,NAN,1.87,4.13,,0,70,70,70,1,71,Sam,Acc,Participant_Images/65fb2f8291cf16104e63effc/65fb2f8291cf16104e63effc_Images/65fb2f8291cf16104e63effc_Image_9.jpeg,liked,4.942172136,,,,,,,,,,,,,,,,,,,,,,
,,65fb2f8291cf16104e63effc,6685aa9113c938e83b4f1ea0,66d5a39caba459a0a10a4059,2024-09-02_07h38.30.100,WTP_SM_Choice,2022.2.1,Win32,59.88023952,,,,,space,0.3327,NAN,,NAN,1.87,4.13,,0,71,71,71,1,72,Sam,Acc,Participant_Images/65fb2f8291cf16104e63effc/65fb2f8291cf16104e63effc_Images/65fb2f8291cf16104e63effc_Image_5.jpeg,did not like,2.50187214,,,,,,,,,,,,,,,,,,,,,,
,,65fb2f8291cf16104e63effc,6685aa9113c938e83b4f1ea0,66d5a39caba459a0a10a4059,2024-09-02_07h38.30.100,WTP_SM_Choice,2022.2.1,Win32,59.88023952,,,,,space,0.3016,NAN,,NAN,1.87,4.13,,0,72,72,72,1,73,Sam,Acc,Participant_Images/65fb2f8291cf16104e63effc/65fb2f8291cf16104e63effc_Images/65fb2f8291cf16104e63effc_Image_18.jpeg,liked,2.071164779,,,,,,,,,,,,,,,,,,,,,,
,,65fb2f8291cf16104e63effc,6685aa9113c938e83b4f1ea0,66d5a39caba459a0a10a4059,2024-09-02_07h38.30.100,WTP_SM_Choice,2022.2.1,Win32,59.88023952,,,,,space,0.484,NAN,,NAN,1.87,4.13,,0,73,73,73,1,74,Sam,Acc,Participant_Images/65fb2f8291cf16104e63effc/65fb2f8291cf16104e63effc_Images/65fb2f8291cf16104e63effc_Image_1.jpeg,liked,5.336503566,,,,,,,,,,,,,,,,,,,,,,
,,65fb2f8291cf16104e63effc,6685aa9113c938e83b4f1ea0,66d5a39caba459a0a10a4059,2024-09-02_07h38.30.100,WTP_SM_Choice,2022.2.1,Win32,59.88023952,,,,,,,,,,,,,,,,,,71,,,,,,space,0.433,space,0.3694,0.05,2,1.7583,0,0,0,0,1,Play on the beach with my dog and children,Listen to music on a walk ,0.01,0.05,3.3,0,,,,
,,65fb2f8291cf16104e63effc,6685aa9113c938e83b4f1ea0,66d5a39caba459a0a10a4059,2024-09-02_07h38.30.100,WTP_SM_Choice,2022.2.1,Win32,59.88023952,,,,,,,,,,,,,,,,,,72,,,,,,,,,,0.02,1,2.3391,0,1,1,1,1,Pick vegetables from my garden ,Go to the movies with my family,0.02,0.05,8.8,1,,,,
,,65fb2f8291cf16104e63effc,6685aa9113c938e83b4f1ea0,66d5a39caba459a0a10a4059,2024-09-02_07h38.30.100,WTP_SM_Choice,2022.2.1,Win32,59.88023952,,,,,,,,,,,,,,,,,,73,,,,,,,,,,0.05,2,2.1514,0,2,2,2,1,Bake cupcakes with my children,Bake cupcakes on a rainy afternoon,0.03,0.05,3.3,0,,,,
,,65fb2f8291cf16104e63effc,6685aa9113c938e83b4f1ea0,66d5a39caba459a0a10a4059,2024-09-02_07h38.30.100,WTP_SM_Choice,2022.2.1,Win32,59.88023952,,,,,,,,,,,,,,,,,,74,,,,,,,,,,0.05,2,1.9284,0,3,3,3,1,Go out to dinner with my husband,Shop online from my couch,0.04,0.05,4.4,0,,,,
,,65fb2f8291cf16104e63effc,6685aa9113c938e83b4f1ea0,66d5a39caba459a0a10a4059,2024-09-02_07h38.30.100,WTP_SM_Choice,2022.2.1,Win32,59.88023952,,,,,,,,,,,,,,,,,,75,,,,,,,,,,0.05,1,3.8267,0,4,4,4,1,Lounge on the beach on a warm sunny day,Watch tv with my children in the evening,0.05,0.05,3.3,1,,,,
,,65fb2f8291cf16104e63effc,6685aa9113c938e83b4f1ea0,66d5a39caba459a0a10a4059,2024-09-02_07h38.30.100,WTP_SM_Choice,2022.2.1,Win32,59.88023952,,,,,,,3,,5,2.09,3.91,,0,74,74,74,1,75,Sam,Acc,Participant_Images/65fb2f8291cf16104e63effc/65fb2f8291cf16104e63effc_Images/65fb2f8291cf16104e63effc_Image_21.jpeg,liked,2.642157193,,,,,,,,,,,,,,,,,,,space,1.1259,,
,,65fb2f8291cf16104e63effc,6685aa9113c938e83b4f1ea0,66d5a39caba459a0a10a4059,2024-09-02_07h38.30.100,WTP_SM_Choice,2022.2.1,Win32,59.88023952,,,space,1.5299,space,0.6826,NAN,,NAN,2.09,3.91,,0,75,75,75,1,76,Charlie,Acc,Participant_Images/65fb2f8291cf16104e63effc/65fb2f8291cf16104e63effc_Images/65fb2f8291cf16104e63effc_Image_10.jpeg,liked,4.456234322,,,,,,,,,,,,,,,,,,,,,,
,,65fb2f8291cf16104e63effc,6685aa9113c938e83b4f1ea0,66d5a39caba459a0a10a4059,2024-09-02_07h38.30.100,WTP_SM_Choice,2022.2.1,Win32,59.88023952,,,,,space,0.6195,NAN,,NAN,2.09,3.91,,0,76,76,76,1,77,Charlie,Acc,Participant_Images/65fb2f8291cf16104e63effc/65fb2f8291cf16104e63effc_Images/65fb2f8291cf16104e63effc_Image_4.jpeg,liked,4.438512181,,,,,,,,,,,,,,,,,,,,,,
,,65fb2f8291cf16104e63effc,6685aa9113c938e83b4f1ea0,66d5a39caba459a0a10a4059,2024-09-02_07h38.30.100,WTP_SM_Choice,2022.2.1,Win32,59.88023952,,,,,space,8.3092,NAN,,NAN,2.09,3.91,,0,77,77,77,1,78,Charlie,Acc,Participant_Images/65fb2f8291cf16104e63effc/65fb2f8291cf16104e63effc_Images/65fb2f8291cf16104e63effc_Image_12.jpeg,liked,2.682944783,,,,,,,,,,,,,,,,,,,,,,
,,65fb2f8291cf16104e63effc,6685aa9113c938e83b4f1ea0,66d5a39caba459a0a10a4059,2024-09-02_07h38.30.100,WTP_SM_Choice,2022.2.1,Win32,59.88023952,,,,,space,0.619,NAN,,NAN,2.09,3.91,,0,78,78,78,1,79,Charlie,Acc,Participant_Images/65fb2f8291cf16104e63effc/65fb2f8291cf16104e63effc_Images/65fb2f8291cf16104e63effc_Image_25.jpeg,liked,4.51984296,,,,,,,,,,,,,,,,,,,,,,
,,65fb2f8291cf16104e63effc,6685aa9113c938e83b4f1ea0,66d5a39caba459a0a10a4059,2024-09-02_07h38.30.100,WTP_SM_Choice,2022.2.1,Win32,59.88023952,,,,,,,,,,,,,,,,,,76,,,,,,space,0.5847,space,0.2414,0.01,1,2.0653,0,0,0,0,1,Play Sodoku on a quiet afternoon in my living room,Bake cupcakes with my children,0.01,0.01,1.1,1,,,,
,,65fb2f8291cf16104e63effc,6685aa9113c938e83b4f1ea0,66d5a39caba459a0a10a4059,2024-09-02_07h38.30.100,WTP_SM_Choice,2022.2.1,Win32,59.88023952,,,,,,,,,,,,,,,,,,77,,,,,,,,,,0.02,1,1.8979,0,1,1,1,1,Listen to music on a walk ,Bake cupcakes with my children,0.02,0.01,8.8,1,,,,
,,65fb2f8291cf16104e63effc,6685aa9113c938e83b4f1ea0,66d5a39caba459a0a10a4059,2024-09-02_07h38.30.100,WTP_SM_Choice,2022.2.1,Win32,59.88023952,,,,,,,,,,,,,,,,,,78,,,,,,,,,,0.01,2,2.1432,0,2,2,2,1,Go to the movies with my family on a sunday afternoon,Take my dog for a walk on a sunny day,0.03,0.01,1.1,0,,,,
,,65fb2f8291cf16104e63effc,6685aa9113c938e83b4f1ea0,66d5a39caba459a0a10a4059,2024-09-02_07h38.30.100,WTP_SM_Choice,2022.2.1,Win32,59.88023952,,,,,,,,,,,,,,,,,,79,,,,,,,,,,0.04,1,1.7991,0,3,3,3,1,Shop online from my couch,Go to an outdoor concert with my husband,0.04,0.01,1.1,1,,,,
,,65fb2f8291cf16104e63effc,6685aa9113c938e83b4f1ea0,66d5a39caba459a0a10a4059,2024-09-02_07h38.30.100,WTP_SM_Choice,2022.2.1,Win32,59.88023952,,,,,,,,,,,,,,,,,,80,,,,,,,,,,0.01,2,2.067,0,4,4,4,1,Go to the movies with my family on a sunday afternoon,Bake cupcakes on a rainy afternoon,0.05,0.01,4.4,0,,,,
,,65fb2f8291cf16104e63effc,6685aa9113c938e83b4f1ea0,66d5a39caba459a0a10a4059,2024-09-02_07h38.30.100,WTP_SM_Choice,2022.2.1,Win32,59.88023952,,,,,,,NAN,,NAN,2.18,3.82,,0,79,79,79,1,80,Charlie,Acc,Participant_Images/65fb2f8291cf16104e63effc/65fb2f8291cf16104e63effc_Images/65fb2f8291cf16104e63effc_Image_23.jpeg,liked,3.195382774,,,,,,,,,,,,,,,,,,,,,,
,,65fb2f8291cf16104e63effc,6685aa9113c938e83b4f1ea0,66d5a39caba459a0a10a4059,2024-09-02_07h38.30.100,WTP_SM_Choice,2022.2.1,Win32,59.88023952,,,,,space,0.3667,NAN,,NAN,2.18,3.82,,0,80,80,80,1,81,Charlie,Acc,Participant_Images/65fb2f8291cf16104e63effc/65fb2f8291cf16104e63effc_Images/65fb2f8291cf16104e63effc_Image_11.jpeg,liked,1.779333479,,,,,,,,,,,,,,,,,,,,,,
,,65fb2f8291cf16104e63effc,6685aa9113c938e83b4f1ea0,66d5a39caba459a0a10a4059,2024-09-02_07h38.30.100,WTP_SM_Choice,2022.2.1,Win32,59.88023952,,,,,space,1.174,NAN,,NAN,2.18,3.82,,0,81,81,81,1,82,Charlie,Acc,Participant_Images/65fb2f8291cf16104e63effc/65fb2f8291cf16104e63effc_Images/65fb2f8291cf16104e63effc_Image_2.jpeg,liked,4.312468682,,,,,,,,,,,,,,,,,,,,,,
,,65fb2f8291cf16104e63effc,6685aa9113c938e83b4f1ea0,66d5a39caba459a0a10a4059,2024-09-02_07h38.30.100,WTP_SM_Choice,2022.2.1,Win32,59.88023952,,,,,space,0.5334,NAN,,NAN,2.18,3.82,,0,82,82,82,1,83,Charlie,Acc,Participant_Images/65fb2f8291cf16104e63effc/65fb2f8291cf16104e63effc_Images/65fb2f8291cf16104e63effc_Image_3.jpeg,liked,4.940433059,,,,,,,,,,,,,,,,,,,,,,
,,65fb2f8291cf16104e63effc,6685aa9113c938e83b4f1ea0,66d5a39caba459a0a10a4059,2024-09-02_07h38.30.100,WTP_SM_Choice,2022.2.1,Win32,59.88023952,,,,,space,0.5438,NAN,,NAN,2.18,3.82,,0,83,83,83,1,84,Charlie,Acc,Participant_Images/65fb2f8291cf16104e63effc/65fb2f8291cf16104e63effc_Images/65fb2f8291cf16104e63effc_Image_14.jpeg,liked,2.7105123,,,,,,,,,,,,,,,,,,,,,,
,,65fb2f8291cf16104e63effc,6685aa9113c938e83b4f1ea0,66d5a39caba459a0a10a4059,2024-09-02_07h38.30.100,WTP_SM_Choice,2022.2.1,Win32,59.88023952,,,,,,,,,,,,,,,,,,81,,,,,,space,1.1017,space,0.3598,0.02,2,1.9872,0,0,0,0,1,Go out for breakfast with my mom,Pick vegetables from my garden ,0.01,0.02,3.3,0,,,,
,,65fb2f8291cf16104e63effc,6685aa9113c938e83b4f1ea0,66d5a39caba459a0a10a4059,2024-09-02_07h38.30.100,WTP_SM_Choice,2022.2.1,Win32,59.88023952,,,,,,,,,,,,,,,,,,82,,,,,,,,,,0.02,2,1.8258,0,1,1,1,1,Play on the beach with my dog and children,Take my dog to the dogpark,0.02,0.02,4.4,0,,,,
,,65fb2f8291cf16104e63effc,6685aa9113c938e83b4f1ea0,66d5a39caba459a0a10a4059,2024-09-02_07h38.30.100,WTP_SM_Choice,2022.2.1,Win32,59.88023952,,,,,,,,,,,,,,,,,,83,,,,,,,,,,0.03,1,4.2491,0,2,2,2,1,Take my dog to the dogpark,Go to an outdoor concert with my husband,0.03,0.02,1.1,1,,,,
,,65fb2f8291cf16104e63effc,6685aa9113c938e83b4f1ea0,66d5a39caba459a0a10a4059,2024-09-02_07h38.30.100,WTP_SM_Choice,2022.2.1,Win32,59.88023952,,,,,,,,,,,,,,,,,,84,,,,,,,,,,0.04,1,4.0647,0,3,3,3,1,Play Sodoku on a quiet afternoon in my living room,Play on the beach with my dog and children,0.04,0.02,3.3,1,,,,
,,65fb2f8291cf16104e63effc,6685aa9113c938e83b4f1ea0,66d5a39caba459a0a10a4059,2024-09-02_07h38.30.100,WTP_SM_Choice,2022.2.1,Win32,59.88023952,,,,,,,,,,,,,,,,,,85,,,,,,,,,,0.02,2,1.7431,0,4,4,4,1,Go to an outdoor concert with my husband,Pick vegetables from my garden ,0.05,0.02,3.3,0,,,,
,,65fb2f8291cf16104e63effc,6685aa9113c938e83b4f1ea0,66d5a39caba459a0a10a4059,2024-09-02_07h38.30.100,WTP_SM_Choice,2022.2.1,Win32,59.88023952,,,,,,,NAN,,NAN,2.31,3.69,,0,84,84,84,1,85,Charlie,Acc,Participant_Images/65fb2f8291cf16104e63effc/65fb2f8291cf16104e63effc_Images/65fb2f8291cf16104e63effc_Image_19.jpeg,did not like,3.602308302,,,,,,,,,,,,,,,,,,,,,,
,,65fb2f8291cf16104e63effc,6685aa9113c938e83b4f1ea0,66d5a39caba459a0a10a4059,2024-09-02_07h38.30.100,WTP_SM_Choice,2022.2.1,Win32,59.88023952,,,,,space,3.03,NAN,,NAN,2.31,3.69,,0,85,85,85,1,86,Charlie,Acc,Participant_Images/65fb2f8291cf16104e63effc/65fb2f8291cf16104e63effc_Images/65fb2f8291cf16104e63effc_Image_21.jpeg,liked,4.106391878,,,,,,,,,,,,,,,,,,,,,,
,,65fb2f8291cf16104e63effc,6685aa9113c938e83b4f1ea0,66d5a39caba459a0a10a4059,2024-09-02_07h38.30.100,WTP_SM_Choice,2022.2.1,Win32,59.88023952,,,,,space,1.8744,NAN,,NAN,2.31,3.69,,0,86,86,86,1,87,Charlie,Acc,Participant_Images/65fb2f8291cf16104e63effc/65fb2f8291cf16104e63effc_Images/65fb2f8291cf16104e63effc_Image_8.jpeg,did not like,3.799433026,,,,,,,,,,,,,,,,,,,,,,
,,65fb2f8291cf16104e63effc,6685aa9113c938e83b4f1ea0,66d5a39caba459a0a10a4059,2024-09-02_07h38.30.100,WTP_SM_Choice,2022.2.1,Win32,59.88023952,,,,,space,0.4753,NAN,,NAN,2.31,3.69,,0,87,87,87,1,88,Charlie,Acc,Participant_Images/65fb2f8291cf16104e63effc/65fb2f8291cf16104e63effc_Images/65fb2f8291cf16104e63effc_Image_17.jpeg,did not like,5.246980764,,,,,,,,,,,,,,,,,,,,,,
,,65fb2f8291cf16104e63effc,6685aa9113c938e83b4f1ea0,66d5a39caba459a0a10a4059,2024-09-02_07h38.30.100,WTP_SM_Choice,2022.2.1,Win32,59.88023952,,,,,space,0.3841,NAN,,NAN,2.31,3.69,,0,88,88,88,1,89,Charlie,Acc,Participant_Images/65fb2f8291cf16104e63effc/65fb2f8291cf16104e63effc_Images/65fb2f8291cf16104e63effc_Image_24.jpeg,liked,3.30081769,,,,,,,,,,,,,,,,,,,,,,
,,65fb2f8291cf16104e63effc,6685aa9113c938e83b4f1ea0,66d5a39caba459a0a10a4059,2024-09-02_07h38.30.100,WTP_SM_Choice,2022.2.1,Win32,59.88023952,,,,,,,,,,,,,,,,,,86,,,,,,space,0.9509,space,0.5684,0.03,2,3.5321,0,0,0,0,1,Play on the beach with my dog and children,Lounge on the beach on a warm sunny day,0.01,0.03,1.1,0,,,,
,,65fb2f8291cf16104e63effc,6685aa9113c938e83b4f1ea0,66d5a39caba459a0a10a4059,2024-09-02_07h38.30.100,WTP_SM_Choice,2022.2.1,Win32,59.88023952,,,,,,,,,,,,,,,,,,87,,,,,,,,,,0.02,1,3.5632,0,1,1,1,1,Shop online from my couch,Go out for dinner with my dad,0.02,0.03,4.4,1,,,,
,,65fb2f8291cf16104e63effc,6685aa9113c938e83b4f1ea0,66d5a39caba459a0a10a4059,2024-09-02_07h38.30.100,WTP_SM_Choice,2022.2.1,Win32,59.88023952,,,,,,,,,,,,,,,,,,88,,,,,,,,,,0.03,1,2.2572,0,2,2,2,1,Bake cupcakes on a rainy afternoon,Go to the movies with my family,0.03,0.03,1.1,1,,,,
,,65fb2f8291cf16104e63effc,6685aa9113c938e83b4f1ea0,66d5a39caba459a0a10a4059,2024-09-02_07h38.30.100,WTP_SM_Choice,2022.2.1,Win32,59.88023952,,,,,,,,,,,,,,,,,,89,,,,,,,,,,0.04,1,2.1409,0,3,3,3,1,Take my dog for a walk on a sunny day,Go to the movies with my family,0.04,0.03,3.3,1,,,,
,,65fb2f8291cf16104e63effc,6685aa9113c938e83b4f1ea0,66d5a39caba459a0a10a4059,2024-09-02_07h38.30.100,WTP_SM_Choice,2022.2.1,Win32,59.88023952,,,,,,,,,,,,,,,,,,90,,,,,,,,,,0.05,1,1.8913,0,4,4,4,1,Do crossword puzzles on my patio,Bake cupcakes with my children,0.05,0.03,8.8,1,,,,
,,65fb2f8291cf16104e63effc,6685aa9113c938e83b4f1ea0,66d5a39caba459a0a10a4059,2024-09-02_07h38.30.100,WTP_SM_Choice,2022.2.1,Win32,59.88023952,,,,,,,NAN,,NAN,2.48,3.52,,0,89,89,89,1,90,Charlie,Acc,Participant_Images/65fb2f8291cf16104e63effc/65fb2f8291cf16104e63effc_Images/65fb2f8291cf16104e63effc_Image_9.jpeg,liked,1.661473164,,,,,,,,,,,,,,,,,,,,,,
,,65fb2f8291cf16104e63effc,6685aa9113c938e83b4f1ea0,66d5a39caba459a0a10a4059,2024-09-02_07h38.30.100,WTP_SM_Choice,2022.2.1,Win32,59.88023952,,,,,space,0.8164,NAN,,NAN,2.48,3.52,,0,90,90,90,1,91,Charlie,Acc,Participant_Images/65fb2f8291cf16104e63effc/65fb2f8291cf16104e63effc_Images/65fb2f8291cf16104e63effc_Image_18.jpeg,liked,3.613205605,,,,,,,,,,,,,,,,,,,,,,
,,65fb2f8291cf16104e63effc,6685aa9113c938e83b4f1ea0,66d5a39caba459a0a10a4059,2024-09-02_07h38.30.100,WTP_SM_Choice,2022.2.1,Win32,59.88023952,,,,,space,0.3916,NAN,,NAN,2.48,3.52,,0,91,91,91,1,92,Charlie,Acc,Participant_Images/65fb2f8291cf16104e63effc/65fb2f8291cf16104e63effc_Images/65fb2f8291cf16104e63effc_Image_20.jpeg,liked,4.988446431,,,,,,,,,,,,,,,,,,,,,,
,,65fb2f8291cf16104e63effc,6685aa9113c938e83b4f1ea0,66d5a39caba459a0a10a4059,2024-09-02_07h38.30.100,WTP_SM_Choice,2022.2.1,Win32,59.88023952,,,,,space,0.9749,NAN,,NAN,2.48,3.52,,0,92,92,92,1,93,Charlie,Acc,Participant_Images/65fb2f8291cf16104e63effc/65fb2f8291cf16104e63effc_Images/65fb2f8291cf16104e63effc_Image_7.jpeg,liked,3.470791822,,,,,,,,,,,,,,,,,,,,,,
,,65fb2f8291cf16104e63effc,6685aa9113c938e83b4f1ea0,66d5a39caba459a0a10a4059,2024-09-02_07h38.30.100,WTP_SM_Choice,2022.2.1,Win32,59.88023952,,,,,space,0.3579,NAN,,NAN,2.48,3.52,,0,93,93,93,1,94,Charlie,Acc,Participant_Images/65fb2f8291cf16104e63effc/65fb2f8291cf16104e63effc_Images/65fb2f8291cf16104e63effc_Image_22.jpeg,did not like,3.820572462,,,,,,,,,,,,,,,,,,,,,,
,,65fb2f8291cf16104e63effc,6685aa9113c938e83b4f1ea0,66d5a39caba459a0a10a4059,2024-09-02_07h38.30.100,WTP_SM_Choice,2022.2.1,Win32,59.88023952,,,,,,,,,,,,,,,,,,91,,,,,,space,0.8857,space,0.3911,0.01,1,2.0806,0,0,0,0,1,Take my dog to the dogpark,Go out for dinner with my dad,0.01,0.04,3.3,1,,,,
,,65fb2f8291cf16104e63effc,6685aa9113c938e83b4f1ea0,66d5a39caba459a0a10a4059,2024-09-02_07h38.30.100,WTP_SM_Choice,2022.2.1,Win32,59.88023952,,,,,,,,,,,,,,,,,,92,,,,,,,,,,0.04,2,1.7524,0,1,1,1,1,Play on the beach with my dog and children,Take my dog for a walk on a sunny day,0.02,0.04,8.8,0,,,,
,,65fb2f8291cf16104e63effc,6685aa9113c938e83b4f1ea0,66d5a39caba459a0a10a4059,2024-09-02_07h38.30.100,WTP_SM_Choice,2022.2.1,Win32,59.88023952,,,,,,,,,,,,,,,,,,93,,,,,,,,,,0.03,1,1.8008,0,2,2,2,1,Read in my comfy bed,Go out to dinner with my husband,0.03,0.04,1.1,1,,,,
,,65fb2f8291cf16104e63effc,6685aa9113c938e83b4f1ea0,66d5a39caba459a0a10a4059,2024-09-02_07h38.30.100,WTP_SM_Choice,2022.2.1,Win32,59.88023952,,,,,,,,,,,,,,,,,,94,,,,,,,,,,0.04,1,2.3213,0,3,3,3,1,Read in my comfy bed,Go to an outdoor concert with my husband,0.04,0.04,4.4,1,,,,
,,65fb2f8291cf16104e63effc,6685aa9113c938e83b4f1ea0,66d5a39caba459a0a10a4059,2024-09-02_07h38.30.100,WTP_SM_Choice,2022.2.1,Win32,59.88023952,,,,,,,,,,,,,,,,,,95,,,,,,,,,,0.04,2,2.5586,0,4,4,4,1,Bake cupcakes with my children,Pick vegetables from my garden ,0.05,0.04,4.4,0,,,,
,,65fb2f8291cf16104e63effc,6685aa9113c938e83b4f1ea0,66d5a39caba459a0a10a4059,2024-09-02_07h38.30.100,WTP_SM_Choice,2022.2.1,Win32,59.88023952,,,,,,,NAN,,NAN,2.64,3.36,,0,94,94,94,1,95,Charlie,Acc,Participant_Images/65fb2f8291cf16104e63effc/65fb2f8291cf16104e63effc_Images/65fb2f8291cf16104e63effc_Image_16.jpeg,liked,2.455989137,,,,,,,,,,,,,,,,,,,,,,
,,65fb2f8291cf16104e63effc,6685aa9113c938e83b4f1ea0,66d5a39caba459a0a10a4059,2024-09-02_07h38.30.100,WTP_SM_Choice,2022.2.1,Win32,59.88023952,,,,,space,0.5827,NAN,,NAN,2.64,3.36,,0,95,95,95,1,96,Charlie,Acc,Participant_Images/65fb2f8291cf16104e63effc/65fb2f8291cf16104e63effc_Images/65fb2f8291cf16104e63effc_Image_1.jpeg,did not like,3.79605092,,,,,,,,,,,,,,,,,,,,,,
,,65fb2f8291cf16104e63effc,6685aa9113c938e83b4f1ea0,66d5a39caba459a0a10a4059,2024-09-02_07h38.30.100,WTP_SM_Choice,2022.2.1,Win32,59.88023952,,,,,space,0.4506,NAN,,NAN,2.64,3.36,,0,96,96,96,1,97,Charlie,Acc,Participant_Images/65fb2f8291cf16104e63effc/65fb2f8291cf16104e63effc_Images/65fb2f8291cf16104e63effc_Image_6.jpeg,liked,3.562416326,,,,,,,,,,,,,,,,,,,,,,
,,65fb2f8291cf16104e63effc,6685aa9113c938e83b4f1ea0,66d5a39caba459a0a10a4059,2024-09-02_07h38.30.100,WTP_SM_Choice,2022.2.1,Win32,59.88023952,,,,,space,1.3495,NAN,,NAN,2.64,3.36,,0,97,97,97,1,98,Charlie,Acc,Participant_Images/65fb2f8291cf16104e63effc/65fb2f8291cf16104e63effc_Images/65fb2f8291cf16104e63effc_Image_15.jpeg,did not like,2.843822497,,,,,,,,,,,,,,,,,,,,,,
,,65fb2f8291cf16104e63effc,6685aa9113c938e83b4f1ea0,66d5a39caba459a0a10a4059,2024-09-02_07h38.30.100,WTP_SM_Choice,2022.2.1,Win32,59.88023952,,,,,space,0.3928,NAN,,NAN,2.64,3.36,,0,98,98,98,1,99,Charlie,Acc,Participant_Images/65fb2f8291cf16104e63effc/65fb2f8291cf16104e63effc_Images/65fb2f8291cf16104e63effc_Image_13.jpeg,did not like,3.546495948,,,,,,,,,,,,,,,,,,,,,,
,,65fb2f8291cf16104e63effc,6685aa9113c938e83b4f1ea0,66d5a39caba459a0a10a4059,2024-09-02_07h38.30.100,WTP_SM_Choice,2022.2.1,Win32,59.88023952,,,,,,,,,,,,,,,,,,96,,,,,,space,0.5094,space,0.5904,0.01,1,1.8814,0,0,0,0,1,Take my dog for a walk on a sunny day,Go out for dinner with my dad,0.01,0.05,3.3,1,,,,
,,65fb2f8291cf16104e63effc,6685aa9113c938e83b4f1ea0,66d5a39caba459a0a10a4059,2024-09-02_07h38.30.100,WTP_SM_Choice,2022.2.1,Win32,59.88023952,,,,,,,,,,,,,,,,,,97,,,,,,,,,,0.05,2,1.9688,0,1,1,1,1,Read in my comfy bed,Get drinks with my best friend after work,0.02,0.05,1.1,1,,,,
,,65fb2f8291cf16104e63effc,6685aa9113c938e83b4f1ea0,66d5a39caba459a0a10a4059,2024-09-02_07h38.30.100,WTP_SM_Choice,2022.2.1,Win32,59.88023952,,,,,,,,,,,,,,,,,,98,,,,,,,,,,0.03,1,1.7148,0,2,2,2,1,Take my dog to the dogpark,Go out to dinner with my husband,0.03,0.05,1.1,1,,,,
,,65fb2f8291cf16104e63effc,6685aa9113c938e83b4f1ea0,66d5a39caba459a0a10a4059,2024-09-02_07h38.30.100,WTP_SM_Choice,2022.2.1,Win32,59.88023952,,,,,,,,,,,,,,,,,,99,,,,,,,,,,0.05,2,1.8122,0,3,3,3,1,Go to an outdoor concert with my husband,Do crossword puzzles on my patio,0.04,0.05,3.3,0,,,,
,,65fb2f8291cf16104e63effc,6685aa9113c938e83b4f1ea0,66d5a39caba459a0a10a4059,2024-09-02_07h38.30.100,WTP_SM_Choice,2022.2.1,Win32,59.88023952,,,,,,,,,,,,,,,,,,100,,,,,,,,,,0.05,1,1.9034,0,4,4,4,1,Take my dog for a walk on a sunny day,Go out for breakfast with my mom,0.05,0.05,4.4,1,,,,
,,65fb2f8291cf16104e63effc,6685aa9113c938e83b4f1ea0,66d5a39caba459a0a10a4059,2024-09-02_07h38.30.100,WTP_SM_Choice,2022.2.1,Win32,59.88023952,,,,,,,3,,5,2.83,3.17,,0,99,99,99,1,100,Charlie,Acc,Participant_Images/65fb2f8291cf16104e63effc/65fb2f8291cf16104e63effc_Images/65fb2f8291cf16104e63effc_Image_5.jpeg,liked,1.672012706,,,,,,,,,,,,,,,,,,,space,1.0035,,
,,65fb2f8291cf16104e63effc,6685aa9113c938e83b4f1ea0,66d5a39caba459a0a10a4059,2024-09-02_07h38.30.100,WTP_SM_Choice,2022.2.1,Win32,59.88023952,,,,,,,,,,,,,,,,,,,,,,,,,,,,,,,,,,,,,,,,,,,,space,2.1166
