endwelcomescreen_keys.keys,endwelcomescreen_keys.rt,participant,STUDY_ID,SESSION_ID,date,expName,psychopyVersion,OS,frameRate,endinstructionscreen_keys.keys,endinstructionscreen_keys.rt,endpartnermatch_keys.keys,endpartnermatch_keys.rt,sharenextphoto_key.keys,sharenextphoto_key.rt,salience_rating,key_resp.keys,stress_level,subtract_bonus,TOTAL_TASK_BONUS,stresslevel_keypress.keys,entiretaskloop.thisRepN,entiretaskloop.thisTrialN,entiretaskloop.thisN,entiretaskloop.thisIndex,entiretaskloop.ran,TrialNumber,Partner,Condition,Photos,Feedback,FeedbackWait,WTP_ins_keys1.keys,WTP_ins_keys1.rt,WTP_ins_keys2.keys,WTP_ins_keys2.rt,responses.keys,WTPTaskLoop.thisRepN,WTPTaskLoop.thisTrialN,WTPTaskLoop.thisN,WTPTaskLoop.thisIndex,WTPTaskLoop.ran,right,left,leftmoney,rightmoney,WTP_ITI,social_left,decision_price,responses.rt,Resume_keys.keys,Resume_keys.rt,end_screen_keys.keys,end_screen_keys.rt
space,20.9407,6600a119385d8631c41cd795,6685aa9113c938e83b4f1ea0,671c5d87220adccd5a525a70,2024-10-25_22h12.04.671,WTP_SM_Choice,2022.2.1,Win32,59.88023952,,,,,,,,,,,,,,,,,,,,,,,,,,,,,,,,,,,,,,,,,,,,,
,,6600a119385d8631c41cd795,6685aa9113c938e83b4f1ea0,671c5d87220adccd5a525a70,2024-10-25_22h12.04.671,WTP_SM_Choice,2022.2.1,Win32,59.88023952,space,18.823,,,,,,,,,,,,,,,,,,,,,,,,,,,,,,,,,,,,,,,,,,,
,,6600a119385d8631c41cd795,6685aa9113c938e83b4f1ea0,671c5d87220adccd5a525a70,2024-10-25_22h12.04.671,WTP_SM_Choice,2022.2.1,Win32,59.88023952,,,space,2.5206,space,2.1656,NAN,,NAN,0,6,,0,0,0,0,1,1,Sam,Acc,Participant_Images/6600a119385d8631c41cd795/6600a119385d8631c41cd795_Images/6600a119385d8631c41cd795_Image_8.jpeg,liked,3.613205605,,,,,,,,,,,,,,,,,,,,,,
,,6600a119385d8631c41cd795,6685aa9113c938e83b4f1ea0,671c5d87220adccd5a525a70,2024-10-25_22h12.04.671,WTP_SM_Choice,2022.2.1,Win32,59.88023952,,,,,space,1.2871,NAN,,NAN,0,6,,0,1,1,1,1,2,Sam,Acc,Participant_Images/6600a119385d8631c41cd795/6600a119385d8631c41cd795_Images/6600a119385d8631c41cd795_Image_5.jpeg,did not like,4.988446431,,,,,,,,,,,,,,,,,,,,,,
,,6600a119385d8631c41cd795,6685aa9113c938e83b4f1ea0,671c5d87220adccd5a525a70,2024-10-25_22h12.04.671,WTP_SM_Choice,2022.2.1,Win32,59.88023952,,,,,space,1.2042,NAN,,NAN,0,6,,0,2,2,2,1,3,Sam,Acc,Participant_Images/6600a119385d8631c41cd795/6600a119385d8631c41cd795_Images/6600a119385d8631c41cd795_Image_21.jpeg,liked,3.470791822,,,,,,,,,,,,,,,,,,,,,,
,,6600a119385d8631c41cd795,6685aa9113c938e83b4f1ea0,671c5d87220adccd5a525a70,2024-10-25_22h12.04.671,WTP_SM_Choice,2022.2.1,Win32,59.88023952,,,,,space,0.9776,NAN,,NAN,0,6,,0,3,3,3,1,4,Sam,Acc,Participant_Images/6600a119385d8631c41cd795/6600a119385d8631c41cd795_Images/6600a119385d8631c41cd795_Image_22.jpeg,liked,3.820572462,,,,,,,,,,,,,,,,,,,,,,
,,6600a119385d8631c41cd795,6685aa9113c938e83b4f1ea0,671c5d87220adccd5a525a70,2024-10-25_22h12.04.671,WTP_SM_Choice,2022.2.1,Win32,59.88023952,,,,,,,,,,,,,,,,,,1,,,,,,space,85.3891,space,16.4538,,0,0,0,0,1,Go on vacation with friends family or spouse,Practice sight reading piano and drum sheet music,0.01,0.01,4.4,0,,,,,,
,,6600a119385d8631c41cd795,6685aa9113c938e83b4f1ea0,671c5d87220adccd5a525a70,2024-10-25_22h12.04.671,WTP_SM_Choice,2022.2.1,Win32,59.88023952,,,,,,,,,,,,,,,,,,2,,,,,,,,,,2,0,1,1,1,1,Go out to the bar with friends or spouse,Light candles during a storm when the power goes out and enjoy the storm,0.02,0.01,8.8,0,0.01,5.946,,,,
,,6600a119385d8631c41cd795,6685aa9113c938e83b4f1ea0,671c5d87220adccd5a525a70,2024-10-25_22h12.04.671,WTP_SM_Choice,2022.2.1,Win32,59.88023952,,,,,,,,,,,,,,,,,,3,,,,,,,,,,1,0,2,2,2,1,Cuddle with my spouse,Spend my day doing studies on prolific,0.03,0.01,3.3,0,0.03,3.5502,,,,
,,6600a119385d8631c41cd795,6685aa9113c938e83b4f1ea0,671c5d87220adccd5a525a70,2024-10-25_22h12.04.671,WTP_SM_Choice,2022.2.1,Win32,59.88023952,,,,,,,,,,,,,,,,,,4,,,,,,,,,,1,0,3,3,3,1,Spend my day doing studies on prolific,Play music together with my fellow bandmates,0.04,0.01,1.1,1,0.04,6.0641,,,,
,,6600a119385d8631c41cd795,6685aa9113c938e83b4f1ea0,671c5d87220adccd5a525a70,2024-10-25_22h12.04.671,WTP_SM_Choice,2022.2.1,Win32,59.88023952,,,,,,,,,,,,,,,,,,5,,,,,,,,,,2,0,4,4,4,1,Play music together with my fellow bandmates,Play my drumset alone with headphones on to my favorite songs,0.05,0.01,1.1,0,0.01,3.5167,,,,
,,6600a119385d8631c41cd795,6685aa9113c938e83b4f1ea0,671c5d87220adccd5a525a70,2024-10-25_22h12.04.671,WTP_SM_Choice,2022.2.1,Win32,59.88023952,,,,,,,NAN,,NAN,0.09,5.91,,0,4,4,4,1,5,Sam,Acc,Participant_Images/6600a119385d8631c41cd795/6600a119385d8631c41cd795_Images/6600a119385d8631c41cd795_Image_24.jpeg,liked,2.455989137,,,,,,,,,,,,,,,,,,,,,,
,,6600a119385d8631c41cd795,6685aa9113c938e83b4f1ea0,671c5d87220adccd5a525a70,2024-10-25_22h12.04.671,WTP_SM_Choice,2022.2.1,Win32,59.88023952,,,,,space,1.0412,NAN,,NAN,0.09,5.91,,0,5,5,5,1,6,Sam,Acc,Participant_Images/6600a119385d8631c41cd795/6600a119385d8631c41cd795_Images/6600a119385d8631c41cd795_Image_25.jpeg,did not like,3.79605092,,,,,,,,,,,,,,,,,,,,,,
,,6600a119385d8631c41cd795,6685aa9113c938e83b4f1ea0,671c5d87220adccd5a525a70,2024-10-25_22h12.04.671,WTP_SM_Choice,2022.2.1,Win32,59.88023952,,,,,space,1.5257,NAN,,NAN,0.09,5.91,,0,6,6,6,1,7,Sam,Acc,Participant_Images/6600a119385d8631c41cd795/6600a119385d8631c41cd795_Images/6600a119385d8631c41cd795_Image_6.jpeg,did not like,3.562416326,,,,,,,,,,,,,,,,,,,,,,
,,6600a119385d8631c41cd795,6685aa9113c938e83b4f1ea0,671c5d87220adccd5a525a70,2024-10-25_22h12.04.671,WTP_SM_Choice,2022.2.1,Win32,59.88023952,,,,,space,2.1909,NAN,,NAN,0.09,5.91,,0,7,7,7,1,8,Sam,Acc,Participant_Images/6600a119385d8631c41cd795/6600a119385d8631c41cd795_Images/6600a119385d8631c41cd795_Image_16.jpeg,liked,2.843822497,,,,,,,,,,,,,,,,,,,,,,
,,6600a119385d8631c41cd795,6685aa9113c938e83b4f1ea0,671c5d87220adccd5a525a70,2024-10-25_22h12.04.671,WTP_SM_Choice,2022.2.1,Win32,59.88023952,,,,,space,0.6653,NAN,,NAN,0.09,5.91,,0,8,8,8,1,9,Sam,Acc,Participant_Images/6600a119385d8631c41cd795/6600a119385d8631c41cd795_Images/6600a119385d8631c41cd795_Image_10.jpeg,liked,3.546495948,,,,,,,,,,,,,,,,,,,,,,
,,6600a119385d8631c41cd795,6685aa9113c938e83b4f1ea0,671c5d87220adccd5a525a70,2024-10-25_22h12.04.671,WTP_SM_Choice,2022.2.1,Win32,59.88023952,,,,,,,,,,,,,,,,,,6,,,,,,space,17.1851,space,9.3353,2,0,0,0,0,1,Cuddle with my spouse,Practice sight reading piano and drum sheet music,0.01,0.02,3.3,0,0.02,3.1914,,,,
,,6600a119385d8631c41cd795,6685aa9113c938e83b4f1ea0,671c5d87220adccd5a525a70,2024-10-25_22h12.04.671,WTP_SM_Choice,2022.2.1,Win32,59.88023952,,,,,,,,,,,,,,,,,,7,,,,,,,,,,1,0,1,1,1,1,Enjoy a lazy day with the lights off TV on never leave the bed,Go to the amusement park with friends,0.02,0.02,1.1,1,0.02,3.4625,,,,
,,6600a119385d8631c41cd795,6685aa9113c938e83b4f1ea0,671c5d87220adccd5a525a70,2024-10-25_22h12.04.671,WTP_SM_Choice,2022.2.1,Win32,59.88023952,,,,,,,,,,,,,,,,,,8,,,,,,,,,,2,0,2,2,2,1,Play sports with my son,Sit in the dark listen to music by myself,0.03,0.02,1.1,0,0.02,4.7103,,,,
,,6600a119385d8631c41cd795,6685aa9113c938e83b4f1ea0,671c5d87220adccd5a525a70,2024-10-25_22h12.04.671,WTP_SM_Choice,2022.2.1,Win32,59.88023952,,,,,,,,,,,,,,,,,,9,,,,,,,,,,2,0,3,3,3,1,Go to the amusement park with friends,Sit in the dark listen to music by myself,0.04,0.02,4.4,0,0.02,4.1958,,,,
,,6600a119385d8631c41cd795,6685aa9113c938e83b4f1ea0,671c5d87220adccd5a525a70,2024-10-25_22h12.04.671,WTP_SM_Choice,2022.2.1,Win32,59.88023952,,,,,,,,,,,,,,,,,,10,,,,,,,,,,1,0,4,4,4,1,Go for walks outside in the pouring rain and get soaking wet,Play video games with son spouse friends,0.05,0.02,1.1,1,0.05,8.0732,,,,
,,6600a119385d8631c41cd795,6685aa9113c938e83b4f1ea0,671c5d87220adccd5a525a70,2024-10-25_22h12.04.671,WTP_SM_Choice,2022.2.1,Win32,59.88023952,,,,,,,NAN,,NAN,0.22,5.78,,0,9,9,9,1,10,Sam,Acc,Participant_Images/6600a119385d8631c41cd795/6600a119385d8631c41cd795_Images/6600a119385d8631c41cd795_Image_7.jpeg,liked,1.672012706,,,,,,,,,,,,,,,,,,,,,,
,,6600a119385d8631c41cd795,6685aa9113c938e83b4f1ea0,671c5d87220adccd5a525a70,2024-10-25_22h12.04.671,WTP_SM_Choice,2022.2.1,Win32,59.88023952,,,,,space,25.4893,NAN,,NAN,0.22,5.78,,0,10,10,10,1,11,Sam,Acc,Participant_Images/6600a119385d8631c41cd795/6600a119385d8631c41cd795_Images/6600a119385d8631c41cd795_Image_19.jpeg,liked,4.942172136,,,,,,,,,,,,,,,,,,,,,,
,,6600a119385d8631c41cd795,6685aa9113c938e83b4f1ea0,671c5d87220adccd5a525a70,2024-10-25_22h12.04.671,WTP_SM_Choice,2022.2.1,Win32,59.88023952,,,,,space,0.0897,NAN,,NAN,0.22,5.78,,0,11,11,11,1,12,Sam,Acc,Participant_Images/6600a119385d8631c41cd795/6600a119385d8631c41cd795_Images/6600a119385d8631c41cd795_Image_2.jpeg,liked,2.50187214,,,,,,,,,,,,,,,,,,,,,,
,,6600a119385d8631c41cd795,6685aa9113c938e83b4f1ea0,671c5d87220adccd5a525a70,2024-10-25_22h12.04.671,WTP_SM_Choice,2022.2.1,Win32,59.88023952,,,,,space,680.6629,NAN,,NAN,0.22,5.78,,0,12,12,12,1,13,Sam,Acc,Participant_Images/6600a119385d8631c41cd795/6600a119385d8631c41cd795_Images/6600a119385d8631c41cd795_Image_4.jpeg,did not like,2.071164779,,,,,,,,,,,,,,,,,,,,,,
,,6600a119385d8631c41cd795,6685aa9113c938e83b4f1ea0,671c5d87220adccd5a525a70,2024-10-25_22h12.04.671,WTP_SM_Choice,2022.2.1,Win32,59.88023952,,,,,space,1.5905,NAN,,NAN,0.22,5.78,,0,13,13,13,1,14,Sam,Acc,Participant_Images/6600a119385d8631c41cd795/6600a119385d8631c41cd795_Images/6600a119385d8631c41cd795_Image_17.jpeg,liked,5.336503566,,,,,,,,,,,,,,,,,,,,,,
,,6600a119385d8631c41cd795,6685aa9113c938e83b4f1ea0,671c5d87220adccd5a525a70,2024-10-25_22h12.04.671,WTP_SM_Choice,2022.2.1,Win32,59.88023952,,,,,,,,,,,,,,,,,,11,,,,,,space,9.2005,space,4.828,2,0,0,0,0,1,Go on vacation with friends family or spouse,Spend my day doing studies on prolific,0.01,0.03,3.3,0,0.03,3.2374,,,,
,,6600a119385d8631c41cd795,6685aa9113c938e83b4f1ea0,671c5d87220adccd5a525a70,2024-10-25_22h12.04.671,WTP_SM_Choice,2022.2.1,Win32,59.88023952,,,,,,,,,,,,,,,,,,12,,,,,,,,,,1,0,1,1,1,1,Practice sight reading piano and drum sheet music,Go to concerts with loved ones,0.02,0.03,4.4,1,0.02,2.9823,,,,
,,6600a119385d8631c41cd795,6685aa9113c938e83b4f1ea0,671c5d87220adccd5a525a70,2024-10-25_22h12.04.671,WTP_SM_Choice,2022.2.1,Win32,59.88023952,,,,,,,,,,,,,,,,,,13,,,,,,,,,,2,0,2,2,2,1,Play video games with son spouse friends,Sit in the dark listen to music by myself,0.03,0.03,1.1,0,0.03,4.1735,,,,
,,6600a119385d8631c41cd795,6685aa9113c938e83b4f1ea0,671c5d87220adccd5a525a70,2024-10-25_22h12.04.671,WTP_SM_Choice,2022.2.1,Win32,59.88023952,,,,,,,,,,,,,,,,,,14,,,,,,,,,,2,0,3,3,3,1,Cuddle with my spouse,Go for walks outside in the pouring rain and get soaking wet,0.04,0.03,3.3,0,0.03,4.3459,,,,
,,6600a119385d8631c41cd795,6685aa9113c938e83b4f1ea0,671c5d87220adccd5a525a70,2024-10-25_22h12.04.671,WTP_SM_Choice,2022.2.1,Win32,59.88023952,,,,,,,,,,,,,,,,,,15,,,,,,,,,,1,0,4,4,4,1,Curl up with a half gallon of ice cream and eat it all to myself,Go to the movies with family and friends,0.05,0.03,4.4,1,0.05,6.2154,,,,
,,6600a119385d8631c41cd795,6685aa9113c938e83b4f1ea0,671c5d87220adccd5a525a70,2024-10-25_22h12.04.671,WTP_SM_Choice,2022.2.1,Win32,59.88023952,,,,,,,NAN,,NAN,0.38,5.62,,0,14,14,14,1,15,Sam,Acc,Participant_Images/6600a119385d8631c41cd795/6600a119385d8631c41cd795_Images/6600a119385d8631c41cd795_Image_14.jpeg,liked,2.642157193,,,,,,,,,,,,,,,,,,,,,,
,,6600a119385d8631c41cd795,6685aa9113c938e83b4f1ea0,671c5d87220adccd5a525a70,2024-10-25_22h12.04.671,WTP_SM_Choice,2022.2.1,Win32,59.88023952,,,,,space,0.7447,NAN,,NAN,0.38,5.62,,0,15,15,15,1,16,Sam,Acc,Participant_Images/6600a119385d8631c41cd795/6600a119385d8631c41cd795_Images/6600a119385d8631c41cd795_Image_1.jpeg,liked,4.456234322,,,,,,,,,,,,,,,,,,,,,,
,,6600a119385d8631c41cd795,6685aa9113c938e83b4f1ea0,671c5d87220adccd5a525a70,2024-10-25_22h12.04.671,WTP_SM_Choice,2022.2.1,Win32,59.88023952,,,,,space,0.8199,NAN,,NAN,0.38,5.62,,0,16,16,16,1,17,Sam,Acc,Participant_Images/6600a119385d8631c41cd795/6600a119385d8631c41cd795_Images/6600a119385d8631c41cd795_Image_9.jpeg,liked,4.438512181,,,,,,,,,,,,,,,,,,,,,,
,,6600a119385d8631c41cd795,6685aa9113c938e83b4f1ea0,671c5d87220adccd5a525a70,2024-10-25_22h12.04.671,WTP_SM_Choice,2022.2.1,Win32,59.88023952,,,,,space,1.6885,NAN,,NAN,0.38,5.62,,0,17,17,17,1,18,Sam,Acc,Participant_Images/6600a119385d8631c41cd795/6600a119385d8631c41cd795_Images/6600a119385d8631c41cd795_Image_3.jpeg,did not like,2.682944783,,,,,,,,,,,,,,,,,,,,,,
,,6600a119385d8631c41cd795,6685aa9113c938e83b4f1ea0,671c5d87220adccd5a525a70,2024-10-25_22h12.04.671,WTP_SM_Choice,2022.2.1,Win32,59.88023952,,,,,space,0.6324,NAN,,NAN,0.38,5.62,,0,18,18,18,1,19,Sam,Acc,Participant_Images/6600a119385d8631c41cd795/6600a119385d8631c41cd795_Images/6600a119385d8631c41cd795_Image_13.jpeg,liked,4.51984296,,,,,,,,,,,,,,,,,,,,,,
,,6600a119385d8631c41cd795,6685aa9113c938e83b4f1ea0,671c5d87220adccd5a525a70,2024-10-25_22h12.04.671,WTP_SM_Choice,2022.2.1,Win32,59.88023952,,,,,,,,,,,,,,,,,,16,,,,,,space,2.5694,space,1.2531,1,0,0,0,0,1,Play my drumset alone with headphones on to my favorite songs,Go to the movies with family and friends,0.01,0.04,1.1,1,0.01,2.3678,,,,
,,6600a119385d8631c41cd795,6685aa9113c938e83b4f1ea0,671c5d87220adccd5a525a70,2024-10-25_22h12.04.671,WTP_SM_Choice,2022.2.1,Win32,59.88023952,,,,,,,,,,,,,,,,,,17,,,,,,,,,,1,0,1,1,1,1,Go to the fair with family and friends,Curl up with a half gallon of ice cream and eat it all to myself,0.02,0.04,8.8,0,0.02,3.4869,,,,
,,6600a119385d8631c41cd795,6685aa9113c938e83b4f1ea0,671c5d87220adccd5a525a70,2024-10-25_22h12.04.671,WTP_SM_Choice,2022.2.1,Win32,59.88023952,,,,,,,,,,,,,,,,,,18,,,,,,,,,,1,0,2,2,2,1,Go for walks outside in the pouring rain and get soaking wet,Go to the amusement park with friends,0.03,0.04,3.3,1,0.03,3.2139,,,,
,,6600a119385d8631c41cd795,6685aa9113c938e83b4f1ea0,671c5d87220adccd5a525a70,2024-10-25_22h12.04.671,WTP_SM_Choice,2022.2.1,Win32,59.88023952,,,,,,,,,,,,,,,,,,19,,,,,,,,,,1,0,3,3,3,1,Curl up with a half gallon of ice cream and eat it all to myself,Play music together with my fellow bandmates,0.04,0.04,3.3,1,0.04,3.2337,,,,
,,6600a119385d8631c41cd795,6685aa9113c938e83b4f1ea0,671c5d87220adccd5a525a70,2024-10-25_22h12.04.671,WTP_SM_Choice,2022.2.1,Win32,59.88023952,,,,,,,,,,,,,,,,,,20,,,,,,,,,,1,0,4,4,4,1,Curl up with a half gallon of ice cream and eat it all to myself,Play sports with my son,0.05,0.04,1.1,1,0.05,2.5197,,,,
,,6600a119385d8631c41cd795,6685aa9113c938e83b4f1ea0,671c5d87220adccd5a525a70,2024-10-25_22h12.04.671,WTP_SM_Choice,2022.2.1,Win32,59.88023952,,,,,,,NAN,,NAN,0.53,5.47,,0,19,19,19,1,20,Sam,Acc,Participant_Images/6600a119385d8631c41cd795/6600a119385d8631c41cd795_Images/6600a119385d8631c41cd795_Image_11.jpeg,liked,3.195382774,,,,,,,,,,,,,,,,,,,,,,
,,6600a119385d8631c41cd795,6685aa9113c938e83b4f1ea0,671c5d87220adccd5a525a70,2024-10-25_22h12.04.671,WTP_SM_Choice,2022.2.1,Win32,59.88023952,,,,,space,0.8864,NAN,,NAN,0.53,5.47,,0,20,20,20,1,21,Sam,Acc,Participant_Images/6600a119385d8631c41cd795/6600a119385d8631c41cd795_Images/6600a119385d8631c41cd795_Image_23.jpeg,did not like,1.779333479,,,,,,,,,,,,,,,,,,,,,,
,,6600a119385d8631c41cd795,6685aa9113c938e83b4f1ea0,671c5d87220adccd5a525a70,2024-10-25_22h12.04.671,WTP_SM_Choice,2022.2.1,Win32,59.88023952,,,,,space,0.4646,NAN,,NAN,0.53,5.47,,0,21,21,21,1,22,Sam,Acc,Participant_Images/6600a119385d8631c41cd795/6600a119385d8631c41cd795_Images/6600a119385d8631c41cd795_Image_12.jpeg,did not like,4.312468682,,,,,,,,,,,,,,,,,,,,,,
,,6600a119385d8631c41cd795,6685aa9113c938e83b4f1ea0,671c5d87220adccd5a525a70,2024-10-25_22h12.04.671,WTP_SM_Choice,2022.2.1,Win32,59.88023952,,,,,space,0.5259,NAN,,NAN,0.53,5.47,,0,22,22,22,1,23,Sam,Acc,Participant_Images/6600a119385d8631c41cd795/6600a119385d8631c41cd795_Images/6600a119385d8631c41cd795_Image_18.jpeg,liked,4.940433059,,,,,,,,,,,,,,,,,,,,,,
,,6600a119385d8631c41cd795,6685aa9113c938e83b4f1ea0,671c5d87220adccd5a525a70,2024-10-25_22h12.04.671,WTP_SM_Choice,2022.2.1,Win32,59.88023952,,,,,space,0.6724,NAN,,NAN,0.53,5.47,,0,23,23,23,1,24,Sam,Acc,Participant_Images/6600a119385d8631c41cd795/6600a119385d8631c41cd795_Images/6600a119385d8631c41cd795_Image_20.jpeg,liked,2.7105123,,,,,,,,,,,,,,,,,,,,,,
,,6600a119385d8631c41cd795,6685aa9113c938e83b4f1ea0,671c5d87220adccd5a525a70,2024-10-25_22h12.04.671,WTP_SM_Choice,2022.2.1,Win32,59.88023952,,,,,,,,,,,,,,,,,,21,,,,,,space,6.8342,space,3.7338,2,0,0,0,0,1,Cuddle with my spouse,Sit on the porch during rain and thunderstorms with candles reading my current favorite book,0.01,0.05,8.8,0,0.05,6.1028,,,,
,,6600a119385d8631c41cd795,6685aa9113c938e83b4f1ea0,671c5d87220adccd5a525a70,2024-10-25_22h12.04.671,WTP_SM_Choice,2022.2.1,Win32,59.88023952,,,,,,,,,,,,,,,,,,22,,,,,,,,,,2,0,1,1,1,1,Go to the amusement park with friends,Cuddle with my cat while watch movies,0.02,0.05,4.4,0,0.05,3.79,,,,
,,6600a119385d8631c41cd795,6685aa9113c938e83b4f1ea0,671c5d87220adccd5a525a70,2024-10-25_22h12.04.671,WTP_SM_Choice,2022.2.1,Win32,59.88023952,,,,,,,,,,,,,,,,,,23,,,,,,,,,,2,0,2,2,2,1,Cuddle with my spouse,Sit in the dark listen to music by myself,0.03,0.05,1.1,0,0.05,2.5014,,,,
,,6600a119385d8631c41cd795,6685aa9113c938e83b4f1ea0,671c5d87220adccd5a525a70,2024-10-25_22h12.04.671,WTP_SM_Choice,2022.2.1,Win32,59.88023952,,,,,,,,,,,,,,,,,,24,,,,,,,,,,2,0,3,3,3,1,Go to concerts with loved ones,Cuddle with my cat while watch movies,0.04,0.05,4.4,0,0.05,4.8887,,,,
,,6600a119385d8631c41cd795,6685aa9113c938e83b4f1ea0,671c5d87220adccd5a525a70,2024-10-25_22h12.04.671,WTP_SM_Choice,2022.2.1,Win32,59.88023952,,,,,,,,,,,,,,,,,,25,,,,,,,,,,1,0,4,4,4,1,Practice sight reading piano and drum sheet music,Play music together with my fellow bandmates,0.05,0.05,3.3,1,0.05,4.1181,,,,
,,6600a119385d8631c41cd795,6685aa9113c938e83b4f1ea0,671c5d87220adccd5a525a70,2024-10-25_22h12.04.671,WTP_SM_Choice,2022.2.1,Win32,59.88023952,,,,,,,5,,9,0.78,5.22,,0,24,24,24,1,25,Sam,Acc,Participant_Images/6600a119385d8631c41cd795/6600a119385d8631c41cd795_Images/6600a119385d8631c41cd795_Image_15.jpeg,liked,3.602308302,,,,,,,,,,,,,,,,,,,space,0.7397,,
,,6600a119385d8631c41cd795,6685aa9113c938e83b4f1ea0,671c5d87220adccd5a525a70,2024-10-25_22h12.04.671,WTP_SM_Choice,2022.2.1,Win32,59.88023952,,,space,1.6256,space,0.5714,NAN,,NAN,0.78,5.22,,0,25,25,25,1,26,Alex,Rej,Participant_Images/6600a119385d8631c41cd795/6600a119385d8631c41cd795_Images/6600a119385d8631c41cd795_Image_12.jpeg,liked,4.106391878,,,,,,,,,,,,,,,,,,,,,,
,,6600a119385d8631c41cd795,6685aa9113c938e83b4f1ea0,671c5d87220adccd5a525a70,2024-10-25_22h12.04.671,WTP_SM_Choice,2022.2.1,Win32,59.88023952,,,,,space,0.4313,NAN,,NAN,0.78,5.22,,0,26,26,26,1,27,Alex,Rej,Participant_Images/6600a119385d8631c41cd795/6600a119385d8631c41cd795_Images/6600a119385d8631c41cd795_Image_4.jpeg,did not like,3.799433026,,,,,,,,,,,,,,,,,,,,,,
,,6600a119385d8631c41cd795,6685aa9113c938e83b4f1ea0,671c5d87220adccd5a525a70,2024-10-25_22h12.04.671,WTP_SM_Choice,2022.2.1,Win32,59.88023952,,,,,space,0.6265,NAN,,NAN,0.78,5.22,,0,27,27,27,1,28,Alex,Rej,Participant_Images/6600a119385d8631c41cd795/6600a119385d8631c41cd795_Images/6600a119385d8631c41cd795_Image_17.jpeg,did not like,5.246980764,,,,,,,,,,,,,,,,,,,,,,
,,6600a119385d8631c41cd795,6685aa9113c938e83b4f1ea0,671c5d87220adccd5a525a70,2024-10-25_22h12.04.671,WTP_SM_Choice,2022.2.1,Win32,59.88023952,,,,,space,0.7857,NAN,,NAN,0.78,5.22,,0,28,28,28,1,29,Alex,Rej,Participant_Images/6600a119385d8631c41cd795/6600a119385d8631c41cd795_Images/6600a119385d8631c41cd795_Image_19.jpeg,liked,3.30081769,,,,,,,,,,,,,,,,,,,,,,
,,6600a119385d8631c41cd795,6685aa9113c938e83b4f1ea0,671c5d87220adccd5a525a70,2024-10-25_22h12.04.671,WTP_SM_Choice,2022.2.1,Win32,59.88023952,,,,,,,,,,,,,,,,,,26,,,,,,space,1.7278,space,1.2192,1,0,0,0,0,1,Curl up with a half gallon of ice cream and eat it all to myself,Go to the amusement park with friends,0.01,0.01,4.4,1,0.01,2.7807,,,,
,,6600a119385d8631c41cd795,6685aa9113c938e83b4f1ea0,671c5d87220adccd5a525a70,2024-10-25_22h12.04.671,WTP_SM_Choice,2022.2.1,Win32,59.88023952,,,,,,,,,,,,,,,,,,27,,,,,,,,,,2,0,1,1,1,1,Go to the movies with family and friends,Spend my day doing studies on prolific,0.02,0.01,3.3,0,0.01,3.2016,,,,
,,6600a119385d8631c41cd795,6685aa9113c938e83b4f1ea0,671c5d87220adccd5a525a70,2024-10-25_22h12.04.671,WTP_SM_Choice,2022.2.1,Win32,59.88023952,,,,,,,,,,,,,,,,,,28,,,,,,,,,,2,0,2,2,2,1,Go to the fair with family and friends,Sit in the dark listen to music by myself,0.03,0.01,3.3,0,0.01,2.6999,,,,
,,6600a119385d8631c41cd795,6685aa9113c938e83b4f1ea0,671c5d87220adccd5a525a70,2024-10-25_22h12.04.671,WTP_SM_Choice,2022.2.1,Win32,59.88023952,,,,,,,,,,,,,,,,,,29,,,,,,,,,,2,0,3,3,3,1,Go out to the bar with friends or spouse,Curl up with a half gallon of ice cream and eat it all to myself,0.04,0.01,4.4,0,0.01,3.8128,,,,
,,6600a119385d8631c41cd795,6685aa9113c938e83b4f1ea0,671c5d87220adccd5a525a70,2024-10-25_22h12.04.671,WTP_SM_Choice,2022.2.1,Win32,59.88023952,,,,,,,,,,,,,,,,,,30,,,,,,,,,,1,0,4,4,4,1,Enjoy a lazy day with the lights off TV on never leave the bed,Go to the fair with family and friends,0.05,0.01,8.8,1,0.05,3.6978,,,,
,,6600a119385d8631c41cd795,6685aa9113c938e83b4f1ea0,671c5d87220adccd5a525a70,2024-10-25_22h12.04.671,WTP_SM_Choice,2022.2.1,Win32,59.88023952,,,,,,,NAN,,NAN,0.87,5.13,,0,29,29,29,1,30,Alex,Rej,Participant_Images/6600a119385d8631c41cd795/6600a119385d8631c41cd795_Images/6600a119385d8631c41cd795_Image_3.jpeg,did not like,1.661473164,,,,,,,,,,,,,,,,,,,,,,
,,6600a119385d8631c41cd795,6685aa9113c938e83b4f1ea0,671c5d87220adccd5a525a70,2024-10-25_22h12.04.671,WTP_SM_Choice,2022.2.1,Win32,59.88023952,,,,,space,0.3023,NAN,,NAN,0.87,5.13,,0,30,30,30,1,31,Alex,Rej,Participant_Images/6600a119385d8631c41cd795/6600a119385d8631c41cd795_Images/6600a119385d8631c41cd795_Image_6.jpeg,did not like,3.613205605,,,,,,,,,,,,,,,,,,,,,,
,,6600a119385d8631c41cd795,6685aa9113c938e83b4f1ea0,671c5d87220adccd5a525a70,2024-10-25_22h12.04.671,WTP_SM_Choice,2022.2.1,Win32,59.88023952,,,,,space,0.2774,NAN,,NAN,0.87,5.13,,0,31,31,31,1,32,Alex,Rej,Participant_Images/6600a119385d8631c41cd795/6600a119385d8631c41cd795_Images/6600a119385d8631c41cd795_Image_18.jpeg,liked,4.988446431,,,,,,,,,,,,,,,,,,,,,,
,,6600a119385d8631c41cd795,6685aa9113c938e83b4f1ea0,671c5d87220adccd5a525a70,2024-10-25_22h12.04.671,WTP_SM_Choice,2022.2.1,Win32,59.88023952,,,,,space,0.3023,NAN,,NAN,0.87,5.13,,0,32,32,32,1,33,Alex,Rej,Participant_Images/6600a119385d8631c41cd795/6600a119385d8631c41cd795_Images/6600a119385d8631c41cd795_Image_15.jpeg,liked,3.470791822,,,,,,,,,,,,,,,,,,,,,,
,,6600a119385d8631c41cd795,6685aa9113c938e83b4f1ea0,671c5d87220adccd5a525a70,2024-10-25_22h12.04.671,WTP_SM_Choice,2022.2.1,Win32,59.88023952,,,,,space,0.947,NAN,,NAN,0.87,5.13,,0,33,33,33,1,34,Alex,Rej,Participant_Images/6600a119385d8631c41cd795/6600a119385d8631c41cd795_Images/6600a119385d8631c41cd795_Image_7.jpeg,did not like,3.820572462,,,,,,,,,,,,,,,,,,,,,,
,,6600a119385d8631c41cd795,6685aa9113c938e83b4f1ea0,671c5d87220adccd5a525a70,2024-10-25_22h12.04.671,WTP_SM_Choice,2022.2.1,Win32,59.88023952,,,,,,,,,,,,,,,,,,31,,,,,,space,1.45,space,6.7473,2,0,0,0,0,1,Go to concerts with loved ones,Light candles during a storm when the power goes out and enjoy the storm,0.01,0.02,8.8,0,0.02,4.0055,,,,
,,6600a119385d8631c41cd795,6685aa9113c938e83b4f1ea0,671c5d87220adccd5a525a70,2024-10-25_22h12.04.671,WTP_SM_Choice,2022.2.1,Win32,59.88023952,,,,,,,,,,,,,,,,,,32,,,,,,,,,,1,0,1,1,1,1,Go to the movies with family and friends,Sit on the porch during rain and thunderstorms with candles reading my current favorite book,0.02,0.02,1.1,0,0.02,3.446,,,,
,,6600a119385d8631c41cd795,6685aa9113c938e83b4f1ea0,671c5d87220adccd5a525a70,2024-10-25_22h12.04.671,WTP_SM_Choice,2022.2.1,Win32,59.88023952,,,,,,,,,,,,,,,,,,33,,,,,,,,,,2,0,2,2,2,1,Go out to the bar with friends or spouse,Go for walks outside in the pouring rain and get soaking wet,0.03,0.02,4.4,0,0.02,6.6504,,,,
,,6600a119385d8631c41cd795,6685aa9113c938e83b4f1ea0,671c5d87220adccd5a525a70,2024-10-25_22h12.04.671,WTP_SM_Choice,2022.2.1,Win32,59.88023952,,,,,,,,,,,,,,,,,,34,,,,,,,,,,1,0,3,3,3,1,Spend my day doing studies on prolific,Play sports with my son,0.04,0.02,3.3,1,0.04,5.5665,,,,
,,6600a119385d8631c41cd795,6685aa9113c938e83b4f1ea0,671c5d87220adccd5a525a70,2024-10-25_22h12.04.671,WTP_SM_Choice,2022.2.1,Win32,59.88023952,,,,,,,,,,,,,,,,,,35,,,,,,,,,,2,0,4,4,4,1,Go to the fair with family and friends,Cuddle with my cat while watch movies,0.05,0.02,1.1,0,0.02,4.2039,,,,
,,6600a119385d8631c41cd795,6685aa9113c938e83b4f1ea0,671c5d87220adccd5a525a70,2024-10-25_22h12.04.671,WTP_SM_Choice,2022.2.1,Win32,59.88023952,,,,,,,NAN,,NAN,0.99,5.01,,0,34,34,34,1,35,Alex,Rej,Participant_Images/6600a119385d8631c41cd795/6600a119385d8631c41cd795_Images/6600a119385d8631c41cd795_Image_20.jpeg,did not like,2.455989137,,,,,,,,,,,,,,,,,,,,,,
,,6600a119385d8631c41cd795,6685aa9113c938e83b4f1ea0,671c5d87220adccd5a525a70,2024-10-25_22h12.04.671,WTP_SM_Choice,2022.2.1,Win32,59.88023952,,,,,space,6.2115,NAN,,NAN,0.99,5.01,,0,35,35,35,1,36,Alex,Rej,Participant_Images/6600a119385d8631c41cd795/6600a119385d8631c41cd795_Images/6600a119385d8631c41cd795_Image_11.jpeg,did not like,3.79605092,,,,,,,,,,,,,,,,,,,,,,
,,6600a119385d8631c41cd795,6685aa9113c938e83b4f1ea0,671c5d87220adccd5a525a70,2024-10-25_22h12.04.671,WTP_SM_Choice,2022.2.1,Win32,59.88023952,,,,,space,1.1488,NAN,,NAN,0.99,5.01,,0,36,36,36,1,37,Alex,Rej,Participant_Images/6600a119385d8631c41cd795/6600a119385d8631c41cd795_Images/6600a119385d8631c41cd795_Image_1.jpeg,liked,3.562416326,,,,,,,,,,,,,,,,,,,,,,
,,6600a119385d8631c41cd795,6685aa9113c938e83b4f1ea0,671c5d87220adccd5a525a70,2024-10-25_22h12.04.671,WTP_SM_Choice,2022.2.1,Win32,59.88023952,,,,,space,12.8662,NAN,,NAN,0.99,5.01,,0,37,37,37,1,38,Alex,Rej,Participant_Images/6600a119385d8631c41cd795/6600a119385d8631c41cd795_Images/6600a119385d8631c41cd795_Image_13.jpeg,did not like,2.843822497,,,,,,,,,,,,,,,,,,,,,,
,,6600a119385d8631c41cd795,6685aa9113c938e83b4f1ea0,671c5d87220adccd5a525a70,2024-10-25_22h12.04.671,WTP_SM_Choice,2022.2.1,Win32,59.88023952,,,,,space,1.8732,NAN,,NAN,0.99,5.01,,0,38,38,38,1,39,Alex,Rej,Participant_Images/6600a119385d8631c41cd795/6600a119385d8631c41cd795_Images/6600a119385d8631c41cd795_Image_8.jpeg,liked,3.546495948,,,,,,,,,,,,,,,,,,,,,,
,,6600a119385d8631c41cd795,6685aa9113c938e83b4f1ea0,671c5d87220adccd5a525a70,2024-10-25_22h12.04.671,WTP_SM_Choice,2022.2.1,Win32,59.88023952,,,,,,,,,,,,,,,,,,36,,,,,,space,0.8707,space,0.6354,1,0,0,0,0,1,Go to the movies with family and friends,Cuddle with my cat while watch movies,0.01,0.03,3.3,0,0.01,7.3746,,,,
,,6600a119385d8631c41cd795,6685aa9113c938e83b4f1ea0,671c5d87220adccd5a525a70,2024-10-25_22h12.04.671,WTP_SM_Choice,2022.2.1,Win32,59.88023952,,,,,,,,,,,,,,,,,,37,,,,,,,,,,2,0,1,1,1,1,Play video games with son spouse friends,Play my drumset alone with headphones on to my favorite songs,0.02,0.03,1.1,0,0.03,2.9951,,,,
,,6600a119385d8631c41cd795,6685aa9113c938e83b4f1ea0,671c5d87220adccd5a525a70,2024-10-25_22h12.04.671,WTP_SM_Choice,2022.2.1,Win32,59.88023952,,,,,,,,,,,,,,,,,,38,,,,,,,,,,2,0,2,2,2,1,Go out to the bar with friends or spouse,Spend my day doing studies on prolific,0.03,0.03,1.1,0,0.03,6.1028,,,,
,,6600a119385d8631c41cd795,6685aa9113c938e83b4f1ea0,671c5d87220adccd5a525a70,2024-10-25_22h12.04.671,WTP_SM_Choice,2022.2.1,Win32,59.88023952,,,,,,,,,,,,,,,,,,39,,,,,,,,,,2,0,3,3,3,1,Sit on the porch during rain and thunderstorms with candles reading my current favorite book,Go to the amusement park with friends,0.04,0.03,3.3,1,0.03,4.6816,,,,
,,6600a119385d8631c41cd795,6685aa9113c938e83b4f1ea0,671c5d87220adccd5a525a70,2024-10-25_22h12.04.671,WTP_SM_Choice,2022.2.1,Win32,59.88023952,,,,,,,,,,,,,,,,,,40,,,,,,,,,,1,0,4,4,4,1,Cuddle with my cat while watch movies,Cuddle with my spouse,0.05,0.03,4.4,1,0.05,2.917,,,,
,,6600a119385d8631c41cd795,6685aa9113c938e83b4f1ea0,671c5d87220adccd5a525a70,2024-10-25_22h12.04.671,WTP_SM_Choice,2022.2.1,Win32,59.88023952,,,,,,,NAN,,NAN,1.14,4.86,,0,39,39,39,1,40,Alex,Rej,Participant_Images/6600a119385d8631c41cd795/6600a119385d8631c41cd795_Images/6600a119385d8631c41cd795_Image_10.jpeg,liked,1.672012706,,,,,,,,,,,,,,,,,,,,,,
,,6600a119385d8631c41cd795,6685aa9113c938e83b4f1ea0,671c5d87220adccd5a525a70,2024-10-25_22h12.04.671,WTP_SM_Choice,2022.2.1,Win32,59.88023952,,,,,space,0.6413,NAN,,NAN,1.14,4.86,,0,40,40,40,1,41,Alex,Rej,Participant_Images/6600a119385d8631c41cd795/6600a119385d8631c41cd795_Images/6600a119385d8631c41cd795_Image_25.jpeg,did not like,4.942172136,,,,,,,,,,,,,,,,,,,,,,
,,6600a119385d8631c41cd795,6685aa9113c938e83b4f1ea0,671c5d87220adccd5a525a70,2024-10-25_22h12.04.671,WTP_SM_Choice,2022.2.1,Win32,59.88023952,,,,,space,2.9366,NAN,,NAN,1.14,4.86,,0,41,41,41,1,42,Alex,Rej,Participant_Images/6600a119385d8631c41cd795/6600a119385d8631c41cd795_Images/6600a119385d8631c41cd795_Image_23.jpeg,did not like,2.50187214,,,,,,,,,,,,,,,,,,,,,,
,,6600a119385d8631c41cd795,6685aa9113c938e83b4f1ea0,671c5d87220adccd5a525a70,2024-10-25_22h12.04.671,WTP_SM_Choice,2022.2.1,Win32,59.88023952,,,,,space,1.5892,NAN,,NAN,1.14,4.86,,0,42,42,42,1,43,Alex,Rej,Participant_Images/6600a119385d8631c41cd795/6600a119385d8631c41cd795_Images/6600a119385d8631c41cd795_Image_9.jpeg,did not like,2.071164779,,,,,,,,,,,,,,,,,,,,,,
,,6600a119385d8631c41cd795,6685aa9113c938e83b4f1ea0,671c5d87220adccd5a525a70,2024-10-25_22h12.04.671,WTP_SM_Choice,2022.2.1,Win32,59.88023952,,,,,space,1.2303,NAN,,NAN,1.14,4.86,,0,43,43,43,1,44,Alex,Rej,Participant_Images/6600a119385d8631c41cd795/6600a119385d8631c41cd795_Images/6600a119385d8631c41cd795_Image_14.jpeg,did not like,5.336503566,,,,,,,,,,,,,,,,,,,,,,
,,6600a119385d8631c41cd795,6685aa9113c938e83b4f1ea0,671c5d87220adccd5a525a70,2024-10-25_22h12.04.671,WTP_SM_Choice,2022.2.1,Win32,59.88023952,,,,,,,,,,,,,,,,,,41,,,,,,space,1.2887,space,1.6914,1,0,0,0,0,1,Play my drumset alone with headphones on to my favorite songs,Play sports with my son,0.01,0.04,1.1,1,0.01,4.086,,,,
,,6600a119385d8631c41cd795,6685aa9113c938e83b4f1ea0,671c5d87220adccd5a525a70,2024-10-25_22h12.04.671,WTP_SM_Choice,2022.2.1,Win32,59.88023952,,,,,,,,,,,,,,,,,,42,,,,,,,,,,1,0,1,1,1,1,Cuddle with my cat while watch movies,Go on vacation with friends family or spouse,0.02,0.04,3.3,1,0.02,4.4548,,,,
,,6600a119385d8631c41cd795,6685aa9113c938e83b4f1ea0,671c5d87220adccd5a525a70,2024-10-25_22h12.04.671,WTP_SM_Choice,2022.2.1,Win32,59.88023952,,,,,,,,,,,,,,,,,,43,,,,,,,,,,1,0,2,2,2,1,Play video games with son spouse friends,Practice sight reading piano and drum sheet music,0.03,0.04,1.1,0,0.03,4.3622,,,,
,,6600a119385d8631c41cd795,6685aa9113c938e83b4f1ea0,671c5d87220adccd5a525a70,2024-10-25_22h12.04.671,WTP_SM_Choice,2022.2.1,Win32,59.88023952,,,,,,,,,,,,,,,,,,44,,,,,,,,,,2,0,3,3,3,1,Go to the amusement park with friends,Practice sight reading piano and drum sheet music,0.04,0.04,1.1,0,0.04,4.8882,,,,
,,6600a119385d8631c41cd795,6685aa9113c938e83b4f1ea0,671c5d87220adccd5a525a70,2024-10-25_22h12.04.671,WTP_SM_Choice,2022.2.1,Win32,59.88023952,,,,,,,,,,,,,,,,,,45,,,,,,,,,,1,0,4,4,4,1,Go for walks outside in the pouring rain and get soaking wet,Go to the movies with family and friends,0.05,0.04,4.4,1,0.05,5.0955,,,,
,,6600a119385d8631c41cd795,6685aa9113c938e83b4f1ea0,671c5d87220adccd5a525a70,2024-10-25_22h12.04.671,WTP_SM_Choice,2022.2.1,Win32,59.88023952,,,,,,,NAN,,NAN,1.29,4.71,,0,44,44,44,1,45,Alex,Rej,Participant_Images/6600a119385d8631c41cd795/6600a119385d8631c41cd795_Images/6600a119385d8631c41cd795_Image_5.jpeg,did not like,2.642157193,,,,,,,,,,,,,,,,,,,,,,
,,6600a119385d8631c41cd795,6685aa9113c938e83b4f1ea0,671c5d87220adccd5a525a70,2024-10-25_22h12.04.671,WTP_SM_Choice,2022.2.1,Win32,59.88023952,,,,,space,0.676,NAN,,NAN,1.29,4.71,,0,45,45,45,1,46,Alex,Rej,Participant_Images/6600a119385d8631c41cd795/6600a119385d8631c41cd795_Images/6600a119385d8631c41cd795_Image_2.jpeg,did not like,4.456234322,,,,,,,,,,,,,,,,,,,,,,
,,6600a119385d8631c41cd795,6685aa9113c938e83b4f1ea0,671c5d87220adccd5a525a70,2024-10-25_22h12.04.671,WTP_SM_Choice,2022.2.1,Win32,59.88023952,,,,,space,0.4541,NAN,,NAN,1.29,4.71,,0,46,46,46,1,47,Alex,Rej,Participant_Images/6600a119385d8631c41cd795/6600a119385d8631c41cd795_Images/6600a119385d8631c41cd795_Image_22.jpeg,did not like,4.438512181,,,,,,,,,,,,,,,,,,,,,,
,,6600a119385d8631c41cd795,6685aa9113c938e83b4f1ea0,671c5d87220adccd5a525a70,2024-10-25_22h12.04.671,WTP_SM_Choice,2022.2.1,Win32,59.88023952,,,,,space,0.8262,NAN,,NAN,1.29,4.71,,0,47,47,47,1,48,Alex,Rej,Participant_Images/6600a119385d8631c41cd795/6600a119385d8631c41cd795_Images/6600a119385d8631c41cd795_Image_21.jpeg,did not like,2.682944783,,,,,,,,,,,,,,,,,,,,,,
,,6600a119385d8631c41cd795,6685aa9113c938e83b4f1ea0,671c5d87220adccd5a525a70,2024-10-25_22h12.04.671,WTP_SM_Choice,2022.2.1,Win32,59.88023952,,,,,space,0.4094,NAN,,NAN,1.29,4.71,,0,48,48,48,1,49,Alex,Rej,Participant_Images/6600a119385d8631c41cd795/6600a119385d8631c41cd795_Images/6600a119385d8631c41cd795_Image_16.jpeg,did not like,4.51984296,,,,,,,,,,,,,,,,,,,,,,
,,6600a119385d8631c41cd795,6685aa9113c938e83b4f1ea0,671c5d87220adccd5a525a70,2024-10-25_22h12.04.671,WTP_SM_Choice,2022.2.1,Win32,59.88023952,,,,,,,,,,,,,,,,,,46,,,,,,space,2.5068,space,19.5972,1,0,0,0,0,1,Light candles during a storm when the power goes out and enjoy the storm,Go on vacation with friends family or spouse,0.01,0.05,8.8,1,0.01,3.2974,,,,
,,6600a119385d8631c41cd795,6685aa9113c938e83b4f1ea0,671c5d87220adccd5a525a70,2024-10-25_22h12.04.671,WTP_SM_Choice,2022.2.1,Win32,59.88023952,,,,,,,,,,,,,,,,,,47,,,,,,,,,,2,0,1,1,1,1,Curl up with a half gallon of ice cream and eat it all to myself,Play video games with son spouse friends,0.02,0.05,1.1,1,0.05,3.3605,,,,
,,6600a119385d8631c41cd795,6685aa9113c938e83b4f1ea0,671c5d87220adccd5a525a70,2024-10-25_22h12.04.671,WTP_SM_Choice,2022.2.1,Win32,59.88023952,,,,,,,,,,,,,,,,,,48,,,,,,,,,,1,0,2,2,2,1,Spend my day doing studies on prolific,Go to the amusement park with friends,0.03,0.05,4.4,1,0.03,2.3155,,,,
,,6600a119385d8631c41cd795,6685aa9113c938e83b4f1ea0,671c5d87220adccd5a525a70,2024-10-25_22h12.04.671,WTP_SM_Choice,2022.2.1,Win32,59.88023952,,,,,,,,,,,,,,,,,,49,,,,,,,,,,2,0,3,3,3,1,Go to concerts with loved ones,Spend my day doing studies on prolific,0.04,0.05,3.3,0,0.05,2.8347,,,,
,,6600a119385d8631c41cd795,6685aa9113c938e83b4f1ea0,671c5d87220adccd5a525a70,2024-10-25_22h12.04.671,WTP_SM_Choice,2022.2.1,Win32,59.88023952,,,,,,,,,,,,,,,,,,50,,,,,,,,,,2,0,4,4,4,1,Go to the fair with family and friends,Go for walks outside in the pouring rain and get soaking wet,0.05,0.05,1.1,0,0.05,3.1266,,,,
,,6600a119385d8631c41cd795,6685aa9113c938e83b4f1ea0,671c5d87220adccd5a525a70,2024-10-25_22h12.04.671,WTP_SM_Choice,2022.2.1,Win32,59.88023952,,,,,,,4,,9,1.48,4.52,,0,49,49,49,1,50,Alex,Rej,Participant_Images/6600a119385d8631c41cd795/6600a119385d8631c41cd795_Images/6600a119385d8631c41cd795_Image_24.jpeg,did not like,3.195382774,,,,,,,,,,,,,,,,,,,space,2.4937,,
,,6600a119385d8631c41cd795,6685aa9113c938e83b4f1ea0,671c5d87220adccd5a525a70,2024-10-25_22h12.04.671,WTP_SM_Choice,2022.2.1,Win32,59.88023952,,,space,2.9238,space,1.0802,NAN,,NAN,1.48,4.52,,0,50,50,50,1,51,Charlie,Acc,Participant_Images/6600a119385d8631c41cd795/6600a119385d8631c41cd795_Images/6600a119385d8631c41cd795_Image_1.jpeg,liked,1.779333479,,,,,,,,,,,,,,,,,,,,,,
,,6600a119385d8631c41cd795,6685aa9113c938e83b4f1ea0,671c5d87220adccd5a525a70,2024-10-25_22h12.04.671,WTP_SM_Choice,2022.2.1,Win32,59.88023952,,,,,space,1.1716,NAN,,NAN,1.48,4.52,,0,51,51,51,1,52,Charlie,Acc,Participant_Images/6600a119385d8631c41cd795/6600a119385d8631c41cd795_Images/6600a119385d8631c41cd795_Image_23.jpeg,liked,4.312468682,,,,,,,,,,,,,,,,,,,,,,
,,6600a119385d8631c41cd795,6685aa9113c938e83b4f1ea0,671c5d87220adccd5a525a70,2024-10-25_22h12.04.671,WTP_SM_Choice,2022.2.1,Win32,59.88023952,,,,,space,0.8961,NAN,,NAN,1.48,4.52,,0,52,52,52,1,53,Charlie,Acc,Participant_Images/6600a119385d8631c41cd795/6600a119385d8631c41cd795_Images/6600a119385d8631c41cd795_Image_20.jpeg,liked,4.940433059,,,,,,,,,,,,,,,,,,,,,,
,,6600a119385d8631c41cd795,6685aa9113c938e83b4f1ea0,671c5d87220adccd5a525a70,2024-10-25_22h12.04.671,WTP_SM_Choice,2022.2.1,Win32,59.88023952,,,,,space,0.7851,NAN,,NAN,1.48,4.52,,0,53,53,53,1,54,Charlie,Acc,Participant_Images/6600a119385d8631c41cd795/6600a119385d8631c41cd795_Images/6600a119385d8631c41cd795_Image_9.jpeg,liked,2.7105123,,,,,,,,,,,,,,,,,,,,,,
,,6600a119385d8631c41cd795,6685aa9113c938e83b4f1ea0,671c5d87220adccd5a525a70,2024-10-25_22h12.04.671,WTP_SM_Choice,2022.2.1,Win32,59.88023952,,,,,,,,,,,,,,,,,,51,,,,,,space,5.3068,space,1.1441,1,0,0,0,0,1,Play my drumset alone with headphones on to my favorite songs,Go to the amusement park with friends,0.01,0.01,1.1,1,0.01,3.0508,,,,
,,6600a119385d8631c41cd795,6685aa9113c938e83b4f1ea0,671c5d87220adccd5a525a70,2024-10-25_22h12.04.671,WTP_SM_Choice,2022.2.1,Win32,59.88023952,,,,,,,,,,,,,,,,,,52,,,,,,,,,,2,0,1,1,1,1,Go out to the bar with friends or spouse,Enjoy a lazy day with the lights off TV on never leave the bed,0.02,0.01,3.3,0,0.01,3.7936,,,,
,,6600a119385d8631c41cd795,6685aa9113c938e83b4f1ea0,671c5d87220adccd5a525a70,2024-10-25_22h12.04.671,WTP_SM_Choice,2022.2.1,Win32,59.88023952,,,,,,,,,,,,,,,,,,53,,,,,,,,,,1,0,2,2,2,1,Enjoy a lazy day with the lights off TV on never leave the bed,Go on vacation with friends family or spouse,0.03,0.01,1.1,1,0.03,2.4753,,,,
,,6600a119385d8631c41cd795,6685aa9113c938e83b4f1ea0,671c5d87220adccd5a525a70,2024-10-25_22h12.04.671,WTP_SM_Choice,2022.2.1,Win32,59.88023952,,,,,,,,,,,,,,,,,,54,,,,,,,,,,1,0,3,3,3,1,Practice sight reading piano and drum sheet music,Go to the fair with family and friends,0.04,0.01,4.4,1,0.04,3.6038,,,,
,,6600a119385d8631c41cd795,6685aa9113c938e83b4f1ea0,671c5d87220adccd5a525a70,2024-10-25_22h12.04.671,WTP_SM_Choice,2022.2.1,Win32,59.88023952,,,,,,,,,,,,,,,,,,55,,,,,,,,,,2,0,4,4,4,1,Go to the fair with family and friends,Light candles during a storm when the power goes out and enjoy the storm,0.05,0.01,1.1,0,0.01,1.1368,,,,
,,6600a119385d8631c41cd795,6685aa9113c938e83b4f1ea0,671c5d87220adccd5a525a70,2024-10-25_22h12.04.671,WTP_SM_Choice,2022.2.1,Win32,59.88023952,,,,,,,NAN,,NAN,1.58,4.42,,0,54,54,54,1,55,Charlie,Acc,Participant_Images/6600a119385d8631c41cd795/6600a119385d8631c41cd795_Images/6600a119385d8631c41cd795_Image_19.jpeg,liked,3.602308302,,,,,,,,,,,,,,,,,,,,,,
,,6600a119385d8631c41cd795,6685aa9113c938e83b4f1ea0,671c5d87220adccd5a525a70,2024-10-25_22h12.04.671,WTP_SM_Choice,2022.2.1,Win32,59.88023952,,,,,space,1.0488,NAN,,NAN,1.58,4.42,,0,55,55,55,1,56,Charlie,Acc,Participant_Images/6600a119385d8631c41cd795/6600a119385d8631c41cd795_Images/6600a119385d8631c41cd795_Image_10.jpeg,liked,4.106391878,,,,,,,,,,,,,,,,,,,,,,
,,6600a119385d8631c41cd795,6685aa9113c938e83b4f1ea0,671c5d87220adccd5a525a70,2024-10-25_22h12.04.671,WTP_SM_Choice,2022.2.1,Win32,59.88023952,,,,,space,0.6725,NAN,,NAN,1.58,4.42,,0,56,56,56,1,57,Charlie,Acc,Participant_Images/6600a119385d8631c41cd795/6600a119385d8631c41cd795_Images/6600a119385d8631c41cd795_Image_21.jpeg,liked,3.799433026,,,,,,,,,,,,,,,,,,,,,,
,,6600a119385d8631c41cd795,6685aa9113c938e83b4f1ea0,671c5d87220adccd5a525a70,2024-10-25_22h12.04.671,WTP_SM_Choice,2022.2.1,Win32,59.88023952,,,,,space,0.6709,NAN,,NAN,1.58,4.42,,0,57,57,57,1,58,Charlie,Acc,Participant_Images/6600a119385d8631c41cd795/6600a119385d8631c41cd795_Images/6600a119385d8631c41cd795_Image_16.jpeg,did not like,5.246980764,,,,,,,,,,,,,,,,,,,,,,
,,6600a119385d8631c41cd795,6685aa9113c938e83b4f1ea0,671c5d87220adccd5a525a70,2024-10-25_22h12.04.671,WTP_SM_Choice,2022.2.1,Win32,59.88023952,,,,,space,0.8134,NAN,,NAN,1.58,4.42,,0,58,58,58,1,59,Charlie,Acc,Participant_Images/6600a119385d8631c41cd795/6600a119385d8631c41cd795_Images/6600a119385d8631c41cd795_Image_11.jpeg,did not like,3.30081769,,,,,,,,,,,,,,,,,,,,,,
,,6600a119385d8631c41cd795,6685aa9113c938e83b4f1ea0,671c5d87220adccd5a525a70,2024-10-25_22h12.04.671,WTP_SM_Choice,2022.2.1,Win32,59.88023952,,,,,,,,,,,,,,,,,,56,,,,,,space,1.1949,space,3.3884,1,0,0,0,0,1,Sit in the dark listen to music by myself,Play music together with my fellow bandmates,0.01,0.02,8.8,1,0.01,3.8412,,,,
,,6600a119385d8631c41cd795,6685aa9113c938e83b4f1ea0,671c5d87220adccd5a525a70,2024-10-25_22h12.04.671,WTP_SM_Choice,2022.2.1,Win32,59.88023952,,,,,,,,,,,,,,,,,,57,,,,,,,,,,2,0,1,1,1,1,Go to concerts with loved ones,Curl up with a half gallon of ice cream and eat it all to myself,0.02,0.02,4.4,0,0.02,3.7258,,,,
,,6600a119385d8631c41cd795,6685aa9113c938e83b4f1ea0,671c5d87220adccd5a525a70,2024-10-25_22h12.04.671,WTP_SM_Choice,2022.2.1,Win32,59.88023952,,,,,,,,,,,,,,,,,,58,,,,,,,,,,1,0,2,2,2,1,Play my drumset alone with headphones on to my favorite songs,Go to concerts with loved ones,0.03,0.02,4.4,1,0.03,3.6489,,,,
,,6600a119385d8631c41cd795,6685aa9113c938e83b4f1ea0,671c5d87220adccd5a525a70,2024-10-25_22h12.04.671,WTP_SM_Choice,2022.2.1,Win32,59.88023952,,,,,,,,,,,,,,,,,,59,,,,,,,,,,2,0,3,3,3,1,Enjoy a lazy day with the lights off TV on never leave the bed,Go to concerts with loved ones,0.04,0.02,4.4,1,0.02,4.1123,,,,
,,6600a119385d8631c41cd795,6685aa9113c938e83b4f1ea0,671c5d87220adccd5a525a70,2024-10-25_22h12.04.671,WTP_SM_Choice,2022.2.1,Win32,59.88023952,,,,,,,,,,,,,,,,,,60,,,,,,,,,,2,0,4,4,4,1,Spend my day doing studies on prolific,Go to the fair with family and friends,0.05,0.02,1.1,1,0.02,2.5867,,,,
,,6600a119385d8631c41cd795,6685aa9113c938e83b4f1ea0,671c5d87220adccd5a525a70,2024-10-25_22h12.04.671,WTP_SM_Choice,2022.2.1,Win32,59.88023952,,,,,,,NAN,,NAN,1.68,4.32,,0,59,59,59,1,60,Charlie,Acc,Participant_Images/6600a119385d8631c41cd795/6600a119385d8631c41cd795_Images/6600a119385d8631c41cd795_Image_3.jpeg,liked,1.661473164,,,,,,,,,,,,,,,,,,,,,,
,,6600a119385d8631c41cd795,6685aa9113c938e83b4f1ea0,671c5d87220adccd5a525a70,2024-10-25_22h12.04.671,WTP_SM_Choice,2022.2.1,Win32,59.88023952,,,,,space,0.3983,NAN,,NAN,1.68,4.32,,0,60,60,60,1,61,Charlie,Acc,Participant_Images/6600a119385d8631c41cd795/6600a119385d8631c41cd795_Images/6600a119385d8631c41cd795_Image_7.jpeg,did not like,3.613205605,,,,,,,,,,,,,,,,,,,,,,
,,6600a119385d8631c41cd795,6685aa9113c938e83b4f1ea0,671c5d87220adccd5a525a70,2024-10-25_22h12.04.671,WTP_SM_Choice,2022.2.1,Win32,59.88023952,,,,,space,0.7213,NAN,,NAN,1.68,4.32,,0,61,61,61,1,62,Charlie,Acc,Participant_Images/6600a119385d8631c41cd795/6600a119385d8631c41cd795_Images/6600a119385d8631c41cd795_Image_15.jpeg,liked,4.988446431,,,,,,,,,,,,,,,,,,,,,,
,,6600a119385d8631c41cd795,6685aa9113c938e83b4f1ea0,671c5d87220adccd5a525a70,2024-10-25_22h12.04.671,WTP_SM_Choice,2022.2.1,Win32,59.88023952,,,,,space,0.79,NAN,,NAN,1.68,4.32,,0,62,62,62,1,63,Charlie,Acc,Participant_Images/6600a119385d8631c41cd795/6600a119385d8631c41cd795_Images/6600a119385d8631c41cd795_Image_14.jpeg,liked,3.470791822,,,,,,,,,,,,,,,,,,,,,,
,,6600a119385d8631c41cd795,6685aa9113c938e83b4f1ea0,671c5d87220adccd5a525a70,2024-10-25_22h12.04.671,WTP_SM_Choice,2022.2.1,Win32,59.88023952,,,,,space,0.671,NAN,,NAN,1.68,4.32,,0,63,63,63,1,64,Charlie,Acc,Participant_Images/6600a119385d8631c41cd795/6600a119385d8631c41cd795_Images/6600a119385d8631c41cd795_Image_4.jpeg,liked,3.820572462,,,,,,,,,,,,,,,,,,,,,,
,,6600a119385d8631c41cd795,6685aa9113c938e83b4f1ea0,671c5d87220adccd5a525a70,2024-10-25_22h12.04.671,WTP_SM_Choice,2022.2.1,Win32,59.88023952,,,,,,,,,,,,,,,,,,61,,,,,,space,0.8772,space,0.7551,1,0,0,0,0,1,Sit on the porch during rain and thunderstorms with candles reading my current favorite book,Go on vacation with friends family or spouse,0.01,0.03,3.3,1,0.01,4.4993,,,,
,,6600a119385d8631c41cd795,6685aa9113c938e83b4f1ea0,671c5d87220adccd5a525a70,2024-10-25_22h12.04.671,WTP_SM_Choice,2022.2.1,Win32,59.88023952,,,,,,,,,,,,,,,,,,62,,,,,,,,,,1,0,1,1,1,1,Play my drumset alone with headphones on to my favorite songs,Go on vacation with friends family or spouse,0.02,0.03,3.3,1,0.02,1.9752,,,,
,,6600a119385d8631c41cd795,6685aa9113c938e83b4f1ea0,671c5d87220adccd5a525a70,2024-10-25_22h12.04.671,WTP_SM_Choice,2022.2.1,Win32,59.88023952,,,,,,,,,,,,,,,,,,63,,,,,,,,,,2,0,2,2,2,1,Go on vacation with friends family or spouse,Go for walks outside in the pouring rain and get soaking wet,0.03,0.03,3.3,0,0.03,2.9096,,,,
,,6600a119385d8631c41cd795,6685aa9113c938e83b4f1ea0,671c5d87220adccd5a525a70,2024-10-25_22h12.04.671,WTP_SM_Choice,2022.2.1,Win32,59.88023952,,,,,,,,,,,,,,,,,,64,,,,,,,,,,2,0,3,3,3,1,Go to concerts with loved ones,Go for walks outside in the pouring rain and get soaking wet,0.04,0.03,1.1,0,0.03,1.6454,,,,
,,6600a119385d8631c41cd795,6685aa9113c938e83b4f1ea0,671c5d87220adccd5a525a70,2024-10-25_22h12.04.671,WTP_SM_Choice,2022.2.1,Win32,59.88023952,,,,,,,,,,,,,,,,,,65,,,,,,,,,,2,0,4,4,4,1,Practice sight reading piano and drum sheet music,Go out to the bar with friends or spouse,0.05,0.03,1.1,1,0.03,4.0518,,,,
,,6600a119385d8631c41cd795,6685aa9113c938e83b4f1ea0,671c5d87220adccd5a525a70,2024-10-25_22h12.04.671,WTP_SM_Choice,2022.2.1,Win32,59.88023952,,,,,,,NAN,,NAN,1.8,4.2,,0,64,64,64,1,65,Charlie,Acc,Participant_Images/6600a119385d8631c41cd795/6600a119385d8631c41cd795_Images/6600a119385d8631c41cd795_Image_6.jpeg,did not like,2.455989137,,,,,,,,,,,,,,,,,,,,,,
,,6600a119385d8631c41cd795,6685aa9113c938e83b4f1ea0,671c5d87220adccd5a525a70,2024-10-25_22h12.04.671,WTP_SM_Choice,2022.2.1,Win32,59.88023952,,,,,space,0.5526,NAN,,NAN,1.8,4.2,,0,65,65,65,1,66,Charlie,Acc,Participant_Images/6600a119385d8631c41cd795/6600a119385d8631c41cd795_Images/6600a119385d8631c41cd795_Image_2.jpeg,liked,3.79605092,,,,,,,,,,,,,,,,,,,,,,
,,6600a119385d8631c41cd795,6685aa9113c938e83b4f1ea0,671c5d87220adccd5a525a70,2024-10-25_22h12.04.671,WTP_SM_Choice,2022.2.1,Win32,59.88023952,,,,,space,0.6165,NAN,,NAN,1.8,4.2,,0,66,66,66,1,67,Charlie,Acc,Participant_Images/6600a119385d8631c41cd795/6600a119385d8631c41cd795_Images/6600a119385d8631c41cd795_Image_5.jpeg,did not like,3.562416326,,,,,,,,,,,,,,,,,,,,,,
,,6600a119385d8631c41cd795,6685aa9113c938e83b4f1ea0,671c5d87220adccd5a525a70,2024-10-25_22h12.04.671,WTP_SM_Choice,2022.2.1,Win32,59.88023952,,,,,space,0.5651,NAN,,NAN,1.8,4.2,,0,67,67,67,1,68,Charlie,Acc,Participant_Images/6600a119385d8631c41cd795/6600a119385d8631c41cd795_Images/6600a119385d8631c41cd795_Image_25.jpeg,liked,2.843822497,,,,,,,,,,,,,,,,,,,,,,
,,6600a119385d8631c41cd795,6685aa9113c938e83b4f1ea0,671c5d87220adccd5a525a70,2024-10-25_22h12.04.671,WTP_SM_Choice,2022.2.1,Win32,59.88023952,,,,,space,0.6829,NAN,,NAN,1.8,4.2,,0,68,68,68,1,69,Charlie,Acc,Participant_Images/6600a119385d8631c41cd795/6600a119385d8631c41cd795_Images/6600a119385d8631c41cd795_Image_18.jpeg,liked,3.546495948,,,,,,,,,,,,,,,,,,,,,,
,,6600a119385d8631c41cd795,6685aa9113c938e83b4f1ea0,671c5d87220adccd5a525a70,2024-10-25_22h12.04.671,WTP_SM_Choice,2022.2.1,Win32,59.88023952,,,,,,,,,,,,,,,,,,66,,,,,,space,5.1613,space,6.1537,2,0,0,0,0,1,Go on vacation with friends family or spouse,Curl up with a half gallon of ice cream and eat it all to myself,0.01,0.04,1.1,0,0.04,6.4431,,,,
,,6600a119385d8631c41cd795,6685aa9113c938e83b4f1ea0,671c5d87220adccd5a525a70,2024-10-25_22h12.04.671,WTP_SM_Choice,2022.2.1,Win32,59.88023952,,,,,,,,,,,,,,,,,,67,,,,,,,,,,2,0,1,1,1,1,Play sports with my son,Practice sight reading piano and drum sheet music,0.02,0.04,8.8,0,0.04,4.1916,,,,
,,6600a119385d8631c41cd795,6685aa9113c938e83b4f1ea0,671c5d87220adccd5a525a70,2024-10-25_22h12.04.671,WTP_SM_Choice,2022.2.1,Win32,59.88023952,,,,,,,,,,,,,,,,,,68,,,,,,,,,,1,0,2,2,2,1,Light candles during a storm when the power goes out and enjoy the storm,Cuddle with my spouse,0.03,0.04,4.4,1,0.03,2.3546,,,,
,,6600a119385d8631c41cd795,6685aa9113c938e83b4f1ea0,671c5d87220adccd5a525a70,2024-10-25_22h12.04.671,WTP_SM_Choice,2022.2.1,Win32,59.88023952,,,,,,,,,,,,,,,,,,69,,,,,,,,,,2,0,3,3,3,1,Go to the fair with family and friends,Play my drumset alone with headphones on to my favorite songs,0.04,0.04,1.1,0,0.04,4.4331,,,,
,,6600a119385d8631c41cd795,6685aa9113c938e83b4f1ea0,671c5d87220adccd5a525a70,2024-10-25_22h12.04.671,WTP_SM_Choice,2022.2.1,Win32,59.88023952,,,,,,,,,,,,,,,,,,70,,,,,,,,,,1,0,4,4,4,1,Sit on the porch during rain and thunderstorms with candles reading my current favorite book,Go out to the bar with friends or spouse,0.05,0.04,1.1,1,0.05,6.693,,,,
,,6600a119385d8631c41cd795,6685aa9113c938e83b4f1ea0,671c5d87220adccd5a525a70,2024-10-25_22h12.04.671,WTP_SM_Choice,2022.2.1,Win32,59.88023952,,,,,,,NAN,,NAN,2,4,,0,69,69,69,1,70,Charlie,Acc,Participant_Images/6600a119385d8631c41cd795/6600a119385d8631c41cd795_Images/6600a119385d8631c41cd795_Image_22.jpeg,liked,1.672012706,,,,,,,,,,,,,,,,,,,,,,
,,6600a119385d8631c41cd795,6685aa9113c938e83b4f1ea0,671c5d87220adccd5a525a70,2024-10-25_22h12.04.671,WTP_SM_Choice,2022.2.1,Win32,59.88023952,,,,,space,0.5759,NAN,,NAN,2,4,,0,70,70,70,1,71,Charlie,Acc,Participant_Images/6600a119385d8631c41cd795/6600a119385d8631c41cd795_Images/6600a119385d8631c41cd795_Image_13.jpeg,liked,4.942172136,,,,,,,,,,,,,,,,,,,,,,
,,6600a119385d8631c41cd795,6685aa9113c938e83b4f1ea0,671c5d87220adccd5a525a70,2024-10-25_22h12.04.671,WTP_SM_Choice,2022.2.1,Win32,59.88023952,,,,,space,0.6322,NAN,,NAN,2,4,,0,71,71,71,1,72,Charlie,Acc,Participant_Images/6600a119385d8631c41cd795/6600a119385d8631c41cd795_Images/6600a119385d8631c41cd795_Image_24.jpeg,did not like,2.50187214,,,,,,,,,,,,,,,,,,,,,,
,,6600a119385d8631c41cd795,6685aa9113c938e83b4f1ea0,671c5d87220adccd5a525a70,2024-10-25_22h12.04.671,WTP_SM_Choice,2022.2.1,Win32,59.88023952,,,,,space,0.6044,NAN,,NAN,2,4,,0,72,72,72,1,73,Charlie,Acc,Participant_Images/6600a119385d8631c41cd795/6600a119385d8631c41cd795_Images/6600a119385d8631c41cd795_Image_17.jpeg,liked,2.071164779,,,,,,,,,,,,,,,,,,,,,,
,,6600a119385d8631c41cd795,6685aa9113c938e83b4f1ea0,671c5d87220adccd5a525a70,2024-10-25_22h12.04.671,WTP_SM_Choice,2022.2.1,Win32,59.88023952,,,,,space,2.7688,NAN,,NAN,2,4,,0,73,73,73,1,74,Charlie,Acc,Participant_Images/6600a119385d8631c41cd795/6600a119385d8631c41cd795_Images/6600a119385d8631c41cd795_Image_8.jpeg,liked,5.336503566,,,,,,,,,,,,,,,,,,,,,,
,,6600a119385d8631c41cd795,6685aa9113c938e83b4f1ea0,671c5d87220adccd5a525a70,2024-10-25_22h12.04.671,WTP_SM_Choice,2022.2.1,Win32,59.88023952,,,,,,,,,,,,,,,,,,71,,,,,,space,0.4269,space,2.0061,1,0,0,0,0,1,Light candles during a storm when the power goes out and enjoy the storm,Go to the amusement park with friends,0.01,0.05,3.3,1,0.01,3.9528,,,,
,,6600a119385d8631c41cd795,6685aa9113c938e83b4f1ea0,671c5d87220adccd5a525a70,2024-10-25_22h12.04.671,WTP_SM_Choice,2022.2.1,Win32,59.88023952,,,,,,,,,,,,,,,,,,72,,,,,,,,,,1,0,1,1,1,1,Sit on the porch during rain and thunderstorms with candles reading my current favorite book,Play sports with my son,0.02,0.05,8.8,1,0.02,2.1688,,,,
,,6600a119385d8631c41cd795,6685aa9113c938e83b4f1ea0,671c5d87220adccd5a525a70,2024-10-25_22h12.04.671,WTP_SM_Choice,2022.2.1,Win32,59.88023952,,,,,,,,,,,,,,,,,,73,,,,,,,,,,1,0,2,2,2,1,Go to the movies with family and friends,Sit in the dark listen to music by myself,0.03,0.05,3.3,0,0.03,2.5164,,,,
,,6600a119385d8631c41cd795,6685aa9113c938e83b4f1ea0,671c5d87220adccd5a525a70,2024-10-25_22h12.04.671,WTP_SM_Choice,2022.2.1,Win32,59.88023952,,,,,,,,,,,,,,,,,,74,,,,,,,,,,1,0,3,3,3,1,Go to concerts with loved ones,Sit on the porch during rain and thunderstorms with candles reading my current favorite book,0.04,0.05,4.4,0,0.04,2.3513,,,,
,,6600a119385d8631c41cd795,6685aa9113c938e83b4f1ea0,671c5d87220adccd5a525a70,2024-10-25_22h12.04.671,WTP_SM_Choice,2022.2.1,Win32,59.88023952,,,,,,,,,,,,,,,,,,75,,,,,,,,,,2,0,4,4,4,1,Play video games with son spouse friends,Sit on the porch during rain and thunderstorms with candles reading my current favorite book,0.05,0.05,3.3,0,0.05,3.8479,,,,
,,6600a119385d8631c41cd795,6685aa9113c938e83b4f1ea0,671c5d87220adccd5a525a70,2024-10-25_22h12.04.671,WTP_SM_Choice,2022.2.1,Win32,59.88023952,,,,,,,5,,9,2.15,3.85,,0,74,74,74,1,75,Charlie,Acc,Participant_Images/6600a119385d8631c41cd795/6600a119385d8631c41cd795_Images/6600a119385d8631c41cd795_Image_12.jpeg,did not like,2.642157193,,,,,,,,,,,,,,,,,,,space,1.37,,
,,6600a119385d8631c41cd795,6685aa9113c938e83b4f1ea0,671c5d87220adccd5a525a70,2024-10-25_22h12.04.671,WTP_SM_Choice,2022.2.1,Win32,59.88023952,,,space,4.1848,space,0.5823,NAN,,NAN,2.15,3.85,,0,75,75,75,1,76,Riley,Rej,Participant_Images/6600a119385d8631c41cd795/6600a119385d8631c41cd795_Images/6600a119385d8631c41cd795_Image_4.jpeg,liked,4.456234322,,,,,,,,,,,,,,,,,,,,,,
,,6600a119385d8631c41cd795,6685aa9113c938e83b4f1ea0,671c5d87220adccd5a525a70,2024-10-25_22h12.04.671,WTP_SM_Choice,2022.2.1,Win32,59.88023952,,,,,space,1.0729,NAN,,NAN,2.15,3.85,,0,76,76,76,1,77,Riley,Rej,Participant_Images/6600a119385d8631c41cd795/6600a119385d8631c41cd795_Images/6600a119385d8631c41cd795_Image_17.jpeg,did not like,4.438512181,,,,,,,,,,,,,,,,,,,,,,
,,6600a119385d8631c41cd795,6685aa9113c938e83b4f1ea0,671c5d87220adccd5a525a70,2024-10-25_22h12.04.671,WTP_SM_Choice,2022.2.1,Win32,59.88023952,,,,,space,2.46,NAN,,NAN,2.15,3.85,,0,77,77,77,1,78,Riley,Rej,Participant_Images/6600a119385d8631c41cd795/6600a119385d8631c41cd795_Images/6600a119385d8631c41cd795_Image_13.jpeg,did not like,2.682944783,,,,,,,,,,,,,,,,,,,,,,
,,6600a119385d8631c41cd795,6685aa9113c938e83b4f1ea0,671c5d87220adccd5a525a70,2024-10-25_22h12.04.671,WTP_SM_Choice,2022.2.1,Win32,59.88023952,,,,,space,0.8303,NAN,,NAN,2.15,3.85,,0,78,78,78,1,79,Riley,Rej,Participant_Images/6600a119385d8631c41cd795/6600a119385d8631c41cd795_Images/6600a119385d8631c41cd795_Image_2.jpeg,did not like,4.51984296,,,,,,,,,,,,,,,,,,,,,,
,,6600a119385d8631c41cd795,6685aa9113c938e83b4f1ea0,671c5d87220adccd5a525a70,2024-10-25_22h12.04.671,WTP_SM_Choice,2022.2.1,Win32,59.88023952,,,,,,,,,,,,,,,,,,76,,,,,,space,0.4748,space,0.7999,2,0,0,0,0,1,Play music together with my fellow bandmates,Sit on the porch during rain and thunderstorms with candles reading my current favorite book,0.01,0.01,1.1,0,0.01,4.8189,,,,
,,6600a119385d8631c41cd795,6685aa9113c938e83b4f1ea0,671c5d87220adccd5a525a70,2024-10-25_22h12.04.671,WTP_SM_Choice,2022.2.1,Win32,59.88023952,,,,,,,,,,,,,,,,,,77,,,,,,,,,,1,0,1,1,1,1,Play my drumset alone with headphones on to my favorite songs,Cuddle with my spouse,0.02,0.01,8.8,1,0.02,1.9866,,,,
,,6600a119385d8631c41cd795,6685aa9113c938e83b4f1ea0,671c5d87220adccd5a525a70,2024-10-25_22h12.04.671,WTP_SM_Choice,2022.2.1,Win32,59.88023952,,,,,,,,,,,,,,,,,,78,,,,,,,,,,2,0,2,2,2,1,Play music together with my fellow bandmates,Cuddle with my cat while watch movies,0.03,0.01,1.1,0,0.01,2.7229,,,,
,,6600a119385d8631c41cd795,6685aa9113c938e83b4f1ea0,671c5d87220adccd5a525a70,2024-10-25_22h12.04.671,WTP_SM_Choice,2022.2.1,Win32,59.88023952,,,,,,,,,,,,,,,,,,79,,,,,,,,,,2,0,3,3,3,1,Curl up with a half gallon of ice cream and eat it all to myself,Cuddle with my spouse,0.04,0.01,1.1,1,0.01,1.3686,,,,
,,6600a119385d8631c41cd795,6685aa9113c938e83b4f1ea0,671c5d87220adccd5a525a70,2024-10-25_22h12.04.671,WTP_SM_Choice,2022.2.1,Win32,59.88023952,,,,,,,,,,,,,,,,,,80,,,,,,,,,,2,0,4,4,4,1,Play music together with my fellow bandmates,Light candles during a storm when the power goes out and enjoy the storm,0.05,0.01,4.4,0,0.01,1.4219,,,,
,,6600a119385d8631c41cd795,6685aa9113c938e83b4f1ea0,671c5d87220adccd5a525a70,2024-10-25_22h12.04.671,WTP_SM_Choice,2022.2.1,Win32,59.88023952,,,,,,,NAN,,NAN,2.21,3.79,,0,79,79,79,1,80,Riley,Rej,Participant_Images/6600a119385d8631c41cd795/6600a119385d8631c41cd795_Images/6600a119385d8631c41cd795_Image_3.jpeg,did not like,3.195382774,,,,,,,,,,,,,,,,,,,,,,
,,6600a119385d8631c41cd795,6685aa9113c938e83b4f1ea0,671c5d87220adccd5a525a70,2024-10-25_22h12.04.671,WTP_SM_Choice,2022.2.1,Win32,59.88023952,,,,,space,0.9691,NAN,,NAN,2.21,3.79,,0,80,80,80,1,81,Riley,Rej,Participant_Images/6600a119385d8631c41cd795/6600a119385d8631c41cd795_Images/6600a119385d8631c41cd795_Image_25.jpeg,did not like,1.779333479,,,,,,,,,,,,,,,,,,,,,,
,,6600a119385d8631c41cd795,6685aa9113c938e83b4f1ea0,671c5d87220adccd5a525a70,2024-10-25_22h12.04.671,WTP_SM_Choice,2022.2.1,Win32,59.88023952,,,,,space,3.4816,NAN,,NAN,2.21,3.79,,0,81,81,81,1,82,Riley,Rej,Participant_Images/6600a119385d8631c41cd795/6600a119385d8631c41cd795_Images/6600a119385d8631c41cd795_Image_5.jpeg,liked,4.312468682,,,,,,,,,,,,,,,,,,,,,,
,,6600a119385d8631c41cd795,6685aa9113c938e83b4f1ea0,671c5d87220adccd5a525a70,2024-10-25_22h12.04.671,WTP_SM_Choice,2022.2.1,Win32,59.88023952,,,,,space,0.5312,NAN,,NAN,2.21,3.79,,0,82,82,82,1,83,Riley,Rej,Participant_Images/6600a119385d8631c41cd795/6600a119385d8631c41cd795_Images/6600a119385d8631c41cd795_Image_6.jpeg,did not like,4.940433059,,,,,,,,,,,,,,,,,,,,,,
,,6600a119385d8631c41cd795,6685aa9113c938e83b4f1ea0,671c5d87220adccd5a525a70,2024-10-25_22h12.04.671,WTP_SM_Choice,2022.2.1,Win32,59.88023952,,,,,space,1.3374,NAN,,NAN,2.21,3.79,,0,83,83,83,1,84,Riley,Rej,Participant_Images/6600a119385d8631c41cd795/6600a119385d8631c41cd795_Images/6600a119385d8631c41cd795_Image_15.jpeg,liked,2.7105123,,,,,,,,,,,,,,,,,,,,,,
,,6600a119385d8631c41cd795,6685aa9113c938e83b4f1ea0,671c5d87220adccd5a525a70,2024-10-25_22h12.04.671,WTP_SM_Choice,2022.2.1,Win32,59.88023952,,,,,,,,,,,,,,,,,,81,,,,,,space,0.8707,space,0.8162,1,0,0,0,0,1,Cuddle with my cat while watch movies,Play video games with son spouse friends,0.01,0.02,3.3,1,0.01,2.5722,,,,
,,6600a119385d8631c41cd795,6685aa9113c938e83b4f1ea0,671c5d87220adccd5a525a70,2024-10-25_22h12.04.671,WTP_SM_Choice,2022.2.1,Win32,59.88023952,,,,,,,,,,,,,,,,,,82,,,,,,,,,,2,0,1,1,1,1,Play music together with my fellow bandmates,Enjoy a lazy day with the lights off TV on never leave the bed,0.02,0.02,4.4,0,0.02,3.209,,,,
,,6600a119385d8631c41cd795,6685aa9113c938e83b4f1ea0,671c5d87220adccd5a525a70,2024-10-25_22h12.04.671,WTP_SM_Choice,2022.2.1,Win32,59.88023952,,,,,,,,,,,,,,,,,,83,,,,,,,,,,,0,2,2,2,1,Light candles during a storm when the power goes out and enjoy the storm,Play sports with my son,0.03,0.02,1.1,1,,,,,,
,,6600a119385d8631c41cd795,6685aa9113c938e83b4f1ea0,671c5d87220adccd5a525a70,2024-10-25_22h12.04.671,WTP_SM_Choice,2022.2.1,Win32,59.88023952,,,,,,,,,,,,,,,,,,84,,,,,,,,,,2,0,3,3,3,1,Go to concerts with loved ones,Sit in the dark listen to music by myself,0.04,0.02,3.3,0,0.02,2.9298,,,,
,,6600a119385d8631c41cd795,6685aa9113c938e83b4f1ea0,671c5d87220adccd5a525a70,2024-10-25_22h12.04.671,WTP_SM_Choice,2022.2.1,Win32,59.88023952,,,,,,,,,,,,,,,,,,85,,,,,,,,,,2,0,4,4,4,1,Practice sight reading piano and drum sheet music,Go to the movies with family and friends,0.05,0.02,3.3,1,0.02,2.683,,,,
,,6600a119385d8631c41cd795,6685aa9113c938e83b4f1ea0,671c5d87220adccd5a525a70,2024-10-25_22h12.04.671,WTP_SM_Choice,2022.2.1,Win32,59.88023952,,,,,,,NAN,,NAN,2.28,3.72,,0,84,84,84,1,85,Riley,Rej,Participant_Images/6600a119385d8631c41cd795/6600a119385d8631c41cd795_Images/6600a119385d8631c41cd795_Image_10.jpeg,did not like,3.602308302,,,,,,,,,,,,,,,,,,,,,,
,,6600a119385d8631c41cd795,6685aa9113c938e83b4f1ea0,671c5d87220adccd5a525a70,2024-10-25_22h12.04.671,WTP_SM_Choice,2022.2.1,Win32,59.88023952,,,,,space,0.8424,NAN,,NAN,2.28,3.72,,0,85,85,85,1,86,Riley,Rej,Participant_Images/6600a119385d8631c41cd795/6600a119385d8631c41cd795_Images/6600a119385d8631c41cd795_Image_20.jpeg,did not like,4.106391878,,,,,,,,,,,,,,,,,,,,,,
,,6600a119385d8631c41cd795,6685aa9113c938e83b4f1ea0,671c5d87220adccd5a525a70,2024-10-25_22h12.04.671,WTP_SM_Choice,2022.2.1,Win32,59.88023952,,,,,space,0.4945,NAN,,NAN,2.28,3.72,,0,86,86,86,1,87,Riley,Rej,Participant_Images/6600a119385d8631c41cd795/6600a119385d8631c41cd795_Images/6600a119385d8631c41cd795_Image_8.jpeg,did not like,3.799433026,,,,,,,,,,,,,,,,,,,,,,
,,6600a119385d8631c41cd795,6685aa9113c938e83b4f1ea0,671c5d87220adccd5a525a70,2024-10-25_22h12.04.671,WTP_SM_Choice,2022.2.1,Win32,59.88023952,,,,,space,0.6691,NAN,,NAN,2.28,3.72,,0,87,87,87,1,88,Riley,Rej,Participant_Images/6600a119385d8631c41cd795/6600a119385d8631c41cd795_Images/6600a119385d8631c41cd795_Image_9.jpeg,liked,5.246980764,,,,,,,,,,,,,,,,,,,,,,
,,6600a119385d8631c41cd795,6685aa9113c938e83b4f1ea0,671c5d87220adccd5a525a70,2024-10-25_22h12.04.671,WTP_SM_Choice,2022.2.1,Win32,59.88023952,,,,,space,8.257,NAN,,NAN,2.28,3.72,,0,88,88,88,1,89,Riley,Rej,Participant_Images/6600a119385d8631c41cd795/6600a119385d8631c41cd795_Images/6600a119385d8631c41cd795_Image_11.jpeg,did not like,3.30081769,,,,,,,,,,,,,,,,,,,,,,
,,6600a119385d8631c41cd795,6685aa9113c938e83b4f1ea0,671c5d87220adccd5a525a70,2024-10-25_22h12.04.671,WTP_SM_Choice,2022.2.1,Win32,59.88023952,,,,,,,,,,,,,,,,,,86,,,,,,space,0.2185,space,1.1995,1,0,0,0,0,1,Sit in the dark listen to music by myself,Go on vacation with friends family or spouse,0.01,0.03,1.1,1,0.01,2.6295,,,,
,,6600a119385d8631c41cd795,6685aa9113c938e83b4f1ea0,671c5d87220adccd5a525a70,2024-10-25_22h12.04.671,WTP_SM_Choice,2022.2.1,Win32,59.88023952,,,,,,,,,,,,,,,,,,87,,,,,,,,,,2,0,1,1,1,1,Play music together with my fellow bandmates,Go for walks outside in the pouring rain and get soaking wet,0.02,0.03,4.4,0,0.03,2.2438,,,,
,,6600a119385d8631c41cd795,6685aa9113c938e83b4f1ea0,671c5d87220adccd5a525a70,2024-10-25_22h12.04.671,WTP_SM_Choice,2022.2.1,Win32,59.88023952,,,,,,,,,,,,,,,,,,88,,,,,,,,,,2,0,2,2,2,1,Play video games with son spouse friends,Spend my day doing studies on prolific,0.03,0.03,1.1,0,0.03,2.0489,,,,
,,6600a119385d8631c41cd795,6685aa9113c938e83b4f1ea0,671c5d87220adccd5a525a70,2024-10-25_22h12.04.671,WTP_SM_Choice,2022.2.1,Win32,59.88023952,,,,,,,,,,,,,,,,,,89,,,,,,,,,,1,0,3,3,3,1,Enjoy a lazy day with the lights off TV on never leave the bed,Go to the movies with family and friends,0.04,0.03,3.3,1,0.04,2.5269,,,,
,,6600a119385d8631c41cd795,6685aa9113c938e83b4f1ea0,671c5d87220adccd5a525a70,2024-10-25_22h12.04.671,WTP_SM_Choice,2022.2.1,Win32,59.88023952,,,,,,,,,,,,,,,,,,90,,,,,,,,,,1,0,4,4,4,1,Play my drumset alone with headphones on to my favorite songs,Go out to the bar with friends or spouse,0.05,0.03,8.8,1,0.05,4.0035,,,,
,,6600a119385d8631c41cd795,6685aa9113c938e83b4f1ea0,671c5d87220adccd5a525a70,2024-10-25_22h12.04.671,WTP_SM_Choice,2022.2.1,Win32,59.88023952,,,,,,,NAN,,NAN,2.44,3.56,,0,89,89,89,1,90,Riley,Rej,Participant_Images/6600a119385d8631c41cd795/6600a119385d8631c41cd795_Images/6600a119385d8631c41cd795_Image_1.jpeg,did not like,1.661473164,,,,,,,,,,,,,,,,,,,,,,
,,6600a119385d8631c41cd795,6685aa9113c938e83b4f1ea0,671c5d87220adccd5a525a70,2024-10-25_22h12.04.671,WTP_SM_Choice,2022.2.1,Win32,59.88023952,,,,,space,0.4113,NAN,,NAN,2.44,3.56,,0,90,90,90,1,91,Riley,Rej,Participant_Images/6600a119385d8631c41cd795/6600a119385d8631c41cd795_Images/6600a119385d8631c41cd795_Image_16.jpeg,liked,3.613205605,,,,,,,,,,,,,,,,,,,,,,
,,6600a119385d8631c41cd795,6685aa9113c938e83b4f1ea0,671c5d87220adccd5a525a70,2024-10-25_22h12.04.671,WTP_SM_Choice,2022.2.1,Win32,59.88023952,,,,,space,0.9605,NAN,,NAN,2.44,3.56,,0,91,91,91,1,92,Riley,Rej,Participant_Images/6600a119385d8631c41cd795/6600a119385d8631c41cd795_Images/6600a119385d8631c41cd795_Image_24.jpeg,did not like,4.988446431,,,,,,,,,,,,,,,,,,,,,,
,,6600a119385d8631c41cd795,6685aa9113c938e83b4f1ea0,671c5d87220adccd5a525a70,2024-10-25_22h12.04.671,WTP_SM_Choice,2022.2.1,Win32,59.88023952,,,,,space,0.6587,NAN,,NAN,2.44,3.56,,0,92,92,92,1,93,Riley,Rej,Participant_Images/6600a119385d8631c41cd795/6600a119385d8631c41cd795_Images/6600a119385d8631c41cd795_Image_7.jpeg,did not like,3.470791822,,,,,,,,,,,,,,,,,,,,,,
,,6600a119385d8631c41cd795,6685aa9113c938e83b4f1ea0,671c5d87220adccd5a525a70,2024-10-25_22h12.04.671,WTP_SM_Choice,2022.2.1,Win32,59.88023952,,,,,space,3.2901,NAN,,NAN,2.44,3.56,,0,93,93,93,1,94,Riley,Rej,Participant_Images/6600a119385d8631c41cd795/6600a119385d8631c41cd795_Images/6600a119385d8631c41cd795_Image_22.jpeg,did not like,3.820572462,,,,,,,,,,,,,,,,,,,,,,
,,6600a119385d8631c41cd795,6685aa9113c938e83b4f1ea0,671c5d87220adccd5a525a70,2024-10-25_22h12.04.671,WTP_SM_Choice,2022.2.1,Win32,59.88023952,,,,,,,,,,,,,,,,,,91,,,,,,space,1.1769,space,6.8497,1,0,0,0,0,1,Sit on the porch during rain and thunderstorms with candles reading my current favorite book,Go to the fair with family and friends,0.01,0.04,3.3,1,0.01,2.0219,,,,
,,6600a119385d8631c41cd795,6685aa9113c938e83b4f1ea0,671c5d87220adccd5a525a70,2024-10-25_22h12.04.671,WTP_SM_Choice,2022.2.1,Win32,59.88023952,,,,,,,,,,,,,,,,,,92,,,,,,,,,,1,0,1,1,1,1,Cuddle with my cat while watch movies,Go out to the bar with friends or spouse,0.02,0.04,8.8,1,0.02,1.6537,,,,
,,6600a119385d8631c41cd795,6685aa9113c938e83b4f1ea0,671c5d87220adccd5a525a70,2024-10-25_22h12.04.671,WTP_SM_Choice,2022.2.1,Win32,59.88023952,,,,,,,,,,,,,,,,,,93,,,,,,,,,,,0,2,2,2,1,Light candles during a storm when the power goes out and enjoy the storm,Play video games with son spouse friends,0.03,0.04,1.1,1,,,,,,
,,6600a119385d8631c41cd795,6685aa9113c938e83b4f1ea0,671c5d87220adccd5a525a70,2024-10-25_22h12.04.671,WTP_SM_Choice,2022.2.1,Win32,59.88023952,,,,,,,,,,,,,,,,,,94,,,,,,,,,,,0,3,3,3,1,Play video games with son spouse friends,Enjoy a lazy day with the lights off TV on never leave the bed,0.04,0.04,4.4,0,,,,,,
,,6600a119385d8631c41cd795,6685aa9113c938e83b4f1ea0,671c5d87220adccd5a525a70,2024-10-25_22h12.04.671,WTP_SM_Choice,2022.2.1,Win32,59.88023952,,,,,,,,,,,,,,,,,,95,,,,,,,,,,2,0,4,4,4,1,Sit in the dark listen to music by myself,Go out to the bar with friends or spouse,0.05,0.04,4.4,1,0.04,4.0143,,,,
,,6600a119385d8631c41cd795,6685aa9113c938e83b4f1ea0,671c5d87220adccd5a525a70,2024-10-25_22h12.04.671,WTP_SM_Choice,2022.2.1,Win32,59.88023952,,,,,,,NAN,,NAN,2.51,3.49,,0,94,94,94,1,95,Riley,Rej,Participant_Images/6600a119385d8631c41cd795/6600a119385d8631c41cd795_Images/6600a119385d8631c41cd795_Image_14.jpeg,did not like,2.455989137,,,,,,,,,,,,,,,,,,,,,,
,,6600a119385d8631c41cd795,6685aa9113c938e83b4f1ea0,671c5d87220adccd5a525a70,2024-10-25_22h12.04.671,WTP_SM_Choice,2022.2.1,Win32,59.88023952,,,,,space,0.9302,NAN,,NAN,2.51,3.49,,0,95,95,95,1,96,Riley,Rej,Participant_Images/6600a119385d8631c41cd795/6600a119385d8631c41cd795_Images/6600a119385d8631c41cd795_Image_21.jpeg,liked,3.79605092,,,,,,,,,,,,,,,,,,,,,,
,,6600a119385d8631c41cd795,6685aa9113c938e83b4f1ea0,671c5d87220adccd5a525a70,2024-10-25_22h12.04.671,WTP_SM_Choice,2022.2.1,Win32,59.88023952,,,,,space,0.3754,NAN,,NAN,2.51,3.49,,0,96,96,96,1,97,Riley,Rej,Participant_Images/6600a119385d8631c41cd795/6600a119385d8631c41cd795_Images/6600a119385d8631c41cd795_Image_19.jpeg,liked,3.562416326,,,,,,,,,,,,,,,,,,,,,,
,,6600a119385d8631c41cd795,6685aa9113c938e83b4f1ea0,671c5d87220adccd5a525a70,2024-10-25_22h12.04.671,WTP_SM_Choice,2022.2.1,Win32,59.88023952,,,,,space,0.4068,NAN,,NAN,2.51,3.49,,0,97,97,97,1,98,Riley,Rej,Participant_Images/6600a119385d8631c41cd795/6600a119385d8631c41cd795_Images/6600a119385d8631c41cd795_Image_18.jpeg,did not like,2.843822497,,,,,,,,,,,,,,,,,,,,,,
,,6600a119385d8631c41cd795,6685aa9113c938e83b4f1ea0,671c5d87220adccd5a525a70,2024-10-25_22h12.04.671,WTP_SM_Choice,2022.2.1,Win32,59.88023952,,,,,space,16.4994,NAN,,NAN,2.51,3.49,,0,98,98,98,1,99,Riley,Rej,Participant_Images/6600a119385d8631c41cd795/6600a119385d8631c41cd795_Images/6600a119385d8631c41cd795_Image_23.jpeg,did not like,3.546495948,,,,,,,,,,,,,,,,,,,,,,
,,6600a119385d8631c41cd795,6685aa9113c938e83b4f1ea0,671c5d87220adccd5a525a70,2024-10-25_22h12.04.671,WTP_SM_Choice,2022.2.1,Win32,59.88023952,,,,,,,,,,,,,,,,,,96,,,,,,space,5.3705,space,0.7531,2,0,0,0,0,1,Go to the movies with family and friends,Light candles during a storm when the power goes out and enjoy the storm,0.01,0.05,3.3,0,0.05,3.2852,,,,
,,6600a119385d8631c41cd795,6685aa9113c938e83b4f1ea0,671c5d87220adccd5a525a70,2024-10-25_22h12.04.671,WTP_SM_Choice,2022.2.1,Win32,59.88023952,,,,,,,,,,,,,,,,,,97,,,,,,,,,,2,0,1,1,1,1,Go for walks outside in the pouring rain and get soaking wet,Play sports with my son,0.02,0.05,1.1,1,0.05,3.9253,,,,
,,6600a119385d8631c41cd795,6685aa9113c938e83b4f1ea0,671c5d87220adccd5a525a70,2024-10-25_22h12.04.671,WTP_SM_Choice,2022.2.1,Win32,59.88023952,,,,,,,,,,,,,,,,,,98,,,,,,,,,,1,0,2,2,2,1,Enjoy a lazy day with the lights off TV on never leave the bed,Cuddle with my spouse,0.03,0.05,1.1,1,0.03,3.0569,,,,
,,6600a119385d8631c41cd795,6685aa9113c938e83b4f1ea0,671c5d87220adccd5a525a70,2024-10-25_22h12.04.671,WTP_SM_Choice,2022.2.1,Win32,59.88023952,,,,,,,,,,,,,,,,,,99,,,,,,,,,,2,0,3,3,3,1,Play sports with my son,Cuddle with my cat while watch movies,0.04,0.05,3.3,0,0.05,2.2349,,,,
,,6600a119385d8631c41cd795,6685aa9113c938e83b4f1ea0,671c5d87220adccd5a525a70,2024-10-25_22h12.04.671,WTP_SM_Choice,2022.2.1,Win32,59.88023952,,,,,,,,,,,,,,,,,,100,,,,,,,,,,1,0,4,4,4,1,Enjoy a lazy day with the lights off TV on never leave the bed,Play sports with my son,0.05,0.05,4.4,1,0.05,2.399,,,,
,,6600a119385d8631c41cd795,6685aa9113c938e83b4f1ea0,671c5d87220adccd5a525a70,2024-10-25_22h12.04.671,WTP_SM_Choice,2022.2.1,Win32,59.88023952,,,,,,,3,,9,2.74,3.26,,0,99,99,99,1,100,Riley,Rej,Participant_Images/6600a119385d8631c41cd795/6600a119385d8631c41cd795_Images/6600a119385d8631c41cd795_Image_12.jpeg,did not like,1.672012706,,,,,,,,,,,,,,,,,,,space,2.1084,,
,,6600a119385d8631c41cd795,6685aa9113c938e83b4f1ea0,671c5d87220adccd5a525a70,2024-10-25_22h12.04.671,WTP_SM_Choice,2022.2.1,Win32,59.88023952,,,,,,,,,,,,,,,,,,,,,,,,,,,,,,,,,,,,,,,,,,,,space,3.2497
