endwelcomescreen_keys.keys,endwelcomescreen_keys.rt,participant,date,expName,psychopyVersion,OS,frameRate,endinstructionscreen_keys.keys,endinstructionscreen_keys.rt,endpartnermatch_keys.keys,endpartnermatch_keys.rt,sharenextphoto_key.keys,sharenextphoto_key.rt,salience_rating,key_resp.keys,stress_level,subtract_bonus,TOTAL_TASK_BONUS,stresslevel_keypress.keys,entiretaskloop.thisRepN,entiretaskloop.thisTrialN,entiretaskloop.thisN,entiretaskloop.thisIndex,entiretaskloop.ran,TrialNumber,Partner,Condition,Photos,Feedback,FeedbackWait,WTP_ins_keys1.keys,WTP_ins_keys1.rt,WTP_ins_keys2.keys,WTP_ins_keys2.rt,decision_price,responses.keys,responses.rt,WTPTaskLoop.thisRepN,WTPTaskLoop.thisTrialN,WTPTaskLoop.thisN,WTPTaskLoop.thisIndex,WTPTaskLoop.ran,right,left,leftmoney,rightmoney,WTP_ITI,Resume_keys.keys,Resume_keys.rt,end_screen_keys.keys,end_screen_keys.rt,social_left
space,8.4194,6601a1251731342a7891c4f1,2024-07-04_11h06.54.689,WTP_SM_Choice,2022.2.1,Win32,60.24096386,,,,,,,,,,,,,,,,,,,,,,,,,,,,,,,,,,,,,,,,,,,,,
,,6601a1251731342a7891c4f1,2024-07-04_11h06.54.689,WTP_SM_Choice,2022.2.1,Win32,60.24096386,space,26.2234,,,,,,,,,,,,,,,,,,,,,,,,,,,,,,,,,,,,,,,,,,,
,,6601a1251731342a7891c4f1,2024-07-04_11h06.54.689,WTP_SM_Choice,2022.2.1,Win32,60.24096386,,,space,3.4606,space,1.5532,NAN,,NAN,0,6,,0,0,0,0,1,1,Alex,Acc,Participant_Images/6601a1251731342a7891c4f1/6601a1251731342a7891c4f1_Images/6601a1251731342a7891c4f1_Image_3.jpeg,liked,3.613205605,,,,,,,,,,,,,,,,,,,,,,
,,6601a1251731342a7891c4f1,2024-07-04_11h06.54.689,WTP_SM_Choice,2022.2.1,Win32,60.24096386,,,,,space,1.5002,NAN,,NAN,0,6,,0,1,1,1,1,2,Alex,Acc,Participant_Images/6601a1251731342a7891c4f1/6601a1251731342a7891c4f1_Images/6601a1251731342a7891c4f1_Image_14.jpeg,liked,4.988446431,,,,,,,,,,,,,,,,,,,,,,
,,6601a1251731342a7891c4f1,2024-07-04_11h06.54.689,WTP_SM_Choice,2022.2.1,Win32,60.24096386,,,,,space,113.1918,NAN,,NAN,0,6,,0,2,2,2,1,3,Alex,Acc,Participant_Images/6601a1251731342a7891c4f1/6601a1251731342a7891c4f1_Images/6601a1251731342a7891c4f1_Image_23.jpeg,liked,3.470791822,,,,,,,,,,,,,,,,,,,,,,
,,6601a1251731342a7891c4f1,2024-07-04_11h06.54.689,WTP_SM_Choice,2022.2.1,Win32,60.24096386,,,,,space,1.5977,NAN,,NAN,0,6,,0,3,3,3,1,4,Alex,Acc,Participant_Images/6601a1251731342a7891c4f1/6601a1251731342a7891c4f1_Images/6601a1251731342a7891c4f1_Image_22.jpeg,did not like,3.820572462,,,,,,,,,,,,,,,,,,,,,,
,,6601a1251731342a7891c4f1,2024-07-04_11h06.54.689,WTP_SM_Choice,2022.2.1,Win32,60.24096386,,,,,,,,,,,,,,,,,,1,,,,,,space,21.9035,space,15.2862,0.01,1,1.1479,0,0,0,0,1,Write poetry in my favorite park during the golden hour,Cook a homemade dinner with my partner on a quiet Friday night,0.01,0.01,4.4,,,,,1
,,6601a1251731342a7891c4f1,2024-07-04_11h06.54.689,WTP_SM_Choice,2022.2.1,Win32,60.24096386,,,,,,,,,,,,,,,,,,2,,,,,,,,,,0.01,2,1.1908,0,1,1,1,1,Hike in the forest on a crisp autumn morning,Hike trails with my coworkers during a team-building retreat,0.02,0.01,8.8,,,,,1
,,6601a1251731342a7891c4f1,2024-07-04_11h06.54.689,WTP_SM_Choice,2022.2.1,Win32,60.24096386,,,,,,,,,,,,,,,,,,3,,,,,,,,,,0.03,1,1.1645,0,2,2,2,1,Write poetry in my favorite park during the golden hour,Watch movies with my family during the holidays,0.03,0.01,3.3,,,,,1
,,6601a1251731342a7891c4f1,2024-07-04_11h06.54.689,WTP_SM_Choice,2022.2.1,Win32,60.24096386,,,,,,,,,,,,,,,,,,4,,,,,,,,,,0.04,1,1.4256,0,3,3,3,1,Read a novel in my cozy armchair by the window on a rainy afternoon,Hike trails with my coworkers during a team-building retreat,0.04,0.01,1.1,,,,,1
,,6601a1251731342a7891c4f1,2024-07-04_11h06.54.689,WTP_SM_Choice,2022.2.1,Win32,60.24096386,,,,,,,,,,,,,,,,,,5,,,,,,,,,,0.01,2,0.9699,0,4,4,4,1,Read a novel in my cozy armchair by the window on a rainy afternoon,Visit museums with my classmates during a school field trip,0.05,0.01,1.1,,,,,1
,,6601a1251731342a7891c4f1,2024-07-04_11h06.54.689,WTP_SM_Choice,2022.2.1,Win32,60.24096386,,,,,,,NAN,,NAN,0.1,5.9,,0,4,4,4,1,5,Alex,Acc,Participant_Images/6601a1251731342a7891c4f1/6601a1251731342a7891c4f1_Images/6601a1251731342a7891c4f1_Image_5.jpeg,liked,2.455989137,,,,,,,,,,,,,,,,,,,,,,
,,6601a1251731342a7891c4f1,2024-07-04_11h06.54.689,WTP_SM_Choice,2022.2.1,Win32,60.24096386,,,,,space,1.184,NAN,,NAN,0.1,5.9,,0,5,5,5,1,6,Alex,Acc,Participant_Images/6601a1251731342a7891c4f1/6601a1251731342a7891c4f1_Images/6601a1251731342a7891c4f1_Image_16.jpeg,liked,3.79605092,,,,,,,,,,,,,,,,,,,,,,
,,6601a1251731342a7891c4f1,2024-07-04_11h06.54.689,WTP_SM_Choice,2022.2.1,Win32,60.24096386,,,,,space,1.4098,NAN,,NAN,0.1,5.9,,0,6,6,6,1,7,Alex,Acc,Participant_Images/6601a1251731342a7891c4f1/6601a1251731342a7891c4f1_Images/6601a1251731342a7891c4f1_Image_11.jpeg,liked,3.562416326,,,,,,,,,,,,,,,,,,,,,,
,,6601a1251731342a7891c4f1,2024-07-04_11h06.54.689,WTP_SM_Choice,2022.2.1,Win32,60.24096386,,,,,space,0.8836,NAN,,NAN,0.1,5.9,,0,7,7,7,1,8,Alex,Acc,Participant_Images/6601a1251731342a7891c4f1/6601a1251731342a7891c4f1_Images/6601a1251731342a7891c4f1_Image_13.jpeg,liked,2.843822497,,,,,,,,,,,,,,,,,,,,,,
,,6601a1251731342a7891c4f1,2024-07-04_11h06.54.689,WTP_SM_Choice,2022.2.1,Win32,60.24096386,,,,,space,1.6778,NAN,,NAN,0.1,5.9,,0,8,8,8,1,9,Alex,Acc,Participant_Images/6601a1251731342a7891c4f1/6601a1251731342a7891c4f1_Images/6601a1251731342a7891c4f1_Image_1.jpeg,did not like,3.546495948,,,,,,,,,,,,,,,,,,,,,,
,,6601a1251731342a7891c4f1,2024-07-04_11h06.54.689,WTP_SM_Choice,2022.2.1,Win32,60.24096386,,,,,,,,,,,,,,,,,,6,,,,,,space,17.2939,space,1.6669,0.01,1,1.1253,0,0,0,0,1,Meditate in my backyard garden at sunrise,Host game nights with my neighbors in my living room,0.01,0.02,3.3,,,,,1
,,6601a1251731342a7891c4f1,2024-07-04_11h06.54.689,WTP_SM_Choice,2022.2.1,Win32,60.24096386,,,,,,,,,,,,,,,,,,7,,,,,,,,,,0.02,2,1.5899,0,1,1,1,1,Read a novel in my cozy armchair by the window on a rainy afternoon,Cook a homemade dinner with my partner on a quiet Friday night,0.02,0.02,1.1,,,,,1
,,6601a1251731342a7891c4f1,2024-07-04_11h06.54.689,WTP_SM_Choice,2022.2.1,Win32,60.24096386,,,,,,,,,,,,,,,,,,8,,,,,,,,,,0.02,2,1.2414,0,2,2,2,1,Write poetry in my favorite park during the golden hour,Play board games with friends at a cozy cabin during a winter weekend,0.03,0.02,1.1,,,,,1
,,6601a1251731342a7891c4f1,2024-07-04_11h06.54.689,WTP_SM_Choice,2022.2.1,Win32,60.24096386,,,,,,,,,,,,,,,,,,9,,,,,,,,,,0.02,2,1.2751,0,3,3,3,1,Stargaze in my backyard on a clear summer night,Hike trails with my coworkers during a team-building retreat,0.04,0.02,4.4,,,,,1
,,6601a1251731342a7891c4f1,2024-07-04_11h06.54.689,WTP_SM_Choice,2022.2.1,Win32,60.24096386,,,,,,,,,,,,,,,,,,10,,,,,,,,,,0.02,2,1.225,0,4,4,4,1,Sketch landscapes at a secluded spot by the lake,Hike trails with my coworkers during a team-building retreat,0.05,0.02,1.1,,,,,1
,,6601a1251731342a7891c4f1,2024-07-04_11h06.54.689,WTP_SM_Choice,2022.2.1,Win32,60.24096386,,,,,,,NAN,,NAN,0.19,5.81,,0,9,9,9,1,10,Alex,Acc,Participant_Images/6601a1251731342a7891c4f1/6601a1251731342a7891c4f1_Images/6601a1251731342a7891c4f1_Image_17.jpeg,did not like,1.672012706,,,,,,,,,,,,,,,,,,,,,,
,,6601a1251731342a7891c4f1,2024-07-04_11h06.54.689,WTP_SM_Choice,2022.2.1,Win32,60.24096386,,,,,space,0.6314,NAN,,NAN,0.19,5.81,,0,10,10,10,1,11,Alex,Acc,Participant_Images/6601a1251731342a7891c4f1/6601a1251731342a7891c4f1_Images/6601a1251731342a7891c4f1_Image_12.jpeg,liked,4.942172136,,,,,,,,,,,,,,,,,,,,,,
,,6601a1251731342a7891c4f1,2024-07-04_11h06.54.689,WTP_SM_Choice,2022.2.1,Win32,60.24096386,,,,,space,0.8023,NAN,,NAN,0.19,5.81,,0,11,11,11,1,12,Alex,Acc,Participant_Images/6601a1251731342a7891c4f1/6601a1251731342a7891c4f1_Images/6601a1251731342a7891c4f1_Image_10.jpeg,liked,2.50187214,,,,,,,,,,,,,,,,,,,,,,
,,6601a1251731342a7891c4f1,2024-07-04_11h06.54.689,WTP_SM_Choice,2022.2.1,Win32,60.24096386,,,,,space,1.2875,NAN,,NAN,0.19,5.81,,0,12,12,12,1,13,Alex,Acc,Participant_Images/6601a1251731342a7891c4f1/6601a1251731342a7891c4f1_Images/6601a1251731342a7891c4f1_Image_25.jpeg,did not like,2.071164779,,,,,,,,,,,,,,,,,,,,,,
,,6601a1251731342a7891c4f1,2024-07-04_11h06.54.689,WTP_SM_Choice,2022.2.1,Win32,60.24096386,,,,,space,0.8336,NAN,,NAN,0.19,5.81,,0,13,13,13,1,14,Alex,Acc,Participant_Images/6601a1251731342a7891c4f1/6601a1251731342a7891c4f1_Images/6601a1251731342a7891c4f1_Image_15.jpeg,liked,5.336503566,,,,,,,,,,,,,,,,,,,,,,
,,6601a1251731342a7891c4f1,2024-07-04_11h06.54.689,WTP_SM_Choice,2022.2.1,Win32,60.24096386,,,,,,,,,,,,,,,,,,11,,,,,,space,8.5037,space,0.8668,0.01,1,1.5434,0,0,0,0,1,Listen to classical music while doing yoga in my living room,Cook a homemade dinner with my partner on a quiet Friday night,0.01,0.03,3.3,,,,,1
,,6601a1251731342a7891c4f1,2024-07-04_11h06.54.689,WTP_SM_Choice,2022.2.1,Win32,60.24096386,,,,,,,,,,,,,,,,,,12,,,,,,,,,,0.02,1,1.3,0,1,1,1,1,Listen to classical music while doing yoga in my living room,Play board games with friends at a cozy cabin during a winter weekend,0.02,0.03,4.4,,,,,1
,,6601a1251731342a7891c4f1,2024-07-04_11h06.54.689,WTP_SM_Choice,2022.2.1,Win32,60.24096386,,,,,,,,,,,,,,,,,,13,,,,,,,,,,0.03,1,1.5937,0,2,2,2,1,Meditate in my backyard garden at sunrise,Visit museums with my classmates during a school field trip,0.03,0.03,1.1,,,,,1
,,6601a1251731342a7891c4f1,2024-07-04_11h06.54.689,WTP_SM_Choice,2022.2.1,Win32,60.24096386,,,,,,,,,,,,,,,,,,14,,,,,,,,,,0.03,2,1.2305,0,3,3,3,1,Meditate in my backyard garden at sunrise,Play board games with friends at a cozy cabin during a winter weekend,0.04,0.03,3.3,,,,,1
,,6601a1251731342a7891c4f1,2024-07-04_11h06.54.689,WTP_SM_Choice,2022.2.1,Win32,60.24096386,,,,,,,,,,,,,,,,,,15,,,,,,,,,,0.03,2,1.1499,0,4,4,4,1,Hike in the forest on a crisp autumn morning,Watch movies with my family during the holidays,0.05,0.03,4.4,,,,,1
,,6601a1251731342a7891c4f1,2024-07-04_11h06.54.689,WTP_SM_Choice,2022.2.1,Win32,60.24096386,,,,,,,NAN,,NAN,0.31,5.69,,0,14,14,14,1,15,Alex,Acc,Participant_Images/6601a1251731342a7891c4f1/6601a1251731342a7891c4f1_Images/6601a1251731342a7891c4f1_Image_20.jpeg,liked,2.642157193,,,,,,,,,,,,,,,,,,,,,,
,,6601a1251731342a7891c4f1,2024-07-04_11h06.54.689,WTP_SM_Choice,2022.2.1,Win32,60.24096386,,,,,space,1.6108,NAN,,NAN,0.31,5.69,,0,15,15,15,1,16,Alex,Acc,Participant_Images/6601a1251731342a7891c4f1/6601a1251731342a7891c4f1_Images/6601a1251731342a7891c4f1_Image_18.jpeg,liked,4.456234322,,,,,,,,,,,,,,,,,,,,,,
,,6601a1251731342a7891c4f1,2024-07-04_11h06.54.689,WTP_SM_Choice,2022.2.1,Win32,60.24096386,,,,,space,0.5171,NAN,,NAN,0.31,5.69,,0,16,16,16,1,17,Alex,Acc,Participant_Images/6601a1251731342a7891c4f1/6601a1251731342a7891c4f1_Images/6601a1251731342a7891c4f1_Image_7.jpeg,liked,4.438512181,,,,,,,,,,,,,,,,,,,,,,
,,6601a1251731342a7891c4f1,2024-07-04_11h06.54.689,WTP_SM_Choice,2022.2.1,Win32,60.24096386,,,,,space,1.1438,NAN,,NAN,0.31,5.69,,0,17,17,17,1,18,Alex,Acc,Participant_Images/6601a1251731342a7891c4f1/6601a1251731342a7891c4f1_Images/6601a1251731342a7891c4f1_Image_24.jpeg,liked,2.682944783,,,,,,,,,,,,,,,,,,,,,,
,,6601a1251731342a7891c4f1,2024-07-04_11h06.54.689,WTP_SM_Choice,2022.2.1,Win32,60.24096386,,,,,space,0.8754,NAN,,NAN,0.31,5.69,,0,18,18,18,1,19,Alex,Acc,Participant_Images/6601a1251731342a7891c4f1/6601a1251731342a7891c4f1_Images/6601a1251731342a7891c4f1_Image_9.jpeg,liked,4.51984296,,,,,,,,,,,,,,,,,,,,,,
,,6601a1251731342a7891c4f1,2024-07-04_11h06.54.689,WTP_SM_Choice,2022.2.1,Win32,60.24096386,,,,,,,,,,,,,,,,,,16,,,,,,space,3.9316,space,1.0668,0.01,1,1.4238,0,0,0,0,1,Watch classic films in my bedroom with fairy lights on,Participate in book club discussions with fellow book enthusiasts at a local caf,0.01,0.04,1.1,,,,,1
,,6601a1251731342a7891c4f1,2024-07-04_11h06.54.689,WTP_SM_Choice,2022.2.1,Win32,60.24096386,,,,,,,,,,,,,,,,,,17,,,,,,,,,,0.02,1,1.3958,0,1,1,1,1,Hike in the forest on a crisp autumn morning,Cook a homemade dinner with my partner on a quiet Friday night,0.02,0.04,8.8,,,,,1
,,6601a1251731342a7891c4f1,2024-07-04_11h06.54.689,WTP_SM_Choice,2022.2.1,Win32,60.24096386,,,,,,,,,,,,,,,,,,18,,,,,,,,,,0.03,1,1.0958,0,2,2,2,1,Write poetry in my favorite park during the golden hour,Go on beach picnics with my siblings on sunny summer days,0.03,0.04,3.3,,,,,1
,,6601a1251731342a7891c4f1,2024-07-04_11h06.54.689,WTP_SM_Choice,2022.2.1,Win32,60.24096386,,,,,,,,,,,,,,,,,,19,,,,,,,,,,0.04,1,1.4929,0,3,3,3,1,Watch classic films in my bedroom with fairy lights on,Hike trails with my coworkers during a team-building retreat,0.04,0.04,3.3,,,,,1
,,6601a1251731342a7891c4f1,2024-07-04_11h06.54.689,WTP_SM_Choice,2022.2.1,Win32,60.24096386,,,,,,,,,,,,,,,,,,20,,,,,,,,,,0.04,2,1.2488,0,4,4,4,1,Listen to classical music while doing yoga in my living room,Visit museums with my classmates during a school field trip,0.05,0.04,1.1,,,,,1
,,6601a1251731342a7891c4f1,2024-07-04_11h06.54.689,WTP_SM_Choice,2022.2.1,Win32,60.24096386,,,,,,,NAN,,NAN,0.45,5.55,,0,19,19,19,1,20,Alex,Acc,Participant_Images/6601a1251731342a7891c4f1/6601a1251731342a7891c4f1_Images/6601a1251731342a7891c4f1_Image_8.jpeg,liked,3.195382774,,,,,,,,,,,,,,,,,,,,,,
,,6601a1251731342a7891c4f1,2024-07-04_11h06.54.689,WTP_SM_Choice,2022.2.1,Win32,60.24096386,,,,,space,1.0335,NAN,,NAN,0.45,5.55,,0,20,20,20,1,21,Alex,Acc,Participant_Images/6601a1251731342a7891c4f1/6601a1251731342a7891c4f1_Images/6601a1251731342a7891c4f1_Image_4.jpeg,liked,1.779333479,,,,,,,,,,,,,,,,,,,,,,
,,6601a1251731342a7891c4f1,2024-07-04_11h06.54.689,WTP_SM_Choice,2022.2.1,Win32,60.24096386,,,,,space,0.8364,NAN,,NAN,0.45,5.55,,0,21,21,21,1,22,Alex,Acc,Participant_Images/6601a1251731342a7891c4f1/6601a1251731342a7891c4f1_Images/6601a1251731342a7891c4f1_Image_2.jpeg,did not like,4.312468682,,,,,,,,,,,,,,,,,,,,,,
,,6601a1251731342a7891c4f1,2024-07-04_11h06.54.689,WTP_SM_Choice,2022.2.1,Win32,60.24096386,,,,,space,0.6943,NAN,,NAN,0.45,5.55,,0,22,22,22,1,23,Alex,Acc,Participant_Images/6601a1251731342a7891c4f1/6601a1251731342a7891c4f1_Images/6601a1251731342a7891c4f1_Image_21.jpeg,liked,4.940433059,,,,,,,,,,,,,,,,,,,,,,
,,6601a1251731342a7891c4f1,2024-07-04_11h06.54.689,WTP_SM_Choice,2022.2.1,Win32,60.24096386,,,,,space,0.6042,NAN,,NAN,0.45,5.55,,0,23,23,23,1,24,Alex,Acc,Participant_Images/6601a1251731342a7891c4f1/6601a1251731342a7891c4f1_Images/6601a1251731342a7891c4f1_Image_19.jpeg,did not like,2.7105123,,,,,,,,,,,,,,,,,,,,,,
,,6601a1251731342a7891c4f1,2024-07-04_11h06.54.689,WTP_SM_Choice,2022.2.1,Win32,60.24096386,,,,,,,,,,,,,,,,,,21,,,,,,space,7.3813,space,1.2,0.01,1,0.9201,0,0,0,0,1,Bake chocolate chip cookies in my kitchen on a quiet Sunday,Host game nights with my neighbors in my living room,0.01,0.05,8.8,,,,,1
,,6601a1251731342a7891c4f1,2024-07-04_11h06.54.689,WTP_SM_Choice,2022.2.1,Win32,60.24096386,,,,,,,,,,,,,,,,,,22,,,,,,,,,,0.02,1,1.1742,0,1,1,1,1,Meditate in my backyard garden at sunrise,Watch movies with my family during the holidays,0.02,0.05,4.4,,,,,1
,,6601a1251731342a7891c4f1,2024-07-04_11h06.54.689,WTP_SM_Choice,2022.2.1,Win32,60.24096386,,,,,,,,,,,,,,,,,,23,,,,,,,,,,0.03,1,1.1402,0,2,2,2,1,Journal my thoughts and reflections at a local coffee shop,Watch movies with my family during the holidays,0.03,0.05,1.1,,,,,1
,,6601a1251731342a7891c4f1,2024-07-04_11h06.54.689,WTP_SM_Choice,2022.2.1,Win32,60.24096386,,,,,,,,,,,,,,,,,,24,,,,,,,,,,0.04,1,1.3191,0,3,3,3,1,Stargaze in my backyard on a clear summer night,Visit museums with my classmates during a school field trip,0.04,0.05,4.4,,,,,1
,,6601a1251731342a7891c4f1,2024-07-04_11h06.54.689,WTP_SM_Choice,2022.2.1,Win32,60.24096386,,,,,,,,,,,,,,,,,,25,,,,,,,,,,0.05,1,1.4323,0,4,4,4,1,Watch classic films in my bedroom with fairy lights on,Watch movies with my family during the holidays,0.05,0.05,3.3,,,,,1
,,6601a1251731342a7891c4f1,2024-07-04_11h06.54.689,WTP_SM_Choice,2022.2.1,Win32,60.24096386,,,,,,,4,,8,0.6,5.4,,0,24,24,24,1,25,Alex,Acc,Participant_Images/6601a1251731342a7891c4f1/6601a1251731342a7891c4f1_Images/6601a1251731342a7891c4f1_Image_6.jpeg,did not like,3.602308302,,,,,,,,,,,,,,,,,,space,1.3662,,,
,,6601a1251731342a7891c4f1,2024-07-04_11h06.54.689,WTP_SM_Choice,2022.2.1,Win32,60.24096386,,,space,2.8685,space,0.7663,NAN,,NAN,0.6,5.4,,0,25,25,25,1,26,Riley,Acc,Participant_Images/6601a1251731342a7891c4f1/6601a1251731342a7891c4f1_Images/6601a1251731342a7891c4f1_Image_17.jpeg,liked,4.106391878,,,,,,,,,,,,,,,,,,,,,,
,,6601a1251731342a7891c4f1,2024-07-04_11h06.54.689,WTP_SM_Choice,2022.2.1,Win32,60.24096386,,,,,space,3.0961,NAN,,NAN,0.6,5.4,,0,26,26,26,1,27,Riley,Acc,Participant_Images/6601a1251731342a7891c4f1/6601a1251731342a7891c4f1_Images/6601a1251731342a7891c4f1_Image_16.jpeg,liked,3.799433026,,,,,,,,,,,,,,,,,,,,,,
,,6601a1251731342a7891c4f1,2024-07-04_11h06.54.689,WTP_SM_Choice,2022.2.1,Win32,60.24096386,,,,,space,0.0591,NAN,,NAN,0.6,5.4,,0,27,27,27,1,28,Riley,Acc,Participant_Images/6601a1251731342a7891c4f1/6601a1251731342a7891c4f1_Images/6601a1251731342a7891c4f1_Image_19.jpeg,did not like,5.246980764,,,,,,,,,,,,,,,,,,,,,,
,,6601a1251731342a7891c4f1,2024-07-04_11h06.54.689,WTP_SM_Choice,2022.2.1,Win32,60.24096386,,,,,space,1.2963,NAN,,NAN,0.6,5.4,,0,28,28,28,1,29,Riley,Acc,Participant_Images/6601a1251731342a7891c4f1/6601a1251731342a7891c4f1_Images/6601a1251731342a7891c4f1_Image_7.jpeg,liked,3.30081769,,,,,,,,,,,,,,,,,,,,,,
,,6601a1251731342a7891c4f1,2024-07-04_11h06.54.689,WTP_SM_Choice,2022.2.1,Win32,60.24096386,,,,,,,,,,,,,,,,,,26,,,,,,space,6.8372,space,1.3668,0.01,1,0.8279,0,0,0,0,1,Watch classic films in my bedroom with fairy lights on,Host game nights with my neighbors in my living room,0.01,0.01,4.4,,,,,1
,,6601a1251731342a7891c4f1,2024-07-04_11h06.54.689,WTP_SM_Choice,2022.2.1,Win32,60.24096386,,,,,,,,,,,,,,,,,,27,,,,,,,,,,0.01,2,1.2626,0,1,1,1,1,Journal my thoughts and reflections at a local coffee shop,Go on beach picnics with my siblings on sunny summer days,0.02,0.01,3.3,,,,,1
,,6601a1251731342a7891c4f1,2024-07-04_11h06.54.689,WTP_SM_Choice,2022.2.1,Win32,60.24096386,,,,,,,,,,,,,,,,,,28,,,,,,,,,,0.01,2,1.0535,0,2,2,2,1,Stargaze in my backyard on a clear summer night,Attend live concerts with my best friend on weekends,0.03,0.01,3.3,,,,,1
,,6601a1251731342a7891c4f1,2024-07-04_11h06.54.689,WTP_SM_Choice,2022.2.1,Win32,60.24096386,,,,,,,,,,,,,,,,,,29,,,,,,,,,,0.01,2,0.9634,0,3,3,3,1,Bake chocolate chip cookies in my kitchen on a quiet Sunday,Play board games with friends at a cozy cabin during a winter weekend,0.04,0.01,4.4,,,,,1
,,6601a1251731342a7891c4f1,2024-07-04_11h06.54.689,WTP_SM_Choice,2022.2.1,Win32,60.24096386,,,,,,,,,,,,,,,,,,30,,,,,,,,,,0.01,2,0.9575,0,4,4,4,1,Meditate in my backyard garden at sunrise,Explore new cities with my cousins on annual road trips,0.05,0.01,8.8,,,,,1
,,6601a1251731342a7891c4f1,2024-07-04_11h06.54.689,WTP_SM_Choice,2022.2.1,Win32,60.24096386,,,,,,,NAN,,NAN,0.65,5.35,,0,29,29,29,1,30,Riley,Acc,Participant_Images/6601a1251731342a7891c4f1/6601a1251731342a7891c4f1_Images/6601a1251731342a7891c4f1_Image_4.jpeg,liked,1.661473164,,,,,,,,,,,,,,,,,,,,,,
,,6601a1251731342a7891c4f1,2024-07-04_11h06.54.689,WTP_SM_Choice,2022.2.1,Win32,60.24096386,,,,,space,3.7327,NAN,,NAN,0.65,5.35,,0,30,30,30,1,31,Riley,Acc,Participant_Images/6601a1251731342a7891c4f1/6601a1251731342a7891c4f1_Images/6601a1251731342a7891c4f1_Image_6.jpeg,liked,3.613205605,,,,,,,,,,,,,,,,,,,,,,
,,6601a1251731342a7891c4f1,2024-07-04_11h06.54.689,WTP_SM_Choice,2022.2.1,Win32,60.24096386,,,,,space,0.5972,NAN,,NAN,0.65,5.35,,0,31,31,31,1,32,Riley,Acc,Participant_Images/6601a1251731342a7891c4f1/6601a1251731342a7891c4f1_Images/6601a1251731342a7891c4f1_Image_25.jpeg,liked,4.988446431,,,,,,,,,,,,,,,,,,,,,,
,,6601a1251731342a7891c4f1,2024-07-04_11h06.54.689,WTP_SM_Choice,2022.2.1,Win32,60.24096386,,,,,space,0.7169,NAN,,NAN,0.65,5.35,,0,32,32,32,1,33,Riley,Acc,Participant_Images/6601a1251731342a7891c4f1/6601a1251731342a7891c4f1_Images/6601a1251731342a7891c4f1_Image_15.jpeg,did not like,3.470791822,,,,,,,,,,,,,,,,,,,,,,
,,6601a1251731342a7891c4f1,2024-07-04_11h06.54.689,WTP_SM_Choice,2022.2.1,Win32,60.24096386,,,,,space,0.6406,NAN,,NAN,0.65,5.35,,0,33,33,33,1,34,Riley,Acc,Participant_Images/6601a1251731342a7891c4f1/6601a1251731342a7891c4f1_Images/6601a1251731342a7891c4f1_Image_22.jpeg,liked,3.820572462,,,,,,,,,,,,,,,,,,,,,,
,,6601a1251731342a7891c4f1,2024-07-04_11h06.54.689,WTP_SM_Choice,2022.2.1,Win32,60.24096386,,,,,,,,,,,,,,,,,,31,,,,,,space,2.5558,space,1.0414,0.01,1,1.4625,0,0,0,0,1,Journal my thoughts and reflections at a local coffee shop,Attend live concerts with my best friend on weekends,0.01,0.02,8.8,,,,,1
,,6601a1251731342a7891c4f1,2024-07-04_11h06.54.689,WTP_SM_Choice,2022.2.1,Win32,60.24096386,,,,,,,,,,,,,,,,,,32,,,,,,,,,,0.02,1,1.2239,0,1,1,1,1,Read a novel in my cozy armchair by the window on a rainy afternoon,Play board games with friends at a cozy cabin during a winter weekend,0.02,0.02,1.1,,,,,1
,,6601a1251731342a7891c4f1,2024-07-04_11h06.54.689,WTP_SM_Choice,2022.2.1,Win32,60.24096386,,,,,,,,,,,,,,,,,,33,,,,,,,,,,0.02,2,1.2014,0,2,2,2,1,Write poetry in my favorite park during the golden hour,Hike trails with my coworkers during a team-building retreat,0.03,0.02,4.4,,,,,1
,,6601a1251731342a7891c4f1,2024-07-04_11h06.54.689,WTP_SM_Choice,2022.2.1,Win32,60.24096386,,,,,,,,,,,,,,,,,,34,,,,,,,,,,0.02,2,1.1304,0,3,3,3,1,Read a novel in my cozy armchair by the window on a rainy afternoon,Go on beach picnics with my siblings on sunny summer days,0.04,0.02,3.3,,,,,1
,,6601a1251731342a7891c4f1,2024-07-04_11h06.54.689,WTP_SM_Choice,2022.2.1,Win32,60.24096386,,,,,,,,,,,,,,,,,,35,,,,,,,,,,0.02,2,1.0417,0,4,4,4,1,Stargaze in my backyard on a clear summer night,Go on beach picnics with my siblings on sunny summer days,0.05,0.02,1.1,,,,,1
,,6601a1251731342a7891c4f1,2024-07-04_11h06.54.689,WTP_SM_Choice,2022.2.1,Win32,60.24096386,,,,,,,NAN,,NAN,0.74,5.26,,0,34,34,34,1,35,Riley,Acc,Participant_Images/6601a1251731342a7891c4f1/6601a1251731342a7891c4f1_Images/6601a1251731342a7891c4f1_Image_14.jpeg,liked,2.455989137,,,,,,,,,,,,,,,,,,,,,,
,,6601a1251731342a7891c4f1,2024-07-04_11h06.54.689,WTP_SM_Choice,2022.2.1,Win32,60.24096386,,,,,space,0.9336,NAN,,NAN,0.74,5.26,,0,35,35,35,1,36,Riley,Acc,Participant_Images/6601a1251731342a7891c4f1/6601a1251731342a7891c4f1_Images/6601a1251731342a7891c4f1_Image_24.jpeg,did not like,3.79605092,,,,,,,,,,,,,,,,,,,,,,
,,6601a1251731342a7891c4f1,2024-07-04_11h06.54.689,WTP_SM_Choice,2022.2.1,Win32,60.24096386,,,,,space,0.6336,NAN,,NAN,0.74,5.26,,0,36,36,36,1,37,Riley,Acc,Participant_Images/6601a1251731342a7891c4f1/6601a1251731342a7891c4f1_Images/6601a1251731342a7891c4f1_Image_1.jpeg,liked,3.562416326,,,,,,,,,,,,,,,,,,,,,,
,,6601a1251731342a7891c4f1,2024-07-04_11h06.54.689,WTP_SM_Choice,2022.2.1,Win32,60.24096386,,,,,space,0.7502,NAN,,NAN,0.74,5.26,,0,37,37,37,1,38,Riley,Acc,Participant_Images/6601a1251731342a7891c4f1/6601a1251731342a7891c4f1_Images/6601a1251731342a7891c4f1_Image_3.jpeg,did not like,2.843822497,,,,,,,,,,,,,,,,,,,,,,
,,6601a1251731342a7891c4f1,2024-07-04_11h06.54.689,WTP_SM_Choice,2022.2.1,Win32,60.24096386,,,,,space,0.6527,NAN,,NAN,0.74,5.26,,0,38,38,38,1,39,Riley,Acc,Participant_Images/6601a1251731342a7891c4f1/6601a1251731342a7891c4f1_Images/6601a1251731342a7891c4f1_Image_21.jpeg,did not like,3.546495948,,,,,,,,,,,,,,,,,,,,,,
,,6601a1251731342a7891c4f1,2024-07-04_11h06.54.689,WTP_SM_Choice,2022.2.1,Win32,60.24096386,,,,,,,,,,,,,,,,,,36,,,,,,space,3.2993,space,0.9003,0.01,1,1.478,0,0,0,0,1,Stargaze in my backyard on a clear summer night,Host game nights with my neighbors in my living room,0.01,0.03,3.3,,,,,1
,,6601a1251731342a7891c4f1,2024-07-04_11h06.54.689,WTP_SM_Choice,2022.2.1,Win32,60.24096386,,,,,,,,,,,,,,,,,,37,,,,,,,,,,0.02,1,1.4163,0,1,1,1,1,Journal my thoughts and reflections at a local coffee shop,Explore new cities with my cousins on annual road trips,0.02,0.03,1.1,,,,,1
,,6601a1251731342a7891c4f1,2024-07-04_11h06.54.689,WTP_SM_Choice,2022.2.1,Win32,60.24096386,,,,,,,,,,,,,,,,,,38,,,,,,,,,,0.03,1,1.4467,0,2,2,2,1,Listen to classical music while doing yoga in my living room,Participate in book club discussions with fellow book enthusiasts at a local caf,0.03,0.03,1.1,,,,,1
,,6601a1251731342a7891c4f1,2024-07-04_11h06.54.689,WTP_SM_Choice,2022.2.1,Win32,60.24096386,,,,,,,,,,,,,,,,,,39,,,,,,,,,,0.03,2,1.0999,0,3,3,3,1,Journal my thoughts and reflections at a local coffee shop,Host game nights with my neighbors in my living room,0.04,0.03,3.3,,,,,1
,,6601a1251731342a7891c4f1,2024-07-04_11h06.54.689,WTP_SM_Choice,2022.2.1,Win32,60.24096386,,,,,,,,,,,,,,,,,,40,,,,,,,,,,0.03,2,1.0655,0,4,4,4,1,Watch classic films in my bedroom with fairy lights on,Cook a homemade dinner with my partner on a quiet Friday night,0.05,0.03,4.4,,,,,1
,,6601a1251731342a7891c4f1,2024-07-04_11h06.54.689,WTP_SM_Choice,2022.2.1,Win32,60.24096386,,,,,,,NAN,,NAN,0.86,5.14,,0,39,39,39,1,40,Riley,Acc,Participant_Images/6601a1251731342a7891c4f1/6601a1251731342a7891c4f1_Images/6601a1251731342a7891c4f1_Image_11.jpeg,liked,1.672012706,,,,,,,,,,,,,,,,,,,,,,
,,6601a1251731342a7891c4f1,2024-07-04_11h06.54.689,WTP_SM_Choice,2022.2.1,Win32,60.24096386,,,,,space,0.6608,NAN,,NAN,0.86,5.14,,0,40,40,40,1,41,Riley,Acc,Participant_Images/6601a1251731342a7891c4f1/6601a1251731342a7891c4f1_Images/6601a1251731342a7891c4f1_Image_9.jpeg,liked,4.942172136,,,,,,,,,,,,,,,,,,,,,,
,,6601a1251731342a7891c4f1,2024-07-04_11h06.54.689,WTP_SM_Choice,2022.2.1,Win32,60.24096386,,,,,space,1.0779,NAN,,NAN,0.86,5.14,,0,41,41,41,1,42,Riley,Acc,Participant_Images/6601a1251731342a7891c4f1/6601a1251731342a7891c4f1_Images/6601a1251731342a7891c4f1_Image_20.jpeg,liked,2.50187214,,,,,,,,,,,,,,,,,,,,,,
,,6601a1251731342a7891c4f1,2024-07-04_11h06.54.689,WTP_SM_Choice,2022.2.1,Win32,60.24096386,,,,,space,0.7426,NAN,,NAN,0.86,5.14,,0,42,42,42,1,43,Riley,Acc,Participant_Images/6601a1251731342a7891c4f1/6601a1251731342a7891c4f1_Images/6601a1251731342a7891c4f1_Image_5.jpeg,liked,2.071164779,,,,,,,,,,,,,,,,,,,,,,
,,6601a1251731342a7891c4f1,2024-07-04_11h06.54.689,WTP_SM_Choice,2022.2.1,Win32,60.24096386,,,,,space,0.0636,NAN,,NAN,0.86,5.14,,0,43,43,43,1,44,Riley,Acc,Participant_Images/6601a1251731342a7891c4f1/6601a1251731342a7891c4f1_Images/6601a1251731342a7891c4f1_Image_18.jpeg,liked,5.336503566,,,,,,,,,,,,,,,,,,,,,,
,,6601a1251731342a7891c4f1,2024-07-04_11h06.54.689,WTP_SM_Choice,2022.2.1,Win32,60.24096386,,,,,,,,,,,,,,,,,,41,,,,,,space,0.1336,space,14.7622,0.01,1,0.9274,0,0,0,0,1,Journal my thoughts and reflections at a local coffee shop,Play board games with friends at a cozy cabin during a winter weekend,0.01,0.04,1.1,,,,,1
,,6601a1251731342a7891c4f1,2024-07-04_11h06.54.689,WTP_SM_Choice,2022.2.1,Win32,60.24096386,,,,,,,,,,,,,,,,,,42,,,,,,,,,,0.02,1,1.1667,0,1,1,1,1,Hike in the forest on a crisp autumn morning,Attend live concerts with my best friend on weekends,0.02,0.04,3.3,,,,,1
,,6601a1251731342a7891c4f1,2024-07-04_11h06.54.689,WTP_SM_Choice,2022.2.1,Win32,60.24096386,,,,,,,,,,,,,,,,,,43,,,,,,,,,,0.03,1,1.125,0,2,2,2,1,Sketch landscapes at a secluded spot by the lake,Cook a homemade dinner with my partner on a quiet Friday night,0.03,0.04,1.1,,,,,1
,,6601a1251731342a7891c4f1,2024-07-04_11h06.54.689,WTP_SM_Choice,2022.2.1,Win32,60.24096386,,,,,,,,,,,,,,,,,,44,,,,,,,,,,0.04,1,1.2888,0,3,3,3,1,Bake chocolate chip cookies in my kitchen on a quiet Sunday,Watch movies with my family during the holidays,0.04,0.04,1.1,,,,,1
,,6601a1251731342a7891c4f1,2024-07-04_11h06.54.689,WTP_SM_Choice,2022.2.1,Win32,60.24096386,,,,,,,,,,,,,,,,,,45,,,,,,,,,,0.04,2,1.0604,0,4,4,4,1,Watch classic films in my bedroom with fairy lights on,Go on beach picnics with my siblings on sunny summer days,0.05,0.04,4.4,,,,,1
,,6601a1251731342a7891c4f1,2024-07-04_11h06.54.689,WTP_SM_Choice,2022.2.1,Win32,60.24096386,,,,,,,NAN,,NAN,1,5,,0,44,44,44,1,45,Riley,Acc,Participant_Images/6601a1251731342a7891c4f1/6601a1251731342a7891c4f1_Images/6601a1251731342a7891c4f1_Image_13.jpeg,did not like,2.642157193,,,,,,,,,,,,,,,,,,,,,,
,,6601a1251731342a7891c4f1,2024-07-04_11h06.54.689,WTP_SM_Choice,2022.2.1,Win32,60.24096386,,,,,space,0.7021,NAN,,NAN,1,5,,0,45,45,45,1,46,Riley,Acc,Participant_Images/6601a1251731342a7891c4f1/6601a1251731342a7891c4f1_Images/6601a1251731342a7891c4f1_Image_10.jpeg,liked,4.456234322,,,,,,,,,,,,,,,,,,,,,,
,,6601a1251731342a7891c4f1,2024-07-04_11h06.54.689,WTP_SM_Choice,2022.2.1,Win32,60.24096386,,,,,space,1.0489,NAN,,NAN,1,5,,0,46,46,46,1,47,Riley,Acc,Participant_Images/6601a1251731342a7891c4f1/6601a1251731342a7891c4f1_Images/6601a1251731342a7891c4f1_Image_12.jpeg,liked,4.438512181,,,,,,,,,,,,,,,,,,,,,,
,,6601a1251731342a7891c4f1,2024-07-04_11h06.54.689,WTP_SM_Choice,2022.2.1,Win32,60.24096386,,,,,space,2.9829,NAN,,NAN,1,5,,0,47,47,47,1,48,Riley,Acc,Participant_Images/6601a1251731342a7891c4f1/6601a1251731342a7891c4f1_Images/6601a1251731342a7891c4f1_Image_23.jpeg,liked,2.682944783,,,,,,,,,,,,,,,,,,,,,,
,,6601a1251731342a7891c4f1,2024-07-04_11h06.54.689,WTP_SM_Choice,2022.2.1,Win32,60.24096386,,,,,space,0.8282,NAN,,NAN,1,5,,0,48,48,48,1,49,Riley,Acc,Participant_Images/6601a1251731342a7891c4f1/6601a1251731342a7891c4f1_Images/6601a1251731342a7891c4f1_Image_2.jpeg,liked,4.51984296,,,,,,,,,,,,,,,,,,,,,,
,,6601a1251731342a7891c4f1,2024-07-04_11h06.54.689,WTP_SM_Choice,2022.2.1,Win32,60.24096386,,,,,,,,,,,,,,,,,,46,,,,,,space,2.7021,space,2.0667,0.01,1,0.9047,0,0,0,0,1,Meditate in my backyard garden at sunrise,Attend live concerts with my best friend on weekends,0.01,0.05,8.8,,,,,1
,,6601a1251731342a7891c4f1,2024-07-04_11h06.54.689,WTP_SM_Choice,2022.2.1,Win32,60.24096386,,,,,,,,,,,,,,,,,,47,,,,,,,,,,0.02,1,1.1213,0,1,1,1,1,Watch classic films in my bedroom with fairy lights on,Play board games with friends at a cozy cabin during a winter weekend,0.02,0.05,1.1,,,,,1
,,6601a1251731342a7891c4f1,2024-07-04_11h06.54.689,WTP_SM_Choice,2022.2.1,Win32,60.24096386,,,,,,,,,,,,,,,,,,48,,,,,,,,,,0.03,1,0.9615,0,2,2,2,1,Hike in the forest on a crisp autumn morning,Go on beach picnics with my siblings on sunny summer days,0.03,0.05,4.4,,,,,1
,,6601a1251731342a7891c4f1,2024-07-04_11h06.54.689,WTP_SM_Choice,2022.2.1,Win32,60.24096386,,,,,,,,,,,,,,,,,,49,,,,,,,,,,0.04,1,1.1465,0,3,3,3,1,Write poetry in my favorite park during the golden hour,Explore new cities with my cousins on annual road trips,0.04,0.05,3.3,,,,,1
,,6601a1251731342a7891c4f1,2024-07-04_11h06.54.689,WTP_SM_Choice,2022.2.1,Win32,60.24096386,,,,,,,,,,,,,,,,,,50,,,,,,,,,,0.05,1,1.2765,0,4,4,4,1,Listen to classical music while doing yoga in my living room,Host game nights with my neighbors in my living room,0.05,0.05,1.1,,,,,1
,,6601a1251731342a7891c4f1,2024-07-04_11h06.54.689,WTP_SM_Choice,2022.2.1,Win32,60.24096386,,,,,,,5,,3,1.15,4.85,,0,49,49,49,1,50,Riley,Acc,Participant_Images/6601a1251731342a7891c4f1/6601a1251731342a7891c4f1_Images/6601a1251731342a7891c4f1_Image_8.jpeg,did not like,3.195382774,,,,,,,,,,,,,,,,,,space,1.7332,,,
,,6601a1251731342a7891c4f1,2024-07-04_11h06.54.689,WTP_SM_Choice,2022.2.1,Win32,60.24096386,,,space,2.6123,space,0.6667,NAN,,NAN,1.15,4.85,,0,50,50,50,1,51,Sam,Rej,Participant_Images/6601a1251731342a7891c4f1/6601a1251731342a7891c4f1_Images/6601a1251731342a7891c4f1_Image_16.jpeg,did not like,1.779333479,,,,,,,,,,,,,,,,,,,,,,
,,6601a1251731342a7891c4f1,2024-07-04_11h06.54.689,WTP_SM_Choice,2022.2.1,Win32,60.24096386,,,,,space,0.5941,NAN,,NAN,1.15,4.85,,0,51,51,51,1,52,Sam,Rej,Participant_Images/6601a1251731342a7891c4f1/6601a1251731342a7891c4f1_Images/6601a1251731342a7891c4f1_Image_22.jpeg,did not like,4.312468682,,,,,,,,,,,,,,,,,,,,,,
,,6601a1251731342a7891c4f1,2024-07-04_11h06.54.689,WTP_SM_Choice,2022.2.1,Win32,60.24096386,,,,,space,0.8608,NAN,,NAN,1.15,4.85,,0,52,52,52,1,53,Sam,Rej,Participant_Images/6601a1251731342a7891c4f1/6601a1251731342a7891c4f1_Images/6601a1251731342a7891c4f1_Image_11.jpeg,did not like,4.940433059,,,,,,,,,,,,,,,,,,,,,,
,,6601a1251731342a7891c4f1,2024-07-04_11h06.54.689,WTP_SM_Choice,2022.2.1,Win32,60.24096386,,,,,space,0.7109,NAN,,NAN,1.15,4.85,,0,53,53,53,1,54,Sam,Rej,Participant_Images/6601a1251731342a7891c4f1/6601a1251731342a7891c4f1_Images/6601a1251731342a7891c4f1_Image_10.jpeg,did not like,2.7105123,,,,,,,,,,,,,,,,,,,,,,
,,6601a1251731342a7891c4f1,2024-07-04_11h06.54.689,WTP_SM_Choice,2022.2.1,Win32,60.24096386,,,,,,,,,,,,,,,,,,51,,,,,,space,4.5322,space,0.9167,0.01,1,0.8104,0,0,0,0,1,Sketch landscapes at a secluded spot by the lake,Explore new cities with my cousins on annual road trips,0.01,0.01,1.1,,,,,1
,,6601a1251731342a7891c4f1,2024-07-04_11h06.54.689,WTP_SM_Choice,2022.2.1,Win32,60.24096386,,,,,,,,,,,,,,,,,,52,,,,,,,,,,0.01,2,1.0334,0,1,1,1,1,Meditate in my backyard garden at sunrise,Go on beach picnics with my siblings on sunny summer days,0.02,0.01,3.3,,,,,1
,,6601a1251731342a7891c4f1,2024-07-04_11h06.54.689,WTP_SM_Choice,2022.2.1,Win32,60.24096386,,,,,,,,,,,,,,,,,,53,,,,,,,,,,0.01,2,1.0138,0,2,2,2,1,Sketch landscapes at a secluded spot by the lake,Host game nights with my neighbors in my living room,0.03,0.01,1.1,,,,,1
,,6601a1251731342a7891c4f1,2024-07-04_11h06.54.689,WTP_SM_Choice,2022.2.1,Win32,60.24096386,,,,,,,,,,,,,,,,,,54,,,,,,,,,,0.01,2,0.9118,0,3,3,3,1,Bake chocolate chip cookies in my kitchen on a quiet Sunday,Hike trails with my coworkers during a team-building retreat,0.04,0.01,4.4,,,,,1
,,6601a1251731342a7891c4f1,2024-07-04_11h06.54.689,WTP_SM_Choice,2022.2.1,Win32,60.24096386,,,,,,,,,,,,,,,,,,55,,,,,,,,,,0.01,2,0.9158,0,4,4,4,1,Sketch landscapes at a secluded spot by the lake,Go on beach picnics with my siblings on sunny summer days,0.05,0.01,1.1,,,,,1
,,6601a1251731342a7891c4f1,2024-07-04_11h06.54.689,WTP_SM_Choice,2022.2.1,Win32,60.24096386,,,,,,,NAN,,NAN,1.2,4.8,,0,54,54,54,1,55,Sam,Rej,Participant_Images/6601a1251731342a7891c4f1/6601a1251731342a7891c4f1_Images/6601a1251731342a7891c4f1_Image_6.jpeg,did not like,3.602308302,,,,,,,,,,,,,,,,,,,,,,
,,6601a1251731342a7891c4f1,2024-07-04_11h06.54.689,WTP_SM_Choice,2022.2.1,Win32,60.24096386,,,,,space,0.1337,NAN,,NAN,1.2,4.8,,0,55,55,55,1,56,Sam,Rej,Participant_Images/6601a1251731342a7891c4f1/6601a1251731342a7891c4f1_Images/6601a1251731342a7891c4f1_Image_20.jpeg,did not like,4.106391878,,,,,,,,,,,,,,,,,,,,,,
,,6601a1251731342a7891c4f1,2024-07-04_11h06.54.689,WTP_SM_Choice,2022.2.1,Win32,60.24096386,,,,,space,0.5139,NAN,,NAN,1.2,4.8,,0,56,56,56,1,57,Sam,Rej,Participant_Images/6601a1251731342a7891c4f1/6601a1251731342a7891c4f1_Images/6601a1251731342a7891c4f1_Image_14.jpeg,did not like,3.799433026,,,,,,,,,,,,,,,,,,,,,,
,,6601a1251731342a7891c4f1,2024-07-04_11h06.54.689,WTP_SM_Choice,2022.2.1,Win32,60.24096386,,,,,space,0.5004,NAN,,NAN,1.2,4.8,,0,57,57,57,1,58,Sam,Rej,Participant_Images/6601a1251731342a7891c4f1/6601a1251731342a7891c4f1_Images/6601a1251731342a7891c4f1_Image_9.jpeg,did not like,5.246980764,,,,,,,,,,,,,,,,,,,,,,
,,6601a1251731342a7891c4f1,2024-07-04_11h06.54.689,WTP_SM_Choice,2022.2.1,Win32,60.24096386,,,,,space,0.0088,NAN,,NAN,1.2,4.8,,0,58,58,58,1,59,Sam,Rej,Participant_Images/6601a1251731342a7891c4f1/6601a1251731342a7891c4f1_Images/6601a1251731342a7891c4f1_Image_19.jpeg,did not like,3.30081769,,,,,,,,,,,,,,,,,,,,,,
,,6601a1251731342a7891c4f1,2024-07-04_11h06.54.689,WTP_SM_Choice,2022.2.1,Win32,60.24096386,,,,,,,,,,,,,,,,,,56,,,,,,space,0.0336,space,2.8995,0.01,1,0.9665,0,0,0,0,1,Journal my thoughts and reflections at a local coffee shop,Hike trails with my coworkers during a team-building retreat,0.01,0.02,8.8,,,,,1
,,6601a1251731342a7891c4f1,2024-07-04_11h06.54.689,WTP_SM_Choice,2022.2.1,Win32,60.24096386,,,,,,,,,,,,,,,,,,57,,,,,,,,,,0.02,1,1.1288,0,1,1,1,1,Listen to classical music while doing yoga in my living room,Attend live concerts with my best friend on weekends,0.02,0.02,4.4,,,,,1
,,6601a1251731342a7891c4f1,2024-07-04_11h06.54.689,WTP_SM_Choice,2022.2.1,Win32,60.24096386,,,,,,,,,,,,,,,,,,58,,,,,,,,,,0.02,2,1.1635,0,2,2,2,1,Listen to classical music while doing yoga in my living room,Explore new cities with my cousins on annual road trips,0.03,0.02,4.4,,,,,1
,,6601a1251731342a7891c4f1,2024-07-04_11h06.54.689,WTP_SM_Choice,2022.2.1,Win32,60.24096386,,,,,,,,,,,,,,,,,,59,,,,,,,,,,0.02,2,1.0092,0,3,3,3,1,Bake chocolate chip cookies in my kitchen on a quiet Sunday,Visit museums with my classmates during a school field trip,0.04,0.02,4.4,,,,,1
,,6601a1251731342a7891c4f1,2024-07-04_11h06.54.689,WTP_SM_Choice,2022.2.1,Win32,60.24096386,,,,,,,,,,,,,,,,,,60,,,,,,,,,,0.02,2,1.2401,0,4,4,4,1,Journal my thoughts and reflections at a local coffee shop,Participate in book club discussions with fellow book enthusiasts at a local caf,0.05,0.02,1.1,,,,,1
,,6601a1251731342a7891c4f1,2024-07-04_11h06.54.689,WTP_SM_Choice,2022.2.1,Win32,60.24096386,,,,,,,NAN,,NAN,1.29,4.71,,0,59,59,59,1,60,Sam,Rej,Participant_Images/6601a1251731342a7891c4f1/6601a1251731342a7891c4f1_Images/6601a1251731342a7891c4f1_Image_15.jpeg,did not like,1.661473164,,,,,,,,,,,,,,,,,,,,,,
,,6601a1251731342a7891c4f1,2024-07-04_11h06.54.689,WTP_SM_Choice,2022.2.1,Win32,60.24096386,,,,,space,0.489,NAN,,NAN,1.29,4.71,,0,60,60,60,1,61,Sam,Rej,Participant_Images/6601a1251731342a7891c4f1/6601a1251731342a7891c4f1_Images/6601a1251731342a7891c4f1_Image_13.jpeg,liked,3.613205605,,,,,,,,,,,,,,,,,,,,,,
,,6601a1251731342a7891c4f1,2024-07-04_11h06.54.689,WTP_SM_Choice,2022.2.1,Win32,60.24096386,,,,,space,0.6835,NAN,,NAN,1.29,4.71,,0,61,61,61,1,62,Sam,Rej,Participant_Images/6601a1251731342a7891c4f1/6601a1251731342a7891c4f1_Images/6601a1251731342a7891c4f1_Image_24.jpeg,liked,4.988446431,,,,,,,,,,,,,,,,,,,,,,
,,6601a1251731342a7891c4f1,2024-07-04_11h06.54.689,WTP_SM_Choice,2022.2.1,Win32,60.24096386,,,,,space,0.7665,NAN,,NAN,1.29,4.71,,0,62,62,62,1,63,Sam,Rej,Participant_Images/6601a1251731342a7891c4f1/6601a1251731342a7891c4f1_Images/6601a1251731342a7891c4f1_Image_3.jpeg,did not like,3.470791822,,,,,,,,,,,,,,,,,,,,,,
,,6601a1251731342a7891c4f1,2024-07-04_11h06.54.689,WTP_SM_Choice,2022.2.1,Win32,60.24096386,,,,,space,1.4722,NAN,,NAN,1.29,4.71,,0,63,63,63,1,64,Sam,Rej,Participant_Images/6601a1251731342a7891c4f1/6601a1251731342a7891c4f1_Images/6601a1251731342a7891c4f1_Image_4.jpeg,did not like,3.820572462,,,,,,,,,,,,,,,,,,,,,,
,,6601a1251731342a7891c4f1,2024-07-04_11h06.54.689,WTP_SM_Choice,2022.2.1,Win32,60.24096386,,,,,,,,,,,,,,,,,,61,,,,,,space,2.5003,space,0.6851,0.01,1,0.6901,0,0,0,0,1,Watch classic films in my bedroom with fairy lights on,Attend live concerts with my best friend on weekends,0.01,0.03,3.3,,,,,1
,,6601a1251731342a7891c4f1,2024-07-04_11h06.54.689,WTP_SM_Choice,2022.2.1,Win32,60.24096386,,,,,,,,,,,,,,,,,,62,,,,,,,,,,0.02,1,1.113,0,1,1,1,1,Sketch landscapes at a secluded spot by the lake,Watch movies with my family during the holidays,0.02,0.03,3.3,,,,,1
,,6601a1251731342a7891c4f1,2024-07-04_11h06.54.689,WTP_SM_Choice,2022.2.1,Win32,60.24096386,,,,,,,,,,,,,,,,,,63,,,,,,,,,,0.03,1,1.2199,0,2,2,2,1,Read a novel in my cozy armchair by the window on a rainy afternoon,Participate in book club discussions with fellow book enthusiasts at a local caf,0.03,0.03,3.3,,,,,1
,,6601a1251731342a7891c4f1,2024-07-04_11h06.54.689,WTP_SM_Choice,2022.2.1,Win32,60.24096386,,,,,,,,,,,,,,,,,,64,,,,,,,,,,0.03,2,1.0393,0,3,3,3,1,Hike in the forest on a crisp autumn morning,Participate in book club discussions with fellow book enthusiasts at a local caf,0.04,0.03,1.1,,,,,1
,,6601a1251731342a7891c4f1,2024-07-04_11h06.54.689,WTP_SM_Choice,2022.2.1,Win32,60.24096386,,,,,,,,,,,,,,,,,,65,,,,,,,,,,0.03,2,1.074,0,4,4,4,1,Watch classic films in my bedroom with fairy lights on,Explore new cities with my cousins on annual road trips,0.05,0.03,1.1,,,,,1
,,6601a1251731342a7891c4f1,2024-07-04_11h06.54.689,WTP_SM_Choice,2022.2.1,Win32,60.24096386,,,,,,,NAN,,NAN,1.41,4.59,,0,64,64,64,1,65,Sam,Rej,Participant_Images/6601a1251731342a7891c4f1/6601a1251731342a7891c4f1_Images/6601a1251731342a7891c4f1_Image_8.jpeg,liked,2.455989137,,,,,,,,,,,,,,,,,,,,,,
,,6601a1251731342a7891c4f1,2024-07-04_11h06.54.689,WTP_SM_Choice,2022.2.1,Win32,60.24096386,,,,,space,2.0908,NAN,,NAN,1.41,4.59,,0,65,65,65,1,66,Sam,Rej,Participant_Images/6601a1251731342a7891c4f1/6601a1251731342a7891c4f1_Images/6601a1251731342a7891c4f1_Image_21.jpeg,did not like,3.79605092,,,,,,,,,,,,,,,,,,,,,,
,,6601a1251731342a7891c4f1,2024-07-04_11h06.54.689,WTP_SM_Choice,2022.2.1,Win32,60.24096386,,,,,space,0.9337,NAN,,NAN,1.41,4.59,,0,66,66,66,1,67,Sam,Rej,Participant_Images/6601a1251731342a7891c4f1/6601a1251731342a7891c4f1_Images/6601a1251731342a7891c4f1_Image_1.jpeg,liked,3.562416326,,,,,,,,,,,,,,,,,,,,,,
,,6601a1251731342a7891c4f1,2024-07-04_11h06.54.689,WTP_SM_Choice,2022.2.1,Win32,60.24096386,,,,,space,1.0169,NAN,,NAN,1.41,4.59,,0,67,67,67,1,68,Sam,Rej,Participant_Images/6601a1251731342a7891c4f1/6601a1251731342a7891c4f1_Images/6601a1251731342a7891c4f1_Image_17.jpeg,liked,2.843822497,,,,,,,,,,,,,,,,,,,,,,
,,6601a1251731342a7891c4f1,2024-07-04_11h06.54.689,WTP_SM_Choice,2022.2.1,Win32,60.24096386,,,,,space,1.5564,NAN,,NAN,1.41,4.59,,0,68,68,68,1,69,Sam,Rej,Participant_Images/6601a1251731342a7891c4f1/6601a1251731342a7891c4f1_Images/6601a1251731342a7891c4f1_Image_2.jpeg,did not like,3.546495948,,,,,,,,,,,,,,,,,,,,,,
,,6601a1251731342a7891c4f1,2024-07-04_11h06.54.689,WTP_SM_Choice,2022.2.1,Win32,60.24096386,,,,,,,,,,,,,,,,,,66,,,,,,space,1.8493,space,1.2915,0.01,1,0.9432,0,0,0,0,1,Write poetry in my favorite park during the golden hour,Host game nights with my neighbors in my living room,0.01,0.04,1.1,,,,,1
,,6601a1251731342a7891c4f1,2024-07-04_11h06.54.689,WTP_SM_Choice,2022.2.1,Win32,60.24096386,,,,,,,,,,,,,,,,,,67,,,,,,,,,,0.02,1,1.1166,0,1,1,1,1,Write poetry in my favorite park during the golden hour,Visit museums with my classmates during a school field trip,0.02,0.04,8.8,,,,,1
,,6601a1251731342a7891c4f1,2024-07-04_11h06.54.689,WTP_SM_Choice,2022.2.1,Win32,60.24096386,,,,,,,,,,,,,,,,,,68,,,,,,,,,,0.03,1,1.0159,0,2,2,2,1,Listen to classical music while doing yoga in my living room,Watch movies with my family during the holidays,0.03,0.04,4.4,,,,,1
,,6601a1251731342a7891c4f1,2024-07-04_11h06.54.689,WTP_SM_Choice,2022.2.1,Win32,60.24096386,,,,,,,,,,,,,,,,,,69,,,,,,,,,,0.04,1,0.9777,0,3,3,3,1,Hike in the forest on a crisp autumn morning,Play board games with friends at a cozy cabin during a winter weekend,0.04,0.04,1.1,,,,,1
,,6601a1251731342a7891c4f1,2024-07-04_11h06.54.689,WTP_SM_Choice,2022.2.1,Win32,60.24096386,,,,,,,,,,,,,,,,,,70,,,,,,,,,,0.04,2,1.2069,0,4,4,4,1,Read a novel in my cozy armchair by the window on a rainy afternoon,Watch movies with my family during the holidays,0.05,0.04,1.1,,,,,1
,,6601a1251731342a7891c4f1,2024-07-04_11h06.54.689,WTP_SM_Choice,2022.2.1,Win32,60.24096386,,,,,,,NAN,,NAN,1.55,4.45,,0,69,69,69,1,70,Sam,Rej,Participant_Images/6601a1251731342a7891c4f1/6601a1251731342a7891c4f1_Images/6601a1251731342a7891c4f1_Image_18.jpeg,liked,1.672012706,,,,,,,,,,,,,,,,,,,,,,
,,6601a1251731342a7891c4f1,2024-07-04_11h06.54.689,WTP_SM_Choice,2022.2.1,Win32,60.24096386,,,,,space,0.4838,NAN,,NAN,1.55,4.45,,0,70,70,70,1,71,Sam,Rej,Participant_Images/6601a1251731342a7891c4f1/6601a1251731342a7891c4f1_Images/6601a1251731342a7891c4f1_Image_25.jpeg,did not like,4.942172136,,,,,,,,,,,,,,,,,,,,,,
,,6601a1251731342a7891c4f1,2024-07-04_11h06.54.689,WTP_SM_Choice,2022.2.1,Win32,60.24096386,,,,,space,0.6107,NAN,,NAN,1.55,4.45,,0,71,71,71,1,72,Sam,Rej,Participant_Images/6601a1251731342a7891c4f1/6601a1251731342a7891c4f1_Images/6601a1251731342a7891c4f1_Image_7.jpeg,did not like,2.50187214,,,,,,,,,,,,,,,,,,,,,,
,,6601a1251731342a7891c4f1,2024-07-04_11h06.54.689,WTP_SM_Choice,2022.2.1,Win32,60.24096386,,,,,space,0.098,NAN,,NAN,1.55,4.45,,0,72,72,72,1,73,Sam,Rej,Participant_Images/6601a1251731342a7891c4f1/6601a1251731342a7891c4f1_Images/6601a1251731342a7891c4f1_Image_23.jpeg,did not like,2.071164779,,,,,,,,,,,,,,,,,,,,,,
,,6601a1251731342a7891c4f1,2024-07-04_11h06.54.689,WTP_SM_Choice,2022.2.1,Win32,60.24096386,,,,,space,0.1727,NAN,,NAN,1.55,4.45,,0,73,73,73,1,74,Sam,Rej,Participant_Images/6601a1251731342a7891c4f1/6601a1251731342a7891c4f1_Images/6601a1251731342a7891c4f1_Image_12.jpeg,did not like,5.336503566,,,,,,,,,,,,,,,,,,,,,,
,,6601a1251731342a7891c4f1,2024-07-04_11h06.54.689,WTP_SM_Choice,2022.2.1,Win32,60.24096386,,,,,,,,,,,,,,,,,,71,,,,,,space,3.7519,space,0.8038,0.01,1,0.8079,0,0,0,0,1,Meditate in my backyard garden at sunrise,Participate in book club discussions with fellow book enthusiasts at a local caf,0.01,0.05,3.3,,,,,1
,,6601a1251731342a7891c4f1,2024-07-04_11h06.54.689,WTP_SM_Choice,2022.2.1,Win32,60.24096386,,,,,,,,,,,,,,,,,,72,,,,,,,,,,0.02,1,1.0422,0,1,1,1,1,Listen to classical music while doing yoga in my living room,Hike trails with my coworkers during a team-building retreat,0.02,0.05,8.8,,,,,1
,,6601a1251731342a7891c4f1,2024-07-04_11h06.54.689,WTP_SM_Choice,2022.2.1,Win32,60.24096386,,,,,,,,,,,,,,,,,,73,,,,,,,,,,0.03,1,0.9752,0,2,2,2,1,Journal my thoughts and reflections at a local coffee shop,Visit museums with my classmates during a school field trip,0.03,0.05,3.3,,,,,1
,,6601a1251731342a7891c4f1,2024-07-04_11h06.54.689,WTP_SM_Choice,2022.2.1,Win32,60.24096386,,,,,,,,,,,,,,,,,,74,,,,,,,,,,0.04,1,1.0731,0,3,3,3,1,Stargaze in my backyard on a clear summer night,Play board games with friends at a cozy cabin during a winter weekend,0.04,0.05,4.4,,,,,1
,,6601a1251731342a7891c4f1,2024-07-04_11h06.54.689,WTP_SM_Choice,2022.2.1,Win32,60.24096386,,,,,,,,,,,,,,,,,,75,,,,,,,,,,0.05,1,1.1117,0,4,4,4,1,Meditate in my backyard garden at sunrise,Cook a homemade dinner with my partner on a quiet Friday night,0.05,0.05,3.3,,,,,1
,,6601a1251731342a7891c4f1,2024-07-04_11h06.54.689,WTP_SM_Choice,2022.2.1,Win32,60.24096386,,,,,,,2,,5,1.7,4.3,,0,74,74,74,1,75,Sam,Rej,Participant_Images/6601a1251731342a7891c4f1/6601a1251731342a7891c4f1_Images/6601a1251731342a7891c4f1_Image_5.jpeg,liked,2.642157193,,,,,,,,,,,,,,,,,,space,1.1155,,,
,,6601a1251731342a7891c4f1,2024-07-04_11h06.54.689,WTP_SM_Choice,2022.2.1,Win32,60.24096386,,,space,2.6227,space,1.1999,NAN,,NAN,1.7,4.3,,0,75,75,75,1,76,Charlie,Rej,Participant_Images/6601a1251731342a7891c4f1/6601a1251731342a7891c4f1_Images/6601a1251731342a7891c4f1_Image_4.jpeg,did not like,4.456234322,,,,,,,,,,,,,,,,,,,,,,
,,6601a1251731342a7891c4f1,2024-07-04_11h06.54.689,WTP_SM_Choice,2022.2.1,Win32,60.24096386,,,,,space,1.2773,NAN,,NAN,1.7,4.3,,0,76,76,76,1,77,Charlie,Rej,Participant_Images/6601a1251731342a7891c4f1/6601a1251731342a7891c4f1_Images/6601a1251731342a7891c4f1_Image_11.jpeg,did not like,4.438512181,,,,,,,,,,,,,,,,,,,,,,
,,6601a1251731342a7891c4f1,2024-07-04_11h06.54.689,WTP_SM_Choice,2022.2.1,Win32,60.24096386,,,,,space,0.6778,NAN,,NAN,1.7,4.3,,0,77,77,77,1,78,Charlie,Rej,Participant_Images/6601a1251731342a7891c4f1/6601a1251731342a7891c4f1_Images/6601a1251731342a7891c4f1_Image_21.jpeg,did not like,2.682944783,,,,,,,,,,,,,,,,,,,,,,
,,6601a1251731342a7891c4f1,2024-07-04_11h06.54.689,WTP_SM_Choice,2022.2.1,Win32,60.24096386,,,,,space,0.3501,NAN,,NAN,1.7,4.3,,0,78,78,78,1,79,Charlie,Rej,Participant_Images/6601a1251731342a7891c4f1/6601a1251731342a7891c4f1_Images/6601a1251731342a7891c4f1_Image_1.jpeg,did not like,4.51984296,,,,,,,,,,,,,,,,,,,,,,
,,6601a1251731342a7891c4f1,2024-07-04_11h06.54.689,WTP_SM_Choice,2022.2.1,Win32,60.24096386,,,,,,,,,,,,,,,,,,76,,,,,,space,2.8031,space,0.8332,0.01,1,0.6714,0,0,0,0,1,Sketch landscapes at a secluded spot by the lake,Participate in book club discussions with fellow book enthusiasts at a local caf,0.01,0.01,1.1,,,,,1
,,6601a1251731342a7891c4f1,2024-07-04_11h06.54.689,WTP_SM_Choice,2022.2.1,Win32,60.24096386,,,,,,,,,,,,,,,,,,77,,,,,,,,,,0.01,2,1.0742,0,1,1,1,1,Stargaze in my backyard on a clear summer night,Cook a homemade dinner with my partner on a quiet Friday night,0.02,0.01,8.8,,,,,1
,,6601a1251731342a7891c4f1,2024-07-04_11h06.54.689,WTP_SM_Choice,2022.2.1,Win32,60.24096386,,,,,,,,,,,,,,,,,,78,,,,,,,,,,0.01,2,1.1913,0,2,2,2,1,Hike in the forest on a crisp autumn morning,Host game nights with my neighbors in my living room,0.03,0.01,1.1,,,,,1
,,6601a1251731342a7891c4f1,2024-07-04_11h06.54.689,WTP_SM_Choice,2022.2.1,Win32,60.24096386,,,,,,,,,,,,,,,,,,79,,,,,,,,,,0.01,2,0.9818,0,3,3,3,1,Journal my thoughts and reflections at a local coffee shop,Cook a homemade dinner with my partner on a quiet Friday night,0.04,0.01,1.1,,,,,1
,,6601a1251731342a7891c4f1,2024-07-04_11h06.54.689,WTP_SM_Choice,2022.2.1,Win32,60.24096386,,,,,,,,,,,,,,,,,,80,,,,,,,,,,0.01,2,1.0178,0,4,4,4,1,Stargaze in my backyard on a clear summer night,Participate in book club discussions with fellow book enthusiasts at a local caf,0.05,0.01,4.4,,,,,1
,,6601a1251731342a7891c4f1,2024-07-04_11h06.54.689,WTP_SM_Choice,2022.2.1,Win32,60.24096386,,,,,,,NAN,,NAN,1.75,4.25,,0,79,79,79,1,80,Charlie,Rej,Participant_Images/6601a1251731342a7891c4f1/6601a1251731342a7891c4f1_Images/6601a1251731342a7891c4f1_Image_7.jpeg,liked,3.195382774,,,,,,,,,,,,,,,,,,,,,,
,,6601a1251731342a7891c4f1,2024-07-04_11h06.54.689,WTP_SM_Choice,2022.2.1,Win32,60.24096386,,,,,space,0.084,NAN,,NAN,1.75,4.25,,0,80,80,80,1,81,Charlie,Rej,Participant_Images/6601a1251731342a7891c4f1/6601a1251731342a7891c4f1_Images/6601a1251731342a7891c4f1_Image_17.jpeg,did not like,1.779333479,,,,,,,,,,,,,,,,,,,,,,
,,6601a1251731342a7891c4f1,2024-07-04_11h06.54.689,WTP_SM_Choice,2022.2.1,Win32,60.24096386,,,,,space,0.953,NAN,,NAN,1.75,4.25,,0,81,81,81,1,82,Charlie,Rej,Participant_Images/6601a1251731342a7891c4f1/6601a1251731342a7891c4f1_Images/6601a1251731342a7891c4f1_Image_25.jpeg,did not like,4.312468682,,,,,,,,,,,,,,,,,,,,,,
,,6601a1251731342a7891c4f1,2024-07-04_11h06.54.689,WTP_SM_Choice,2022.2.1,Win32,60.24096386,,,,,space,3.4769,NAN,,NAN,1.75,4.25,,0,82,82,82,1,83,Charlie,Rej,Participant_Images/6601a1251731342a7891c4f1/6601a1251731342a7891c4f1_Images/6601a1251731342a7891c4f1_Image_6.jpeg,liked,4.940433059,,,,,,,,,,,,,,,,,,,,,,
,,6601a1251731342a7891c4f1,2024-07-04_11h06.54.689,WTP_SM_Choice,2022.2.1,Win32,60.24096386,,,,,space,5.3692,NAN,,NAN,1.75,4.25,,0,83,83,83,1,84,Charlie,Rej,Participant_Images/6601a1251731342a7891c4f1/6601a1251731342a7891c4f1_Images/6601a1251731342a7891c4f1_Image_16.jpeg,did not like,2.7105123,,,,,,,,,,,,,,,,,,,,,,
,,6601a1251731342a7891c4f1,2024-07-04_11h06.54.689,WTP_SM_Choice,2022.2.1,Win32,60.24096386,,,,,,,,,,,,,,,,,,81,,,,,,space,22.0598,space,0.7995,0.01,1,0.923,0,0,0,0,1,Watch classic films in my bedroom with fairy lights on,Visit museums with my classmates during a school field trip,0.01,0.02,3.3,,,,,1
,,6601a1251731342a7891c4f1,2024-07-04_11h06.54.689,WTP_SM_Choice,2022.2.1,Win32,60.24096386,,,,,,,,,,,,,,,,,,82,,,,,,,,,,0.02,1,1.2774,0,1,1,1,1,Hike in the forest on a crisp autumn morning,Explore new cities with my cousins on annual road trips,0.02,0.02,4.4,,,,,1
,,6601a1251731342a7891c4f1,2024-07-04_11h06.54.689,WTP_SM_Choice,2022.2.1,Win32,60.24096386,,,,,,,,,,,,,,,,,,83,,,,,,,,,,0.02,2,1.7407,0,2,2,2,1,Read a novel in my cozy armchair by the window on a rainy afternoon,Attend live concerts with my best friend on weekends,0.03,0.02,1.1,,,,,1
,,6601a1251731342a7891c4f1,2024-07-04_11h06.54.689,WTP_SM_Choice,2022.2.1,Win32,60.24096386,,,,,,,,,,,,,,,,,,84,,,,,,,,,,0.02,2,0.9776,0,3,3,3,1,Write poetry in my favorite park during the golden hour,Attend live concerts with my best friend on weekends,0.04,0.02,3.3,,,,,1
,,6601a1251731342a7891c4f1,2024-07-04_11h06.54.689,WTP_SM_Choice,2022.2.1,Win32,60.24096386,,,,,,,,,,,,,,,,,,85,,,,,,,,,,0.02,2,1.133,0,4,4,4,1,Bake chocolate chip cookies in my kitchen on a quiet Sunday,Go on beach picnics with my siblings on sunny summer days,0.05,0.02,3.3,,,,,1
,,6601a1251731342a7891c4f1,2024-07-04_11h06.54.689,WTP_SM_Choice,2022.2.1,Win32,60.24096386,,,,,,,NAN,,NAN,1.84,4.16,,0,84,84,84,1,85,Charlie,Rej,Participant_Images/6601a1251731342a7891c4f1/6601a1251731342a7891c4f1_Images/6601a1251731342a7891c4f1_Image_14.jpeg,did not like,3.602308302,,,,,,,,,,,,,,,,,,,,,,
,,6601a1251731342a7891c4f1,2024-07-04_11h06.54.689,WTP_SM_Choice,2022.2.1,Win32,60.24096386,,,,,space,0.3221,NAN,,NAN,1.84,4.16,,0,85,85,85,1,86,Charlie,Rej,Participant_Images/6601a1251731342a7891c4f1/6601a1251731342a7891c4f1_Images/6601a1251731342a7891c4f1_Image_2.jpeg,liked,4.106391878,,,,,,,,,,,,,,,,,,,,,,
,,6601a1251731342a7891c4f1,2024-07-04_11h06.54.689,WTP_SM_Choice,2022.2.1,Win32,60.24096386,,,,,space,0.4847,NAN,,NAN,1.84,4.16,,0,86,86,86,1,87,Charlie,Rej,Participant_Images/6601a1251731342a7891c4f1/6601a1251731342a7891c4f1_Images/6601a1251731342a7891c4f1_Image_10.jpeg,liked,3.799433026,,,,,,,,,,,,,,,,,,,,,,
,,6601a1251731342a7891c4f1,2024-07-04_11h06.54.689,WTP_SM_Choice,2022.2.1,Win32,60.24096386,,,,,space,11.9427,NAN,,NAN,1.84,4.16,,0,87,87,87,1,88,Charlie,Rej,Participant_Images/6601a1251731342a7891c4f1/6601a1251731342a7891c4f1_Images/6601a1251731342a7891c4f1_Image_9.jpeg,did not like,5.246980764,,,,,,,,,,,,,,,,,,,,,,
,,6601a1251731342a7891c4f1,2024-07-04_11h06.54.689,WTP_SM_Choice,2022.2.1,Win32,60.24096386,,,,,space,8.9973,NAN,,NAN,1.84,4.16,,0,88,88,88,1,89,Charlie,Rej,Participant_Images/6601a1251731342a7891c4f1/6601a1251731342a7891c4f1_Images/6601a1251731342a7891c4f1_Image_15.jpeg,did not like,3.30081769,,,,,,,,,,,,,,,,,,,,,,
,,6601a1251731342a7891c4f1,2024-07-04_11h06.54.689,WTP_SM_Choice,2022.2.1,Win32,60.24096386,,,,,,,,,,,,,,,,,,86,,,,,,space,39.914,space,0.1337,0.01,1,1.1086,0,0,0,0,1,Sketch landscapes at a secluded spot by the lake,Visit museums with my classmates during a school field trip,0.01,0.03,1.1,,,,,1
,,6601a1251731342a7891c4f1,2024-07-04_11h06.54.689,WTP_SM_Choice,2022.2.1,Win32,60.24096386,,,,,,,,,,,,,,,,,,87,,,,,,,,,,0.02,1,1.7555,0,1,1,1,1,Stargaze in my backyard on a clear summer night,Explore new cities with my cousins on annual road trips,0.02,0.03,4.4,,,,,1
,,6601a1251731342a7891c4f1,2024-07-04_11h06.54.689,WTP_SM_Choice,2022.2.1,Win32,60.24096386,,,,,,,,,,,,,,,,,,88,,,,,,,,,,0.03,1,1.1593,0,2,2,2,1,Read a novel in my cozy armchair by the window on a rainy afternoon,Host game nights with my neighbors in my living room,0.03,0.03,1.1,,,,,1
,,6601a1251731342a7891c4f1,2024-07-04_11h06.54.689,WTP_SM_Choice,2022.2.1,Win32,60.24096386,,,,,,,,,,,,,,,,,,89,,,,,,,,,,0.03,2,1.472,0,3,3,3,1,Read a novel in my cozy armchair by the window on a rainy afternoon,Explore new cities with my cousins on annual road trips,0.04,0.03,3.3,,,,,1
,,6601a1251731342a7891c4f1,2024-07-04_11h06.54.689,WTP_SM_Choice,2022.2.1,Win32,60.24096386,,,,,,,,,,,,,,,,,,90,,,,,,,,,,0.03,2,1.5574,0,4,4,4,1,Sketch landscapes at a secluded spot by the lake,Play board games with friends at a cozy cabin during a winter weekend,0.05,0.03,8.8,,,,,1
,,6601a1251731342a7891c4f1,2024-07-04_11h06.54.689,WTP_SM_Choice,2022.2.1,Win32,60.24096386,,,,,,,NAN,,NAN,1.96,4.04,,0,89,89,89,1,90,Charlie,Rej,Participant_Images/6601a1251731342a7891c4f1/6601a1251731342a7891c4f1_Images/6601a1251731342a7891c4f1_Image_18.jpeg,did not like,1.661473164,,,,,,,,,,,,,,,,,,,,,,
,,6601a1251731342a7891c4f1,2024-07-04_11h06.54.689,WTP_SM_Choice,2022.2.1,Win32,60.24096386,,,,,space,0.0007,NAN,,NAN,1.96,4.04,,0,90,90,90,1,91,Charlie,Rej,Participant_Images/6601a1251731342a7891c4f1/6601a1251731342a7891c4f1_Images/6601a1251731342a7891c4f1_Image_19.jpeg,did not like,3.613205605,,,,,,,,,,,,,,,,,,,,,,
,,6601a1251731342a7891c4f1,2024-07-04_11h06.54.689,WTP_SM_Choice,2022.2.1,Win32,60.24096386,,,,,space,0.5446,NAN,,NAN,1.96,4.04,,0,91,91,91,1,92,Charlie,Rej,Participant_Images/6601a1251731342a7891c4f1/6601a1251731342a7891c4f1_Images/6601a1251731342a7891c4f1_Image_23.jpeg,did not like,4.988446431,,,,,,,,,,,,,,,,,,,,,,
,,6601a1251731342a7891c4f1,2024-07-04_11h06.54.689,WTP_SM_Choice,2022.2.1,Win32,60.24096386,,,,,space,0.2341,NAN,,NAN,1.96,4.04,,0,92,92,92,1,93,Charlie,Rej,Participant_Images/6601a1251731342a7891c4f1/6601a1251731342a7891c4f1_Images/6601a1251731342a7891c4f1_Image_3.jpeg,liked,3.470791822,,,,,,,,,,,,,,,,,,,,,,
,,6601a1251731342a7891c4f1,2024-07-04_11h06.54.689,WTP_SM_Choice,2022.2.1,Win32,60.24096386,,,,,space,1.75,NAN,,NAN,1.96,4.04,,0,93,93,93,1,94,Charlie,Rej,Participant_Images/6601a1251731342a7891c4f1/6601a1251731342a7891c4f1_Images/6601a1251731342a7891c4f1_Image_12.jpeg,liked,3.820572462,,,,,,,,,,,,,,,,,,,,,,
,,6601a1251731342a7891c4f1,2024-07-04_11h06.54.689,WTP_SM_Choice,2022.2.1,Win32,60.24096386,,,,,,,,,,,,,,,,,,91,,,,,,space,7.0785,space,2.2716,0.01,1,0.7476,0,0,0,0,1,Bake chocolate chip cookies in my kitchen on a quiet Sunday,Cook a homemade dinner with my partner on a quiet Friday night,0.01,0.04,3.3,,,,,1
,,6601a1251731342a7891c4f1,2024-07-04_11h06.54.689,WTP_SM_Choice,2022.2.1,Win32,60.24096386,,,,,,,,,,,,,,,,,,92,,,,,,,,,,0.02,1,1.0494,0,1,1,1,1,Sketch landscapes at a secluded spot by the lake,Attend live concerts with my best friend on weekends,0.02,0.04,8.8,,,,,1
,,6601a1251731342a7891c4f1,2024-07-04_11h06.54.689,WTP_SM_Choice,2022.2.1,Win32,60.24096386,,,,,,,,,,,,,,,,,,93,,,,,,,,,,0.03,1,1.0319,0,2,2,2,1,Meditate in my backyard garden at sunrise,Hike trails with my coworkers during a team-building retreat,0.03,0.04,1.1,,,,,1
,,6601a1251731342a7891c4f1,2024-07-04_11h06.54.689,WTP_SM_Choice,2022.2.1,Win32,60.24096386,,,,,,,,,,,,,,,,,,94,,,,,,,,,,0.04,1,1.0518,0,3,3,3,1,Stargaze in my backyard on a clear summer night,Watch movies with my family during the holidays,0.04,0.04,4.4,,,,,1
,,6601a1251731342a7891c4f1,2024-07-04_11h06.54.689,WTP_SM_Choice,2022.2.1,Win32,60.24096386,,,,,,,,,,,,,,,,,,95,,,,,,,,,,0.04,2,1.0904,0,4,4,4,1,Bake chocolate chip cookies in my kitchen on a quiet Sunday,Explore new cities with my cousins on annual road trips,0.05,0.04,4.4,,,,,1
,,6601a1251731342a7891c4f1,2024-07-04_11h06.54.689,WTP_SM_Choice,2022.2.1,Win32,60.24096386,,,,,,,NAN,,NAN,2.1,3.9,,0,94,94,94,1,95,Charlie,Rej,Participant_Images/6601a1251731342a7891c4f1/6601a1251731342a7891c4f1_Images/6601a1251731342a7891c4f1_Image_22.jpeg,did not like,2.455989137,,,,,,,,,,,,,,,,,,,,,,
,,6601a1251731342a7891c4f1,2024-07-04_11h06.54.689,WTP_SM_Choice,2022.2.1,Win32,60.24096386,,,,,space,1.7016,NAN,,NAN,2.1,3.9,,0,95,95,95,1,96,Charlie,Rej,Participant_Images/6601a1251731342a7891c4f1/6601a1251731342a7891c4f1_Images/6601a1251731342a7891c4f1_Image_8.jpeg,did not like,3.79605092,,,,,,,,,,,,,,,,,,,,,,
,,6601a1251731342a7891c4f1,2024-07-04_11h06.54.689,WTP_SM_Choice,2022.2.1,Win32,60.24096386,,,,,space,2.1774,NAN,,NAN,2.1,3.9,,0,96,96,96,1,97,Charlie,Rej,Participant_Images/6601a1251731342a7891c4f1/6601a1251731342a7891c4f1_Images/6601a1251731342a7891c4f1_Image_13.jpeg,did not like,3.562416326,,,,,,,,,,,,,,,,,,,,,,
,,6601a1251731342a7891c4f1,2024-07-04_11h06.54.689,WTP_SM_Choice,2022.2.1,Win32,60.24096386,,,,,space,0.9501,NAN,,NAN,2.1,3.9,,0,97,97,97,1,98,Charlie,Rej,Participant_Images/6601a1251731342a7891c4f1/6601a1251731342a7891c4f1_Images/6601a1251731342a7891c4f1_Image_5.jpeg,did not like,2.843822497,,,,,,,,,,,,,,,,,,,,,,
,,6601a1251731342a7891c4f1,2024-07-04_11h06.54.689,WTP_SM_Choice,2022.2.1,Win32,60.24096386,,,,,space,0.5777,NAN,,NAN,2.1,3.9,,0,98,98,98,1,99,Charlie,Rej,Participant_Images/6601a1251731342a7891c4f1/6601a1251731342a7891c4f1_Images/6601a1251731342a7891c4f1_Image_20.jpeg,did not like,3.546495948,,,,,,,,,,,,,,,,,,,,,,
,,6601a1251731342a7891c4f1,2024-07-04_11h06.54.689,WTP_SM_Choice,2022.2.1,Win32,60.24096386,,,,,,,,,,,,,,,,,,96,,,,,,space,5.348,space,0.721,0.01,1,0.7099,0,0,0,0,1,Listen to classical music while doing yoga in my living room,Go on beach picnics with my siblings on sunny summer days,0.01,0.05,3.3,,,,,1
,,6601a1251731342a7891c4f1,2024-07-04_11h06.54.689,WTP_SM_Choice,2022.2.1,Win32,60.24096386,,,,,,,,,,,,,,,,,,97,,,,,,,,,,0.02,1,0.9762,0,1,1,1,1,Bake chocolate chip cookies in my kitchen on a quiet Sunday,Attend live concerts with my best friend on weekends,0.02,0.05,1.1,,,,,1
,,6601a1251731342a7891c4f1,2024-07-04_11h06.54.689,WTP_SM_Choice,2022.2.1,Win32,60.24096386,,,,,,,,,,,,,,,,,,98,,,,,,,,,,0.03,1,0.9888,0,2,2,2,1,Write poetry in my favorite park during the golden hour,Participate in book club discussions with fellow book enthusiasts at a local caf,0.03,0.05,1.1,,,,,1
,,6601a1251731342a7891c4f1,2024-07-04_11h06.54.689,WTP_SM_Choice,2022.2.1,Win32,60.24096386,,,,,,,,,,,,,,,,,,99,,,,,,,,,,0.04,1,0.99,0,3,3,3,1,Hike in the forest on a crisp autumn morning,Visit museums with my classmates during a school field trip,0.04,0.05,3.3,,,,,1
,,6601a1251731342a7891c4f1,2024-07-04_11h06.54.689,WTP_SM_Choice,2022.2.1,Win32,60.24096386,,,,,,,,,,,,,,,,,,100,,,,,,,,,,0.05,1,0.9924,0,4,4,4,1,Bake chocolate chip cookies in my kitchen on a quiet Sunday,Participate in book club discussions with fellow book enthusiasts at a local caf,0.05,0.05,4.4,,,,,1
,,6601a1251731342a7891c4f1,2024-07-04_11h06.54.689,WTP_SM_Choice,2022.2.1,Win32,60.24096386,,,,,,,2,,5,2.25,3.75,,0,99,99,99,1,100,Charlie,Rej,Participant_Images/6601a1251731342a7891c4f1/6601a1251731342a7891c4f1_Images/6601a1251731342a7891c4f1_Image_24.jpeg,liked,1.672012706,,,,,,,,,,,,,,,,,,space,0.7536,,,
,,6601a1251731342a7891c4f1,2024-07-04_11h06.54.689,WTP_SM_Choice,2022.2.1,Win32,60.24096386,,,,,,,,,,,,,,,,,,,,,,,,,,,,,,,,,,,,,,,,,,,space,4.114,