endwelcomescreen_keys.keys,endwelcomescreen_keys.rt,participant,date,expName,psychopyVersion,OS,frameRate,endinstructionscreen_keys.keys,endinstructionscreen_keys.rt,endpartnermatch_keys.keys,endpartnermatch_keys.rt,sharenextphoto_key.keys,sharenextphoto_key.rt,salience_rating,key_resp.keys,stress_level,subtract_bonus,TOTAL_TASK_BONUS,stresslevel_keypress.keys,entiretaskloop.thisRepN,entiretaskloop.thisTrialN,entiretaskloop.thisN,entiretaskloop.thisIndex,entiretaskloop.ran,TrialNumber,Partner,Condition,Photos,Feedback,FeedbackWait,WTP_ins_keys1.keys,WTP_ins_keys1.rt,WTP_ins_keys2.keys,WTP_ins_keys2.rt,decision_price,responses.keys,responses.rt,WTPTaskLoop.thisRepN,WTPTaskLoop.thisTrialN,WTPTaskLoop.thisN,WTPTaskLoop.thisIndex,WTPTaskLoop.ran,right,left,leftmoney,rightmoney,WTP_ITI,Resume_keys.keys,Resume_keys.rt,key_resp.rt
space,1.5688,660482648009855d3c92ce84,2024-04-13_09h30.17.105,WTP_SM_Choice,2022.2.1,Win32,166.6666667,,,,,,,,,,,,,,,,,,,,,,,,,,,,,,,,,,,,,,,,,,,
,,660482648009855d3c92ce84,2024-04-13_09h30.17.105,WTP_SM_Choice,2022.2.1,Win32,166.6666667,space,5.0673,,,,,,,,,,,,,,,,,,,,,,,,,,,,,,,,,,,,,,,,,
,,660482648009855d3c92ce84,2024-04-13_09h30.17.105,WTP_SM_Choice,2022.2.1,Win32,166.6666667,,,space,2.155,space,0.9931,NAN,,NAN,0,6,,0,0,0,0,1,1,Alex,Acc,Participant_Images/660482648009855d3c92ce84/660482648009855d3c92ce84_Images/660482648009855d3c92ce84_Image_8.jpeg,liked,3.613205605,,,,,,,,,,,,,,,,,,,,
,,660482648009855d3c92ce84,2024-04-13_09h30.17.105,WTP_SM_Choice,2022.2.1,Win32,166.6666667,,,,,space,1.1722,NAN,,NAN,0,6,,0,1,1,1,1,2,Alex,Acc,Participant_Images/660482648009855d3c92ce84/660482648009855d3c92ce84_Images/660482648009855d3c92ce84_Image_2.jpeg,liked,4.988446431,,,,,,,,,,,,,,,,,,,,
,,660482648009855d3c92ce84,2024-04-13_09h30.17.105,WTP_SM_Choice,2022.2.1,Win32,166.6666667,,,,,space,0.9186,NAN,,NAN,0,6,,0,2,2,2,1,3,Alex,Acc,Participant_Images/660482648009855d3c92ce84/660482648009855d3c92ce84_Images/660482648009855d3c92ce84_Image_4.jpeg,liked,3.470791822,,,,,,,,,,,,,,,,,,,,
,,660482648009855d3c92ce84,2024-04-13_09h30.17.105,WTP_SM_Choice,2022.2.1,Win32,166.6666667,,,,,space,0.8399,NAN,,NAN,0,6,,0,3,3,3,1,4,Alex,Acc,Participant_Images/660482648009855d3c92ce84/660482648009855d3c92ce84_Images/660482648009855d3c92ce84_Image_16.jpeg,did not like,3.820572462,,,,,,,,,,,,,,,,,,,,
,,660482648009855d3c92ce84,2024-04-13_09h30.17.105,WTP_SM_Choice,2022.2.1,Win32,166.6666667,,,,,,,,,,,,,,,,,,1,,,,,,space,15.5178,space,3.6791,0.01,1,2.4902,0,0,0,0,1,Watching movies,Playing DND,0.01,0.01,4.4,,,
,,660482648009855d3c92ce84,2024-04-13_09h30.17.105,WTP_SM_Choice,2022.2.1,Win32,166.6666667,,,,,,,,,,,,,,,,,,2,,,,,,,,,,0.02,1,1.8528,0,1,1,1,1,Playing video games,Playing DND,0.02,0.01,8.8,,,
,,660482648009855d3c92ce84,2024-04-13_09h30.17.105,WTP_SM_Choice,2022.2.1,Win32,166.6666667,,,,,,,,,,,,,,,,,,3,,,,,,,,,,0.03,1,3.9789,0,2,2,2,1,Watching movies,Watching movies at the movie theater,0.03,0.01,3.3,,,
,,660482648009855d3c92ce84,2024-04-13_09h30.17.105,WTP_SM_Choice,2022.2.1,Win32,166.6666667,,,,,,,,,,,,,,,,,,4,,,,,,,,,,0.04,1,1.8304,0,3,3,3,1,Swimming,Watching movies at the movie theater,0.04,0.01,1.1,,,
,,660482648009855d3c92ce84,2024-04-13_09h30.17.105,WTP_SM_Choice,2022.2.1,Win32,166.6666667,,,,,,,,,,,,,,,,,,5,,,,,,,,,,0.01,2,1.8193,0,4,4,4,1,Watching movies,Going to pizza places or other mass gathering areas,0.05,0.01,1.1,,,
,,660482648009855d3c92ce84,2024-04-13_09h30.17.105,WTP_SM_Choice,2022.2.1,Win32,166.6666667,,,,,,,NAN,,NAN,0.11,5.89,,0,4,4,4,1,5,Alex,Acc,Participant_Images/660482648009855d3c92ce84/660482648009855d3c92ce84_Images/660482648009855d3c92ce84_Image_3.jpeg,liked,2.455989137,,,,,,,,,,,,,,,,,,,,
,,660482648009855d3c92ce84,2024-04-13_09h30.17.105,WTP_SM_Choice,2022.2.1,Win32,166.6666667,,,,,space,1.3885,NAN,,NAN,0.11,5.89,,0,5,5,5,1,6,Alex,Acc,Participant_Images/660482648009855d3c92ce84/660482648009855d3c92ce84_Images/660482648009855d3c92ce84_Image_19.jpeg,liked,3.79605092,,,,,,,,,,,,,,,,,,,,
,,660482648009855d3c92ce84,2024-04-13_09h30.17.105,WTP_SM_Choice,2022.2.1,Win32,166.6666667,,,,,space,1.3309,NAN,,NAN,0.11,5.89,,0,6,6,6,1,7,Alex,Acc,Participant_Images/660482648009855d3c92ce84/660482648009855d3c92ce84_Images/660482648009855d3c92ce84_Image_25.jpeg,liked,3.562416326,,,,,,,,,,,,,,,,,,,,
,,660482648009855d3c92ce84,2024-04-13_09h30.17.105,WTP_SM_Choice,2022.2.1,Win32,166.6666667,,,,,space,0.8179,NAN,,NAN,0.11,5.89,,0,7,7,7,1,8,Alex,Acc,Participant_Images/660482648009855d3c92ce84/660482648009855d3c92ce84_Images/660482648009855d3c92ce84_Image_14.jpeg,liked,2.843822497,,,,,,,,,,,,,,,,,,,,
,,660482648009855d3c92ce84,2024-04-13_09h30.17.105,WTP_SM_Choice,2022.2.1,Win32,166.6666667,,,,,space,1.0183,NAN,,NAN,0.11,5.89,,0,8,8,8,1,9,Alex,Acc,Participant_Images/660482648009855d3c92ce84/660482648009855d3c92ce84_Images/660482648009855d3c92ce84_Image_7.jpeg,liked,3.546495948,,,,,,,,,,,,,,,,,,,,
,,660482648009855d3c92ce84,2024-04-13_09h30.17.105,WTP_SM_Choice,2022.2.1,Win32,166.6666667,,,,,,,,,,,,,,,,,,6,,,,,,space,5.4439,space,3.6062,0.01,1,5.3442,0,0,0,0,1,Sleeping,Going to pizza places or other mass gathering areas,0.01,0.02,3.3,,,
,,660482648009855d3c92ce84,2024-04-13_09h30.17.105,WTP_SM_Choice,2022.2.1,Win32,166.6666667,,,,,,,,,,,,,,,,,,7,,,,,,,,,,0.02,2,1.5229,0,1,1,1,1,Playing video games,Playing Baldurs gate board game,0.02,0.02,1.1,,,
,,660482648009855d3c92ce84,2024-04-13_09h30.17.105,WTP_SM_Choice,2022.2.1,Win32,166.6666667,,,,,,,,,,,,,,,,,,8,,,,,,,,,,0.02,2,1.7438,0,2,2,2,1,Playing video games,Watching movies at the movie theater,0.03,0.02,1.1,,,
,,660482648009855d3c92ce84,2024-04-13_09h30.17.105,WTP_SM_Choice,2022.2.1,Win32,166.6666667,,,,,,,,,,,,,,,,,,9,,,,,,,,,,0.04,1,0.8995,0,3,3,3,1,Playing with dogs,Playing DND,0.04,0.02,4.4,,,
,,660482648009855d3c92ce84,2024-04-13_09h30.17.105,WTP_SM_Choice,2022.2.1,Win32,166.6666667,,,,,,,,,,,,,,,,,,10,,,,,,,,,,0.02,2,4.1278,0,4,4,4,1,Working on a craft project like chainmail,Playing Magic the gathering,0.05,0.02,1.1,,,
,,660482648009855d3c92ce84,2024-04-13_09h30.17.105,WTP_SM_Choice,2022.2.1,Win32,166.6666667,,,,,,,NAN,,NAN,0.22,5.78,,0,9,9,9,1,10,Alex,Acc,Participant_Images/660482648009855d3c92ce84/660482648009855d3c92ce84_Images/660482648009855d3c92ce84_Image_9.jpeg,did not like,1.672012706,,,,,,,,,,,,,,,,,,,,
,,660482648009855d3c92ce84,2024-04-13_09h30.17.105,WTP_SM_Choice,2022.2.1,Win32,166.6666667,,,,,space,0.8804,NAN,,NAN,0.22,5.78,,0,10,10,10,1,11,Alex,Acc,Participant_Images/660482648009855d3c92ce84/660482648009855d3c92ce84_Images/660482648009855d3c92ce84_Image_6.jpeg,liked,4.942172136,,,,,,,,,,,,,,,,,,,,
,,660482648009855d3c92ce84,2024-04-13_09h30.17.105,WTP_SM_Choice,2022.2.1,Win32,166.6666667,,,,,space,0.3157,NAN,,NAN,0.22,5.78,,0,11,11,11,1,12,Alex,Acc,Participant_Images/660482648009855d3c92ce84/660482648009855d3c92ce84_Images/660482648009855d3c92ce84_Image_12.jpeg,liked,2.50187214,,,,,,,,,,,,,,,,,,,,
,,660482648009855d3c92ce84,2024-04-13_09h30.17.105,WTP_SM_Choice,2022.2.1,Win32,166.6666667,,,,,space,0.9219,NAN,,NAN,0.22,5.78,,0,12,12,12,1,13,Alex,Acc,Participant_Images/660482648009855d3c92ce84/660482648009855d3c92ce84_Images/660482648009855d3c92ce84_Image_22.jpeg,did not like,2.071164779,,,,,,,,,,,,,,,,,,,,
,,660482648009855d3c92ce84,2024-04-13_09h30.17.105,WTP_SM_Choice,2022.2.1,Win32,166.6666667,,,,,space,0.7878,NAN,,NAN,0.22,5.78,,0,13,13,13,1,14,Alex,Acc,Participant_Images/660482648009855d3c92ce84/660482648009855d3c92ce84_Images/660482648009855d3c92ce84_Image_24.jpeg,liked,5.336503566,,,,,,,,,,,,,,,,,,,,
,,660482648009855d3c92ce84,2024-04-13_09h30.17.105,WTP_SM_Choice,2022.2.1,Win32,166.6666667,,,,,,,,,,,,,,,,,,11,,,,,,space,19.1455,space,1.4502,0.01,1,3.1412,0,0,0,0,1,Eating fancier foods,Playing Magic the gathering,0.01,0.03,3.3,,,
,,660482648009855d3c92ce84,2024-04-13_09h30.17.105,WTP_SM_Choice,2022.2.1,Win32,166.6666667,,,,,,,,,,,,,,,,,,12,,,,,,,,,,0.02,1,2.0242,0,1,1,1,1,Working on prolific,Playing Magic the gathering,0.02,0.03,4.4,,,
,,660482648009855d3c92ce84,2024-04-13_09h30.17.105,WTP_SM_Choice,2022.2.1,Win32,166.6666667,,,,,,,,,,,,,,,,,,13,,,,,,,,,,0.03,1,2.5064,0,2,2,2,1,Eating fancier foods,Having parties,0.03,0.03,1.1,,,
,,660482648009855d3c92ce84,2024-04-13_09h30.17.105,WTP_SM_Choice,2022.2.1,Win32,166.6666667,,,,,,,,,,,,,,,,,,14,,,,,,,,,,0.03,2,3.5037,0,3,3,3,1,Eating fancier foods,Playing competitive video games,0.04,0.03,3.3,,,
,,660482648009855d3c92ce84,2024-04-13_09h30.17.105,WTP_SM_Choice,2022.2.1,Win32,166.6666667,,,,,,,,,,,,,,,,,,15,,,,,,,,,,0.05,1,2.014,0,4,4,4,1,Playing with dogs,Having parties,0.05,0.03,4.4,,,
,,660482648009855d3c92ce84,2024-04-13_09h30.17.105,WTP_SM_Choice,2022.2.1,Win32,166.6666667,,,,,,,NAN,,NAN,0.36,5.64,,0,14,14,14,1,15,Alex,Acc,Participant_Images/660482648009855d3c92ce84/660482648009855d3c92ce84_Images/660482648009855d3c92ce84_Image_15.jpeg,did not like,2.642157193,,,,,,,,,,,,,,,,,,,,
,,660482648009855d3c92ce84,2024-04-13_09h30.17.105,WTP_SM_Choice,2022.2.1,Win32,166.6666667,,,,,space,0.5154,NAN,,NAN,0.36,5.64,,0,15,15,15,1,16,Alex,Acc,Participant_Images/660482648009855d3c92ce84/660482648009855d3c92ce84_Images/660482648009855d3c92ce84_Image_20.jpeg,liked,4.456234322,,,,,,,,,,,,,,,,,,,,
,,660482648009855d3c92ce84,2024-04-13_09h30.17.105,WTP_SM_Choice,2022.2.1,Win32,166.6666667,,,,,space,0.7285,NAN,,NAN,0.36,5.64,,0,16,16,16,1,17,Alex,Acc,Participant_Images/660482648009855d3c92ce84/660482648009855d3c92ce84_Images/660482648009855d3c92ce84_Image_23.jpeg,liked,4.438512181,,,,,,,,,,,,,,,,,,,,
,,660482648009855d3c92ce84,2024-04-13_09h30.17.105,WTP_SM_Choice,2022.2.1,Win32,166.6666667,,,,,space,1.1552,NAN,,NAN,0.36,5.64,,0,17,17,17,1,18,Alex,Acc,Participant_Images/660482648009855d3c92ce84/660482648009855d3c92ce84_Images/660482648009855d3c92ce84_Image_18.jpeg,liked,2.682944783,,,,,,,,,,,,,,,,,,,,
,,660482648009855d3c92ce84,2024-04-13_09h30.17.105,WTP_SM_Choice,2022.2.1,Win32,166.6666667,,,,,space,0.9297,NAN,,NAN,0.36,5.64,,0,18,18,18,1,19,Alex,Acc,Participant_Images/660482648009855d3c92ce84/660482648009855d3c92ce84_Images/660482648009855d3c92ce84_Image_10.jpeg,liked,4.51984296,,,,,,,,,,,,,,,,,,,,
,,660482648009855d3c92ce84,2024-04-13_09h30.17.105,WTP_SM_Choice,2022.2.1,Win32,166.6666667,,,,,,,,,,,,,,,,,,16,,,,,,space,6.4607,space,1.7705,0.01,1,1.2652,0,0,0,0,1,Reading a book,Playing Magic the gathering,0.01,0.04,1.1,,,
,,660482648009855d3c92ce84,2024-04-13_09h30.17.105,WTP_SM_Choice,2022.2.1,Win32,166.6666667,,,,,,,,,,,,,,,,,,17,,,,,,,,,,0.02,1,3.0266,0,1,1,1,1,Watching movies,Hanging out with friends,0.02,0.04,8.8,,,
,,660482648009855d3c92ce84,2024-04-13_09h30.17.105,WTP_SM_Choice,2022.2.1,Win32,166.6666667,,,,,,,,,,,,,,,,,,18,,,,,,,,,,0.04,2,1.8582,0,2,2,2,1,Working on a craft project like chainmail,Having parties,0.03,0.04,3.3,,,
,,660482648009855d3c92ce84,2024-04-13_09h30.17.105,WTP_SM_Choice,2022.2.1,Win32,166.6666667,,,,,,,,,,,,,,,,,,19,,,,,,,,,,0.04,2,1.8613,0,3,3,3,1,Watching movies,Having parties,0.04,0.04,3.3,,,
,,660482648009855d3c92ce84,2024-04-13_09h30.17.105,WTP_SM_Choice,2022.2.1,Win32,166.6666667,,,,,,,,,,,,,,,,,,20,,,,,,,,,,0.05,1,2.2166,0,4,4,4,1,Playing video games,Playing Magic the gathering,0.05,0.04,1.1,,,
,,660482648009855d3c92ce84,2024-04-13_09h30.17.105,WTP_SM_Choice,2022.2.1,Win32,166.6666667,,,,,,,NAN,,NAN,0.52,5.48,,0,19,19,19,1,20,Alex,Acc,Participant_Images/660482648009855d3c92ce84/660482648009855d3c92ce84_Images/660482648009855d3c92ce84_Image_1.jpeg,liked,3.195382774,,,,,,,,,,,,,,,,,,,,
,,660482648009855d3c92ce84,2024-04-13_09h30.17.105,WTP_SM_Choice,2022.2.1,Win32,166.6666667,,,,,space,0.7175,NAN,,NAN,0.52,5.48,,0,20,20,20,1,21,Alex,Acc,Participant_Images/660482648009855d3c92ce84/660482648009855d3c92ce84_Images/660482648009855d3c92ce84_Image_21.jpeg,liked,1.779333479,,,,,,,,,,,,,,,,,,,,
,,660482648009855d3c92ce84,2024-04-13_09h30.17.105,WTP_SM_Choice,2022.2.1,Win32,166.6666667,,,,,space,0.3896,NAN,,NAN,0.52,5.48,,0,21,21,21,1,22,Alex,Acc,Participant_Images/660482648009855d3c92ce84/660482648009855d3c92ce84_Images/660482648009855d3c92ce84_Image_5.jpeg,did not like,4.312468682,,,,,,,,,,,,,,,,,,,,
,,660482648009855d3c92ce84,2024-04-13_09h30.17.105,WTP_SM_Choice,2022.2.1,Win32,166.6666667,,,,,space,0.5271,NAN,,NAN,0.52,5.48,,0,22,22,22,1,23,Alex,Acc,Participant_Images/660482648009855d3c92ce84/660482648009855d3c92ce84_Images/660482648009855d3c92ce84_Image_13.jpeg,did not like,4.940433059,,,,,,,,,,,,,,,,,,,,
,,660482648009855d3c92ce84,2024-04-13_09h30.17.105,WTP_SM_Choice,2022.2.1,Win32,166.6666667,,,,,space,0.3312,NAN,,NAN,0.52,5.48,,0,23,23,23,1,24,Alex,Acc,Participant_Images/660482648009855d3c92ce84/660482648009855d3c92ce84_Images/660482648009855d3c92ce84_Image_17.jpeg,did not like,2.7105123,,,,,,,,,,,,,,,,,,,,
,,660482648009855d3c92ce84,2024-04-13_09h30.17.105,WTP_SM_Choice,2022.2.1,Win32,166.6666667,,,,,,,,,,,,,,,,,,21,,,,,,space,0.3214,space,1.0823,0.01,1,1.2501,0,0,0,0,1,Swimming,Having parties,0.01,0.05,8.8,,,
,,660482648009855d3c92ce84,2024-04-13_09h30.17.105,WTP_SM_Choice,2022.2.1,Win32,166.6666667,,,,,,,,,,,,,,,,,,22,,,,,,,,,,0.02,1,2.0751,0,1,1,1,1,Working on prolific,Going to pizza places or other mass gathering areas,0.02,0.05,4.4,,,
,,660482648009855d3c92ce84,2024-04-13_09h30.17.105,WTP_SM_Choice,2022.2.1,Win32,166.6666667,,,,,,,,,,,,,,,,,,23,,,,,,,,,,0.05,2,2.1796,0,2,2,2,1,Play Villainous,Playing exploding kittens,0.03,0.05,1.1,,,
,,660482648009855d3c92ce84,2024-04-13_09h30.17.105,WTP_SM_Choice,2022.2.1,Win32,166.6666667,,,,,,,,,,,,,,,,,,24,,,,,,,,,,0.04,1,1.9614,0,3,3,3,1,Working on a craft project like chainmail,Watching movies at the movie theater,0.04,0.05,4.4,,,
,,660482648009855d3c92ce84,2024-04-13_09h30.17.105,WTP_SM_Choice,2022.2.1,Win32,166.6666667,,,,,,,,,,,,,,,,,,25,,,,,,,,,,0.05,2,5.6969,0,4,4,4,1,Watching movies,Playing Baldurs gate board game,0.05,0.05,3.3,,,
,,660482648009855d3c92ce84,2024-04-13_09h30.17.105,WTP_SM_Choice,2022.2.1,Win32,166.6666667,,,,,,,4,space,3,0.69,5.31,,0,24,24,24,1,25,Alex,Acc,Participant_Images/660482648009855d3c92ce84/660482648009855d3c92ce84_Images/660482648009855d3c92ce84_Image_11.jpeg,liked,3.602308302,,,,,,,,,,,,,,,,,,space,2.4179,4.9733
,,660482648009855d3c92ce84,2024-04-13_09h30.17.105,WTP_SM_Choice,2022.2.1,Win32,166.6666667,,,space,2.0023,space,0.4362,NAN,,NAN,0.69,5.31,,0,25,25,25,1,26,Riley,Rej,Participant_Images/660482648009855d3c92ce84/660482648009855d3c92ce84_Images/660482648009855d3c92ce84_Image_1.jpeg,did not like,4.106391878,,,,,,,,,,,,,,,,,,,,
,,660482648009855d3c92ce84,2024-04-13_09h30.17.105,WTP_SM_Choice,2022.2.1,Win32,166.6666667,,,,,space,0.4541,NAN,,NAN,0.69,5.31,,0,26,26,26,1,27,Riley,Rej,Participant_Images/660482648009855d3c92ce84/660482648009855d3c92ce84_Images/660482648009855d3c92ce84_Image_22.jpeg,liked,3.799433026,,,,,,,,,,,,,,,,,,,,
,,660482648009855d3c92ce84,2024-04-13_09h30.17.105,WTP_SM_Choice,2022.2.1,Win32,166.6666667,,,,,space,1.785,NAN,,NAN,0.69,5.31,,0,27,27,27,1,28,Riley,Rej,Participant_Images/660482648009855d3c92ce84/660482648009855d3c92ce84_Images/660482648009855d3c92ce84_Image_2.jpeg,liked,5.246980764,,,,,,,,,,,,,,,,,,,,
,,660482648009855d3c92ce84,2024-04-13_09h30.17.105,WTP_SM_Choice,2022.2.1,Win32,166.6666667,,,,,space,0.7116,NAN,,NAN,0.69,5.31,,0,28,28,28,1,29,Riley,Rej,Participant_Images/660482648009855d3c92ce84/660482648009855d3c92ce84_Images/660482648009855d3c92ce84_Image_24.jpeg,liked,3.30081769,,,,,,,,,,,,,,,,,,,,
,,660482648009855d3c92ce84,2024-04-13_09h30.17.105,WTP_SM_Choice,2022.2.1,Win32,166.6666667,,,,,,,,,,,,,,,,,,26,,,,,,space,1.209,space,0.8474,0.01,1,1.292,0,0,0,0,1,Eating fancier foods,Hanging out with friends,0.01,0.01,4.4,,,
,,660482648009855d3c92ce84,2024-04-13_09h30.17.105,WTP_SM_Choice,2022.2.1,Win32,166.6666667,,,,,,,,,,,,,,,,,,27,,,,,,,,,,0.02,1,1.2976,0,1,1,1,1,Swimming,Playing Magic the gathering,0.02,0.01,3.3,,,
,,660482648009855d3c92ce84,2024-04-13_09h30.17.105,WTP_SM_Choice,2022.2.1,Win32,166.6666667,,,,,,,,,,,,,,,,,,28,,,,,,,,,,0.01,2,1.5454,0,2,2,2,1,Eating fancier foods,Going to the park with others,0.03,0.01,3.3,,,
,,660482648009855d3c92ce84,2024-04-13_09h30.17.105,WTP_SM_Choice,2022.2.1,Win32,166.6666667,,,,,,,,,,,,,,,,,,29,,,,,,,,,,0.01,2,1.2192,0,3,3,3,1,Play Villainous,Going to the park with others,0.04,0.01,4.4,,,
,,660482648009855d3c92ce84,2024-04-13_09h30.17.105,WTP_SM_Choice,2022.2.1,Win32,166.6666667,,,,,,,,,,,,,,,,,,30,,,,,,,,,,0.01,2,2.0887,0,4,4,4,1,Working on a craft project like chainmail,Playing competitive video games,0.05,0.01,8.8,,,
,,660482648009855d3c92ce84,2024-04-13_09h30.17.105,WTP_SM_Choice,2022.2.1,Win32,166.6666667,,,,,,,NAN,,NAN,0.75,5.25,,0,29,29,29,1,30,Riley,Rej,Participant_Images/660482648009855d3c92ce84/660482648009855d3c92ce84_Images/660482648009855d3c92ce84_Image_18.jpeg,liked,1.661473164,,,,,,,,,,,,,,,,,,,,
,,660482648009855d3c92ce84,2024-04-13_09h30.17.105,WTP_SM_Choice,2022.2.1,Win32,166.6666667,,,,,space,0.4563,NAN,,NAN,0.75,5.25,,0,30,30,30,1,31,Riley,Rej,Participant_Images/660482648009855d3c92ce84/660482648009855d3c92ce84_Images/660482648009855d3c92ce84_Image_6.jpeg,did not like,3.613205605,,,,,,,,,,,,,,,,,,,,
,,660482648009855d3c92ce84,2024-04-13_09h30.17.105,WTP_SM_Choice,2022.2.1,Win32,166.6666667,,,,,space,0.6973,NAN,,NAN,0.75,5.25,,0,31,31,31,1,32,Riley,Rej,Participant_Images/660482648009855d3c92ce84/660482648009855d3c92ce84_Images/660482648009855d3c92ce84_Image_4.jpeg,liked,4.988446431,,,,,,,,,,,,,,,,,,,,
,,660482648009855d3c92ce84,2024-04-13_09h30.17.105,WTP_SM_Choice,2022.2.1,Win32,166.6666667,,,,,space,0.473,NAN,,NAN,0.75,5.25,,0,32,32,32,1,33,Riley,Rej,Participant_Images/660482648009855d3c92ce84/660482648009855d3c92ce84_Images/660482648009855d3c92ce84_Image_21.jpeg,did not like,3.470791822,,,,,,,,,,,,,,,,,,,,
,,660482648009855d3c92ce84,2024-04-13_09h30.17.105,WTP_SM_Choice,2022.2.1,Win32,166.6666667,,,,,space,0.4438,NAN,,NAN,0.75,5.25,,0,33,33,33,1,34,Riley,Rej,Participant_Images/660482648009855d3c92ce84/660482648009855d3c92ce84_Images/660482648009855d3c92ce84_Image_16.jpeg,did not like,3.820572462,,,,,,,,,,,,,,,,,,,,
,,660482648009855d3c92ce84,2024-04-13_09h30.17.105,WTP_SM_Choice,2022.2.1,Win32,166.6666667,,,,,,,,,,,,,,,,,,31,,,,,,space,1.025,space,0.5895,0.01,1,2.7452,0,0,0,0,1,Eating fancier foods,Watching movies at the movie theater,0.01,0.02,8.8,,,
,,660482648009855d3c92ce84,2024-04-13_09h30.17.105,WTP_SM_Choice,2022.2.1,Win32,166.6666667,,,,,,,,,,,,,,,,,,32,,,,,,,,,,0.02,1,2.185,0,1,1,1,1,Reading a book,Going to the park with others,0.02,0.02,1.1,,,
,,660482648009855d3c92ce84,2024-04-13_09h30.17.105,WTP_SM_Choice,2022.2.1,Win32,166.6666667,,,,,,,,,,,,,,,,,,33,,,,,,,,,,0.02,2,6.183,0,2,2,2,1,Working on a craft project like chainmail,Playing exploding kittens,0.03,0.02,4.4,,,
,,660482648009855d3c92ce84,2024-04-13_09h30.17.105,WTP_SM_Choice,2022.2.1,Win32,166.6666667,,,,,,,,,,,,,,,,,,34,,,,,,,,,,0.04,1,7.2771,0,3,3,3,1,Watching movies,Playing Magic the gathering,0.04,0.02,3.3,,,
,,660482648009855d3c92ce84,2024-04-13_09h30.17.105,WTP_SM_Choice,2022.2.1,Win32,166.6666667,,,,,,,,,,,,,,,,,,35,,,,,,,,,,0.05,1,3.3524,0,4,4,4,1,Working on prolific,Playing exploding kittens,0.05,0.02,1.1,,,
,,660482648009855d3c92ce84,2024-04-13_09h30.17.105,WTP_SM_Choice,2022.2.1,Win32,166.6666667,,,,,,,NAN,,NAN,0.89,5.11,,0,34,34,34,1,35,Riley,Rej,Participant_Images/660482648009855d3c92ce84/660482648009855d3c92ce84_Images/660482648009855d3c92ce84_Image_7.jpeg,did not like,2.455989137,,,,,,,,,,,,,,,,,,,,
,,660482648009855d3c92ce84,2024-04-13_09h30.17.105,WTP_SM_Choice,2022.2.1,Win32,166.6666667,,,,,space,0.6975,NAN,,NAN,0.89,5.11,,0,35,35,35,1,36,Riley,Rej,Participant_Images/660482648009855d3c92ce84/660482648009855d3c92ce84_Images/660482648009855d3c92ce84_Image_15.jpeg,did not like,3.79605092,,,,,,,,,,,,,,,,,,,,
,,660482648009855d3c92ce84,2024-04-13_09h30.17.105,WTP_SM_Choice,2022.2.1,Win32,166.6666667,,,,,space,1.1835,NAN,,NAN,0.89,5.11,,0,36,36,36,1,37,Riley,Rej,Participant_Images/660482648009855d3c92ce84/660482648009855d3c92ce84_Images/660482648009855d3c92ce84_Image_25.jpeg,liked,3.562416326,,,,,,,,,,,,,,,,,,,,
,,660482648009855d3c92ce84,2024-04-13_09h30.17.105,WTP_SM_Choice,2022.2.1,Win32,166.6666667,,,,,space,51.7678,NAN,,NAN,0.89,5.11,,0,37,37,37,1,38,Riley,Rej,Participant_Images/660482648009855d3c92ce84/660482648009855d3c92ce84_Images/660482648009855d3c92ce84_Image_20.jpeg,did not like,2.843822497,,,,,,,,,,,,,,,,,,,,
,,660482648009855d3c92ce84,2024-04-13_09h30.17.105,WTP_SM_Choice,2022.2.1,Win32,166.6666667,,,,,space,3.663,NAN,,NAN,0.89,5.11,,0,38,38,38,1,39,Riley,Rej,Participant_Images/660482648009855d3c92ce84/660482648009855d3c92ce84_Images/660482648009855d3c92ce84_Image_23.jpeg,liked,3.546495948,,,,,,,,,,,,,,,,,,,,
,,660482648009855d3c92ce84,2024-04-13_09h30.17.105,WTP_SM_Choice,2022.2.1,Win32,166.6666667,,,,,,,,,,,,,,,,,,36,,,,,,space,1.3578,space,0.5799,0.03,2,1.9716,0,0,0,0,1,Play Villainous,Going to pizza places or other mass gathering areas,0.01,0.03,3.3,,,
,,660482648009855d3c92ce84,2024-04-13_09h30.17.105,WTP_SM_Choice,2022.2.1,Win32,166.6666667,,,,,,,,,,,,,,,,,,37,,,,,,,,,,0.02,1,1.6224,0,1,1,1,1,Eating fancier foods,Going to pizza places or other mass gathering areas,0.02,0.03,1.1,,,
,,660482648009855d3c92ce84,2024-04-13_09h30.17.105,WTP_SM_Choice,2022.2.1,Win32,166.6666667,,,,,,,,,,,,,,,,,,38,,,,,,,,,,0.03,2,3.9245,0,2,2,2,1,Working on a craft project like chainmail,Going to the park with others,0.03,0.03,1.1,,,
,,660482648009855d3c92ce84,2024-04-13_09h30.17.105,WTP_SM_Choice,2022.2.1,Win32,166.6666667,,,,,,,,,,,,,,,,,,39,,,,,,,,,,0.04,1,1.9037,0,3,3,3,1,Swimming,Playing exploding kittens,0.04,0.03,3.3,,,
,,660482648009855d3c92ce84,2024-04-13_09h30.17.105,WTP_SM_Choice,2022.2.1,Win32,166.6666667,,,,,,,,,,,,,,,,,,40,,,,,,,,,,0.03,2,4.8944,0,4,4,4,1,Swimming,Playing competitive video games,0.05,0.03,4.4,,,
,,660482648009855d3c92ce84,2024-04-13_09h30.17.105,WTP_SM_Choice,2022.2.1,Win32,166.6666667,,,,,,,NAN,,NAN,1.04,4.96,,0,39,39,39,1,40,Riley,Rej,Participant_Images/660482648009855d3c92ce84/660482648009855d3c92ce84_Images/660482648009855d3c92ce84_Image_10.jpeg,did not like,1.672012706,,,,,,,,,,,,,,,,,,,,
,,660482648009855d3c92ce84,2024-04-13_09h30.17.105,WTP_SM_Choice,2022.2.1,Win32,166.6666667,,,,,space,0.6422,NAN,,NAN,1.04,4.96,,0,40,40,40,1,41,Riley,Rej,Participant_Images/660482648009855d3c92ce84/660482648009855d3c92ce84_Images/660482648009855d3c92ce84_Image_9.jpeg,did not like,4.942172136,,,,,,,,,,,,,,,,,,,,
,,660482648009855d3c92ce84,2024-04-13_09h30.17.105,WTP_SM_Choice,2022.2.1,Win32,166.6666667,,,,,space,0.4638,NAN,,NAN,1.04,4.96,,0,41,41,41,1,42,Riley,Rej,Participant_Images/660482648009855d3c92ce84/660482648009855d3c92ce84_Images/660482648009855d3c92ce84_Image_17.jpeg,did not like,2.50187214,,,,,,,,,,,,,,,,,,,,
,,660482648009855d3c92ce84,2024-04-13_09h30.17.105,WTP_SM_Choice,2022.2.1,Win32,166.6666667,,,,,space,0.5037,NAN,,NAN,1.04,4.96,,0,42,42,42,1,43,Riley,Rej,Participant_Images/660482648009855d3c92ce84/660482648009855d3c92ce84_Images/660482648009855d3c92ce84_Image_5.jpeg,did not like,2.071164779,,,,,,,,,,,,,,,,,,,,
,,660482648009855d3c92ce84,2024-04-13_09h30.17.105,WTP_SM_Choice,2022.2.1,Win32,166.6666667,,,,,space,0.6747,NAN,,NAN,1.04,4.96,,0,43,43,43,1,44,Riley,Rej,Participant_Images/660482648009855d3c92ce84/660482648009855d3c92ce84_Images/660482648009855d3c92ce84_Image_11.jpeg,did not like,5.336503566,,,,,,,,,,,,,,,,,,,,
,,660482648009855d3c92ce84,2024-04-13_09h30.17.105,WTP_SM_Choice,2022.2.1,Win32,166.6666667,,,,,,,,,,,,,,,,,,41,,,,,,space,3.449,space,0.8116,0.01,1,1.6465,0,0,0,0,1,Swimming,Playing Baldurs gate board game,0.01,0.04,1.1,,,
,,660482648009855d3c92ce84,2024-04-13_09h30.17.105,WTP_SM_Choice,2022.2.1,Win32,166.6666667,,,,,,,,,,,,,,,,,,42,,,,,,,,,,0.02,1,3.0575,0,1,1,1,1,Working on prolific,Playing Baldurs gate board game,0.02,0.04,3.3,,,
,,660482648009855d3c92ce84,2024-04-13_09h30.17.105,WTP_SM_Choice,2022.2.1,Win32,166.6666667,,,,,,,,,,,,,,,,,,43,,,,,,,,,,0.03,1,1.2116,0,2,2,2,1,Reading a book,Playing competitive video games,0.03,0.04,1.1,,,
,,660482648009855d3c92ce84,2024-04-13_09h30.17.105,WTP_SM_Choice,2022.2.1,Win32,166.6666667,,,,,,,,,,,,,,,,,,44,,,,,,,,,,0.04,2,1.3196,0,3,3,3,1,Playing video games,Having parties,0.04,0.04,1.1,,,
,,660482648009855d3c92ce84,2024-04-13_09h30.17.105,WTP_SM_Choice,2022.2.1,Win32,166.6666667,,,,,,,,,,,,,,,,,,45,,,,,,,,,,0.05,1,1.7652,0,4,4,4,1,Working on prolific,Watching movies at the movie theater,0.05,0.04,4.4,,,
,,660482648009855d3c92ce84,2024-04-13_09h30.17.105,WTP_SM_Choice,2022.2.1,Win32,166.6666667,,,,,,,NAN,,NAN,1.19,4.81,,0,44,44,44,1,45,Riley,Rej,Participant_Images/660482648009855d3c92ce84/660482648009855d3c92ce84_Images/660482648009855d3c92ce84_Image_13.jpeg,did not like,2.642157193,,,,,,,,,,,,,,,,,,,,
,,660482648009855d3c92ce84,2024-04-13_09h30.17.105,WTP_SM_Choice,2022.2.1,Win32,166.6666667,,,,,space,0.6935,NAN,,NAN,1.19,4.81,,0,45,45,45,1,46,Riley,Rej,Participant_Images/660482648009855d3c92ce84/660482648009855d3c92ce84_Images/660482648009855d3c92ce84_Image_8.jpeg,did not like,4.456234322,,,,,,,,,,,,,,,,,,,,
,,660482648009855d3c92ce84,2024-04-13_09h30.17.105,WTP_SM_Choice,2022.2.1,Win32,166.6666667,,,,,space,0.805,NAN,,NAN,1.19,4.81,,0,46,46,46,1,47,Riley,Rej,Participant_Images/660482648009855d3c92ce84/660482648009855d3c92ce84_Images/660482648009855d3c92ce84_Image_14.jpeg,did not like,4.438512181,,,,,,,,,,,,,,,,,,,,
,,660482648009855d3c92ce84,2024-04-13_09h30.17.105,WTP_SM_Choice,2022.2.1,Win32,166.6666667,,,,,space,1.5873,NAN,,NAN,1.19,4.81,,0,47,47,47,1,48,Riley,Rej,Participant_Images/660482648009855d3c92ce84/660482648009855d3c92ce84_Images/660482648009855d3c92ce84_Image_3.jpeg,did not like,2.682944783,,,,,,,,,,,,,,,,,,,,
,,660482648009855d3c92ce84,2024-04-13_09h30.17.105,WTP_SM_Choice,2022.2.1,Win32,166.6666667,,,,,space,1.2373,NAN,,NAN,1.19,4.81,,0,48,48,48,1,49,Riley,Rej,Participant_Images/660482648009855d3c92ce84/660482648009855d3c92ce84_Images/660482648009855d3c92ce84_Image_12.jpeg,did not like,4.51984296,,,,,,,,,,,,,,,,,,,,
,,660482648009855d3c92ce84,2024-04-13_09h30.17.105,WTP_SM_Choice,2022.2.1,Win32,166.6666667,,,,,,,,,,,,,,,,,,46,,,,,,space,1.2217,space,0.7566,0.05,2,1.1971,0,0,0,0,1,Play Villainous,Playing Magic the gathering,0.01,0.05,8.8,,,
,,660482648009855d3c92ce84,2024-04-13_09h30.17.105,WTP_SM_Choice,2022.2.1,Win32,166.6666667,,,,,,,,,,,,,,,,,,47,,,,,,,,,,0.02,1,3.6655,0,1,1,1,1,Playing with dogs,Playing competitive video games,0.02,0.05,1.1,,,
,,660482648009855d3c92ce84,2024-04-13_09h30.17.105,WTP_SM_Choice,2022.2.1,Win32,166.6666667,,,,,,,,,,,,,,,,,,48,,,,,,,,,,0.03,1,1.4069,0,2,2,2,1,Working on a craft project like chainmail,Playing DND,0.03,0.05,4.4,,,
,,660482648009855d3c92ce84,2024-04-13_09h30.17.105,WTP_SM_Choice,2022.2.1,Win32,166.6666667,,,,,,,,,,,,,,,,,,49,,,,,,,,,,0.05,2,2.7512,0,3,3,3,1,Playing video games,Playing competitive video games,0.04,0.05,3.3,,,
,,660482648009855d3c92ce84,2024-04-13_09h30.17.105,WTP_SM_Choice,2022.2.1,Win32,166.6666667,,,,,,,,,,,,,,,,,,50,,,,,,,,,,0.05,1,1.7255,0,4,4,4,1,Swimming,Playing DND,0.05,0.05,1.1,,,
,,660482648009855d3c92ce84,2024-04-13_09h30.17.105,WTP_SM_Choice,2022.2.1,Win32,166.6666667,,,,,,,1,,4,1.39,4.61,,0,49,49,49,1,50,Riley,Rej,Participant_Images/660482648009855d3c92ce84/660482648009855d3c92ce84_Images/660482648009855d3c92ce84_Image_19.jpeg,did not like,3.195382774,,,,,,,,,,,,,,,,,,space,8.5095,
,,660482648009855d3c92ce84,2024-04-13_09h30.17.105,WTP_SM_Choice,2022.2.1,Win32,166.6666667,,,space,2.534,space,0.5203,NAN,,NAN,1.39,4.61,,0,50,50,50,1,51,Sam,Rej,Participant_Images/660482648009855d3c92ce84/660482648009855d3c92ce84_Images/660482648009855d3c92ce84_Image_17.jpeg,did not like,1.779333479,,,,,,,,,,,,,,,,,,,,
,,660482648009855d3c92ce84,2024-04-13_09h30.17.105,WTP_SM_Choice,2022.2.1,Win32,166.6666667,,,,,space,0.7772,NAN,,NAN,1.39,4.61,,0,51,51,51,1,52,Sam,Rej,Participant_Images/660482648009855d3c92ce84/660482648009855d3c92ce84_Images/660482648009855d3c92ce84_Image_4.jpeg,liked,4.312468682,,,,,,,,,,,,,,,,,,,,
,,660482648009855d3c92ce84,2024-04-13_09h30.17.105,WTP_SM_Choice,2022.2.1,Win32,166.6666667,,,,,space,1.2256,NAN,,NAN,1.39,4.61,,0,52,52,52,1,53,Sam,Rej,Participant_Images/660482648009855d3c92ce84/660482648009855d3c92ce84_Images/660482648009855d3c92ce84_Image_16.jpeg,did not like,4.940433059,,,,,,,,,,,,,,,,,,,,
,,660482648009855d3c92ce84,2024-04-13_09h30.17.105,WTP_SM_Choice,2022.2.1,Win32,166.6666667,,,,,space,0.492,NAN,,NAN,1.39,4.61,,0,53,53,53,1,54,Sam,Rej,Participant_Images/660482648009855d3c92ce84/660482648009855d3c92ce84_Images/660482648009855d3c92ce84_Image_11.jpeg,did not like,2.7105123,,,,,,,,,,,,,,,,,,,,
,,660482648009855d3c92ce84,2024-04-13_09h30.17.105,WTP_SM_Choice,2022.2.1,Win32,166.6666667,,,,,,,,,,,,,,,,,,51,,,,,,space,0.3287,space,0.609,0.01,2,0.9616,0,0,0,0,1,Reading a book,Going to pizza places or other mass gathering areas,0.01,0.01,1.1,,,
,,660482648009855d3c92ce84,2024-04-13_09h30.17.105,WTP_SM_Choice,2022.2.1,Win32,166.6666667,,,,,,,,,,,,,,,,,,52,,,,,,,,,,0.02,1,1.2456,0,1,1,1,1,Playing with dogs,Hanging out with friends,0.02,0.01,3.3,,,
,,660482648009855d3c92ce84,2024-04-13_09h30.17.105,WTP_SM_Choice,2022.2.1,Win32,166.6666667,,,,,,,,,,,,,,,,,,53,,,,,,,,,,0.03,1,2.2719,0,2,2,2,1,Eating fancier foods,Playing DND,0.03,0.01,1.1,,,
,,660482648009855d3c92ce84,2024-04-13_09h30.17.105,WTP_SM_Choice,2022.2.1,Win32,166.6666667,,,,,,,,,,,,,,,,,,54,,,,,,,,,,0.01,2,1.5885,0,3,3,3,1,Play Villainous,Playing Baldurs gate board game,0.04,0.01,4.4,,,
,,660482648009855d3c92ce84,2024-04-13_09h30.17.105,WTP_SM_Choice,2022.2.1,Win32,166.6666667,,,,,,,,,,,,,,,,,,55,,,,,,,,,,0.05,1,5.8914,0,4,4,4,1,Sleeping,Watching movies at the movie theater,0.05,0.01,1.1,,,
,,660482648009855d3c92ce84,2024-04-13_09h30.17.105,WTP_SM_Choice,2022.2.1,Win32,166.6666667,,,,,,,NAN,,NAN,1.51,4.49,,0,54,54,54,1,55,Sam,Rej,Participant_Images/660482648009855d3c92ce84/660482648009855d3c92ce84_Images/660482648009855d3c92ce84_Image_23.jpeg,did not like,3.602308302,,,,,,,,,,,,,,,,,,,,
,,660482648009855d3c92ce84,2024-04-13_09h30.17.105,WTP_SM_Choice,2022.2.1,Win32,166.6666667,,,,,space,0.333,NAN,,NAN,1.51,4.49,,0,55,55,55,1,56,Sam,Rej,Participant_Images/660482648009855d3c92ce84/660482648009855d3c92ce84_Images/660482648009855d3c92ce84_Image_12.jpeg,did not like,4.106391878,,,,,,,,,,,,,,,,,,,,
,,660482648009855d3c92ce84,2024-04-13_09h30.17.105,WTP_SM_Choice,2022.2.1,Win32,166.6666667,,,,,space,0.4972,NAN,,NAN,1.51,4.49,,0,56,56,56,1,57,Sam,Rej,Participant_Images/660482648009855d3c92ce84/660482648009855d3c92ce84_Images/660482648009855d3c92ce84_Image_5.jpeg,did not like,3.799433026,,,,,,,,,,,,,,,,,,,,
,,660482648009855d3c92ce84,2024-04-13_09h30.17.105,WTP_SM_Choice,2022.2.1,Win32,166.6666667,,,,,space,0.2992,NAN,,NAN,1.51,4.49,,0,57,57,57,1,58,Sam,Rej,Participant_Images/660482648009855d3c92ce84/660482648009855d3c92ce84_Images/660482648009855d3c92ce84_Image_22.jpeg,liked,5.246980764,,,,,,,,,,,,,,,,,,,,
,,660482648009855d3c92ce84,2024-04-13_09h30.17.105,WTP_SM_Choice,2022.2.1,Win32,166.6666667,,,,,space,1.2917,NAN,,NAN,1.51,4.49,,0,58,58,58,1,59,Sam,Rej,Participant_Images/660482648009855d3c92ce84/660482648009855d3c92ce84_Images/660482648009855d3c92ce84_Image_24.jpeg,did not like,3.30081769,,,,,,,,,,,,,,,,,,,,
,,660482648009855d3c92ce84,2024-04-13_09h30.17.105,WTP_SM_Choice,2022.2.1,Win32,166.6666667,,,,,,,,,,,,,,,,,,56,,,,,,space,1.185,space,0.5032,0.01,1,2.0975,0,0,0,0,1,Playing with dogs,Playing Magic the gathering,0.01,0.02,8.8,,,
,,660482648009855d3c92ce84,2024-04-13_09h30.17.105,WTP_SM_Choice,2022.2.1,Win32,166.6666667,,,,,,,,,,,,,,,,,,57,,,,,,,,,,0.02,1,4.646,0,1,1,1,1,Playing with dogs,Going to pizza places or other mass gathering areas,0.02,0.02,4.4,,,
,,660482648009855d3c92ce84,2024-04-13_09h30.17.105,WTP_SM_Choice,2022.2.1,Win32,166.6666667,,,,,,,,,,,,,,,,,,58,,,,,,,,,,0.03,1,3.4419,0,2,2,2,1,Sleeping,Playing exploding kittens,0.03,0.02,4.4,,,
,,660482648009855d3c92ce84,2024-04-13_09h30.17.105,WTP_SM_Choice,2022.2.1,Win32,166.6666667,,,,,,,,,,,,,,,,,,59,,,,,,,,,,0.04,1,7.253,0,3,3,3,1,Sleeping,Playing competitive video games,0.04,0.02,4.4,,,
,,660482648009855d3c92ce84,2024-04-13_09h30.17.105,WTP_SM_Choice,2022.2.1,Win32,166.6666667,,,,,,,,,,,,,,,,,,60,,,,,,,,,,0.05,1,4.1014,0,4,4,4,1,Sleeping,Playing DND,0.05,0.02,1.1,,,
,,660482648009855d3c92ce84,2024-04-13_09h30.17.105,WTP_SM_Choice,2022.2.1,Win32,166.6666667,,,,,,,NAN,,NAN,1.66,4.34,,0,59,59,59,1,60,Sam,Rej,Participant_Images/660482648009855d3c92ce84/660482648009855d3c92ce84_Images/660482648009855d3c92ce84_Image_6.jpeg,did not like,1.661473164,,,,,,,,,,,,,,,,,,,,
,,660482648009855d3c92ce84,2024-04-13_09h30.17.105,WTP_SM_Choice,2022.2.1,Win32,166.6666667,,,,,space,0.963,NAN,,NAN,1.66,4.34,,0,60,60,60,1,61,Sam,Rej,Participant_Images/660482648009855d3c92ce84/660482648009855d3c92ce84_Images/660482648009855d3c92ce84_Image_8.jpeg,did not like,3.613205605,,,,,,,,,,,,,,,,,,,,
,,660482648009855d3c92ce84,2024-04-13_09h30.17.105,WTP_SM_Choice,2022.2.1,Win32,166.6666667,,,,,space,2.4068,NAN,,NAN,1.66,4.34,,0,61,61,61,1,62,Sam,Rej,Participant_Images/660482648009855d3c92ce84/660482648009855d3c92ce84_Images/660482648009855d3c92ce84_Image_19.jpeg,did not like,4.988446431,,,,,,,,,,,,,,,,,,,,
,,660482648009855d3c92ce84,2024-04-13_09h30.17.105,WTP_SM_Choice,2022.2.1,Win32,166.6666667,,,,,space,1.4322,NAN,,NAN,1.66,4.34,,0,62,62,62,1,63,Sam,Rej,Participant_Images/660482648009855d3c92ce84/660482648009855d3c92ce84_Images/660482648009855d3c92ce84_Image_10.jpeg,did not like,3.470791822,,,,,,,,,,,,,,,,,,,,
,,660482648009855d3c92ce84,2024-04-13_09h30.17.105,WTP_SM_Choice,2022.2.1,Win32,166.6666667,,,,,space,1.9412,NAN,,NAN,1.66,4.34,,0,63,63,63,1,64,Sam,Rej,Participant_Images/660482648009855d3c92ce84/660482648009855d3c92ce84_Images/660482648009855d3c92ce84_Image_21.jpeg,did not like,3.820572462,,,,,,,,,,,,,,,,,,,,
,,660482648009855d3c92ce84,2024-04-13_09h30.17.105,WTP_SM_Choice,2022.2.1,Win32,166.6666667,,,,,,,,,,,,,,,,,,61,,,,,,space,0.8779,space,0.5635,0.01,1,2.253,0,0,0,0,1,Swimming,Going to the park with others,0.01,0.03,3.3,,,
,,660482648009855d3c92ce84,2024-04-13_09h30.17.105,WTP_SM_Choice,2022.2.1,Win32,166.6666667,,,,,,,,,,,,,,,,,,62,,,,,,,,,,0.02,1,2.3636,0,1,1,1,1,Working on prolific,Hanging out with friends,0.02,0.03,3.3,,,
,,660482648009855d3c92ce84,2024-04-13_09h30.17.105,WTP_SM_Choice,2022.2.1,Win32,166.6666667,,,,,,,,,,,,,,,,,,63,,,,,,,,,,0.03,1,1.9792,0,2,2,2,1,Reading a book,Having parties,0.03,0.03,3.3,,,
,,660482648009855d3c92ce84,2024-04-13_09h30.17.105,WTP_SM_Choice,2022.2.1,Win32,166.6666667,,,,,,,,,,,,,,,,,,64,,,,,,,,,,0.04,1,1.4496,0,3,3,3,1,Sleeping,Going to the park with others,0.04,0.03,1.1,,,
,,660482648009855d3c92ce84,2024-04-13_09h30.17.105,WTP_SM_Choice,2022.2.1,Win32,166.6666667,,,,,,,,,,,,,,,,,,65,,,,,,,,,,0.03,2,1.0155,0,4,4,4,1,Play Villainous,Playing competitive video games,0.05,0.03,1.1,,,
,,660482648009855d3c92ce84,2024-04-13_09h30.17.105,WTP_SM_Choice,2022.2.1,Win32,166.6666667,,,,,,,NAN,,NAN,1.79,4.21,,0,64,64,64,1,65,Sam,Rej,Participant_Images/660482648009855d3c92ce84/660482648009855d3c92ce84_Images/660482648009855d3c92ce84_Image_9.jpeg,did not like,2.455989137,,,,,,,,,,,,,,,,,,,,
,,660482648009855d3c92ce84,2024-04-13_09h30.17.105,WTP_SM_Choice,2022.2.1,Win32,166.6666667,,,,,space,0.9882,NAN,,NAN,1.79,4.21,,0,65,65,65,1,66,Sam,Rej,Participant_Images/660482648009855d3c92ce84/660482648009855d3c92ce84_Images/660482648009855d3c92ce84_Image_20.jpeg,liked,3.79605092,,,,,,,,,,,,,,,,,,,,
,,660482648009855d3c92ce84,2024-04-13_09h30.17.105,WTP_SM_Choice,2022.2.1,Win32,166.6666667,,,,,space,0.4121,NAN,,NAN,1.79,4.21,,0,66,66,66,1,67,Sam,Rej,Participant_Images/660482648009855d3c92ce84/660482648009855d3c92ce84_Images/660482648009855d3c92ce84_Image_14.jpeg,did not like,3.562416326,,,,,,,,,,,,,,,,,,,,
,,660482648009855d3c92ce84,2024-04-13_09h30.17.105,WTP_SM_Choice,2022.2.1,Win32,166.6666667,,,,,space,0.909,NAN,,NAN,1.79,4.21,,0,67,67,67,1,68,Sam,Rej,Participant_Images/660482648009855d3c92ce84/660482648009855d3c92ce84_Images/660482648009855d3c92ce84_Image_7.jpeg,did not like,2.843822497,,,,,,,,,,,,,,,,,,,,
,,660482648009855d3c92ce84,2024-04-13_09h30.17.105,WTP_SM_Choice,2022.2.1,Win32,166.6666667,,,,,space,0.5724,NAN,,NAN,1.79,4.21,,0,68,68,68,1,69,Sam,Rej,Participant_Images/660482648009855d3c92ce84/660482648009855d3c92ce84_Images/660482648009855d3c92ce84_Image_15.jpeg,did not like,3.546495948,,,,,,,,,,,,,,,,,,,,
,,660482648009855d3c92ce84,2024-04-13_09h30.17.105,WTP_SM_Choice,2022.2.1,Win32,166.6666667,,,,,,,,,,,,,,,,,,66,,,,,,space,1.1101,space,0.3787,0.04,2,0.9255,0,0,0,0,1,Working on prolific,Going to the park with others,0.01,0.04,1.1,,,
,,660482648009855d3c92ce84,2024-04-13_09h30.17.105,WTP_SM_Choice,2022.2.1,Win32,166.6666667,,,,,,,,,,,,,,,,,,67,,,,,,,,,,0.02,1,1.328,0,1,1,1,1,Reading a book,Playing Baldurs gate board game,0.02,0.04,8.8,,,
,,660482648009855d3c92ce84,2024-04-13_09h30.17.105,WTP_SM_Choice,2022.2.1,Win32,166.6666667,,,,,,,,,,,,,,,,,,68,,,,,,,,,,0.04,2,1.8633,0,2,2,2,1,Working on prolific,Playing competitive video games,0.03,0.04,4.4,,,
,,660482648009855d3c92ce84,2024-04-13_09h30.17.105,WTP_SM_Choice,2022.2.1,Win32,166.6666667,,,,,,,,,,,,,,,,,,69,,,,,,,,,,0.04,1,2.0289,0,3,3,3,1,Eating fancier foods,Playing exploding kittens,0.04,0.04,1.1,,,
,,660482648009855d3c92ce84,2024-04-13_09h30.17.105,WTP_SM_Choice,2022.2.1,Win32,166.6666667,,,,,,,,,,,,,,,,,,70,,,,,,,,,,0.04,2,5.4106,0,4,4,4,1,Working on a craft project like chainmail,Hanging out with friends,0.05,0.04,1.1,,,
,,660482648009855d3c92ce84,2024-04-13_09h30.17.105,WTP_SM_Choice,2022.2.1,Win32,166.6666667,,,,,,,NAN,,NAN,1.97,4.03,,0,69,69,69,1,70,Sam,Rej,Participant_Images/660482648009855d3c92ce84/660482648009855d3c92ce84_Images/660482648009855d3c92ce84_Image_3.jpeg,liked,1.672012706,,,,,,,,,,,,,,,,,,,,
,,660482648009855d3c92ce84,2024-04-13_09h30.17.105,WTP_SM_Choice,2022.2.1,Win32,166.6666667,,,,,space,1.3482,NAN,,NAN,1.97,4.03,,0,70,70,70,1,71,Sam,Rej,Participant_Images/660482648009855d3c92ce84/660482648009855d3c92ce84_Images/660482648009855d3c92ce84_Image_1.jpeg,liked,4.942172136,,,,,,,,,,,,,,,,,,,,
,,660482648009855d3c92ce84,2024-04-13_09h30.17.105,WTP_SM_Choice,2022.2.1,Win32,166.6666667,,,,,space,0.7535,NAN,,NAN,1.97,4.03,,0,71,71,71,1,72,Sam,Rej,Participant_Images/660482648009855d3c92ce84/660482648009855d3c92ce84_Images/660482648009855d3c92ce84_Image_25.jpeg,did not like,2.50187214,,,,,,,,,,,,,,,,,,,,
,,660482648009855d3c92ce84,2024-04-13_09h30.17.105,WTP_SM_Choice,2022.2.1,Win32,166.6666667,,,,,space,0.458,NAN,,NAN,1.97,4.03,,0,72,72,72,1,73,Sam,Rej,Participant_Images/660482648009855d3c92ce84/660482648009855d3c92ce84_Images/660482648009855d3c92ce84_Image_13.jpeg,did not like,2.071164779,,,,,,,,,,,,,,,,,,,,
,,660482648009855d3c92ce84,2024-04-13_09h30.17.105,WTP_SM_Choice,2022.2.1,Win32,166.6666667,,,,,space,1.602,NAN,,NAN,1.97,4.03,,0,73,73,73,1,74,Sam,Rej,Participant_Images/660482648009855d3c92ce84/660482648009855d3c92ce84_Images/660482648009855d3c92ce84_Image_2.jpeg,liked,5.336503566,,,,,,,,,,,,,,,,,,,,
,,660482648009855d3c92ce84,2024-04-13_09h30.17.105,WTP_SM_Choice,2022.2.1,Win32,166.6666667,,,,,,,,,,,,,,,,,,71,,,,,,space,1.1152,space,0.3873,0.01,1,1.0637,0,0,0,0,1,Playing with dogs,Playing Baldurs gate board game,0.01,0.05,3.3,,,
,,660482648009855d3c92ce84,2024-04-13_09h30.17.105,WTP_SM_Choice,2022.2.1,Win32,166.6666667,,,,,,,,,,,,,,,,,,72,,,,,,,,,,0.05,2,1.4645,0,1,1,1,1,Playing video games,Going to pizza places or other mass gathering areas,0.02,0.05,8.8,,,
,,660482648009855d3c92ce84,2024-04-13_09h30.17.105,WTP_SM_Choice,2022.2.1,Win32,166.6666667,,,,,,,,,,,,,,,,,,73,,,,,,,,,,0.03,1,1.5502,0,2,2,2,1,Sleeping,Playing Magic the gathering,0.03,0.05,3.3,,,
,,660482648009855d3c92ce84,2024-04-13_09h30.17.105,WTP_SM_Choice,2022.2.1,Win32,166.6666667,,,,,,,,,,,,,,,,,,74,,,,,,,,,,0.05,2,1.5892,0,3,3,3,1,Playing with dogs,Going to the park with others,0.04,0.05,4.4,,,
,,660482648009855d3c92ce84,2024-04-13_09h30.17.105,WTP_SM_Choice,2022.2.1,Win32,166.6666667,,,,,,,,,,,,,,,,,,75,,,,,,,,,,0.05,1,2.5402,0,4,4,4,1,Reading a book,Hanging out with friends,0.05,0.05,3.3,,,
,,660482648009855d3c92ce84,2024-04-13_09h30.17.105,WTP_SM_Choice,2022.2.1,Win32,166.6666667,,,,,,,2,,4,2.16,3.84,,0,74,74,74,1,75,Sam,Rej,Participant_Images/660482648009855d3c92ce84/660482648009855d3c92ce84_Images/660482648009855d3c92ce84_Image_18.jpeg,liked,2.642157193,,,,,,,,,,,,,,,,,,space,4.7337,
,,660482648009855d3c92ce84,2024-04-13_09h30.17.105,WTP_SM_Choice,2022.2.1,Win32,166.6666667,,,space,3.3529,space,0.3968,NAN,,NAN,2.16,3.84,,0,75,75,75,1,76,Charlie,Acc,Participant_Images/660482648009855d3c92ce84/660482648009855d3c92ce84_Images/660482648009855d3c92ce84_Image_9.jpeg,did not like,4.456234322,,,,,,,,,,,,,,,,,,,,
,,660482648009855d3c92ce84,2024-04-13_09h30.17.105,WTP_SM_Choice,2022.2.1,Win32,166.6666667,,,,,space,0.492,NAN,,NAN,2.16,3.84,,0,76,76,76,1,77,Charlie,Acc,Participant_Images/660482648009855d3c92ce84/660482648009855d3c92ce84_Images/660482648009855d3c92ce84_Image_21.jpeg,did not like,4.438512181,,,,,,,,,,,,,,,,,,,,
,,660482648009855d3c92ce84,2024-04-13_09h30.17.105,WTP_SM_Choice,2022.2.1,Win32,166.6666667,,,,,space,0.504,NAN,,NAN,2.16,3.84,,0,77,77,77,1,78,Charlie,Acc,Participant_Images/660482648009855d3c92ce84/660482648009855d3c92ce84_Images/660482648009855d3c92ce84_Image_2.jpeg,liked,2.682944783,,,,,,,,,,,,,,,,,,,,
,,660482648009855d3c92ce84,2024-04-13_09h30.17.105,WTP_SM_Choice,2022.2.1,Win32,166.6666667,,,,,space,0.7038,NAN,,NAN,2.16,3.84,,0,78,78,78,1,79,Charlie,Acc,Participant_Images/660482648009855d3c92ce84/660482648009855d3c92ce84_Images/660482648009855d3c92ce84_Image_10.jpeg,liked,4.51984296,,,,,,,,,,,,,,,,,,,,
,,660482648009855d3c92ce84,2024-04-13_09h30.17.105,WTP_SM_Choice,2022.2.1,Win32,166.6666667,,,,,,,,,,,,,,,,,,76,,,,,,space,2.7944,space,0.5667,0.01,1,2.0192,0,0,0,0,1,Working on prolific,Having parties,0.01,0.01,1.1,,,
,,660482648009855d3c92ce84,2024-04-13_09h30.17.105,WTP_SM_Choice,2022.2.1,Win32,166.6666667,,,,,,,,,,,,,,,,,,77,,,,,,,,,,0.01,2,2.0574,0,1,1,1,1,Watching movies,Going to the park with others,0.02,0.01,8.8,,,
,,660482648009855d3c92ce84,2024-04-13_09h30.17.105,WTP_SM_Choice,2022.2.1,Win32,166.6666667,,,,,,,,,,,,,,,,,,78,,,,,,,,,,0.03,1,1.3128,0,2,2,2,1,Playing with dogs,Playing exploding kittens,0.03,0.01,1.1,,,
,,660482648009855d3c92ce84,2024-04-13_09h30.17.105,WTP_SM_Choice,2022.2.1,Win32,166.6666667,,,,,,,,,,,,,,,,,,79,,,,,,,,,,0.01,2,4.2856,0,3,3,3,1,Watching movies,Playing competitive video games,0.04,0.01,1.1,,,
,,660482648009855d3c92ce84,2024-04-13_09h30.17.105,WTP_SM_Choice,2022.2.1,Win32,166.6666667,,,,,,,,,,,,,,,,,,80,,,,,,,,,,0.01,2,1.8032,0,4,4,4,1,Playing video games,Playing exploding kittens,0.05,0.01,4.4,,,
,,660482648009855d3c92ce84,2024-04-13_09h30.17.105,WTP_SM_Choice,2022.2.1,Win32,166.6666667,,,,,,,NAN,,NAN,2.23,3.77,,0,79,79,79,1,80,Charlie,Acc,Participant_Images/660482648009855d3c92ce84/660482648009855d3c92ce84_Images/660482648009855d3c92ce84_Image_6.jpeg,did not like,3.195382774,,,,,,,,,,,,,,,,,,,,
,,660482648009855d3c92ce84,2024-04-13_09h30.17.105,WTP_SM_Choice,2022.2.1,Win32,166.6666667,,,,,space,2.0612,NAN,,NAN,2.23,3.77,,0,80,80,80,1,81,Charlie,Acc,Participant_Images/660482648009855d3c92ce84/660482648009855d3c92ce84_Images/660482648009855d3c92ce84_Image_5.jpeg,liked,1.779333479,,,,,,,,,,,,,,,,,,,,
,,660482648009855d3c92ce84,2024-04-13_09h30.17.105,WTP_SM_Choice,2022.2.1,Win32,166.6666667,,,,,space,1.2439,NAN,,NAN,2.23,3.77,,0,81,81,81,1,82,Charlie,Acc,Participant_Images/660482648009855d3c92ce84/660482648009855d3c92ce84_Images/660482648009855d3c92ce84_Image_24.jpeg,liked,4.312468682,,,,,,,,,,,,,,,,,,,,
,,660482648009855d3c92ce84,2024-04-13_09h30.17.105,WTP_SM_Choice,2022.2.1,Win32,166.6666667,,,,,space,1.0096,NAN,,NAN,2.23,3.77,,0,82,82,82,1,83,Charlie,Acc,Participant_Images/660482648009855d3c92ce84/660482648009855d3c92ce84_Images/660482648009855d3c92ce84_Image_4.jpeg,liked,4.940433059,,,,,,,,,,,,,,,,,,,,
,,660482648009855d3c92ce84,2024-04-13_09h30.17.105,WTP_SM_Choice,2022.2.1,Win32,166.6666667,,,,,space,4.1784,NAN,,NAN,2.23,3.77,,0,83,83,83,1,84,Charlie,Acc,Participant_Images/660482648009855d3c92ce84/660482648009855d3c92ce84_Images/660482648009855d3c92ce84_Image_16.jpeg,liked,2.7105123,,,,,,,,,,,,,,,,,,,,
,,660482648009855d3c92ce84,2024-04-13_09h30.17.105,WTP_SM_Choice,2022.2.1,Win32,166.6666667,,,,,,,,,,,,,,,,,,81,,,,,,space,0.6522,space,0.7085,0.02,2,1.6463,0,0,0,0,1,Playing video games,Going to the park with others,0.01,0.02,3.3,,,
,,660482648009855d3c92ce84,2024-04-13_09h30.17.105,WTP_SM_Choice,2022.2.1,Win32,166.6666667,,,,,,,,,,,,,,,,,,82,,,,,,,,,,0.02,2,1.4914,0,1,1,1,1,Play Villainous,Hanging out with friends,0.02,0.02,4.4,,,
,,660482648009855d3c92ce84,2024-04-13_09h30.17.105,WTP_SM_Choice,2022.2.1,Win32,166.6666667,,,,,,,,,,,,,,,,,,83,,,,,,,,,,0.02,2,1.3734,0,2,2,2,1,Play Villainous,Playing DND,0.03,0.02,1.1,,,
,,660482648009855d3c92ce84,2024-04-13_09h30.17.105,WTP_SM_Choice,2022.2.1,Win32,166.6666667,,,,,,,,,,,,,,,,,,84,,,,,,,,,,0.02,2,1.928,0,3,3,3,1,Play Villainous,Watching movies at the movie theater,0.04,0.02,3.3,,,
,,660482648009855d3c92ce84,2024-04-13_09h30.17.105,WTP_SM_Choice,2022.2.1,Win32,166.6666667,,,,,,,,,,,,,,,,,,85,,,,,,,,,,0.05,1,5.1865,0,4,4,4,1,Working on a craft project like chainmail,Going to pizza places or other mass gathering areas,0.05,0.02,3.3,,,
,,660482648009855d3c92ce84,2024-04-13_09h30.17.105,WTP_SM_Choice,2022.2.1,Win32,166.6666667,,,,,,,NAN,,NAN,2.36,3.64,,0,84,84,84,1,85,Charlie,Acc,Participant_Images/660482648009855d3c92ce84/660482648009855d3c92ce84_Images/660482648009855d3c92ce84_Image_1.jpeg,liked,3.602308302,,,,,,,,,,,,,,,,,,,,
,,660482648009855d3c92ce84,2024-04-13_09h30.17.105,WTP_SM_Choice,2022.2.1,Win32,166.6666667,,,,,space,1.9669,NAN,,NAN,2.36,3.64,,0,85,85,85,1,86,Charlie,Acc,Participant_Images/660482648009855d3c92ce84/660482648009855d3c92ce84_Images/660482648009855d3c92ce84_Image_18.jpeg,liked,4.106391878,,,,,,,,,,,,,,,,,,,,
,,660482648009855d3c92ce84,2024-04-13_09h30.17.105,WTP_SM_Choice,2022.2.1,Win32,166.6666667,,,,,space,0.9649,NAN,,NAN,2.36,3.64,,0,86,86,86,1,87,Charlie,Acc,Participant_Images/660482648009855d3c92ce84/660482648009855d3c92ce84_Images/660482648009855d3c92ce84_Image_15.jpeg,did not like,3.799433026,,,,,,,,,,,,,,,,,,,,
,,660482648009855d3c92ce84,2024-04-13_09h30.17.105,WTP_SM_Choice,2022.2.1,Win32,166.6666667,,,,,space,1.5272,NAN,,NAN,2.36,3.64,,0,87,87,87,1,88,Charlie,Acc,Participant_Images/660482648009855d3c92ce84/660482648009855d3c92ce84_Images/660482648009855d3c92ce84_Image_12.jpeg,liked,5.246980764,,,,,,,,,,,,,,,,,,,,
,,660482648009855d3c92ce84,2024-04-13_09h30.17.105,WTP_SM_Choice,2022.2.1,Win32,166.6666667,,,,,space,4.0068,NAN,,NAN,2.36,3.64,,0,88,88,88,1,89,Charlie,Acc,Participant_Images/660482648009855d3c92ce84/660482648009855d3c92ce84_Images/660482648009855d3c92ce84_Image_20.jpeg,liked,3.30081769,,,,,,,,,,,,,,,,,,,,
,,660482648009855d3c92ce84,2024-04-13_09h30.17.105,WTP_SM_Choice,2022.2.1,Win32,166.6666667,,,,,,,,,,,,,,,,,,86,,,,,,space,0.8108,space,0.5842,0.03,2,1.6351,0,0,0,0,1,Playing with dogs,Watching movies at the movie theater,0.01,0.03,1.1,,,
,,660482648009855d3c92ce84,2024-04-13_09h30.17.105,WTP_SM_Choice,2022.2.1,Win32,166.6666667,,,,,,,,,,,,,,,,,,87,,,,,,,,,,0.02,1,1.4148,0,1,1,1,1,Reading a book,Playing exploding kittens,0.02,0.03,4.4,,,
,,660482648009855d3c92ce84,2024-04-13_09h30.17.105,WTP_SM_Choice,2022.2.1,Win32,166.6666667,,,,,,,,,,,,,,,,,,88,,,,,,,,,,0.03,1,2.4681,0,2,2,2,1,Sleeping,Having parties,0.03,0.03,1.1,,,
,,660482648009855d3c92ce84,2024-04-13_09h30.17.105,WTP_SM_Choice,2022.2.1,Win32,166.6666667,,,,,,,,,,,,,,,,,,89,,,,,,,,,,0.04,1,1.5767,0,3,3,3,1,Working on a craft project like chainmail,Playing Baldurs gate board game,0.04,0.03,3.3,,,
,,660482648009855d3c92ce84,2024-04-13_09h30.17.105,WTP_SM_Choice,2022.2.1,Win32,166.6666667,,,,,,,,,,,,,,,,,,90,,,,,,,,,,0.03,2,2.0145,0,4,4,4,1,Swimming,Hanging out with friends,0.05,0.03,8.8,,,
,,660482648009855d3c92ce84,2024-04-13_09h30.17.105,WTP_SM_Choice,2022.2.1,Win32,166.6666667,,,,,,,NAN,,NAN,2.51,3.49,,0,89,89,89,1,90,Charlie,Acc,Participant_Images/660482648009855d3c92ce84/660482648009855d3c92ce84_Images/660482648009855d3c92ce84_Image_8.jpeg,liked,1.661473164,,,,,,,,,,,,,,,,,,,,
,,660482648009855d3c92ce84,2024-04-13_09h30.17.105,WTP_SM_Choice,2022.2.1,Win32,166.6666667,,,,,space,1.1153,NAN,,NAN,2.51,3.49,,0,90,90,90,1,91,Charlie,Acc,Participant_Images/660482648009855d3c92ce84/660482648009855d3c92ce84_Images/660482648009855d3c92ce84_Image_19.jpeg,liked,3.613205605,,,,,,,,,,,,,,,,,,,,
,,660482648009855d3c92ce84,2024-04-13_09h30.17.105,WTP_SM_Choice,2022.2.1,Win32,166.6666667,,,,,space,1.3066,NAN,,NAN,2.51,3.49,,0,91,91,91,1,92,Charlie,Acc,Participant_Images/660482648009855d3c92ce84/660482648009855d3c92ce84_Images/660482648009855d3c92ce84_Image_13.jpeg,liked,4.988446431,,,,,,,,,,,,,,,,,,,,
,,660482648009855d3c92ce84,2024-04-13_09h30.17.105,WTP_SM_Choice,2022.2.1,Win32,166.6666667,,,,,space,0.9042,NAN,,NAN,2.51,3.49,,0,92,92,92,1,93,Charlie,Acc,Participant_Images/660482648009855d3c92ce84/660482648009855d3c92ce84_Images/660482648009855d3c92ce84_Image_23.jpeg,did not like,3.470791822,,,,,,,,,,,,,,,,,,,,
,,660482648009855d3c92ce84,2024-04-13_09h30.17.105,WTP_SM_Choice,2022.2.1,Win32,166.6666667,,,,,space,0.7818,NAN,,NAN,2.51,3.49,,0,93,93,93,1,94,Charlie,Acc,Participant_Images/660482648009855d3c92ce84/660482648009855d3c92ce84_Images/660482648009855d3c92ce84_Image_11.jpeg,liked,3.820572462,,,,,,,,,,,,,,,,,,,,
,,660482648009855d3c92ce84,2024-04-13_09h30.17.105,WTP_SM_Choice,2022.2.1,Win32,166.6666667,,,,,,,,,,,,,,,,,,91,,,,,,space,1.5128,space,0.8188,0.01,1,1.8678,0,0,0,0,1,Eating fancier foods,Playing Baldurs gate board game,0.01,0.04,3.3,,,
,,660482648009855d3c92ce84,2024-04-13_09h30.17.105,WTP_SM_Choice,2022.2.1,Win32,166.6666667,,,,,,,,,,,,,,,,,,92,,,,,,,,,,0.04,2,1.3861,0,1,1,1,1,Play Villainous,Having parties,0.02,0.04,8.8,,,
,,660482648009855d3c92ce84,2024-04-13_09h30.17.105,WTP_SM_Choice,2022.2.1,Win32,166.6666667,,,,,,,,,,,,,,,,,,93,,,,,,,,,,0.04,2,2.8764,0,2,2,2,1,Playing video games,Hanging out with friends,0.03,0.04,1.1,,,
,,660482648009855d3c92ce84,2024-04-13_09h30.17.105,WTP_SM_Choice,2022.2.1,Win32,166.6666667,,,,,,,,,,,,,,,,,,94,,,,,,,,,,0.04,1,1.5864,0,3,3,3,1,Watching movies,Playing exploding kittens,0.04,0.04,4.4,,,
,,660482648009855d3c92ce84,2024-04-13_09h30.17.105,WTP_SM_Choice,2022.2.1,Win32,166.6666667,,,,,,,,,,,,,,,,,,95,,,,,,,,,,0.05,1,5.5977,0,4,4,4,1,Swimming,Going to pizza places or other mass gathering areas,0.05,0.04,4.4,,,
,,660482648009855d3c92ce84,2024-04-13_09h30.17.105,WTP_SM_Choice,2022.2.1,Win32,166.6666667,,,,,,,NAN,,NAN,2.69,3.31,,0,94,94,94,1,95,Charlie,Acc,Participant_Images/660482648009855d3c92ce84/660482648009855d3c92ce84_Images/660482648009855d3c92ce84_Image_14.jpeg,liked,2.455989137,,,,,,,,,,,,,,,,,,,,
,,660482648009855d3c92ce84,2024-04-13_09h30.17.105,WTP_SM_Choice,2022.2.1,Win32,166.6666667,,,,,space,0.546,NAN,,NAN,2.69,3.31,,0,95,95,95,1,96,Charlie,Acc,Participant_Images/660482648009855d3c92ce84/660482648009855d3c92ce84_Images/660482648009855d3c92ce84_Image_25.jpeg,did not like,3.79605092,,,,,,,,,,,,,,,,,,,,
,,660482648009855d3c92ce84,2024-04-13_09h30.17.105,WTP_SM_Choice,2022.2.1,Win32,166.6666667,,,,,space,1.8248,NAN,,NAN,2.69,3.31,,0,96,96,96,1,97,Charlie,Acc,Participant_Images/660482648009855d3c92ce84/660482648009855d3c92ce84_Images/660482648009855d3c92ce84_Image_3.jpeg,did not like,3.562416326,,,,,,,,,,,,,,,,,,,,
,,660482648009855d3c92ce84,2024-04-13_09h30.17.105,WTP_SM_Choice,2022.2.1,Win32,166.6666667,,,,,space,4.5277,NAN,,NAN,2.69,3.31,,0,97,97,97,1,98,Charlie,Acc,Participant_Images/660482648009855d3c92ce84/660482648009855d3c92ce84_Images/660482648009855d3c92ce84_Image_17.jpeg,liked,2.843822497,,,,,,,,,,,,,,,,,,,,
,,660482648009855d3c92ce84,2024-04-13_09h30.17.105,WTP_SM_Choice,2022.2.1,Win32,166.6666667,,,,,space,0.7416,NAN,,NAN,2.69,3.31,,0,98,98,98,1,99,Charlie,Acc,Participant_Images/660482648009855d3c92ce84/660482648009855d3c92ce84_Images/660482648009855d3c92ce84_Image_22.jpeg,liked,3.546495948,,,,,,,,,,,,,,,,,,,,
,,660482648009855d3c92ce84,2024-04-13_09h30.17.105,WTP_SM_Choice,2022.2.1,Win32,166.6666667,,,,,,,,,,,,,,,,,,96,,,,,,space,0.8186,space,0.4181,0.01,1,1.0593,0,0,0,0,1,Working on prolific,Playing DND,0.01,0.05,3.3,,,
,,660482648009855d3c92ce84,2024-04-13_09h30.17.105,WTP_SM_Choice,2022.2.1,Win32,166.6666667,,,,,,,,,,,,,,,,,,97,,,,,,,,,,0.02,1,5.5942,0,1,1,1,1,Sleeping,Hanging out with friends,0.02,0.05,1.1,,,
,,660482648009855d3c92ce84,2024-04-13_09h30.17.105,WTP_SM_Choice,2022.2.1,Win32,166.6666667,,,,,,,,,,,,,,,,,,98,,,,,,,,,,0.05,2,1.5521,0,2,2,2,1,Reading a book,Watching movies at the movie theater,0.03,0.05,1.1,,,
,,660482648009855d3c92ce84,2024-04-13_09h30.17.105,WTP_SM_Choice,2022.2.1,Win32,166.6666667,,,,,,,,,,,,,,,,,,99,,,,,,,,,,0.04,1,1.1011,0,3,3,3,1,Reading a book,Playing DND,0.04,0.05,3.3,,,
,,660482648009855d3c92ce84,2024-04-13_09h30.17.105,WTP_SM_Choice,2022.2.1,Win32,166.6666667,,,,,,,,,,,,,,,,,,100,,,,,,,,,,0.05,1,1.1153,0,4,4,4,1,Sleeping,Playing Baldurs gate board game,0.05,0.05,4.4,,,
,,660482648009855d3c92ce84,2024-04-13_09h30.17.105,WTP_SM_Choice,2022.2.1,Win32,166.6666667,,,,,,,3,,3,2.86,3.14,,0,99,99,99,1,100,Charlie,Acc,Participant_Images/660482648009855d3c92ce84/660482648009855d3c92ce84_Images/660482648009855d3c92ce84_Image_7.jpeg,liked,1.672012706,,,,,,,,,,,,,,,,,,space,0.7638,
