endwelcomescreen_keys.keys,endwelcomescreen_keys.rt,participant,STUDY_ID,SESSION_ID,date,expName,psychopyVersion,OS,frameRate,endinstructionscreen_keys.keys,endinstructionscreen_keys.rt,endpartnermatch_keys.keys,endpartnermatch_keys.rt,sharenextphoto_key.keys,sharenextphoto_key.rt,salience_rating,key_resp.keys,stress_level,subtract_bonus,TOTAL_TASK_BONUS,stresslevel_keypress.keys,entiretaskloop.thisRepN,entiretaskloop.thisTrialN,entiretaskloop.thisN,entiretaskloop.thisIndex,entiretaskloop.ran,TrialNumber,Partner,Condition,Photos,Feedback,FeedbackWait,WTP_ins_keys1.keys,WTP_ins_keys1.rt,WTP_ins_keys2.keys,WTP_ins_keys2.rt,decision_price,responses.keys,responses.rt,WTPTaskLoop.thisRepN,WTPTaskLoop.thisTrialN,WTPTaskLoop.thisN,WTPTaskLoop.thisIndex,WTPTaskLoop.ran,right,left,leftmoney,rightmoney,WTP_ITI,social_left,Resume_keys.keys,Resume_keys.rt,end_screen_keys.keys,end_screen_keys.rt
space,12.6538,661fee35973b5ff6fa3418ef,6685aa9113c938e83b4f1ea0,66b41c4dd3aee3fac9f5f1ad,2024-08-07_18h16.40.996,WTP_SM_Choice,2022.2.1,Win32,163.9344262,,,,,,,,,,,,,,,,,,,,,,,,,,,,,,,,,,,,,,,,,,,,,
,,661fee35973b5ff6fa3418ef,6685aa9113c938e83b4f1ea0,66b41c4dd3aee3fac9f5f1ad,2024-08-07_18h16.40.996,WTP_SM_Choice,2022.2.1,Win32,163.9344262,space,16.276,,,,,,,,,,,,,,,,,,,,,,,,,,,,,,,,,,,,,,,,,,,
,,661fee35973b5ff6fa3418ef,6685aa9113c938e83b4f1ea0,66b41c4dd3aee3fac9f5f1ad,2024-08-07_18h16.40.996,WTP_SM_Choice,2022.2.1,Win32,163.9344262,,,space,16.2332,space,2.4291,NAN,,NAN,0,6,,0,0,0,0,1,1,Alex,Acc,Participant_Images/661fee35973b5ff6fa3418ef/661fee35973b5ff6fa3418ef_Images/661fee35973b5ff6fa3418ef_Image_11.jpeg,liked,3.613205605,,,,,,,,,,,,,,,,,,,,,,
,,661fee35973b5ff6fa3418ef,6685aa9113c938e83b4f1ea0,66b41c4dd3aee3fac9f5f1ad,2024-08-07_18h16.40.996,WTP_SM_Choice,2022.2.1,Win32,163.9344262,,,,,space,13.3496,NAN,,NAN,0,6,,0,1,1,1,1,2,Alex,Acc,Participant_Images/661fee35973b5ff6fa3418ef/661fee35973b5ff6fa3418ef_Images/661fee35973b5ff6fa3418ef_Image_1.jpeg,liked,4.988446431,,,,,,,,,,,,,,,,,,,,,,
,,661fee35973b5ff6fa3418ef,6685aa9113c938e83b4f1ea0,66b41c4dd3aee3fac9f5f1ad,2024-08-07_18h16.40.996,WTP_SM_Choice,2022.2.1,Win32,163.9344262,,,,,space,5.6172,NAN,,NAN,0,6,,0,2,2,2,1,3,Alex,Acc,Participant_Images/661fee35973b5ff6fa3418ef/661fee35973b5ff6fa3418ef_Images/661fee35973b5ff6fa3418ef_Image_13.jpeg,liked,3.470791822,,,,,,,,,,,,,,,,,,,,,,
,,661fee35973b5ff6fa3418ef,6685aa9113c938e83b4f1ea0,66b41c4dd3aee3fac9f5f1ad,2024-08-07_18h16.40.996,WTP_SM_Choice,2022.2.1,Win32,163.9344262,,,,,space,3.1631,NAN,,NAN,0,6,,0,3,3,3,1,4,Alex,Acc,Participant_Images/661fee35973b5ff6fa3418ef/661fee35973b5ff6fa3418ef_Images/661fee35973b5ff6fa3418ef_Image_2.jpeg,liked,3.820572462,,,,,,,,,,,,,,,,,,,,,,
,,661fee35973b5ff6fa3418ef,6685aa9113c938e83b4f1ea0,66b41c4dd3aee3fac9f5f1ad,2024-08-07_18h16.40.996,WTP_SM_Choice,2022.2.1,Win32,163.9344262,,,,,,,,,,,,,,,,,,1,,,,,,space,23.214,space,11.4913,0.01,2,1.963,0,0,0,0,1,Call with my friends and talks for fun things,Find someting fun in my back door,0.01,0.01,4.4,0,,,,
,,661fee35973b5ff6fa3418ef,6685aa9113c938e83b4f1ea0,66b41c4dd3aee3fac9f5f1ad,2024-08-07_18h16.40.996,WTP_SM_Choice,2022.2.1,Win32,163.9344262,,,,,,,,,,,,,,,,,,2,,,,,,,,,,0.01,2,3.5073,0,1,1,1,1,Play video games in my room,Call with my friends and talks for fun things,0.02,0.01,8.8,1,,,,
,,661fee35973b5ff6fa3418ef,6685aa9113c938e83b4f1ea0,66b41c4dd3aee3fac9f5f1ad,2024-08-07_18h16.40.996,WTP_SM_Choice,2022.2.1,Win32,163.9344262,,,,,,,,,,,,,,,,,,3,,,,,,,,,,0.03,1,1.4759,0,2,2,2,1,Sing songs when I go to the bathroom,Go shopping in a sunny day,0.03,0.01,3.3,1,,,,
,,661fee35973b5ff6fa3418ef,6685aa9113c938e83b4f1ea0,66b41c4dd3aee3fac9f5f1ad,2024-08-07_18h16.40.996,WTP_SM_Choice,2022.2.1,Win32,163.9344262,,,,,,,,,,,,,,,,,,4,,,,,,,,,,0.04,1,1.1371,0,3,3,3,1,Take care my home and clean up my home in sunny say,Play video games with my family during weekend,0.04,0.01,1.1,1,,,,
,,661fee35973b5ff6fa3418ef,6685aa9113c938e83b4f1ea0,66b41c4dd3aee3fac9f5f1ad,2024-08-07_18h16.40.996,WTP_SM_Choice,2022.2.1,Win32,163.9344262,,,,,,,,,,,,,,,,,,5,,,,,,,,,,0.05,1,1.1884,0,4,4,4,1,Go shopping in a sunny day,Take care my home and clean up my home in sunny say,0.05,0.01,1.1,0,,,,
,,661fee35973b5ff6fa3418ef,6685aa9113c938e83b4f1ea0,66b41c4dd3aee3fac9f5f1ad,2024-08-07_18h16.40.996,WTP_SM_Choice,2022.2.1,Win32,163.9344262,,,,,,,NAN,,NAN,0.14,5.86,,0,4,4,4,1,5,Alex,Acc,Participant_Images/661fee35973b5ff6fa3418ef/661fee35973b5ff6fa3418ef_Images/661fee35973b5ff6fa3418ef_Image_10.jpeg,liked,2.455989137,,,,,,,,,,,,,,,,,,,,,,
,,661fee35973b5ff6fa3418ef,6685aa9113c938e83b4f1ea0,66b41c4dd3aee3fac9f5f1ad,2024-08-07_18h16.40.996,WTP_SM_Choice,2022.2.1,Win32,163.9344262,,,,,space,1.0186,NAN,,NAN,0.14,5.86,,0,5,5,5,1,6,Alex,Acc,Participant_Images/661fee35973b5ff6fa3418ef/661fee35973b5ff6fa3418ef_Images/661fee35973b5ff6fa3418ef_Image_14.jpeg,did not like,3.79605092,,,,,,,,,,,,,,,,,,,,,,
,,661fee35973b5ff6fa3418ef,6685aa9113c938e83b4f1ea0,66b41c4dd3aee3fac9f5f1ad,2024-08-07_18h16.40.996,WTP_SM_Choice,2022.2.1,Win32,163.9344262,,,,,space,0.6429,NAN,,NAN,0.14,5.86,,0,6,6,6,1,7,Alex,Acc,Participant_Images/661fee35973b5ff6fa3418ef/661fee35973b5ff6fa3418ef_Images/661fee35973b5ff6fa3418ef_Image_7.jpeg,liked,3.562416326,,,,,,,,,,,,,,,,,,,,,,
,,661fee35973b5ff6fa3418ef,6685aa9113c938e83b4f1ea0,66b41c4dd3aee3fac9f5f1ad,2024-08-07_18h16.40.996,WTP_SM_Choice,2022.2.1,Win32,163.9344262,,,,,space,1.7404,NAN,,NAN,0.14,5.86,,0,7,7,7,1,8,Alex,Acc,Participant_Images/661fee35973b5ff6fa3418ef/661fee35973b5ff6fa3418ef_Images/661fee35973b5ff6fa3418ef_Image_6.jpeg,liked,2.843822497,,,,,,,,,,,,,,,,,,,,,,
,,661fee35973b5ff6fa3418ef,6685aa9113c938e83b4f1ea0,66b41c4dd3aee3fac9f5f1ad,2024-08-07_18h16.40.996,WTP_SM_Choice,2022.2.1,Win32,163.9344262,,,,,space,0.8545,NAN,,NAN,0.14,5.86,,0,8,8,8,1,9,Alex,Acc,Participant_Images/661fee35973b5ff6fa3418ef/661fee35973b5ff6fa3418ef_Images/661fee35973b5ff6fa3418ef_Image_16.jpeg,liked,3.546495948,,,,,,,,,,,,,,,,,,,,,,
,,661fee35973b5ff6fa3418ef,6685aa9113c938e83b4f1ea0,66b41c4dd3aee3fac9f5f1ad,2024-08-07_18h16.40.996,WTP_SM_Choice,2022.2.1,Win32,163.9344262,,,,,,,,,,,,,,,,,,6,,,,,,space,2.0456,space,1.9271,0.02,2,1.3514,0,0,0,0,1,Help my dog to clean up and play in the backyard,Buy food in the weekend with my family,0.01,0.02,3.3,1,,,,
,,661fee35973b5ff6fa3418ef,6685aa9113c938e83b4f1ea0,66b41c4dd3aee3fac9f5f1ad,2024-08-07_18h16.40.996,WTP_SM_Choice,2022.2.1,Win32,163.9344262,,,,,,,,,,,,,,,,,,7,,,,,,,,,,0.02,1,1.3304,0,1,1,1,1,Play video games in my room,Play video games with my family during weekend,0.02,0.02,1.1,1,,,,
,,661fee35973b5ff6fa3418ef,6685aa9113c938e83b4f1ea0,66b41c4dd3aee3fac9f5f1ad,2024-08-07_18h16.40.996,WTP_SM_Choice,2022.2.1,Win32,163.9344262,,,,,,,,,,,,,,,,,,8,,,,,,,,,,0.03,1,1.6583,0,2,2,2,1,Play music in my free time in my music room,Watch movies with my family when I have time,0.03,0.02,1.1,1,,,,
,,661fee35973b5ff6fa3418ef,6685aa9113c938e83b4f1ea0,66b41c4dd3aee3fac9f5f1ad,2024-08-07_18h16.40.996,WTP_SM_Choice,2022.2.1,Win32,163.9344262,,,,,,,,,,,,,,,,,,9,,,,,,,,,,0.04,1,0.8858,0,3,3,3,1,Watch movies with my family when I have time,Sing songs when I go to the bathroom,0.04,0.02,4.4,0,,,,
,,661fee35973b5ff6fa3418ef,6685aa9113c938e83b4f1ea0,66b41c4dd3aee3fac9f5f1ad,2024-08-07_18h16.40.996,WTP_SM_Choice,2022.2.1,Win32,163.9344262,,,,,,,,,,,,,,,,,,10,,,,,,,,,,0.05,1,1.4143,0,4,4,4,1,Buy food in the weekend with my family,Take care my home and clean up my home in sunny say,0.05,0.02,1.1,0,,,,
,,661fee35973b5ff6fa3418ef,6685aa9113c938e83b4f1ea0,66b41c4dd3aee3fac9f5f1ad,2024-08-07_18h16.40.996,WTP_SM_Choice,2022.2.1,Win32,163.9344262,,,,,,,NAN,,NAN,0.3,5.7,,0,9,9,9,1,10,Alex,Acc,Participant_Images/661fee35973b5ff6fa3418ef/661fee35973b5ff6fa3418ef_Images/661fee35973b5ff6fa3418ef_Image_20.jpeg,liked,1.672012706,,,,,,,,,,,,,,,,,,,,,,
,,661fee35973b5ff6fa3418ef,6685aa9113c938e83b4f1ea0,66b41c4dd3aee3fac9f5f1ad,2024-08-07_18h16.40.996,WTP_SM_Choice,2022.2.1,Win32,163.9344262,,,,,space,3.7813,NAN,,NAN,0.3,5.7,,0,10,10,10,1,11,Alex,Acc,Participant_Images/661fee35973b5ff6fa3418ef/661fee35973b5ff6fa3418ef_Images/661fee35973b5ff6fa3418ef_Image_22.jpeg,did not like,4.942172136,,,,,,,,,,,,,,,,,,,,,,
,,661fee35973b5ff6fa3418ef,6685aa9113c938e83b4f1ea0,66b41c4dd3aee3fac9f5f1ad,2024-08-07_18h16.40.996,WTP_SM_Choice,2022.2.1,Win32,163.9344262,,,,,space,1.7273,NAN,,NAN,0.3,5.7,,0,11,11,11,1,12,Alex,Acc,Participant_Images/661fee35973b5ff6fa3418ef/661fee35973b5ff6fa3418ef_Images/661fee35973b5ff6fa3418ef_Image_25.jpeg,liked,2.50187214,,,,,,,,,,,,,,,,,,,,,,
,,661fee35973b5ff6fa3418ef,6685aa9113c938e83b4f1ea0,66b41c4dd3aee3fac9f5f1ad,2024-08-07_18h16.40.996,WTP_SM_Choice,2022.2.1,Win32,163.9344262,,,,,space,0.8974,NAN,,NAN,0.3,5.7,,0,12,12,12,1,13,Alex,Acc,Participant_Images/661fee35973b5ff6fa3418ef/661fee35973b5ff6fa3418ef_Images/661fee35973b5ff6fa3418ef_Image_15.jpeg,liked,2.071164779,,,,,,,,,,,,,,,,,,,,,,
,,661fee35973b5ff6fa3418ef,6685aa9113c938e83b4f1ea0,66b41c4dd3aee3fac9f5f1ad,2024-08-07_18h16.40.996,WTP_SM_Choice,2022.2.1,Win32,163.9344262,,,,,space,0.9584,NAN,,NAN,0.3,5.7,,0,13,13,13,1,14,Alex,Acc,Participant_Images/661fee35973b5ff6fa3418ef/661fee35973b5ff6fa3418ef_Images/661fee35973b5ff6fa3418ef_Image_19.jpeg,liked,5.336503566,,,,,,,,,,,,,,,,,,,,,,
,,661fee35973b5ff6fa3418ef,6685aa9113c938e83b4f1ea0,66b41c4dd3aee3fac9f5f1ad,2024-08-07_18h16.40.996,WTP_SM_Choice,2022.2.1,Win32,163.9344262,,,,,,,,,,,,,,,,,,11,,,,,,space,1.0971,space,0.6541,0.03,2,0.9989,0,0,0,0,1,Play with my dog for the ball games,Play basketball with my friends in sunny day,0.01,0.03,3.3,1,,,,
,,661fee35973b5ff6fa3418ef,6685aa9113c938e83b4f1ea0,66b41c4dd3aee3fac9f5f1ad,2024-08-07_18h16.40.996,WTP_SM_Choice,2022.2.1,Win32,163.9344262,,,,,,,,,,,,,,,,,,12,,,,,,,,,,0.03,2,1.2536,0,1,1,1,1,Play with my dog with my family and play it for fun,Play with my dog for the ball games,0.02,0.03,4.4,0,,,,
,,661fee35973b5ff6fa3418ef,6685aa9113c938e83b4f1ea0,66b41c4dd3aee3fac9f5f1ad,2024-08-07_18h16.40.996,WTP_SM_Choice,2022.2.1,Win32,163.9344262,,,,,,,,,,,,,,,,,,13,,,,,,,,,,0.03,2,1.3064,0,2,2,2,1,Find someting fun in my back door,Play video games with my family during weekend,0.03,0.03,1.1,1,,,,
,,661fee35973b5ff6fa3418ef,6685aa9113c938e83b4f1ea0,66b41c4dd3aee3fac9f5f1ad,2024-08-07_18h16.40.996,WTP_SM_Choice,2022.2.1,Win32,163.9344262,,,,,,,,,,,,,,,,,,14,,,,,,,,,,0.04,1,1.3661,0,3,3,3,1,Play with my dog with my family and play it for fun,Take a nap in a sunny day in my backyard,0.04,0.03,3.3,0,,,,
,,661fee35973b5ff6fa3418ef,6685aa9113c938e83b4f1ea0,66b41c4dd3aee3fac9f5f1ad,2024-08-07_18h16.40.996,WTP_SM_Choice,2022.2.1,Win32,163.9344262,,,,,,,,,,,,,,,,,,15,,,,,,,,,,0.05,1,1.0543,0,4,4,4,1,Go shopping in a sunny day,Help my dog to clean up and play in the backyard,0.05,0.03,4.4,0,,,,
,,661fee35973b5ff6fa3418ef,6685aa9113c938e83b4f1ea0,66b41c4dd3aee3fac9f5f1ad,2024-08-07_18h16.40.996,WTP_SM_Choice,2022.2.1,Win32,163.9344262,,,,,,,NAN,,NAN,0.48,5.52,,0,14,14,14,1,15,Alex,Acc,Participant_Images/661fee35973b5ff6fa3418ef/661fee35973b5ff6fa3418ef_Images/661fee35973b5ff6fa3418ef_Image_21.jpeg,liked,2.642157193,,,,,,,,,,,,,,,,,,,,,,
,,661fee35973b5ff6fa3418ef,6685aa9113c938e83b4f1ea0,66b41c4dd3aee3fac9f5f1ad,2024-08-07_18h16.40.996,WTP_SM_Choice,2022.2.1,Win32,163.9344262,,,,,space,2.4443,NAN,,NAN,0.48,5.52,,0,15,15,15,1,16,Alex,Acc,Participant_Images/661fee35973b5ff6fa3418ef/661fee35973b5ff6fa3418ef_Images/661fee35973b5ff6fa3418ef_Image_5.jpeg,liked,4.456234322,,,,,,,,,,,,,,,,,,,,,,
,,661fee35973b5ff6fa3418ef,6685aa9113c938e83b4f1ea0,66b41c4dd3aee3fac9f5f1ad,2024-08-07_18h16.40.996,WTP_SM_Choice,2022.2.1,Win32,163.9344262,,,,,space,8.2349,NAN,,NAN,0.48,5.52,,0,16,16,16,1,17,Alex,Acc,Participant_Images/661fee35973b5ff6fa3418ef/661fee35973b5ff6fa3418ef_Images/661fee35973b5ff6fa3418ef_Image_17.jpeg,did not like,4.438512181,,,,,,,,,,,,,,,,,,,,,,
,,661fee35973b5ff6fa3418ef,6685aa9113c938e83b4f1ea0,66b41c4dd3aee3fac9f5f1ad,2024-08-07_18h16.40.996,WTP_SM_Choice,2022.2.1,Win32,163.9344262,,,,,space,3.2414,NAN,,NAN,0.48,5.52,,0,17,17,17,1,18,Alex,Acc,Participant_Images/661fee35973b5ff6fa3418ef/661fee35973b5ff6fa3418ef_Images/661fee35973b5ff6fa3418ef_Image_12.jpeg,did not like,2.682944783,,,,,,,,,,,,,,,,,,,,,,
,,661fee35973b5ff6fa3418ef,6685aa9113c938e83b4f1ea0,66b41c4dd3aee3fac9f5f1ad,2024-08-07_18h16.40.996,WTP_SM_Choice,2022.2.1,Win32,163.9344262,,,,,space,0.4908,NAN,,NAN,0.48,5.52,,0,18,18,18,1,19,Alex,Acc,Participant_Images/661fee35973b5ff6fa3418ef/661fee35973b5ff6fa3418ef_Images/661fee35973b5ff6fa3418ef_Image_4.jpeg,liked,4.51984296,,,,,,,,,,,,,,,,,,,,,,
,,661fee35973b5ff6fa3418ef,6685aa9113c938e83b4f1ea0,66b41c4dd3aee3fac9f5f1ad,2024-08-07_18h16.40.996,WTP_SM_Choice,2022.2.1,Win32,163.9344262,,,,,,,,,,,,,,,,,,16,,,,,,space,3.8174,space,1.2367,0.04,2,1.0381,0,0,0,0,1,Play with my dog with my family and play it for fun,Cook for for myself in rainy day,0.01,0.04,1.1,0,,,,
,,661fee35973b5ff6fa3418ef,6685aa9113c938e83b4f1ea0,66b41c4dd3aee3fac9f5f1ad,2024-08-07_18h16.40.996,WTP_SM_Choice,2022.2.1,Win32,163.9344262,,,,,,,,,,,,,,,,,,17,,,,,,,,,,0.04,2,1.9896,0,1,1,1,1,Take a nap in a sunny day in my backyard,Watch movies with my family when I have time,0.02,0.04,8.8,1,,,,
,,661fee35973b5ff6fa3418ef,6685aa9113c938e83b4f1ea0,66b41c4dd3aee3fac9f5f1ad,2024-08-07_18h16.40.996,WTP_SM_Choice,2022.2.1,Win32,163.9344262,,,,,,,,,,,,,,,,,,18,,,,,,,,,,0.04,2,1.2419,0,2,2,2,1,Play video games with my friends,Go out and take picture for me to post on Instagram,0.03,0.04,3.3,0,,,,
,,661fee35973b5ff6fa3418ef,6685aa9113c938e83b4f1ea0,66b41c4dd3aee3fac9f5f1ad,2024-08-07_18h16.40.996,WTP_SM_Choice,2022.2.1,Win32,163.9344262,,,,,,,,,,,,,,,,,,19,,,,,,,,,,0.04,1,1.5278,0,3,3,3,1,Play video games in my room,Buy food in the weekend with my family,0.04,0.04,3.3,1,,,,
,,661fee35973b5ff6fa3418ef,6685aa9113c938e83b4f1ea0,66b41c4dd3aee3fac9f5f1ad,2024-08-07_18h16.40.996,WTP_SM_Choice,2022.2.1,Win32,163.9344262,,,,,,,,,,,,,,,,,,20,,,,,,,,,,0.05,1,1.3669,0,4,4,4,1,Play with my dog for the ball games,Play video games with my friends,0.05,0.04,1.1,1,,,,
,,661fee35973b5ff6fa3418ef,6685aa9113c938e83b4f1ea0,66b41c4dd3aee3fac9f5f1ad,2024-08-07_18h16.40.996,WTP_SM_Choice,2022.2.1,Win32,163.9344262,,,,,,,NAN,,NAN,0.69,5.31,,0,19,19,19,1,20,Alex,Acc,Participant_Images/661fee35973b5ff6fa3418ef/661fee35973b5ff6fa3418ef_Images/661fee35973b5ff6fa3418ef_Image_8.jpeg,did not like,3.195382774,,,,,,,,,,,,,,,,,,,,,,
,,661fee35973b5ff6fa3418ef,6685aa9113c938e83b4f1ea0,66b41c4dd3aee3fac9f5f1ad,2024-08-07_18h16.40.996,WTP_SM_Choice,2022.2.1,Win32,163.9344262,,,,,space,4.9876,NAN,,NAN,0.69,5.31,,0,20,20,20,1,21,Alex,Acc,Participant_Images/661fee35973b5ff6fa3418ef/661fee35973b5ff6fa3418ef_Images/661fee35973b5ff6fa3418ef_Image_24.jpeg,liked,1.779333479,,,,,,,,,,,,,,,,,,,,,,
,,661fee35973b5ff6fa3418ef,6685aa9113c938e83b4f1ea0,66b41c4dd3aee3fac9f5f1ad,2024-08-07_18h16.40.996,WTP_SM_Choice,2022.2.1,Win32,163.9344262,,,,,space,5.1811,NAN,,NAN,0.69,5.31,,0,21,21,21,1,22,Alex,Acc,Participant_Images/661fee35973b5ff6fa3418ef/661fee35973b5ff6fa3418ef_Images/661fee35973b5ff6fa3418ef_Image_9.jpeg,did not like,4.312468682,,,,,,,,,,,,,,,,,,,,,,
,,661fee35973b5ff6fa3418ef,6685aa9113c938e83b4f1ea0,66b41c4dd3aee3fac9f5f1ad,2024-08-07_18h16.40.996,WTP_SM_Choice,2022.2.1,Win32,163.9344262,,,,,space,1.2366,NAN,,NAN,0.69,5.31,,0,22,22,22,1,23,Alex,Acc,Participant_Images/661fee35973b5ff6fa3418ef/661fee35973b5ff6fa3418ef_Images/661fee35973b5ff6fa3418ef_Image_18.jpeg,did not like,4.940433059,,,,,,,,,,,,,,,,,,,,,,
,,661fee35973b5ff6fa3418ef,6685aa9113c938e83b4f1ea0,66b41c4dd3aee3fac9f5f1ad,2024-08-07_18h16.40.996,WTP_SM_Choice,2022.2.1,Win32,163.9344262,,,,,space,0.7455,NAN,,NAN,0.69,5.31,,0,23,23,23,1,24,Alex,Acc,Participant_Images/661fee35973b5ff6fa3418ef/661fee35973b5ff6fa3418ef_Images/661fee35973b5ff6fa3418ef_Image_3.jpeg,liked,2.7105123,,,,,,,,,,,,,,,,,,,,,,
,,661fee35973b5ff6fa3418ef,6685aa9113c938e83b4f1ea0,66b41c4dd3aee3fac9f5f1ad,2024-08-07_18h16.40.996,WTP_SM_Choice,2022.2.1,Win32,163.9344262,,,,,,,,,,,,,,,,,,21,,,,,,space,1.2561,space,0.8119,0.05,2,1.7519,0,0,0,0,1,Take a nap in a sunny day in my backyard,Play video games with my family during weekend,0.01,0.05,8.8,1,,,,
,,661fee35973b5ff6fa3418ef,6685aa9113c938e83b4f1ea0,66b41c4dd3aee3fac9f5f1ad,2024-08-07_18h16.40.996,WTP_SM_Choice,2022.2.1,Win32,163.9344262,,,,,,,,,,,,,,,,,,22,,,,,,,,,,0.05,2,1.0465,0,1,1,1,1,Buy food in the weekend with my family,Go out and take picture for me to post on Instagram,0.02,0.05,4.4,0,,,,
,,661fee35973b5ff6fa3418ef,6685aa9113c938e83b4f1ea0,66b41c4dd3aee3fac9f5f1ad,2024-08-07_18h16.40.996,WTP_SM_Choice,2022.2.1,Win32,163.9344262,,,,,,,,,,,,,,,,,,23,,,,,,,,,,0.05,2,1.5312,0,2,2,2,1,Watching soccer matches with my friends,Play video games in my room,0.03,0.05,1.1,0,,,,
,,661fee35973b5ff6fa3418ef,6685aa9113c938e83b4f1ea0,66b41c4dd3aee3fac9f5f1ad,2024-08-07_18h16.40.996,WTP_SM_Choice,2022.2.1,Win32,163.9344262,,,,,,,,,,,,,,,,,,24,,,,,,,,,,0.05,2,1.2489,0,3,3,3,1,Play music in my free time in my music room,Watching soccer matches with my friends,0.04,0.05,4.4,1,,,,
,,661fee35973b5ff6fa3418ef,6685aa9113c938e83b4f1ea0,66b41c4dd3aee3fac9f5f1ad,2024-08-07_18h16.40.996,WTP_SM_Choice,2022.2.1,Win32,163.9344262,,,,,,,,,,,,,,,,,,25,,,,,,,,,,0.05,1,1.2221,0,4,4,4,1,Cook food with my family everyday,Take a nap in a sunny day in my backyard,0.05,0.05,3.3,0,,,,
,,661fee35973b5ff6fa3418ef,6685aa9113c938e83b4f1ea0,66b41c4dd3aee3fac9f5f1ad,2024-08-07_18h16.40.996,WTP_SM_Choice,2022.2.1,Win32,163.9344262,,,,,,,5,,6,0.94,5.06,,0,24,24,24,1,25,Alex,Acc,Participant_Images/661fee35973b5ff6fa3418ef/661fee35973b5ff6fa3418ef_Images/661fee35973b5ff6fa3418ef_Image_23.jpeg,liked,3.602308302,,,,,,,,,,,,,,,,,,,space,1.4183,,
,,661fee35973b5ff6fa3418ef,6685aa9113c938e83b4f1ea0,66b41c4dd3aee3fac9f5f1ad,2024-08-07_18h16.40.996,WTP_SM_Choice,2022.2.1,Win32,163.9344262,,,space,2.3745,space,4.636,NAN,,NAN,0.94,5.06,,0,25,25,25,1,26,Sam,Acc,Participant_Images/661fee35973b5ff6fa3418ef/661fee35973b5ff6fa3418ef_Images/661fee35973b5ff6fa3418ef_Image_21.jpeg,liked,4.106391878,,,,,,,,,,,,,,,,,,,,,,
,,661fee35973b5ff6fa3418ef,6685aa9113c938e83b4f1ea0,66b41c4dd3aee3fac9f5f1ad,2024-08-07_18h16.40.996,WTP_SM_Choice,2022.2.1,Win32,163.9344262,,,,,space,1.3025,NAN,,NAN,0.94,5.06,,0,26,26,26,1,27,Sam,Acc,Participant_Images/661fee35973b5ff6fa3418ef/661fee35973b5ff6fa3418ef_Images/661fee35973b5ff6fa3418ef_Image_25.jpeg,did not like,3.799433026,,,,,,,,,,,,,,,,,,,,,,
,,661fee35973b5ff6fa3418ef,6685aa9113c938e83b4f1ea0,66b41c4dd3aee3fac9f5f1ad,2024-08-07_18h16.40.996,WTP_SM_Choice,2022.2.1,Win32,163.9344262,,,,,space,0.5085,NAN,,NAN,0.94,5.06,,0,27,27,27,1,28,Sam,Acc,Participant_Images/661fee35973b5ff6fa3418ef/661fee35973b5ff6fa3418ef_Images/661fee35973b5ff6fa3418ef_Image_2.jpeg,liked,5.246980764,,,,,,,,,,,,,,,,,,,,,,
,,661fee35973b5ff6fa3418ef,6685aa9113c938e83b4f1ea0,66b41c4dd3aee3fac9f5f1ad,2024-08-07_18h16.40.996,WTP_SM_Choice,2022.2.1,Win32,163.9344262,,,,,space,2.9752,NAN,,NAN,0.94,5.06,,0,28,28,28,1,29,Sam,Acc,Participant_Images/661fee35973b5ff6fa3418ef/661fee35973b5ff6fa3418ef_Images/661fee35973b5ff6fa3418ef_Image_10.jpeg,liked,3.30081769,,,,,,,,,,,,,,,,,,,,,,
,,661fee35973b5ff6fa3418ef,6685aa9113c938e83b4f1ea0,66b41c4dd3aee3fac9f5f1ad,2024-08-07_18h16.40.996,WTP_SM_Choice,2022.2.1,Win32,163.9344262,,,,,,,,,,,,,,,,,,26,,,,,,space,1.2777,space,0.6681,0.01,2,1.1573,0,0,0,0,1,Play music in my free time in my music room,Go shopping in a sunny day,0.01,0.01,4.4,1,,,,
,,661fee35973b5ff6fa3418ef,6685aa9113c938e83b4f1ea0,66b41c4dd3aee3fac9f5f1ad,2024-08-07_18h16.40.996,WTP_SM_Choice,2022.2.1,Win32,163.9344262,,,,,,,,,,,,,,,,,,27,,,,,,,,,,0.02,1,0.9614,0,1,1,1,1,Play with my dog with my family and play it for fun,Play video games in my room,0.02,0.01,3.3,0,,,,
,,661fee35973b5ff6fa3418ef,6685aa9113c938e83b4f1ea0,66b41c4dd3aee3fac9f5f1ad,2024-08-07_18h16.40.996,WTP_SM_Choice,2022.2.1,Win32,163.9344262,,,,,,,,,,,,,,,,,,28,,,,,,,,,,0.03,1,1.6536,0,2,2,2,1,Go out and take picture for me to post on Instagram,Cook food with my family everyday,0.03,0.01,3.3,1,,,,
,,661fee35973b5ff6fa3418ef,6685aa9113c938e83b4f1ea0,66b41c4dd3aee3fac9f5f1ad,2024-08-07_18h16.40.996,WTP_SM_Choice,2022.2.1,Win32,163.9344262,,,,,,,,,,,,,,,,,,29,,,,,,,,,,0.04,1,1.5754,0,3,3,3,1,Call with my friends and talks for fun things,Go out and take picture for me to post on Instagram,0.04,0.01,4.4,0,,,,
,,661fee35973b5ff6fa3418ef,6685aa9113c938e83b4f1ea0,66b41c4dd3aee3fac9f5f1ad,2024-08-07_18h16.40.996,WTP_SM_Choice,2022.2.1,Win32,163.9344262,,,,,,,,,,,,,,,,,,30,,,,,,,,,,0.05,1,1.5375,0,4,4,4,1,Go shopping in a sunny day,Play with my dog for the ball games,0.05,0.01,8.8,0,,,,
,,661fee35973b5ff6fa3418ef,6685aa9113c938e83b4f1ea0,66b41c4dd3aee3fac9f5f1ad,2024-08-07_18h16.40.996,WTP_SM_Choice,2022.2.1,Win32,163.9344262,,,,,,,NAN,,NAN,1.09,4.91,,0,29,29,29,1,30,Sam,Acc,Participant_Images/661fee35973b5ff6fa3418ef/661fee35973b5ff6fa3418ef_Images/661fee35973b5ff6fa3418ef_Image_16.jpeg,did not like,1.661473164,,,,,,,,,,,,,,,,,,,,,,
,,661fee35973b5ff6fa3418ef,6685aa9113c938e83b4f1ea0,66b41c4dd3aee3fac9f5f1ad,2024-08-07_18h16.40.996,WTP_SM_Choice,2022.2.1,Win32,163.9344262,,,,,space,0.9278,NAN,,NAN,1.09,4.91,,0,30,30,30,1,31,Sam,Acc,Participant_Images/661fee35973b5ff6fa3418ef/661fee35973b5ff6fa3418ef_Images/661fee35973b5ff6fa3418ef_Image_8.jpeg,did not like,3.613205605,,,,,,,,,,,,,,,,,,,,,,
,,661fee35973b5ff6fa3418ef,6685aa9113c938e83b4f1ea0,66b41c4dd3aee3fac9f5f1ad,2024-08-07_18h16.40.996,WTP_SM_Choice,2022.2.1,Win32,163.9344262,,,,,space,0.7106,NAN,,NAN,1.09,4.91,,0,31,31,31,1,32,Sam,Acc,Participant_Images/661fee35973b5ff6fa3418ef/661fee35973b5ff6fa3418ef_Images/661fee35973b5ff6fa3418ef_Image_18.jpeg,liked,4.988446431,,,,,,,,,,,,,,,,,,,,,,
,,661fee35973b5ff6fa3418ef,6685aa9113c938e83b4f1ea0,66b41c4dd3aee3fac9f5f1ad,2024-08-07_18h16.40.996,WTP_SM_Choice,2022.2.1,Win32,163.9344262,,,,,space,0.8631,NAN,,NAN,1.09,4.91,,0,32,32,32,1,33,Sam,Acc,Participant_Images/661fee35973b5ff6fa3418ef/661fee35973b5ff6fa3418ef_Images/661fee35973b5ff6fa3418ef_Image_15.jpeg,liked,3.470791822,,,,,,,,,,,,,,,,,,,,,,
,,661fee35973b5ff6fa3418ef,6685aa9113c938e83b4f1ea0,66b41c4dd3aee3fac9f5f1ad,2024-08-07_18h16.40.996,WTP_SM_Choice,2022.2.1,Win32,163.9344262,,,,,space,2.1449,NAN,,NAN,1.09,4.91,,0,33,33,33,1,34,Sam,Acc,Participant_Images/661fee35973b5ff6fa3418ef/661fee35973b5ff6fa3418ef_Images/661fee35973b5ff6fa3418ef_Image_17.jpeg,did not like,3.820572462,,,,,,,,,,,,,,,,,,,,,,
,,661fee35973b5ff6fa3418ef,6685aa9113c938e83b4f1ea0,66b41c4dd3aee3fac9f5f1ad,2024-08-07_18h16.40.996,WTP_SM_Choice,2022.2.1,Win32,163.9344262,,,,,,,,,,,,,,,,,,31,,,,,,space,0.8485,space,0.5888,0.02,2,0.9557,0,0,0,0,1,Find someting fun in my back door,Play video games with my friends,0.01,0.02,8.8,1,,,,
,,661fee35973b5ff6fa3418ef,6685aa9113c938e83b4f1ea0,66b41c4dd3aee3fac9f5f1ad,2024-08-07_18h16.40.996,WTP_SM_Choice,2022.2.1,Win32,163.9344262,,,,,,,,,,,,,,,,,,32,,,,,,,,,,0.02,1,1.6757,0,1,1,1,1,Play video games with my family during weekend,Go out and take picture for me to post on Instagram,0.02,0.02,1.1,0,,,,
,,661fee35973b5ff6fa3418ef,6685aa9113c938e83b4f1ea0,66b41c4dd3aee3fac9f5f1ad,2024-08-07_18h16.40.996,WTP_SM_Choice,2022.2.1,Win32,163.9344262,,,,,,,,,,,,,,,,,,33,,,,,,,,,,0.03,1,1.5564,0,2,2,2,1,Watching soccer matches with my friends,Help my dog to clean up and play in the backyard,0.03,0.02,4.4,0,,,,
,,661fee35973b5ff6fa3418ef,6685aa9113c938e83b4f1ea0,66b41c4dd3aee3fac9f5f1ad,2024-08-07_18h16.40.996,WTP_SM_Choice,2022.2.1,Win32,163.9344262,,,,,,,,,,,,,,,,,,34,,,,,,,,,,0.04,1,0.9491,0,3,3,3,1,Play with my dog for the ball games,Cook food with my family everyday,0.04,0.02,3.3,1,,,,
,,661fee35973b5ff6fa3418ef,6685aa9113c938e83b4f1ea0,66b41c4dd3aee3fac9f5f1ad,2024-08-07_18h16.40.996,WTP_SM_Choice,2022.2.1,Win32,163.9344262,,,,,,,,,,,,,,,,,,35,,,,,,,,,,0.05,1,1.6672,0,4,4,4,1,Cook food with my family everyday,Cook for for myself in rainy day,0.05,0.02,1.1,0,,,,
,,661fee35973b5ff6fa3418ef,6685aa9113c938e83b4f1ea0,66b41c4dd3aee3fac9f5f1ad,2024-08-07_18h16.40.996,WTP_SM_Choice,2022.2.1,Win32,163.9344262,,,,,,,NAN,,NAN,1.25,4.75,,0,34,34,34,1,35,Sam,Acc,Participant_Images/661fee35973b5ff6fa3418ef/661fee35973b5ff6fa3418ef_Images/661fee35973b5ff6fa3418ef_Image_6.jpeg,liked,2.455989137,,,,,,,,,,,,,,,,,,,,,,
,,661fee35973b5ff6fa3418ef,6685aa9113c938e83b4f1ea0,66b41c4dd3aee3fac9f5f1ad,2024-08-07_18h16.40.996,WTP_SM_Choice,2022.2.1,Win32,163.9344262,,,,,space,3.6917,NAN,,NAN,1.25,4.75,,0,35,35,35,1,36,Sam,Acc,Participant_Images/661fee35973b5ff6fa3418ef/661fee35973b5ff6fa3418ef_Images/661fee35973b5ff6fa3418ef_Image_19.jpeg,did not like,3.79605092,,,,,,,,,,,,,,,,,,,,,,
,,661fee35973b5ff6fa3418ef,6685aa9113c938e83b4f1ea0,66b41c4dd3aee3fac9f5f1ad,2024-08-07_18h16.40.996,WTP_SM_Choice,2022.2.1,Win32,163.9344262,,,,,space,2.7641,NAN,,NAN,1.25,4.75,,0,36,36,36,1,37,Sam,Acc,Participant_Images/661fee35973b5ff6fa3418ef/661fee35973b5ff6fa3418ef_Images/661fee35973b5ff6fa3418ef_Image_5.jpeg,liked,3.562416326,,,,,,,,,,,,,,,,,,,,,,
,,661fee35973b5ff6fa3418ef,6685aa9113c938e83b4f1ea0,66b41c4dd3aee3fac9f5f1ad,2024-08-07_18h16.40.996,WTP_SM_Choice,2022.2.1,Win32,163.9344262,,,,,space,1.5158,NAN,,NAN,1.25,4.75,,0,37,37,37,1,38,Sam,Acc,Participant_Images/661fee35973b5ff6fa3418ef/661fee35973b5ff6fa3418ef_Images/661fee35973b5ff6fa3418ef_Image_7.jpeg,liked,2.843822497,,,,,,,,,,,,,,,,,,,,,,
,,661fee35973b5ff6fa3418ef,6685aa9113c938e83b4f1ea0,66b41c4dd3aee3fac9f5f1ad,2024-08-07_18h16.40.996,WTP_SM_Choice,2022.2.1,Win32,163.9344262,,,,,space,0.7054,NAN,,NAN,1.25,4.75,,0,38,38,38,1,39,Sam,Acc,Participant_Images/661fee35973b5ff6fa3418ef/661fee35973b5ff6fa3418ef_Images/661fee35973b5ff6fa3418ef_Image_23.jpeg,liked,3.546495948,,,,,,,,,,,,,,,,,,,,,,
,,661fee35973b5ff6fa3418ef,6685aa9113c938e83b4f1ea0,66b41c4dd3aee3fac9f5f1ad,2024-08-07_18h16.40.996,WTP_SM_Choice,2022.2.1,Win32,163.9344262,,,,,,,,,,,,,,,,,,36,,,,,,space,0.8242,space,0.6301,0.03,2,1.2421,0,0,0,0,1,Help my dog to clean up and play in the backyard,Play with my dog with my family and play it for fun,0.01,0.03,3.3,1,,,,
,,661fee35973b5ff6fa3418ef,6685aa9113c938e83b4f1ea0,66b41c4dd3aee3fac9f5f1ad,2024-08-07_18h16.40.996,WTP_SM_Choice,2022.2.1,Win32,163.9344262,,,,,,,,,,,,,,,,,,37,,,,,,,,,,0.03,2,1.1877,0,1,1,1,1,Call with my friends and talks for fun things,Take care my home and clean up my home in sunny say,0.02,0.03,1.1,0,,,,
,,661fee35973b5ff6fa3418ef,6685aa9113c938e83b4f1ea0,66b41c4dd3aee3fac9f5f1ad,2024-08-07_18h16.40.996,WTP_SM_Choice,2022.2.1,Win32,163.9344262,,,,,,,,,,,,,,,,,,38,,,,,,,,,,0.03,1,1.5029,0,2,2,2,1,Help my dog to clean up and play in the backyard,Call with my friends and talks for fun things,0.03,0.03,1.1,1,,,,
,,661fee35973b5ff6fa3418ef,6685aa9113c938e83b4f1ea0,66b41c4dd3aee3fac9f5f1ad,2024-08-07_18h16.40.996,WTP_SM_Choice,2022.2.1,Win32,163.9344262,,,,,,,,,,,,,,,,,,39,,,,,,,,,,0.04,1,1.5213,0,3,3,3,1,Play with my dog with my family and play it for fun,Go out and take picture for me to post on Instagram,0.04,0.03,3.3,0,,,,
,,661fee35973b5ff6fa3418ef,6685aa9113c938e83b4f1ea0,66b41c4dd3aee3fac9f5f1ad,2024-08-07_18h16.40.996,WTP_SM_Choice,2022.2.1,Win32,163.9344262,,,,,,,,,,,,,,,,,,40,,,,,,,,,,0.05,1,1.4126,0,4,4,4,1,Go out and take picture for me to post on Instagram,Watching soccer matches with my friends,0.05,0.03,4.4,1,,,,
,,661fee35973b5ff6fa3418ef,6685aa9113c938e83b4f1ea0,66b41c4dd3aee3fac9f5f1ad,2024-08-07_18h16.40.996,WTP_SM_Choice,2022.2.1,Win32,163.9344262,,,,,,,NAN,,NAN,1.43,4.57,,0,39,39,39,1,40,Sam,Acc,Participant_Images/661fee35973b5ff6fa3418ef/661fee35973b5ff6fa3418ef_Images/661fee35973b5ff6fa3418ef_Image_12.jpeg,liked,1.672012706,,,,,,,,,,,,,,,,,,,,,,
,,661fee35973b5ff6fa3418ef,6685aa9113c938e83b4f1ea0,66b41c4dd3aee3fac9f5f1ad,2024-08-07_18h16.40.996,WTP_SM_Choice,2022.2.1,Win32,163.9344262,,,,,space,1.5638,NAN,,NAN,1.43,4.57,,0,40,40,40,1,41,Sam,Acc,Participant_Images/661fee35973b5ff6fa3418ef/661fee35973b5ff6fa3418ef_Images/661fee35973b5ff6fa3418ef_Image_22.jpeg,liked,4.942172136,,,,,,,,,,,,,,,,,,,,,,
,,661fee35973b5ff6fa3418ef,6685aa9113c938e83b4f1ea0,66b41c4dd3aee3fac9f5f1ad,2024-08-07_18h16.40.996,WTP_SM_Choice,2022.2.1,Win32,163.9344262,,,,,space,2.0781,NAN,,NAN,1.43,4.57,,0,41,41,41,1,42,Sam,Acc,Participant_Images/661fee35973b5ff6fa3418ef/661fee35973b5ff6fa3418ef_Images/661fee35973b5ff6fa3418ef_Image_11.jpeg,liked,2.50187214,,,,,,,,,,,,,,,,,,,,,,
,,661fee35973b5ff6fa3418ef,6685aa9113c938e83b4f1ea0,66b41c4dd3aee3fac9f5f1ad,2024-08-07_18h16.40.996,WTP_SM_Choice,2022.2.1,Win32,163.9344262,,,,,space,1.2456,NAN,,NAN,1.43,4.57,,0,42,42,42,1,43,Sam,Acc,Participant_Images/661fee35973b5ff6fa3418ef/661fee35973b5ff6fa3418ef_Images/661fee35973b5ff6fa3418ef_Image_24.jpeg,liked,2.071164779,,,,,,,,,,,,,,,,,,,,,,
,,661fee35973b5ff6fa3418ef,6685aa9113c938e83b4f1ea0,66b41c4dd3aee3fac9f5f1ad,2024-08-07_18h16.40.996,WTP_SM_Choice,2022.2.1,Win32,163.9344262,,,,,space,4.6786,NAN,,NAN,1.43,4.57,,0,43,43,43,1,44,Sam,Acc,Participant_Images/661fee35973b5ff6fa3418ef/661fee35973b5ff6fa3418ef_Images/661fee35973b5ff6fa3418ef_Image_9.jpeg,liked,5.336503566,,,,,,,,,,,,,,,,,,,,,,
,,661fee35973b5ff6fa3418ef,6685aa9113c938e83b4f1ea0,66b41c4dd3aee3fac9f5f1ad,2024-08-07_18h16.40.996,WTP_SM_Choice,2022.2.1,Win32,163.9344262,,,,,,,,,,,,,,,,,,41,,,,,,space,1.7818,space,1.6501,0.04,2,1.4622,0,0,0,0,1,Go out and take picture for me to post on Instagram,Watch movies with my family when I have time,0.01,0.04,1.1,1,,,,
,,661fee35973b5ff6fa3418ef,6685aa9113c938e83b4f1ea0,66b41c4dd3aee3fac9f5f1ad,2024-08-07_18h16.40.996,WTP_SM_Choice,2022.2.1,Win32,163.9344262,,,,,,,,,,,,,,,,,,42,,,,,,,,,,0.04,2,1.4,0,1,1,1,1,Call with my friends and talks for fun things,Sing songs when I go to the bathroom,0.02,0.04,3.3,0,,,,
,,661fee35973b5ff6fa3418ef,6685aa9113c938e83b4f1ea0,66b41c4dd3aee3fac9f5f1ad,2024-08-07_18h16.40.996,WTP_SM_Choice,2022.2.1,Win32,163.9344262,,,,,,,,,,,,,,,,,,43,,,,,,,,,,0.04,2,1.8574,0,2,2,2,1,Cook for for myself in rainy day,Play video games with my friends,0.03,0.04,1.1,1,,,,
,,661fee35973b5ff6fa3418ef,6685aa9113c938e83b4f1ea0,66b41c4dd3aee3fac9f5f1ad,2024-08-07_18h16.40.996,WTP_SM_Choice,2022.2.1,Win32,163.9344262,,,,,,,,,,,,,,,,,,44,,,,,,,,,,0.04,2,2.1473,0,3,3,3,1,Play video games with my friends,Take a nap in a sunny day in my backyard,0.04,0.04,1.1,0,,,,
,,661fee35973b5ff6fa3418ef,6685aa9113c938e83b4f1ea0,66b41c4dd3aee3fac9f5f1ad,2024-08-07_18h16.40.996,WTP_SM_Choice,2022.2.1,Win32,163.9344262,,,,,,,,,,,,,,,,,,45,,,,,,,,,,0.05,1,1.563,0,4,4,4,1,Take a nap in a sunny day in my backyard,Buy food in the weekend with my family,0.05,0.04,4.4,1,,,,
,,661fee35973b5ff6fa3418ef,6685aa9113c938e83b4f1ea0,66b41c4dd3aee3fac9f5f1ad,2024-08-07_18h16.40.996,WTP_SM_Choice,2022.2.1,Win32,163.9344262,,,,,,,NAN,,NAN,1.64,4.36,,0,44,44,44,1,45,Sam,Acc,Participant_Images/661fee35973b5ff6fa3418ef/661fee35973b5ff6fa3418ef_Images/661fee35973b5ff6fa3418ef_Image_4.jpeg,liked,2.642157193,,,,,,,,,,,,,,,,,,,,,,
,,661fee35973b5ff6fa3418ef,6685aa9113c938e83b4f1ea0,66b41c4dd3aee3fac9f5f1ad,2024-08-07_18h16.40.996,WTP_SM_Choice,2022.2.1,Win32,163.9344262,,,,,space,1.1515,NAN,,NAN,1.64,4.36,,0,45,45,45,1,46,Sam,Acc,Participant_Images/661fee35973b5ff6fa3418ef/661fee35973b5ff6fa3418ef_Images/661fee35973b5ff6fa3418ef_Image_20.jpeg,liked,4.456234322,,,,,,,,,,,,,,,,,,,,,,
,,661fee35973b5ff6fa3418ef,6685aa9113c938e83b4f1ea0,66b41c4dd3aee3fac9f5f1ad,2024-08-07_18h16.40.996,WTP_SM_Choice,2022.2.1,Win32,163.9344262,,,,,space,0.0675,NAN,,NAN,1.64,4.36,,0,46,46,46,1,47,Sam,Acc,Participant_Images/661fee35973b5ff6fa3418ef/661fee35973b5ff6fa3418ef_Images/661fee35973b5ff6fa3418ef_Image_14.jpeg,liked,4.438512181,,,,,,,,,,,,,,,,,,,,,,
,,661fee35973b5ff6fa3418ef,6685aa9113c938e83b4f1ea0,66b41c4dd3aee3fac9f5f1ad,2024-08-07_18h16.40.996,WTP_SM_Choice,2022.2.1,Win32,163.9344262,,,,,space,1.2973,NAN,,NAN,1.64,4.36,,0,47,47,47,1,48,Sam,Acc,Participant_Images/661fee35973b5ff6fa3418ef/661fee35973b5ff6fa3418ef_Images/661fee35973b5ff6fa3418ef_Image_1.jpeg,liked,2.682944783,,,,,,,,,,,,,,,,,,,,,,
,,661fee35973b5ff6fa3418ef,6685aa9113c938e83b4f1ea0,66b41c4dd3aee3fac9f5f1ad,2024-08-07_18h16.40.996,WTP_SM_Choice,2022.2.1,Win32,163.9344262,,,,,space,0.7585,NAN,,NAN,1.64,4.36,,0,48,48,48,1,49,Sam,Acc,Participant_Images/661fee35973b5ff6fa3418ef/661fee35973b5ff6fa3418ef_Images/661fee35973b5ff6fa3418ef_Image_3.jpeg,did not like,4.51984296,,,,,,,,,,,,,,,,,,,,,,
,,661fee35973b5ff6fa3418ef,6685aa9113c938e83b4f1ea0,66b41c4dd3aee3fac9f5f1ad,2024-08-07_18h16.40.996,WTP_SM_Choice,2022.2.1,Win32,163.9344262,,,,,,,,,,,,,,,,,,46,,,,,,space,0.927,space,0.6607,0.05,2,1.4652,0,0,0,0,1,Find someting fun in my back door,Play with my dog with my family and play it for fun,0.01,0.05,8.8,1,,,,
,,661fee35973b5ff6fa3418ef,6685aa9113c938e83b4f1ea0,66b41c4dd3aee3fac9f5f1ad,2024-08-07_18h16.40.996,WTP_SM_Choice,2022.2.1,Win32,163.9344262,,,,,,,,,,,,,,,,,,47,,,,,,,,,,0.05,2,1.4321,0,1,1,1,1,Go out and take picture for me to post on Instagram,Play basketball with my friends in sunny day,0.02,0.05,1.1,1,,,,
,,661fee35973b5ff6fa3418ef,6685aa9113c938e83b4f1ea0,66b41c4dd3aee3fac9f5f1ad,2024-08-07_18h16.40.996,WTP_SM_Choice,2022.2.1,Win32,163.9344262,,,,,,,,,,,,,,,,,,48,,,,,,,,,,0.05,2,1.5362,0,2,2,2,1,Call with my friends and talks for fun things,Cook for for myself in rainy day,0.03,0.05,4.4,0,,,,
,,661fee35973b5ff6fa3418ef,6685aa9113c938e83b4f1ea0,66b41c4dd3aee3fac9f5f1ad,2024-08-07_18h16.40.996,WTP_SM_Choice,2022.2.1,Win32,163.9344262,,,,,,,,,,,,,,,,,,49,,,,,,,,,,0.05,2,1.6399,0,3,3,3,1,Help my dog to clean up and play in the backyard,Play basketball with my friends in sunny day,0.04,0.05,3.3,1,,,,
,,661fee35973b5ff6fa3418ef,6685aa9113c938e83b4f1ea0,66b41c4dd3aee3fac9f5f1ad,2024-08-07_18h16.40.996,WTP_SM_Choice,2022.2.1,Win32,163.9344262,,,,,,,,,,,,,,,,,,50,,,,,,,,,,0.05,1,2.1223,0,4,4,4,1,Take a nap in a sunny day in my backyard,Play basketball with my friends in sunny day,0.05,0.05,1.1,1,,,,
,,661fee35973b5ff6fa3418ef,6685aa9113c938e83b4f1ea0,66b41c4dd3aee3fac9f5f1ad,2024-08-07_18h16.40.996,WTP_SM_Choice,2022.2.1,Win32,163.9344262,,,,,,,4,,7,1.89,4.11,,0,49,49,49,1,50,Sam,Acc,Participant_Images/661fee35973b5ff6fa3418ef/661fee35973b5ff6fa3418ef_Images/661fee35973b5ff6fa3418ef_Image_13.jpeg,did not like,3.195382774,,,,,,,,,,,,,,,,,,,space,1.4417,,
,,661fee35973b5ff6fa3418ef,6685aa9113c938e83b4f1ea0,66b41c4dd3aee3fac9f5f1ad,2024-08-07_18h16.40.996,WTP_SM_Choice,2022.2.1,Win32,163.9344262,,,space,1.8176,space,1.2676,NAN,,NAN,1.89,4.11,,0,50,50,50,1,51,Charlie,Rej,Participant_Images/661fee35973b5ff6fa3418ef/661fee35973b5ff6fa3418ef_Images/661fee35973b5ff6fa3418ef_Image_2.jpeg,did not like,1.779333479,,,,,,,,,,,,,,,,,,,,,,
,,661fee35973b5ff6fa3418ef,6685aa9113c938e83b4f1ea0,66b41c4dd3aee3fac9f5f1ad,2024-08-07_18h16.40.996,WTP_SM_Choice,2022.2.1,Win32,163.9344262,,,,,space,0.9154,NAN,,NAN,1.89,4.11,,0,51,51,51,1,52,Charlie,Rej,Participant_Images/661fee35973b5ff6fa3418ef/661fee35973b5ff6fa3418ef_Images/661fee35973b5ff6fa3418ef_Image_1.jpeg,did not like,4.312468682,,,,,,,,,,,,,,,,,,,,,,
,,661fee35973b5ff6fa3418ef,6685aa9113c938e83b4f1ea0,66b41c4dd3aee3fac9f5f1ad,2024-08-07_18h16.40.996,WTP_SM_Choice,2022.2.1,Win32,163.9344262,,,,,space,0.7853,NAN,,NAN,1.89,4.11,,0,52,52,52,1,53,Charlie,Rej,Participant_Images/661fee35973b5ff6fa3418ef/661fee35973b5ff6fa3418ef_Images/661fee35973b5ff6fa3418ef_Image_23.jpeg,liked,4.940433059,,,,,,,,,,,,,,,,,,,,,,
,,661fee35973b5ff6fa3418ef,6685aa9113c938e83b4f1ea0,66b41c4dd3aee3fac9f5f1ad,2024-08-07_18h16.40.996,WTP_SM_Choice,2022.2.1,Win32,163.9344262,,,,,space,1.0849,NAN,,NAN,1.89,4.11,,0,53,53,53,1,54,Charlie,Rej,Participant_Images/661fee35973b5ff6fa3418ef/661fee35973b5ff6fa3418ef_Images/661fee35973b5ff6fa3418ef_Image_11.jpeg,did not like,2.7105123,,,,,,,,,,,,,,,,,,,,,,
,,661fee35973b5ff6fa3418ef,6685aa9113c938e83b4f1ea0,66b41c4dd3aee3fac9f5f1ad,2024-08-07_18h16.40.996,WTP_SM_Choice,2022.2.1,Win32,163.9344262,,,,,,,,,,,,,,,,,,51,,,,,,space,0.6486,space,0.9982,0.01,2,1.2439,0,0,0,0,1,Play with my dog with my family and play it for fun,Sing songs when I go to the bathroom,0.01,0.01,1.1,0,,,,
,,661fee35973b5ff6fa3418ef,6685aa9113c938e83b4f1ea0,66b41c4dd3aee3fac9f5f1ad,2024-08-07_18h16.40.996,WTP_SM_Choice,2022.2.1,Win32,163.9344262,,,,,,,,,,,,,,,,,,52,,,,,,,,,,0.02,1,2.5454,0,1,1,1,1,Play video games with my family during weekend,Help my dog to clean up and play in the backyard,0.02,0.01,3.3,0,,,,
,,661fee35973b5ff6fa3418ef,6685aa9113c938e83b4f1ea0,66b41c4dd3aee3fac9f5f1ad,2024-08-07_18h16.40.996,WTP_SM_Choice,2022.2.1,Win32,163.9344262,,,,,,,,,,,,,,,,,,53,,,,,,,,,,0.03,1,1.3218,0,2,2,2,1,Play video games with my friends,Play video games in my room,0.03,0.01,1.1,0,,,,
,,661fee35973b5ff6fa3418ef,6685aa9113c938e83b4f1ea0,66b41c4dd3aee3fac9f5f1ad,2024-08-07_18h16.40.996,WTP_SM_Choice,2022.2.1,Win32,163.9344262,,,,,,,,,,,,,,,,,,54,,,,,,,,,,0.04,1,1.6422,0,3,3,3,1,Sing songs when I go to the bathroom,Cook food with my family everyday,0.04,0.01,4.4,1,,,,
,,661fee35973b5ff6fa3418ef,6685aa9113c938e83b4f1ea0,66b41c4dd3aee3fac9f5f1ad,2024-08-07_18h16.40.996,WTP_SM_Choice,2022.2.1,Win32,163.9344262,,,,,,,,,,,,,,,,,,55,,,,,,,,,,0.05,1,1.1132,0,4,4,4,1,Play music in my free time in my music room,Buy food in the weekend with my family,0.05,0.01,1.1,1,,,,
,,661fee35973b5ff6fa3418ef,6685aa9113c938e83b4f1ea0,66b41c4dd3aee3fac9f5f1ad,2024-08-07_18h16.40.996,WTP_SM_Choice,2022.2.1,Win32,163.9344262,,,,,,,NAN,,NAN,2.04,3.96,,0,54,54,54,1,55,Charlie,Rej,Participant_Images/661fee35973b5ff6fa3418ef/661fee35973b5ff6fa3418ef_Images/661fee35973b5ff6fa3418ef_Image_6.jpeg,did not like,3.602308302,,,,,,,,,,,,,,,,,,,,,,
,,661fee35973b5ff6fa3418ef,6685aa9113c938e83b4f1ea0,66b41c4dd3aee3fac9f5f1ad,2024-08-07_18h16.40.996,WTP_SM_Choice,2022.2.1,Win32,163.9344262,,,,,space,1.8423,NAN,,NAN,2.04,3.96,,0,55,55,55,1,56,Charlie,Rej,Participant_Images/661fee35973b5ff6fa3418ef/661fee35973b5ff6fa3418ef_Images/661fee35973b5ff6fa3418ef_Image_3.jpeg,did not like,4.106391878,,,,,,,,,,,,,,,,,,,,,,
,,661fee35973b5ff6fa3418ef,6685aa9113c938e83b4f1ea0,66b41c4dd3aee3fac9f5f1ad,2024-08-07_18h16.40.996,WTP_SM_Choice,2022.2.1,Win32,163.9344262,,,,,space,0.4851,NAN,,NAN,2.04,3.96,,0,56,56,56,1,57,Charlie,Rej,Participant_Images/661fee35973b5ff6fa3418ef/661fee35973b5ff6fa3418ef_Images/661fee35973b5ff6fa3418ef_Image_22.jpeg,did not like,3.799433026,,,,,,,,,,,,,,,,,,,,,,
,,661fee35973b5ff6fa3418ef,6685aa9113c938e83b4f1ea0,66b41c4dd3aee3fac9f5f1ad,2024-08-07_18h16.40.996,WTP_SM_Choice,2022.2.1,Win32,163.9344262,,,,,space,1.0315,NAN,,NAN,2.04,3.96,,0,57,57,57,1,58,Charlie,Rej,Participant_Images/661fee35973b5ff6fa3418ef/661fee35973b5ff6fa3418ef_Images/661fee35973b5ff6fa3418ef_Image_14.jpeg,liked,5.246980764,,,,,,,,,,,,,,,,,,,,,,
,,661fee35973b5ff6fa3418ef,6685aa9113c938e83b4f1ea0,66b41c4dd3aee3fac9f5f1ad,2024-08-07_18h16.40.996,WTP_SM_Choice,2022.2.1,Win32,163.9344262,,,,,space,3.2257,NAN,,NAN,2.04,3.96,,0,58,58,58,1,59,Charlie,Rej,Participant_Images/661fee35973b5ff6fa3418ef/661fee35973b5ff6fa3418ef_Images/661fee35973b5ff6fa3418ef_Image_18.jpeg,did not like,3.30081769,,,,,,,,,,,,,,,,,,,,,,
,,661fee35973b5ff6fa3418ef,6685aa9113c938e83b4f1ea0,66b41c4dd3aee3fac9f5f1ad,2024-08-07_18h16.40.996,WTP_SM_Choice,2022.2.1,Win32,163.9344262,,,,,,,,,,,,,,,,,,56,,,,,,space,1.7415,space,0.558,0.02,2,1.5565,0,0,0,0,1,Cook food with my family everyday,Play music in my free time in my music room,0.01,0.02,8.8,0,,,,
,,661fee35973b5ff6fa3418ef,6685aa9113c938e83b4f1ea0,66b41c4dd3aee3fac9f5f1ad,2024-08-07_18h16.40.996,WTP_SM_Choice,2022.2.1,Win32,163.9344262,,,,,,,,,,,,,,,,,,57,,,,,,,,,,0.02,2,1.4944,0,1,1,1,1,Play music in my free time in my music room,Call with my friends and talks for fun things,0.02,0.02,4.4,1,,,,
,,661fee35973b5ff6fa3418ef,6685aa9113c938e83b4f1ea0,66b41c4dd3aee3fac9f5f1ad,2024-08-07_18h16.40.996,WTP_SM_Choice,2022.2.1,Win32,163.9344262,,,,,,,,,,,,,,,,,,58,,,,,,,,,,0.03,1,1.5616,0,2,2,2,1,Play basketball with my friends in sunny day,Play video games in my room,0.03,0.02,4.4,0,,,,
,,661fee35973b5ff6fa3418ef,6685aa9113c938e83b4f1ea0,66b41c4dd3aee3fac9f5f1ad,2024-08-07_18h16.40.996,WTP_SM_Choice,2022.2.1,Win32,163.9344262,,,,,,,,,,,,,,,,,,59,,,,,,,,,,0.04,1,1.1748,0,3,3,3,1,Play with my dog for the ball games,Play video games with my family during weekend,0.04,0.02,4.4,1,,,,
,,661fee35973b5ff6fa3418ef,6685aa9113c938e83b4f1ea0,66b41c4dd3aee3fac9f5f1ad,2024-08-07_18h16.40.996,WTP_SM_Choice,2022.2.1,Win32,163.9344262,,,,,,,,,,,,,,,,,,60,,,,,,,,,,0.05,1,1.0345,0,4,4,4,1,Play with my dog for the ball games,Watching soccer matches with my friends,0.05,0.02,1.1,1,,,,
,,661fee35973b5ff6fa3418ef,6685aa9113c938e83b4f1ea0,66b41c4dd3aee3fac9f5f1ad,2024-08-07_18h16.40.996,WTP_SM_Choice,2022.2.1,Win32,163.9344262,,,,,,,NAN,,NAN,2.2,3.8,,0,59,59,59,1,60,Charlie,Rej,Participant_Images/661fee35973b5ff6fa3418ef/661fee35973b5ff6fa3418ef_Images/661fee35973b5ff6fa3418ef_Image_21.jpeg,did not like,1.661473164,,,,,,,,,,,,,,,,,,,,,,
,,661fee35973b5ff6fa3418ef,6685aa9113c938e83b4f1ea0,66b41c4dd3aee3fac9f5f1ad,2024-08-07_18h16.40.996,WTP_SM_Choice,2022.2.1,Win32,163.9344262,,,,,space,2.5074,NAN,,NAN,2.2,3.8,,0,60,60,60,1,61,Charlie,Rej,Participant_Images/661fee35973b5ff6fa3418ef/661fee35973b5ff6fa3418ef_Images/661fee35973b5ff6fa3418ef_Image_13.jpeg,liked,3.613205605,,,,,,,,,,,,,,,,,,,,,,
,,661fee35973b5ff6fa3418ef,6685aa9113c938e83b4f1ea0,66b41c4dd3aee3fac9f5f1ad,2024-08-07_18h16.40.996,WTP_SM_Choice,2022.2.1,Win32,163.9344262,,,,,space,2.0891,NAN,,NAN,2.2,3.8,,0,61,61,61,1,62,Charlie,Rej,Participant_Images/661fee35973b5ff6fa3418ef/661fee35973b5ff6fa3418ef_Images/661fee35973b5ff6fa3418ef_Image_10.jpeg,did not like,4.988446431,,,,,,,,,,,,,,,,,,,,,,
,,661fee35973b5ff6fa3418ef,6685aa9113c938e83b4f1ea0,66b41c4dd3aee3fac9f5f1ad,2024-08-07_18h16.40.996,WTP_SM_Choice,2022.2.1,Win32,163.9344262,,,,,space,0.5415,NAN,,NAN,2.2,3.8,,0,62,62,62,1,63,Charlie,Rej,Participant_Images/661fee35973b5ff6fa3418ef/661fee35973b5ff6fa3418ef_Images/661fee35973b5ff6fa3418ef_Image_7.jpeg,did not like,3.470791822,,,,,,,,,,,,,,,,,,,,,,
,,661fee35973b5ff6fa3418ef,6685aa9113c938e83b4f1ea0,66b41c4dd3aee3fac9f5f1ad,2024-08-07_18h16.40.996,WTP_SM_Choice,2022.2.1,Win32,163.9344262,,,,,space,1.5131,NAN,,NAN,2.2,3.8,,0,63,63,63,1,64,Charlie,Rej,Participant_Images/661fee35973b5ff6fa3418ef/661fee35973b5ff6fa3418ef_Images/661fee35973b5ff6fa3418ef_Image_16.jpeg,did not like,3.820572462,,,,,,,,,,,,,,,,,,,,,,
,,661fee35973b5ff6fa3418ef,6685aa9113c938e83b4f1ea0,66b41c4dd3aee3fac9f5f1ad,2024-08-07_18h16.40.996,WTP_SM_Choice,2022.2.1,Win32,163.9344262,,,,,,,,,,,,,,,,,,61,,,,,,space,2.9796,space,0.6737,0.03,2,1.9656,0,0,0,0,1,Cook food with my family everyday,Help my dog to clean up and play in the backyard,0.01,0.03,3.3,0,,,,
,,661fee35973b5ff6fa3418ef,6685aa9113c938e83b4f1ea0,66b41c4dd3aee3fac9f5f1ad,2024-08-07_18h16.40.996,WTP_SM_Choice,2022.2.1,Win32,163.9344262,,,,,,,,,,,,,,,,,,62,,,,,,,,,,0.03,2,2.0227,0,1,1,1,1,Sing songs when I go to the bathroom,Watching soccer matches with my friends,0.02,0.03,3.3,1,,,,
,,661fee35973b5ff6fa3418ef,6685aa9113c938e83b4f1ea0,66b41c4dd3aee3fac9f5f1ad,2024-08-07_18h16.40.996,WTP_SM_Choice,2022.2.1,Win32,163.9344262,,,,,,,,,,,,,,,,,,63,,,,,,,,,,0.03,2,1.246,0,2,2,2,1,Play video games with my family during weekend,Sing songs when I go to the bathroom,0.03,0.03,3.3,0,,,,
,,661fee35973b5ff6fa3418ef,6685aa9113c938e83b4f1ea0,66b41c4dd3aee3fac9f5f1ad,2024-08-07_18h16.40.996,WTP_SM_Choice,2022.2.1,Win32,163.9344262,,,,,,,,,,,,,,,,,,64,,,,,,,,,,0.04,1,1.8471,0,3,3,3,1,Buy food in the weekend with my family,Play with my dog for the ball games,0.04,0.03,1.1,0,,,,
,,661fee35973b5ff6fa3418ef,6685aa9113c938e83b4f1ea0,66b41c4dd3aee3fac9f5f1ad,2024-08-07_18h16.40.996,WTP_SM_Choice,2022.2.1,Win32,163.9344262,,,,,,,,,,,,,,,,,,65,,,,,,,,,,0.05,1,1.9327,0,4,4,4,1,Play music in my free time in my music room,Play basketball with my friends in sunny day,0.05,0.03,1.1,1,,,,
,,661fee35973b5ff6fa3418ef,6685aa9113c938e83b4f1ea0,66b41c4dd3aee3fac9f5f1ad,2024-08-07_18h16.40.996,WTP_SM_Choice,2022.2.1,Win32,163.9344262,,,,,,,NAN,,NAN,2.38,3.62,,0,64,64,64,1,65,Charlie,Rej,Participant_Images/661fee35973b5ff6fa3418ef/661fee35973b5ff6fa3418ef_Images/661fee35973b5ff6fa3418ef_Image_25.jpeg,liked,2.455989137,,,,,,,,,,,,,,,,,,,,,,
,,661fee35973b5ff6fa3418ef,6685aa9113c938e83b4f1ea0,66b41c4dd3aee3fac9f5f1ad,2024-08-07_18h16.40.996,WTP_SM_Choice,2022.2.1,Win32,163.9344262,,,,,space,1.0677,NAN,,NAN,2.38,3.62,,0,65,65,65,1,66,Charlie,Rej,Participant_Images/661fee35973b5ff6fa3418ef/661fee35973b5ff6fa3418ef_Images/661fee35973b5ff6fa3418ef_Image_17.jpeg,did not like,3.79605092,,,,,,,,,,,,,,,,,,,,,,
,,661fee35973b5ff6fa3418ef,6685aa9113c938e83b4f1ea0,66b41c4dd3aee3fac9f5f1ad,2024-08-07_18h16.40.996,WTP_SM_Choice,2022.2.1,Win32,163.9344262,,,,,space,1.9999,NAN,,NAN,2.38,3.62,,0,66,66,66,1,67,Charlie,Rej,Participant_Images/661fee35973b5ff6fa3418ef/661fee35973b5ff6fa3418ef_Images/661fee35973b5ff6fa3418ef_Image_15.jpeg,did not like,3.562416326,,,,,,,,,,,,,,,,,,,,,,
,,661fee35973b5ff6fa3418ef,6685aa9113c938e83b4f1ea0,66b41c4dd3aee3fac9f5f1ad,2024-08-07_18h16.40.996,WTP_SM_Choice,2022.2.1,Win32,163.9344262,,,,,space,3.4494,NAN,,NAN,2.38,3.62,,0,67,67,67,1,68,Charlie,Rej,Participant_Images/661fee35973b5ff6fa3418ef/661fee35973b5ff6fa3418ef_Images/661fee35973b5ff6fa3418ef_Image_20.jpeg,liked,2.843822497,,,,,,,,,,,,,,,,,,,,,,
,,661fee35973b5ff6fa3418ef,6685aa9113c938e83b4f1ea0,66b41c4dd3aee3fac9f5f1ad,2024-08-07_18h16.40.996,WTP_SM_Choice,2022.2.1,Win32,163.9344262,,,,,space,0.6726,NAN,,NAN,2.38,3.62,,0,68,68,68,1,69,Charlie,Rej,Participant_Images/661fee35973b5ff6fa3418ef/661fee35973b5ff6fa3418ef_Images/661fee35973b5ff6fa3418ef_Image_19.jpeg,did not like,3.546495948,,,,,,,,,,,,,,,,,,,,,,
,,661fee35973b5ff6fa3418ef,6685aa9113c938e83b4f1ea0,66b41c4dd3aee3fac9f5f1ad,2024-08-07_18h16.40.996,WTP_SM_Choice,2022.2.1,Win32,163.9344262,,,,,,,,,,,,,,,,,,66,,,,,,space,3.0559,space,0.4429,0.04,2,1.1542,0,0,0,0,1,Take a nap in a sunny day in my backyard,Go shopping in a sunny day,0.01,0.04,1.1,1,,,,
,,661fee35973b5ff6fa3418ef,6685aa9113c938e83b4f1ea0,66b41c4dd3aee3fac9f5f1ad,2024-08-07_18h16.40.996,WTP_SM_Choice,2022.2.1,Win32,163.9344262,,,,,,,,,,,,,,,,,,67,,,,,,,,,,0.04,2,1.5212,0,1,1,1,1,Watch movies with my family when I have time,Play video games in my room,0.02,0.04,8.8,0,,,,
,,661fee35973b5ff6fa3418ef,6685aa9113c938e83b4f1ea0,66b41c4dd3aee3fac9f5f1ad,2024-08-07_18h16.40.996,WTP_SM_Choice,2022.2.1,Win32,163.9344262,,,,,,,,,,,,,,,,,,68,,,,,,,,,,0.04,2,1.5325,0,2,2,2,1,Play basketball with my friends in sunny day,Take care my home and clean up my home in sunny say,0.03,0.04,4.4,0,,,,
,,661fee35973b5ff6fa3418ef,6685aa9113c938e83b4f1ea0,66b41c4dd3aee3fac9f5f1ad,2024-08-07_18h16.40.996,WTP_SM_Choice,2022.2.1,Win32,163.9344262,,,,,,,,,,,,,,,,,,69,,,,,,,,,,0.04,2,1.4732,0,3,3,3,1,Take care my home and clean up my home in sunny say,Play video games with my friends,0.04,0.04,1.1,1,,,,
,,661fee35973b5ff6fa3418ef,6685aa9113c938e83b4f1ea0,66b41c4dd3aee3fac9f5f1ad,2024-08-07_18h16.40.996,WTP_SM_Choice,2022.2.1,Win32,163.9344262,,,,,,,,,,,,,,,,,,70,,,,,,,,,,0.05,1,1.3366,0,4,4,4,1,Play video games with my friends,Help my dog to clean up and play in the backyard,0.05,0.04,1.1,0,,,,
,,661fee35973b5ff6fa3418ef,6685aa9113c938e83b4f1ea0,66b41c4dd3aee3fac9f5f1ad,2024-08-07_18h16.40.996,WTP_SM_Choice,2022.2.1,Win32,163.9344262,,,,,,,NAN,,NAN,2.59,3.41,,0,69,69,69,1,70,Charlie,Rej,Participant_Images/661fee35973b5ff6fa3418ef/661fee35973b5ff6fa3418ef_Images/661fee35973b5ff6fa3418ef_Image_9.jpeg,did not like,1.672012706,,,,,,,,,,,,,,,,,,,,,,
,,661fee35973b5ff6fa3418ef,6685aa9113c938e83b4f1ea0,66b41c4dd3aee3fac9f5f1ad,2024-08-07_18h16.40.996,WTP_SM_Choice,2022.2.1,Win32,163.9344262,,,,,space,1.5557,NAN,,NAN,2.59,3.41,,0,70,70,70,1,71,Charlie,Rej,Participant_Images/661fee35973b5ff6fa3418ef/661fee35973b5ff6fa3418ef_Images/661fee35973b5ff6fa3418ef_Image_8.jpeg,did not like,4.942172136,,,,,,,,,,,,,,,,,,,,,,
,,661fee35973b5ff6fa3418ef,6685aa9113c938e83b4f1ea0,66b41c4dd3aee3fac9f5f1ad,2024-08-07_18h16.40.996,WTP_SM_Choice,2022.2.1,Win32,163.9344262,,,,,space,0.4604,NAN,,NAN,2.59,3.41,,0,71,71,71,1,72,Charlie,Rej,Participant_Images/661fee35973b5ff6fa3418ef/661fee35973b5ff6fa3418ef_Images/661fee35973b5ff6fa3418ef_Image_12.jpeg,did not like,2.50187214,,,,,,,,,,,,,,,,,,,,,,
,,661fee35973b5ff6fa3418ef,6685aa9113c938e83b4f1ea0,66b41c4dd3aee3fac9f5f1ad,2024-08-07_18h16.40.996,WTP_SM_Choice,2022.2.1,Win32,163.9344262,,,,,space,0.7712,NAN,,NAN,2.59,3.41,,0,72,72,72,1,73,Charlie,Rej,Participant_Images/661fee35973b5ff6fa3418ef/661fee35973b5ff6fa3418ef_Images/661fee35973b5ff6fa3418ef_Image_4.jpeg,liked,2.071164779,,,,,,,,,,,,,,,,,,,,,,
,,661fee35973b5ff6fa3418ef,6685aa9113c938e83b4f1ea0,66b41c4dd3aee3fac9f5f1ad,2024-08-07_18h16.40.996,WTP_SM_Choice,2022.2.1,Win32,163.9344262,,,,,space,0.7357,NAN,,NAN,2.59,3.41,,0,73,73,73,1,74,Charlie,Rej,Participant_Images/661fee35973b5ff6fa3418ef/661fee35973b5ff6fa3418ef_Images/661fee35973b5ff6fa3418ef_Image_5.jpeg,liked,5.336503566,,,,,,,,,,,,,,,,,,,,,,
,,661fee35973b5ff6fa3418ef,6685aa9113c938e83b4f1ea0,66b41c4dd3aee3fac9f5f1ad,2024-08-07_18h16.40.996,WTP_SM_Choice,2022.2.1,Win32,163.9344262,,,,,,,,,,,,,,,,,,71,,,,,,space,5.8305,space,0.5034,0.05,2,0.9837,0,0,0,0,1,Watching soccer matches with my friends,Take a nap in a sunny day in my backyard,0.01,0.05,3.3,0,,,,
,,661fee35973b5ff6fa3418ef,6685aa9113c938e83b4f1ea0,66b41c4dd3aee3fac9f5f1ad,2024-08-07_18h16.40.996,WTP_SM_Choice,2022.2.1,Win32,163.9344262,,,,,,,,,,,,,,,,,,72,,,,,,,,,,0.05,2,1.2321,0,1,1,1,1,Find someting fun in my back door,Go shopping in a sunny day,0.02,0.05,8.8,1,,,,
,,661fee35973b5ff6fa3418ef,6685aa9113c938e83b4f1ea0,66b41c4dd3aee3fac9f5f1ad,2024-08-07_18h16.40.996,WTP_SM_Choice,2022.2.1,Win32,163.9344262,,,,,,,,,,,,,,,,,,73,,,,,,,,,,0.05,2,1.5276,0,2,2,2,1,Watch movies with my family when I have time,Help my dog to clean up and play in the backyard,0.03,0.05,3.3,0,,,,
,,661fee35973b5ff6fa3418ef,6685aa9113c938e83b4f1ea0,66b41c4dd3aee3fac9f5f1ad,2024-08-07_18h16.40.996,WTP_SM_Choice,2022.2.1,Win32,163.9344262,,,,,,,,,,,,,,,,,,74,,,,,,,,,,0.05,2,1.434,0,3,3,3,1,Watch movies with my family when I have time,Take care my home and clean up my home in sunny say,0.04,0.05,4.4,0,,,,
,,661fee35973b5ff6fa3418ef,6685aa9113c938e83b4f1ea0,66b41c4dd3aee3fac9f5f1ad,2024-08-07_18h16.40.996,WTP_SM_Choice,2022.2.1,Win32,163.9344262,,,,,,,,,,,,,,,,,,75,,,,,,,,,,0.05,2,1.2288,0,4,4,4,1,Take a nap in a sunny day in my backyard,Call with my friends and talks for fun things,0.05,0.05,3.3,1,,,,
,,661fee35973b5ff6fa3418ef,6685aa9113c938e83b4f1ea0,66b41c4dd3aee3fac9f5f1ad,2024-08-07_18h16.40.996,WTP_SM_Choice,2022.2.1,Win32,163.9344262,,,,,,,5,,8,2.84,3.16,,0,74,74,74,1,75,Charlie,Rej,Participant_Images/661fee35973b5ff6fa3418ef/661fee35973b5ff6fa3418ef_Images/661fee35973b5ff6fa3418ef_Image_24.jpeg,did not like,2.642157193,,,,,,,,,,,,,,,,,,,space,0.7908,,
,,661fee35973b5ff6fa3418ef,6685aa9113c938e83b4f1ea0,66b41c4dd3aee3fac9f5f1ad,2024-08-07_18h16.40.996,WTP_SM_Choice,2022.2.1,Win32,163.9344262,,,space,1.5137,space,1.254,NAN,,NAN,2.84,3.16,,0,75,75,75,1,76,Riley,Rej,Participant_Images/661fee35973b5ff6fa3418ef/661fee35973b5ff6fa3418ef_Images/661fee35973b5ff6fa3418ef_Image_25.jpeg,did not like,4.456234322,,,,,,,,,,,,,,,,,,,,,,
,,661fee35973b5ff6fa3418ef,6685aa9113c938e83b4f1ea0,66b41c4dd3aee3fac9f5f1ad,2024-08-07_18h16.40.996,WTP_SM_Choice,2022.2.1,Win32,163.9344262,,,,,space,2.0938,NAN,,NAN,2.84,3.16,,0,76,76,76,1,77,Riley,Rej,Participant_Images/661fee35973b5ff6fa3418ef/661fee35973b5ff6fa3418ef_Images/661fee35973b5ff6fa3418ef_Image_13.jpeg,did not like,4.438512181,,,,,,,,,,,,,,,,,,,,,,
,,661fee35973b5ff6fa3418ef,6685aa9113c938e83b4f1ea0,66b41c4dd3aee3fac9f5f1ad,2024-08-07_18h16.40.996,WTP_SM_Choice,2022.2.1,Win32,163.9344262,,,,,space,1.0088,NAN,,NAN,2.84,3.16,,0,77,77,77,1,78,Riley,Rej,Participant_Images/661fee35973b5ff6fa3418ef/661fee35973b5ff6fa3418ef_Images/661fee35973b5ff6fa3418ef_Image_18.jpeg,did not like,2.682944783,,,,,,,,,,,,,,,,,,,,,,
,,661fee35973b5ff6fa3418ef,6685aa9113c938e83b4f1ea0,66b41c4dd3aee3fac9f5f1ad,2024-08-07_18h16.40.996,WTP_SM_Choice,2022.2.1,Win32,163.9344262,,,,,space,1.834,NAN,,NAN,2.84,3.16,,0,78,78,78,1,79,Riley,Rej,Participant_Images/661fee35973b5ff6fa3418ef/661fee35973b5ff6fa3418ef_Images/661fee35973b5ff6fa3418ef_Image_2.jpeg,liked,4.51984296,,,,,,,,,,,,,,,,,,,,,,
,,661fee35973b5ff6fa3418ef,6685aa9113c938e83b4f1ea0,66b41c4dd3aee3fac9f5f1ad,2024-08-07_18h16.40.996,WTP_SM_Choice,2022.2.1,Win32,163.9344262,,,,,,,,,,,,,,,,,,76,,,,,,space,0.9748,space,0.8506,0.01,2,1.3506,0,0,0,0,1,Play basketball with my friends in sunny day,Cook for for myself in rainy day,0.01,0.01,1.1,0,,,,
,,661fee35973b5ff6fa3418ef,6685aa9113c938e83b4f1ea0,66b41c4dd3aee3fac9f5f1ad,2024-08-07_18h16.40.996,WTP_SM_Choice,2022.2.1,Win32,163.9344262,,,,,,,,,,,,,,,,,,77,,,,,,,,,,0.02,1,2.0168,0,1,1,1,1,Watching soccer matches with my friends,Take care my home and clean up my home in sunny say,0.02,0.01,8.8,0,,,,
,,661fee35973b5ff6fa3418ef,6685aa9113c938e83b4f1ea0,66b41c4dd3aee3fac9f5f1ad,2024-08-07_18h16.40.996,WTP_SM_Choice,2022.2.1,Win32,163.9344262,,,,,,,,,,,,,,,,,,78,,,,,,,,,,0.03,1,1.2761,0,2,2,2,1,Find someting fun in my back door,Watching soccer matches with my friends,0.03,0.01,1.1,1,,,,
,,661fee35973b5ff6fa3418ef,6685aa9113c938e83b4f1ea0,66b41c4dd3aee3fac9f5f1ad,2024-08-07_18h16.40.996,WTP_SM_Choice,2022.2.1,Win32,163.9344262,,,,,,,,,,,,,,,,,,79,,,,,,,,,,0.04,1,1.4274,0,3,3,3,1,Buy food in the weekend with my family,Cook for for myself in rainy day,0.04,0.01,1.1,0,,,,
,,661fee35973b5ff6fa3418ef,6685aa9113c938e83b4f1ea0,66b41c4dd3aee3fac9f5f1ad,2024-08-07_18h16.40.996,WTP_SM_Choice,2022.2.1,Win32,163.9344262,,,,,,,,,,,,,,,,,,80,,,,,,,,,,0.05,1,1.291,0,4,4,4,1,Play video games with my family during weekend,Cook for for myself in rainy day,0.05,0.01,4.4,0,,,,
,,661fee35973b5ff6fa3418ef,6685aa9113c938e83b4f1ea0,66b41c4dd3aee3fac9f5f1ad,2024-08-07_18h16.40.996,WTP_SM_Choice,2022.2.1,Win32,163.9344262,,,,,,,NAN,,NAN,2.99,3.01,,0,79,79,79,1,80,Riley,Rej,Participant_Images/661fee35973b5ff6fa3418ef/661fee35973b5ff6fa3418ef_Images/661fee35973b5ff6fa3418ef_Image_4.jpeg,did not like,3.195382774,,,,,,,,,,,,,,,,,,,,,,
,,661fee35973b5ff6fa3418ef,6685aa9113c938e83b4f1ea0,66b41c4dd3aee3fac9f5f1ad,2024-08-07_18h16.40.996,WTP_SM_Choice,2022.2.1,Win32,163.9344262,,,,,space,3.7184,NAN,,NAN,2.99,3.01,,0,80,80,80,1,81,Riley,Rej,Participant_Images/661fee35973b5ff6fa3418ef/661fee35973b5ff6fa3418ef_Images/661fee35973b5ff6fa3418ef_Image_15.jpeg,liked,1.779333479,,,,,,,,,,,,,,,,,,,,,,
,,661fee35973b5ff6fa3418ef,6685aa9113c938e83b4f1ea0,66b41c4dd3aee3fac9f5f1ad,2024-08-07_18h16.40.996,WTP_SM_Choice,2022.2.1,Win32,163.9344262,,,,,space,6.8115,NAN,,NAN,2.99,3.01,,0,81,81,81,1,82,Riley,Rej,Participant_Images/661fee35973b5ff6fa3418ef/661fee35973b5ff6fa3418ef_Images/661fee35973b5ff6fa3418ef_Image_1.jpeg,liked,4.312468682,,,,,,,,,,,,,,,,,,,,,,
,,661fee35973b5ff6fa3418ef,6685aa9113c938e83b4f1ea0,66b41c4dd3aee3fac9f5f1ad,2024-08-07_18h16.40.996,WTP_SM_Choice,2022.2.1,Win32,163.9344262,,,,,space,2.5096,NAN,,NAN,2.99,3.01,,0,82,82,82,1,83,Riley,Rej,Participant_Images/661fee35973b5ff6fa3418ef/661fee35973b5ff6fa3418ef_Images/661fee35973b5ff6fa3418ef_Image_24.jpeg,did not like,4.940433059,,,,,,,,,,,,,,,,,,,,,,
,,661fee35973b5ff6fa3418ef,6685aa9113c938e83b4f1ea0,66b41c4dd3aee3fac9f5f1ad,2024-08-07_18h16.40.996,WTP_SM_Choice,2022.2.1,Win32,163.9344262,,,,,space,4.0759,NAN,,NAN,2.99,3.01,,0,83,83,83,1,84,Riley,Rej,Participant_Images/661fee35973b5ff6fa3418ef/661fee35973b5ff6fa3418ef_Images/661fee35973b5ff6fa3418ef_Image_16.jpeg,did not like,2.7105123,,,,,,,,,,,,,,,,,,,,,,
,,661fee35973b5ff6fa3418ef,6685aa9113c938e83b4f1ea0,66b41c4dd3aee3fac9f5f1ad,2024-08-07_18h16.40.996,WTP_SM_Choice,2022.2.1,Win32,163.9344262,,,,,,,,,,,,,,,,,,81,,,,,,space,1.9608,space,0.8059,0.02,2,0.9241,0,0,0,0,1,Cook food with my family everyday,Find someting fun in my back door,0.01,0.02,3.3,0,,,,
,,661fee35973b5ff6fa3418ef,6685aa9113c938e83b4f1ea0,66b41c4dd3aee3fac9f5f1ad,2024-08-07_18h16.40.996,WTP_SM_Choice,2022.2.1,Win32,163.9344262,,,,,,,,,,,,,,,,,,82,,,,,,,,,,0.02,1,1.3138,0,1,1,1,1,Take care my home and clean up my home in sunny say,Cook food with my family everyday,0.02,0.02,4.4,1,,,,
,,661fee35973b5ff6fa3418ef,6685aa9113c938e83b4f1ea0,66b41c4dd3aee3fac9f5f1ad,2024-08-07_18h16.40.996,WTP_SM_Choice,2022.2.1,Win32,163.9344262,,,,,,,,,,,,,,,,,,83,,,,,,,,,,0.03,1,1.9188,0,2,2,2,1,Play video games in my room,Cook food with my family everyday,0.03,0.02,1.1,1,,,,
,,661fee35973b5ff6fa3418ef,6685aa9113c938e83b4f1ea0,66b41c4dd3aee3fac9f5f1ad,2024-08-07_18h16.40.996,WTP_SM_Choice,2022.2.1,Win32,163.9344262,,,,,,,,,,,,,,,,,,84,,,,,,,,,,0.04,1,1.3063,0,3,3,3,1,Cook for for myself in rainy day,Watching soccer matches with my friends,0.04,0.02,3.3,1,,,,
,,661fee35973b5ff6fa3418ef,6685aa9113c938e83b4f1ea0,66b41c4dd3aee3fac9f5f1ad,2024-08-07_18h16.40.996,WTP_SM_Choice,2022.2.1,Win32,163.9344262,,,,,,,,,,,,,,,,,,85,,,,,,,,,,0.05,1,1.8523,0,4,4,4,1,Play video games with my family during weekend,Play music in my free time in my music room,0.05,0.02,3.3,0,,,,
,,661fee35973b5ff6fa3418ef,6685aa9113c938e83b4f1ea0,66b41c4dd3aee3fac9f5f1ad,2024-08-07_18h16.40.996,WTP_SM_Choice,2022.2.1,Win32,163.9344262,,,,,,,NAN,,NAN,3.15,2.85,,0,84,84,84,1,85,Riley,Rej,Participant_Images/661fee35973b5ff6fa3418ef/661fee35973b5ff6fa3418ef_Images/661fee35973b5ff6fa3418ef_Image_21.jpeg,did not like,3.602308302,,,,,,,,,,,,,,,,,,,,,,
,,661fee35973b5ff6fa3418ef,6685aa9113c938e83b4f1ea0,66b41c4dd3aee3fac9f5f1ad,2024-08-07_18h16.40.996,WTP_SM_Choice,2022.2.1,Win32,163.9344262,,,,,space,1.0897,NAN,,NAN,3.15,2.85,,0,85,85,85,1,86,Riley,Rej,Participant_Images/661fee35973b5ff6fa3418ef/661fee35973b5ff6fa3418ef_Images/661fee35973b5ff6fa3418ef_Image_14.jpeg,liked,4.106391878,,,,,,,,,,,,,,,,,,,,,,
,,661fee35973b5ff6fa3418ef,6685aa9113c938e83b4f1ea0,66b41c4dd3aee3fac9f5f1ad,2024-08-07_18h16.40.996,WTP_SM_Choice,2022.2.1,Win32,163.9344262,,,,,space,9.1522,NAN,,NAN,3.15,2.85,,0,86,86,86,1,87,Riley,Rej,Participant_Images/661fee35973b5ff6fa3418ef/661fee35973b5ff6fa3418ef_Images/661fee35973b5ff6fa3418ef_Image_22.jpeg,did not like,3.799433026,,,,,,,,,,,,,,,,,,,,,,
,,661fee35973b5ff6fa3418ef,6685aa9113c938e83b4f1ea0,66b41c4dd3aee3fac9f5f1ad,2024-08-07_18h16.40.996,WTP_SM_Choice,2022.2.1,Win32,163.9344262,,,,,space,0.7337,NAN,,NAN,3.15,2.85,,0,87,87,87,1,88,Riley,Rej,Participant_Images/661fee35973b5ff6fa3418ef/661fee35973b5ff6fa3418ef_Images/661fee35973b5ff6fa3418ef_Image_6.jpeg,did not like,5.246980764,,,,,,,,,,,,,,,,,,,,,,
,,661fee35973b5ff6fa3418ef,6685aa9113c938e83b4f1ea0,66b41c4dd3aee3fac9f5f1ad,2024-08-07_18h16.40.996,WTP_SM_Choice,2022.2.1,Win32,163.9344262,,,,,space,4.3165,NAN,,NAN,3.15,2.85,,0,88,88,88,1,89,Riley,Rej,Participant_Images/661fee35973b5ff6fa3418ef/661fee35973b5ff6fa3418ef_Images/661fee35973b5ff6fa3418ef_Image_3.jpeg,liked,3.30081769,,,,,,,,,,,,,,,,,,,,,,
,,661fee35973b5ff6fa3418ef,6685aa9113c938e83b4f1ea0,66b41c4dd3aee3fac9f5f1ad,2024-08-07_18h16.40.996,WTP_SM_Choice,2022.2.1,Win32,163.9344262,,,,,,,,,,,,,,,,,,86,,,,,,space,1.8721,space,0.6122,0.03,2,1.3453,0,0,0,0,1,Play music in my free time in my music room,Play with my dog with my family and play it for fun,0.01,0.03,1.1,1,,,,
,,661fee35973b5ff6fa3418ef,6685aa9113c938e83b4f1ea0,66b41c4dd3aee3fac9f5f1ad,2024-08-07_18h16.40.996,WTP_SM_Choice,2022.2.1,Win32,163.9344262,,,,,,,,,,,,,,,,,,87,,,,,,,,,,0.03,2,2.6303,0,1,1,1,1,Sing songs when I go to the bathroom,Play basketball with my friends in sunny day,0.02,0.03,4.4,1,,,,
,,661fee35973b5ff6fa3418ef,6685aa9113c938e83b4f1ea0,66b41c4dd3aee3fac9f5f1ad,2024-08-07_18h16.40.996,WTP_SM_Choice,2022.2.1,Win32,163.9344262,,,,,,,,,,,,,,,,,,88,,,,,,,,,,0.03,1,1.5804,0,2,2,2,1,Play with my dog with my family and play it for fun,Take care my home and clean up my home in sunny say,0.03,0.03,1.1,0,,,,
,,661fee35973b5ff6fa3418ef,6685aa9113c938e83b4f1ea0,66b41c4dd3aee3fac9f5f1ad,2024-08-07_18h16.40.996,WTP_SM_Choice,2022.2.1,Win32,163.9344262,,,,,,,,,,,,,,,,,,89,,,,,,,,,,0.04,1,2.1224,0,3,3,3,1,Watch movies with my family when I have time,Find someting fun in my back door,0.04,0.03,3.3,0,,,,
,,661fee35973b5ff6fa3418ef,6685aa9113c938e83b4f1ea0,66b41c4dd3aee3fac9f5f1ad,2024-08-07_18h16.40.996,WTP_SM_Choice,2022.2.1,Win32,163.9344262,,,,,,,,,,,,,,,,,,90,,,,,,,,,,0.05,1,2.7991,0,4,4,4,1,Go shopping in a sunny day,Play video games in my room,0.05,0.03,8.8,0,,,,
,,661fee35973b5ff6fa3418ef,6685aa9113c938e83b4f1ea0,66b41c4dd3aee3fac9f5f1ad,2024-08-07_18h16.40.996,WTP_SM_Choice,2022.2.1,Win32,163.9344262,,,,,,,NAN,,NAN,3.33,2.67,,0,89,89,89,1,90,Riley,Rej,Participant_Images/661fee35973b5ff6fa3418ef/661fee35973b5ff6fa3418ef_Images/661fee35973b5ff6fa3418ef_Image_11.jpeg,did not like,1.661473164,,,,,,,,,,,,,,,,,,,,,,
,,661fee35973b5ff6fa3418ef,6685aa9113c938e83b4f1ea0,66b41c4dd3aee3fac9f5f1ad,2024-08-07_18h16.40.996,WTP_SM_Choice,2022.2.1,Win32,163.9344262,,,,,space,8.5845,NAN,,NAN,3.33,2.67,,0,90,90,90,1,91,Riley,Rej,Participant_Images/661fee35973b5ff6fa3418ef/661fee35973b5ff6fa3418ef_Images/661fee35973b5ff6fa3418ef_Image_7.jpeg,did not like,3.613205605,,,,,,,,,,,,,,,,,,,,,,
,,661fee35973b5ff6fa3418ef,6685aa9113c938e83b4f1ea0,66b41c4dd3aee3fac9f5f1ad,2024-08-07_18h16.40.996,WTP_SM_Choice,2022.2.1,Win32,163.9344262,,,,,space,2.5574,NAN,,NAN,3.33,2.67,,0,91,91,91,1,92,Riley,Rej,Participant_Images/661fee35973b5ff6fa3418ef/661fee35973b5ff6fa3418ef_Images/661fee35973b5ff6fa3418ef_Image_20.jpeg,did not like,4.988446431,,,,,,,,,,,,,,,,,,,,,,
,,661fee35973b5ff6fa3418ef,6685aa9113c938e83b4f1ea0,66b41c4dd3aee3fac9f5f1ad,2024-08-07_18h16.40.996,WTP_SM_Choice,2022.2.1,Win32,163.9344262,,,,,space,2.048,NAN,,NAN,3.33,2.67,,0,92,92,92,1,93,Riley,Rej,Participant_Images/661fee35973b5ff6fa3418ef/661fee35973b5ff6fa3418ef_Images/661fee35973b5ff6fa3418ef_Image_23.jpeg,did not like,3.470791822,,,,,,,,,,,,,,,,,,,,,,
,,661fee35973b5ff6fa3418ef,6685aa9113c938e83b4f1ea0,66b41c4dd3aee3fac9f5f1ad,2024-08-07_18h16.40.996,WTP_SM_Choice,2022.2.1,Win32,163.9344262,,,,,space,0.7089,NAN,,NAN,3.33,2.67,,0,93,93,93,1,94,Riley,Rej,Participant_Images/661fee35973b5ff6fa3418ef/661fee35973b5ff6fa3418ef_Images/661fee35973b5ff6fa3418ef_Image_9.jpeg,did not like,3.820572462,,,,,,,,,,,,,,,,,,,,,,
,,661fee35973b5ff6fa3418ef,6685aa9113c938e83b4f1ea0,66b41c4dd3aee3fac9f5f1ad,2024-08-07_18h16.40.996,WTP_SM_Choice,2022.2.1,Win32,163.9344262,,,,,,,,,,,,,,,,,,91,,,,,,space,1.4743,space,1.5462,0.04,2,2.7749,0,0,0,0,1,Play music in my free time in my music room,Play video games with my friends,0.01,0.04,3.3,1,,,,
,,661fee35973b5ff6fa3418ef,6685aa9113c938e83b4f1ea0,66b41c4dd3aee3fac9f5f1ad,2024-08-07_18h16.40.996,WTP_SM_Choice,2022.2.1,Win32,163.9344262,,,,,,,,,,,,,,,,,,92,,,,,,,,,,0.04,2,2.6887,0,1,1,1,1,Sing songs when I go to the bathroom,Buy food in the weekend with my family,0.02,0.04,8.8,1,,,,
,,661fee35973b5ff6fa3418ef,6685aa9113c938e83b4f1ea0,66b41c4dd3aee3fac9f5f1ad,2024-08-07_18h16.40.996,WTP_SM_Choice,2022.2.1,Win32,163.9344262,,,,,,,,,,,,,,,,,,93,,,,,,,,,,0.04,2,1.0981,0,2,2,2,1,Go shopping in a sunny day,Cook for for myself in rainy day,0.03,0.04,1.1,0,,,,
,,661fee35973b5ff6fa3418ef,6685aa9113c938e83b4f1ea0,66b41c4dd3aee3fac9f5f1ad,2024-08-07_18h16.40.996,WTP_SM_Choice,2022.2.1,Win32,163.9344262,,,,,,,,,,,,,,,,,,94,,,,,,,,,,0.04,1,1.8633,0,3,3,3,1,Cook for for myself in rainy day,Watch movies with my family when I have time,0.04,0.04,4.4,1,,,,
,,661fee35973b5ff6fa3418ef,6685aa9113c938e83b4f1ea0,66b41c4dd3aee3fac9f5f1ad,2024-08-07_18h16.40.996,WTP_SM_Choice,2022.2.1,Win32,163.9344262,,,,,,,,,,,,,,,,,,95,,,,,,,,,,0.05,1,1.3809,0,4,4,4,1,Go shopping in a sunny day,Go out and take picture for me to post on Instagram,0.05,0.04,4.4,0,,,,
,,661fee35973b5ff6fa3418ef,6685aa9113c938e83b4f1ea0,66b41c4dd3aee3fac9f5f1ad,2024-08-07_18h16.40.996,WTP_SM_Choice,2022.2.1,Win32,163.9344262,,,,,,,NAN,,NAN,3.54,2.46,,0,94,94,94,1,95,Riley,Rej,Participant_Images/661fee35973b5ff6fa3418ef/661fee35973b5ff6fa3418ef_Images/661fee35973b5ff6fa3418ef_Image_17.jpeg,liked,2.455989137,,,,,,,,,,,,,,,,,,,,,,
,,661fee35973b5ff6fa3418ef,6685aa9113c938e83b4f1ea0,66b41c4dd3aee3fac9f5f1ad,2024-08-07_18h16.40.996,WTP_SM_Choice,2022.2.1,Win32,163.9344262,,,,,space,0.9399,NAN,,NAN,3.54,2.46,,0,95,95,95,1,96,Riley,Rej,Participant_Images/661fee35973b5ff6fa3418ef/661fee35973b5ff6fa3418ef_Images/661fee35973b5ff6fa3418ef_Image_12.jpeg,liked,3.79605092,,,,,,,,,,,,,,,,,,,,,,
,,661fee35973b5ff6fa3418ef,6685aa9113c938e83b4f1ea0,66b41c4dd3aee3fac9f5f1ad,2024-08-07_18h16.40.996,WTP_SM_Choice,2022.2.1,Win32,163.9344262,,,,,space,0.8246,NAN,,NAN,3.54,2.46,,0,96,96,96,1,97,Riley,Rej,Participant_Images/661fee35973b5ff6fa3418ef/661fee35973b5ff6fa3418ef_Images/661fee35973b5ff6fa3418ef_Image_5.jpeg,did not like,3.562416326,,,,,,,,,,,,,,,,,,,,,,
,,661fee35973b5ff6fa3418ef,6685aa9113c938e83b4f1ea0,66b41c4dd3aee3fac9f5f1ad,2024-08-07_18h16.40.996,WTP_SM_Choice,2022.2.1,Win32,163.9344262,,,,,space,3.6476,NAN,,NAN,3.54,2.46,,0,97,97,97,1,98,Riley,Rej,Participant_Images/661fee35973b5ff6fa3418ef/661fee35973b5ff6fa3418ef_Images/661fee35973b5ff6fa3418ef_Image_10.jpeg,did not like,2.843822497,,,,,,,,,,,,,,,,,,,,,,
,,661fee35973b5ff6fa3418ef,6685aa9113c938e83b4f1ea0,66b41c4dd3aee3fac9f5f1ad,2024-08-07_18h16.40.996,WTP_SM_Choice,2022.2.1,Win32,163.9344262,,,,,space,0.2919,NAN,,NAN,3.54,2.46,,0,98,98,98,1,99,Riley,Rej,Participant_Images/661fee35973b5ff6fa3418ef/661fee35973b5ff6fa3418ef_Images/661fee35973b5ff6fa3418ef_Image_8.jpeg,did not like,3.546495948,,,,,,,,,,,,,,,,,,,,,,
,,661fee35973b5ff6fa3418ef,6685aa9113c938e83b4f1ea0,66b41c4dd3aee3fac9f5f1ad,2024-08-07_18h16.40.996,WTP_SM_Choice,2022.2.1,Win32,163.9344262,,,,,,,,,,,,,,,,,,96,,,,,,space,0.912,space,0.4974,0.05,2,1.8242,0,0,0,0,1,Find someting fun in my back door,Buy food in the weekend with my family,0.01,0.05,3.3,1,,,,
,,661fee35973b5ff6fa3418ef,6685aa9113c938e83b4f1ea0,66b41c4dd3aee3fac9f5f1ad,2024-08-07_18h16.40.996,WTP_SM_Choice,2022.2.1,Win32,163.9344262,,,,,,,,,,,,,,,,,,97,,,,,,,,,,0.05,2,1.4572,0,1,1,1,1,Sing songs when I go to the bathroom,Play video games with my friends,0.02,0.05,1.1,1,,,,
,,661fee35973b5ff6fa3418ef,6685aa9113c938e83b4f1ea0,66b41c4dd3aee3fac9f5f1ad,2024-08-07_18h16.40.996,WTP_SM_Choice,2022.2.1,Win32,163.9344262,,,,,,,,,,,,,,,,,,98,,,,,,,,,,0.05,2,1.5273,0,2,2,2,1,Play basketball with my friends in sunny day,Find someting fun in my back door,0.03,0.05,1.1,0,,,,
,,661fee35973b5ff6fa3418ef,6685aa9113c938e83b4f1ea0,66b41c4dd3aee3fac9f5f1ad,2024-08-07_18h16.40.996,WTP_SM_Choice,2022.2.1,Win32,163.9344262,,,,,,,,,,,,,,,,,,99,,,,,,,,,,0.05,2,1.9787,0,3,3,3,1,Call with my friends and talks for fun things,Play with my dog for the ball games,0.04,0.05,3.3,0,,,,
,,661fee35973b5ff6fa3418ef,6685aa9113c938e83b4f1ea0,66b41c4dd3aee3fac9f5f1ad,2024-08-07_18h16.40.996,WTP_SM_Choice,2022.2.1,Win32,163.9344262,,,,,,,,,,,,,,,,,,100,,,,,,,,,,0.05,1,1.3105,0,4,4,4,1,Play with my dog for the ball games,Watch movies with my family when I have time,0.05,0.05,4.4,1,,,,
,,661fee35973b5ff6fa3418ef,6685aa9113c938e83b4f1ea0,66b41c4dd3aee3fac9f5f1ad,2024-08-07_18h16.40.996,WTP_SM_Choice,2022.2.1,Win32,163.9344262,,,,,,,5,,8,3.79,2.21,,0,99,99,99,1,100,Riley,Rej,Participant_Images/661fee35973b5ff6fa3418ef/661fee35973b5ff6fa3418ef_Images/661fee35973b5ff6fa3418ef_Image_19.jpeg,did not like,1.672012706,,,,,,,,,,,,,,,,,,,space,1.091,,
,,661fee35973b5ff6fa3418ef,6685aa9113c938e83b4f1ea0,66b41c4dd3aee3fac9f5f1ad,2024-08-07_18h16.40.996,WTP_SM_Choice,2022.2.1,Win32,163.9344262,,,,,,,,,,,,,,,,,,,,,,,,,,,,,,,,,,,,,,,,,,,,space,6.0226
