endwelcomescreen_keys.keys,endwelcomescreen_keys.rt,participant,date,expName,psychopyVersion,OS,frameRate,endinstructionscreen_keys.keys,endinstructionscreen_keys.rt,endpartnermatch_keys.keys,endpartnermatch_keys.rt,sharenextphoto_key.keys,sharenextphoto_key.rt,salience_rating,key_resp.keys,stress_level,subtract_bonus,TOTAL_TASK_BONUS,stresslevel_keypress.keys,entiretaskloop.thisRepN,entiretaskloop.thisTrialN,entiretaskloop.thisN,entiretaskloop.thisIndex,entiretaskloop.ran,TrialNumber,Partner,Condition,Photos,Feedback,FeedbackWait,WTP_ins_keys1.keys,WTP_ins_keys1.rt,WTP_ins_keys2.keys,WTP_ins_keys2.rt,decision_price,responses.keys,responses.rt,WTPTaskLoop.thisRepN,WTPTaskLoop.thisTrialN,WTPTaskLoop.thisN,WTPTaskLoop.thisIndex,WTPTaskLoop.ran,right,left,leftmoney,rightmoney,WTP_ITI,social_left,Resume_keys.keys,Resume_keys.rt,end_screen_keys.keys,end_screen_keys.rt
space,4.2279,66202163d9e5dba57c5e831d,2024-08-23_16h28.11.062,WTP_SM_Choice,2022.2.1,Win32,60.24096386,,,,,,,,,,,,,,,,,,,,,,,,,,,,,,,,,,,,,,,,,,,,,
,,66202163d9e5dba57c5e831d,2024-08-23_16h28.11.062,WTP_SM_Choice,2022.2.1,Win32,60.24096386,space,13.5527,,,,,,,,,,,,,,,,,,,,,,,,,,,,,,,,,,,,,,,,,,,
,,66202163d9e5dba57c5e831d,2024-08-23_16h28.11.062,WTP_SM_Choice,2022.2.1,Win32,60.24096386,,,space,2.0636,space,1.2914,NAN,,NAN,0,6,,0,0,0,0,1,1,Riley,Acc,Participant_Images/66202163d9e5dba57c5e831d/66202163d9e5dba57c5e831d_Images/66202163d9e5dba57c5e831d_Image_7.jpeg,liked,3.613205605,,,,,,,,,,,,,,,,,,,,,,
,,66202163d9e5dba57c5e831d,2024-08-23_16h28.11.062,WTP_SM_Choice,2022.2.1,Win32,60.24096386,,,,,space,1.2298,NAN,,NAN,0,6,,0,1,1,1,1,2,Riley,Acc,Participant_Images/66202163d9e5dba57c5e831d/66202163d9e5dba57c5e831d_Images/66202163d9e5dba57c5e831d_Image_18.jpeg,liked,4.988446431,,,,,,,,,,,,,,,,,,,,,,
,,66202163d9e5dba57c5e831d,2024-08-23_16h28.11.062,WTP_SM_Choice,2022.2.1,Win32,60.24096386,,,,,space,1.2396,NAN,,NAN,0,6,,0,2,2,2,1,3,Riley,Acc,Participant_Images/66202163d9e5dba57c5e831d/66202163d9e5dba57c5e831d_Images/66202163d9e5dba57c5e831d_Image_13.jpeg,did not like,3.470791822,,,,,,,,,,,,,,,,,,,,,,
,,66202163d9e5dba57c5e831d,2024-08-23_16h28.11.062,WTP_SM_Choice,2022.2.1,Win32,60.24096386,,,,,space,1.1688,NAN,,NAN,0,6,,0,3,3,3,1,4,Riley,Acc,Participant_Images/66202163d9e5dba57c5e831d/66202163d9e5dba57c5e831d_Images/66202163d9e5dba57c5e831d_Image_23.jpeg,liked,3.820572462,,,,,,,,,,,,,,,,,,,,,,
,,66202163d9e5dba57c5e831d,2024-08-23_16h28.11.062,WTP_SM_Choice,2022.2.1,Win32,60.24096386,,,,,,,,,,,,,,,,,,1,,,,,,space,19.1423,space,12.4582,0.01,1,4.3456,0,0,0,0,1,watch a movie with my niece or nephew ,Play fetch on a sunny day with my dog roxie,0.01,0.01,4.4,0,,,,
,,66202163d9e5dba57c5e831d,2024-08-23_16h28.11.062,WTP_SM_Choice,2022.2.1,Win32,60.24096386,,,,,,,,,,,,,,,,,,2,,,,,,,,,,0.02,1,4.8525,0,1,1,1,1,Go to the movie theater to watch a new movie that was just released,Talk on the phone to my mom ,0.02,0.01,8.8,1,,,,
,,66202163d9e5dba57c5e831d,2024-08-23_16h28.11.062,WTP_SM_Choice,2022.2.1,Win32,60.24096386,,,,,,,,,,,,,,,,,,3,,,,,,,,,,0.01,2,8.5875,0,2,2,2,1,Watch a movie with my friend,Go to the movie theater to watch a new movie that was just released,0.03,0.01,3.3,0,,,,
,,66202163d9e5dba57c5e831d,2024-08-23_16h28.11.062,WTP_SM_Choice,2022.2.1,Win32,60.24096386,,,,,,,,,,,,,,,,,,4,,,,,,,,,,0.04,1,3.2224,0,3,3,3,1,Go to the movie theater to watch a new movie that was just released,Go for a drive with my dog roxie,0.04,0.01,1.1,1,,,,
,,66202163d9e5dba57c5e831d,2024-08-23_16h28.11.062,WTP_SM_Choice,2022.2.1,Win32,60.24096386,,,,,,,,,,,,,,,,,,5,,,,,,,,,,0.01,2,5.6321,0,4,4,4,1,watch football with my parents,Scroll through facebook,0.05,0.01,1.1,0,,,,
,,66202163d9e5dba57c5e831d,2024-08-23_16h28.11.062,WTP_SM_Choice,2022.2.1,Win32,60.24096386,,,,,,,NAN,,NAN,0.09,5.91,,0,4,4,4,1,5,Riley,Acc,Participant_Images/66202163d9e5dba57c5e831d/66202163d9e5dba57c5e831d_Images/66202163d9e5dba57c5e831d_Image_20.jpeg,liked,2.455989137,,,,,,,,,,,,,,,,,,,,,,
,,66202163d9e5dba57c5e831d,2024-08-23_16h28.11.062,WTP_SM_Choice,2022.2.1,Win32,60.24096386,,,,,space,0.791,NAN,,NAN,0.09,5.91,,0,5,5,5,1,6,Riley,Acc,Participant_Images/66202163d9e5dba57c5e831d/66202163d9e5dba57c5e831d_Images/66202163d9e5dba57c5e831d_Image_12.jpeg,liked,3.79605092,,,,,,,,,,,,,,,,,,,,,,
,,66202163d9e5dba57c5e831d,2024-08-23_16h28.11.062,WTP_SM_Choice,2022.2.1,Win32,60.24096386,,,,,space,0.7223,NAN,,NAN,0.09,5.91,,0,6,6,6,1,7,Riley,Acc,Participant_Images/66202163d9e5dba57c5e831d/66202163d9e5dba57c5e831d_Images/66202163d9e5dba57c5e831d_Image_2.jpeg,did not like,3.562416326,,,,,,,,,,,,,,,,,,,,,,
,,66202163d9e5dba57c5e831d,2024-08-23_16h28.11.062,WTP_SM_Choice,2022.2.1,Win32,60.24096386,,,,,space,0.5831,NAN,,NAN,0.09,5.91,,0,7,7,7,1,8,Riley,Acc,Participant_Images/66202163d9e5dba57c5e831d/66202163d9e5dba57c5e831d_Images/66202163d9e5dba57c5e831d_Image_21.jpeg,did not like,2.843822497,,,,,,,,,,,,,,,,,,,,,,
,,66202163d9e5dba57c5e831d,2024-08-23_16h28.11.062,WTP_SM_Choice,2022.2.1,Win32,60.24096386,,,,,space,1.2539,NAN,,NAN,0.09,5.91,,0,8,8,8,1,9,Riley,Acc,Participant_Images/66202163d9e5dba57c5e831d/66202163d9e5dba57c5e831d_Images/66202163d9e5dba57c5e831d_Image_16.jpeg,liked,3.546495948,,,,,,,,,,,,,,,,,,,,,,
,,66202163d9e5dba57c5e831d,2024-08-23_16h28.11.062,WTP_SM_Choice,2022.2.1,Win32,60.24096386,,,,,,,,,,,,,,,,,,6,,,,,,space,12.0053,space,1.4576,0.01,1,3.1468,0,0,0,0,1,watch a movie with my niece or nephew ,Scroll through facebook,0.01,0.02,3.3,0,,,,
,,66202163d9e5dba57c5e831d,2024-08-23_16h28.11.062,WTP_SM_Choice,2022.2.1,Win32,60.24096386,,,,,,,,,,,,,,,,,,7,,,,,,,,,,0.02,2,2.5698,0,1,1,1,1,Make designs for my side business,Watch a movie with my friend,0.02,0.02,1.1,1,,,,
,,66202163d9e5dba57c5e831d,2024-08-23_16h28.11.062,WTP_SM_Choice,2022.2.1,Win32,60.24096386,,,,,,,,,,,,,,,,,,8,,,,,,,,,,0.02,2,4.1754,0,2,2,2,1,Go for a drive with my dog roxie,Lay on my bed listening to music ,0.03,0.02,1.1,0,,,,
,,66202163d9e5dba57c5e831d,2024-08-23_16h28.11.062,WTP_SM_Choice,2022.2.1,Win32,60.24096386,,,,,,,,,,,,,,,,,,9,,,,,,,,,,0.02,2,2.1523,0,3,3,3,1,Watch tv in my bedroom while laying on my bed,Go gambling with my mom ,0.04,0.02,4.4,1,,,,
,,66202163d9e5dba57c5e831d,2024-08-23_16h28.11.062,WTP_SM_Choice,2022.2.1,Win32,60.24096386,,,,,,,,,,,,,,,,,,10,,,,,,,,,,0.02,2,1.8348,0,4,4,4,1,Go to the movie theater to watch a new movie that was just released,Go camping with my best friend ,0.05,0.02,1.1,1,,,,
,,66202163d9e5dba57c5e831d,2024-08-23_16h28.11.062,WTP_SM_Choice,2022.2.1,Win32,60.24096386,,,,,,,NAN,,NAN,0.18,5.82,,0,9,9,9,1,10,Riley,Acc,Participant_Images/66202163d9e5dba57c5e831d/66202163d9e5dba57c5e831d_Images/66202163d9e5dba57c5e831d_Image_17.jpeg,liked,1.672012706,,,,,,,,,,,,,,,,,,,,,,
,,66202163d9e5dba57c5e831d,2024-08-23_16h28.11.062,WTP_SM_Choice,2022.2.1,Win32,60.24096386,,,,,space,0.4489,NAN,,NAN,0.18,5.82,,0,10,10,10,1,11,Riley,Acc,Participant_Images/66202163d9e5dba57c5e831d/66202163d9e5dba57c5e831d_Images/66202163d9e5dba57c5e831d_Image_6.jpeg,liked,4.942172136,,,,,,,,,,,,,,,,,,,,,,
,,66202163d9e5dba57c5e831d,2024-08-23_16h28.11.062,WTP_SM_Choice,2022.2.1,Win32,60.24096386,,,,,space,0.7167,NAN,,NAN,0.18,5.82,,0,11,11,11,1,12,Riley,Acc,Participant_Images/66202163d9e5dba57c5e831d/66202163d9e5dba57c5e831d_Images/66202163d9e5dba57c5e831d_Image_4.jpeg,did not like,2.50187214,,,,,,,,,,,,,,,,,,,,,,
,,66202163d9e5dba57c5e831d,2024-08-23_16h28.11.062,WTP_SM_Choice,2022.2.1,Win32,60.24096386,,,,,space,0.4726,NAN,,NAN,0.18,5.82,,0,12,12,12,1,13,Riley,Acc,Participant_Images/66202163d9e5dba57c5e831d/66202163d9e5dba57c5e831d_Images/66202163d9e5dba57c5e831d_Image_5.jpeg,liked,2.071164779,,,,,,,,,,,,,,,,,,,,,,
,,66202163d9e5dba57c5e831d,2024-08-23_16h28.11.062,WTP_SM_Choice,2022.2.1,Win32,60.24096386,,,,,space,0.4838,NAN,,NAN,0.18,5.82,,0,13,13,13,1,14,Riley,Acc,Participant_Images/66202163d9e5dba57c5e831d/66202163d9e5dba57c5e831d_Images/66202163d9e5dba57c5e831d_Image_14.jpeg,did not like,5.336503566,,,,,,,,,,,,,,,,,,,,,,
,,66202163d9e5dba57c5e831d,2024-08-23_16h28.11.062,WTP_SM_Choice,2022.2.1,Win32,60.24096386,,,,,,,,,,,,,,,,,,11,,,,,,space,1.6284,space,1.1304,0.01,1,1.4931,0,0,0,0,1,Talk on the phone to my mom ,Go on a drive on a nice day,0.01,0.03,3.3,0,,,,
,,66202163d9e5dba57c5e831d,2024-08-23_16h28.11.062,WTP_SM_Choice,2022.2.1,Win32,60.24096386,,,,,,,,,,,,,,,,,,12,,,,,,,,,,0.02,1,1.855,0,1,1,1,1,Lay on my bed listening to music ,Tattoo or get tattooed by my little sister,0.02,0.03,4.4,1,,,,
,,66202163d9e5dba57c5e831d,2024-08-23_16h28.11.062,WTP_SM_Choice,2022.2.1,Win32,60.24096386,,,,,,,,,,,,,,,,,,13,,,,,,,,,,0.03,2,2.7309,0,2,2,2,1,Watch a movie with my friend,Play fetch on a sunny day with my dog roxie,0.03,0.03,1.1,0,,,,
,,66202163d9e5dba57c5e831d,2024-08-23_16h28.11.062,WTP_SM_Choice,2022.2.1,Win32,60.24096386,,,,,,,,,,,,,,,,,,14,,,,,,,,,,0.03,2,4.4638,0,3,3,3,1,Play fetch on a sunny day with my dog roxie,Go gambling with my mom ,0.04,0.03,3.3,1,,,,
,,66202163d9e5dba57c5e831d,2024-08-23_16h28.11.062,WTP_SM_Choice,2022.2.1,Win32,60.24096386,,,,,,,,,,,,,,,,,,15,,,,,,,,,,0.03,2,1.9569,0,4,4,4,1,watch a movie with my niece or nephew ,Lay on my bed listening to music ,0.05,0.03,4.4,0,,,,
,,66202163d9e5dba57c5e831d,2024-08-23_16h28.11.062,WTP_SM_Choice,2022.2.1,Win32,60.24096386,,,,,,,NAN,,NAN,0.3,5.7,,0,14,14,14,1,15,Riley,Acc,Participant_Images/66202163d9e5dba57c5e831d/66202163d9e5dba57c5e831d_Images/66202163d9e5dba57c5e831d_Image_9.jpeg,did not like,2.642157193,,,,,,,,,,,,,,,,,,,,,,
,,66202163d9e5dba57c5e831d,2024-08-23_16h28.11.062,WTP_SM_Choice,2022.2.1,Win32,60.24096386,,,,,space,0.5882,NAN,,NAN,0.3,5.7,,0,15,15,15,1,16,Riley,Acc,Participant_Images/66202163d9e5dba57c5e831d/66202163d9e5dba57c5e831d_Images/66202163d9e5dba57c5e831d_Image_22.jpeg,liked,4.456234322,,,,,,,,,,,,,,,,,,,,,,
,,66202163d9e5dba57c5e831d,2024-08-23_16h28.11.062,WTP_SM_Choice,2022.2.1,Win32,60.24096386,,,,,space,0.6533,NAN,,NAN,0.3,5.7,,0,16,16,16,1,17,Riley,Acc,Participant_Images/66202163d9e5dba57c5e831d/66202163d9e5dba57c5e831d_Images/66202163d9e5dba57c5e831d_Image_15.jpeg,liked,4.438512181,,,,,,,,,,,,,,,,,,,,,,
,,66202163d9e5dba57c5e831d,2024-08-23_16h28.11.062,WTP_SM_Choice,2022.2.1,Win32,60.24096386,,,,,space,0.9724,NAN,,NAN,0.3,5.7,,0,17,17,17,1,18,Riley,Acc,Participant_Images/66202163d9e5dba57c5e831d/66202163d9e5dba57c5e831d_Images/66202163d9e5dba57c5e831d_Image_10.jpeg,did not like,2.682944783,,,,,,,,,,,,,,,,,,,,,,
,,66202163d9e5dba57c5e831d,2024-08-23_16h28.11.062,WTP_SM_Choice,2022.2.1,Win32,60.24096386,,,,,space,0.5053,NAN,,NAN,0.3,5.7,,0,18,18,18,1,19,Riley,Acc,Participant_Images/66202163d9e5dba57c5e831d/66202163d9e5dba57c5e831d_Images/66202163d9e5dba57c5e831d_Image_24.jpeg,liked,4.51984296,,,,,,,,,,,,,,,,,,,,,,
,,66202163d9e5dba57c5e831d,2024-08-23_16h28.11.062,WTP_SM_Choice,2022.2.1,Win32,60.24096386,,,,,,,,,,,,,,,,,,16,,,,,,space,1.1989,space,1.8948,0.01,1,2.7039,0,0,0,0,1,watch football with my parents,Play fetch on a sunny day with my dog roxie,0.01,0.04,1.1,0,,,,
,,66202163d9e5dba57c5e831d,2024-08-23_16h28.11.062,WTP_SM_Choice,2022.2.1,Win32,60.24096386,,,,,,,,,,,,,,,,,,17,,,,,,,,,,0.02,1,3.1848,0,1,1,1,1,Go on a drive on a nice day,Go camping with my best friend ,0.02,0.04,8.8,1,,,,
,,66202163d9e5dba57c5e831d,2024-08-23_16h28.11.062,WTP_SM_Choice,2022.2.1,Win32,60.24096386,,,,,,,,,,,,,,,,,,18,,,,,,,,,,0.03,1,1.7578,0,2,2,2,1,Play fetch on a sunny day with my dog roxie,Tattoo or get tattooed by my little sister,0.03,0.04,3.3,1,,,,
,,66202163d9e5dba57c5e831d,2024-08-23_16h28.11.062,WTP_SM_Choice,2022.2.1,Win32,60.24096386,,,,,,,,,,,,,,,,,,19,,,,,,,,,,0.04,1,3.5877,0,3,3,3,1,watch football with my parents,Go on a drive at night to enjoy the light and the stars,0.04,0.04,3.3,0,,,,
,,66202163d9e5dba57c5e831d,2024-08-23_16h28.11.062,WTP_SM_Choice,2022.2.1,Win32,60.24096386,,,,,,,,,,,,,,,,,,20,,,,,,,,,,0.04,2,2.9975,0,4,4,4,1,Scroll through facebook,Tattoo or get tattooed by my little sister,0.05,0.04,1.1,1,,,,
,,66202163d9e5dba57c5e831d,2024-08-23_16h28.11.062,WTP_SM_Choice,2022.2.1,Win32,60.24096386,,,,,,,NAN,,NAN,0.44,5.56,,0,19,19,19,1,20,Riley,Acc,Participant_Images/66202163d9e5dba57c5e831d/66202163d9e5dba57c5e831d_Images/66202163d9e5dba57c5e831d_Image_11.jpeg,liked,3.195382774,,,,,,,,,,,,,,,,,,,,,,
,,66202163d9e5dba57c5e831d,2024-08-23_16h28.11.062,WTP_SM_Choice,2022.2.1,Win32,60.24096386,,,,,space,0.4102,NAN,,NAN,0.44,5.56,,0,20,20,20,1,21,Riley,Acc,Participant_Images/66202163d9e5dba57c5e831d/66202163d9e5dba57c5e831d_Images/66202163d9e5dba57c5e831d_Image_25.jpeg,liked,1.779333479,,,,,,,,,,,,,,,,,,,,,,
,,66202163d9e5dba57c5e831d,2024-08-23_16h28.11.062,WTP_SM_Choice,2022.2.1,Win32,60.24096386,,,,,space,1.266,NAN,,NAN,0.44,5.56,,0,21,21,21,1,22,Riley,Acc,Participant_Images/66202163d9e5dba57c5e831d/66202163d9e5dba57c5e831d_Images/66202163d9e5dba57c5e831d_Image_1.jpeg,liked,4.312468682,,,,,,,,,,,,,,,,,,,,,,
,,66202163d9e5dba57c5e831d,2024-08-23_16h28.11.062,WTP_SM_Choice,2022.2.1,Win32,60.24096386,,,,,space,1.5501,NAN,,NAN,0.44,5.56,,0,22,22,22,1,23,Riley,Acc,Participant_Images/66202163d9e5dba57c5e831d/66202163d9e5dba57c5e831d_Images/66202163d9e5dba57c5e831d_Image_19.jpeg,liked,4.940433059,,,,,,,,,,,,,,,,,,,,,,
,,66202163d9e5dba57c5e831d,2024-08-23_16h28.11.062,WTP_SM_Choice,2022.2.1,Win32,60.24096386,,,,,space,1.1071,NAN,,NAN,0.44,5.56,,0,23,23,23,1,24,Riley,Acc,Participant_Images/66202163d9e5dba57c5e831d/66202163d9e5dba57c5e831d_Images/66202163d9e5dba57c5e831d_Image_3.jpeg,liked,2.7105123,,,,,,,,,,,,,,,,,,,,,,
,,66202163d9e5dba57c5e831d,2024-08-23_16h28.11.062,WTP_SM_Choice,2022.2.1,Win32,60.24096386,,,,,,,,,,,,,,,,,,21,,,,,,space,1.5028,space,0.9658,0.01,1,2.944,0,0,0,0,1,Go to the movie theater to watch a new movie that was just released,Go gambling with my mom ,0.01,0.05,8.8,1,,,,
,,66202163d9e5dba57c5e831d,2024-08-23_16h28.11.062,WTP_SM_Choice,2022.2.1,Win32,60.24096386,,,,,,,,,,,,,,,,,,22,,,,,,,,,,0.05,2,2.293,0,1,1,1,1,Go to the movie theater to watch a new movie that was just released,Tattoo or get tattooed by my little sister,0.02,0.05,4.4,1,,,,
,,66202163d9e5dba57c5e831d,2024-08-23_16h28.11.062,WTP_SM_Choice,2022.2.1,Win32,60.24096386,,,,,,,,,,,,,,,,,,23,,,,,,,,,,0.03,1,2.4399,0,2,2,2,1,Lay on my bed listening to music ,watch football with my parents,0.03,0.05,1.1,1,,,,
,,66202163d9e5dba57c5e831d,2024-08-23_16h28.11.062,WTP_SM_Choice,2022.2.1,Win32,60.24096386,,,,,,,,,,,,,,,,,,24,,,,,,,,,,0.04,1,2.5147,0,3,3,3,1,Go for a drive with my dog roxie,Play fetch on a sunny day with my dog roxie,0.04,0.05,4.4,0,,,,
,,66202163d9e5dba57c5e831d,2024-08-23_16h28.11.062,WTP_SM_Choice,2022.2.1,Win32,60.24096386,,,,,,,,,,,,,,,,,,25,,,,,,,,,,0.05,1,2.6562,0,4,4,4,1,Go camping with my best friend ,Watch reels posted to socia media,0.05,0.05,3.3,0,,,,
,,66202163d9e5dba57c5e831d,2024-08-23_16h28.11.062,WTP_SM_Choice,2022.2.1,Win32,60.24096386,,,,,,,4,,7,0.62,5.38,,0,24,24,24,1,25,Riley,Acc,Participant_Images/66202163d9e5dba57c5e831d/66202163d9e5dba57c5e831d_Images/66202163d9e5dba57c5e831d_Image_8.jpeg,liked,3.602308302,,,,,,,,,,,,,,,,,,,space,1.2085,,
,,66202163d9e5dba57c5e831d,2024-08-23_16h28.11.062,WTP_SM_Choice,2022.2.1,Win32,60.24096386,,,space,2.0756,space,0.6658,NAN,,NAN,0.62,5.38,,0,25,25,25,1,26,Sam,Acc,Participant_Images/66202163d9e5dba57c5e831d/66202163d9e5dba57c5e831d_Images/66202163d9e5dba57c5e831d_Image_10.jpeg,liked,4.106391878,,,,,,,,,,,,,,,,,,,,,,
,,66202163d9e5dba57c5e831d,2024-08-23_16h28.11.062,WTP_SM_Choice,2022.2.1,Win32,60.24096386,,,,,space,0.5833,NAN,,NAN,0.62,5.38,,0,26,26,26,1,27,Sam,Acc,Participant_Images/66202163d9e5dba57c5e831d/66202163d9e5dba57c5e831d_Images/66202163d9e5dba57c5e831d_Image_15.jpeg,liked,3.799433026,,,,,,,,,,,,,,,,,,,,,,
,,66202163d9e5dba57c5e831d,2024-08-23_16h28.11.062,WTP_SM_Choice,2022.2.1,Win32,60.24096386,,,,,space,2.7338,NAN,,NAN,0.62,5.38,,0,27,27,27,1,28,Sam,Acc,Participant_Images/66202163d9e5dba57c5e831d/66202163d9e5dba57c5e831d_Images/66202163d9e5dba57c5e831d_Image_24.jpeg,liked,5.246980764,,,,,,,,,,,,,,,,,,,,,,
,,66202163d9e5dba57c5e831d,2024-08-23_16h28.11.062,WTP_SM_Choice,2022.2.1,Win32,60.24096386,,,,,space,1.2662,NAN,,NAN,0.62,5.38,,0,28,28,28,1,29,Sam,Acc,Participant_Images/66202163d9e5dba57c5e831d/66202163d9e5dba57c5e831d_Images/66202163d9e5dba57c5e831d_Image_2.jpeg,did not like,3.30081769,,,,,,,,,,,,,,,,,,,,,,
,,66202163d9e5dba57c5e831d,2024-08-23_16h28.11.062,WTP_SM_Choice,2022.2.1,Win32,60.24096386,,,,,,,,,,,,,,,,,,26,,,,,,space,11.0551,space,0.9,0.01,1,2.4814,0,0,0,0,1,Hang out with my dog roxie in a nice cool bedroom,Watch a movie with my friend,0.01,0.01,4.4,1,,,,
,,66202163d9e5dba57c5e831d,2024-08-23_16h28.11.062,WTP_SM_Choice,2022.2.1,Win32,60.24096386,,,,,,,,,,,,,,,,,,27,,,,,,,,,,0.01,2,1.6605,0,1,1,1,1,Play fetch on a sunny day with my dog roxie,Play video games with my best friend,0.02,0.01,3.3,1,,,,
,,66202163d9e5dba57c5e831d,2024-08-23_16h28.11.062,WTP_SM_Choice,2022.2.1,Win32,60.24096386,,,,,,,,,,,,,,,,,,28,,,,,,,,,,0.01,2,2.7048,0,2,2,2,1,Scroll through facebook,Play video games with my best friend,0.03,0.01,3.3,1,,,,
,,66202163d9e5dba57c5e831d,2024-08-23_16h28.11.062,WTP_SM_Choice,2022.2.1,Win32,60.24096386,,,,,,,,,,,,,,,,,,29,,,,,,,,,,0.01,2,1.969,0,3,3,3,1,Lay on my bed listening to music ,Go camping with my best friend ,0.04,0.01,4.4,1,,,,
,,66202163d9e5dba57c5e831d,2024-08-23_16h28.11.062,WTP_SM_Choice,2022.2.1,Win32,60.24096386,,,,,,,,,,,,,,,,,,30,,,,,,,,,,0.01,2,1.9603,0,4,4,4,1,Scroll through facebook,Talk on the phone to my mom ,0.05,0.01,8.8,1,,,,
,,66202163d9e5dba57c5e831d,2024-08-23_16h28.11.062,WTP_SM_Choice,2022.2.1,Win32,60.24096386,,,,,,,NAN,,NAN,0.67,5.33,,0,29,29,29,1,30,Sam,Acc,Participant_Images/66202163d9e5dba57c5e831d/66202163d9e5dba57c5e831d_Images/66202163d9e5dba57c5e831d_Image_22.jpeg,liked,1.661473164,,,,,,,,,,,,,,,,,,,,,,
,,66202163d9e5dba57c5e831d,2024-08-23_16h28.11.062,WTP_SM_Choice,2022.2.1,Win32,60.24096386,,,,,space,0.7317,NAN,,NAN,0.67,5.33,,0,30,30,30,1,31,Sam,Acc,Participant_Images/66202163d9e5dba57c5e831d/66202163d9e5dba57c5e831d_Images/66202163d9e5dba57c5e831d_Image_19.jpeg,liked,3.613205605,,,,,,,,,,,,,,,,,,,,,,
,,66202163d9e5dba57c5e831d,2024-08-23_16h28.11.062,WTP_SM_Choice,2022.2.1,Win32,60.24096386,,,,,space,0.5778,NAN,,NAN,0.67,5.33,,0,31,31,31,1,32,Sam,Acc,Participant_Images/66202163d9e5dba57c5e831d/66202163d9e5dba57c5e831d_Images/66202163d9e5dba57c5e831d_Image_18.jpeg,liked,4.988446431,,,,,,,,,,,,,,,,,,,,,,
,,66202163d9e5dba57c5e831d,2024-08-23_16h28.11.062,WTP_SM_Choice,2022.2.1,Win32,60.24096386,,,,,space,2.7163,NAN,,NAN,0.67,5.33,,0,32,32,32,1,33,Sam,Acc,Participant_Images/66202163d9e5dba57c5e831d/66202163d9e5dba57c5e831d_Images/66202163d9e5dba57c5e831d_Image_13.jpeg,did not like,3.470791822,,,,,,,,,,,,,,,,,,,,,,
,,66202163d9e5dba57c5e831d,2024-08-23_16h28.11.062,WTP_SM_Choice,2022.2.1,Win32,60.24096386,,,,,space,1.124,NAN,,NAN,0.67,5.33,,0,33,33,33,1,34,Sam,Acc,Participant_Images/66202163d9e5dba57c5e831d/66202163d9e5dba57c5e831d_Images/66202163d9e5dba57c5e831d_Image_14.jpeg,liked,3.820572462,,,,,,,,,,,,,,,,,,,,,,
,,66202163d9e5dba57c5e831d,2024-08-23_16h28.11.062,WTP_SM_Choice,2022.2.1,Win32,60.24096386,,,,,,,,,,,,,,,,,,31,,,,,,space,1.8508,space,0.684,0.01,1,1.6048,0,0,0,0,1,Make designs for my side business,Go camping with my best friend ,0.01,0.02,8.8,1,,,,
,,66202163d9e5dba57c5e831d,2024-08-23_16h28.11.062,WTP_SM_Choice,2022.2.1,Win32,60.24096386,,,,,,,,,,,,,,,,,,32,,,,,,,,,,0.02,2,1.4148,0,1,1,1,1,watch a movie with my niece or nephew ,Hang out with my dog roxie in a nice cool bedroom,0.02,0.02,1.1,0,,,,
,,66202163d9e5dba57c5e831d,2024-08-23_16h28.11.062,WTP_SM_Choice,2022.2.1,Win32,60.24096386,,,,,,,,,,,,,,,,,,33,,,,,,,,,,0.02,2,3.8497,0,2,2,2,1,watch football with my parents,Go to the movie theater to watch a new movie that was just released,0.03,0.02,4.4,0,,,,
,,66202163d9e5dba57c5e831d,2024-08-23_16h28.11.062,WTP_SM_Choice,2022.2.1,Win32,60.24096386,,,,,,,,,,,,,,,,,,34,,,,,,,,,,0.02,2,1.1261,0,3,3,3,1,Watch a movie with my friend,Go on a drive on a nice day,0.04,0.02,3.3,0,,,,
,,66202163d9e5dba57c5e831d,2024-08-23_16h28.11.062,WTP_SM_Choice,2022.2.1,Win32,60.24096386,,,,,,,,,,,,,,,,,,35,,,,,,,,,,0.02,2,1.3407,0,4,4,4,1,Go on a drive at night to enjoy the light and the stars,Tattoo or get tattooed by my little sister,0.05,0.02,1.1,1,,,,
,,66202163d9e5dba57c5e831d,2024-08-23_16h28.11.062,WTP_SM_Choice,2022.2.1,Win32,60.24096386,,,,,,,NAN,,NAN,0.76,5.24,,0,34,34,34,1,35,Sam,Acc,Participant_Images/66202163d9e5dba57c5e831d/66202163d9e5dba57c5e831d_Images/66202163d9e5dba57c5e831d_Image_17.jpeg,liked,2.455989137,,,,,,,,,,,,,,,,,,,,,,
,,66202163d9e5dba57c5e831d,2024-08-23_16h28.11.062,WTP_SM_Choice,2022.2.1,Win32,60.24096386,,,,,space,0.4169,NAN,,NAN,0.76,5.24,,0,35,35,35,1,36,Sam,Acc,Participant_Images/66202163d9e5dba57c5e831d/66202163d9e5dba57c5e831d_Images/66202163d9e5dba57c5e831d_Image_6.jpeg,liked,3.79605092,,,,,,,,,,,,,,,,,,,,,,
,,66202163d9e5dba57c5e831d,2024-08-23_16h28.11.062,WTP_SM_Choice,2022.2.1,Win32,60.24096386,,,,,space,0.7061,NAN,,NAN,0.76,5.24,,0,36,36,36,1,37,Sam,Acc,Participant_Images/66202163d9e5dba57c5e831d/66202163d9e5dba57c5e831d_Images/66202163d9e5dba57c5e831d_Image_12.jpeg,liked,3.562416326,,,,,,,,,,,,,,,,,,,,,,
,,66202163d9e5dba57c5e831d,2024-08-23_16h28.11.062,WTP_SM_Choice,2022.2.1,Win32,60.24096386,,,,,space,0.6168,NAN,,NAN,0.76,5.24,,0,37,37,37,1,38,Sam,Acc,Participant_Images/66202163d9e5dba57c5e831d/66202163d9e5dba57c5e831d_Images/66202163d9e5dba57c5e831d_Image_23.jpeg,did not like,2.843822497,,,,,,,,,,,,,,,,,,,,,,
,,66202163d9e5dba57c5e831d,2024-08-23_16h28.11.062,WTP_SM_Choice,2022.2.1,Win32,60.24096386,,,,,space,0.4667,NAN,,NAN,0.76,5.24,,0,38,38,38,1,39,Sam,Acc,Participant_Images/66202163d9e5dba57c5e831d/66202163d9e5dba57c5e831d_Images/66202163d9e5dba57c5e831d_Image_8.jpeg,liked,3.546495948,,,,,,,,,,,,,,,,,,,,,,
,,66202163d9e5dba57c5e831d,2024-08-23_16h28.11.062,WTP_SM_Choice,2022.2.1,Win32,60.24096386,,,,,,,,,,,,,,,,,,36,,,,,,space,2.0867,space,0.6169,0.01,1,1.1315,0,0,0,0,1,Go gambling with my mom ,Make designs for my side business,0.01,0.03,3.3,0,,,,
,,66202163d9e5dba57c5e831d,2024-08-23_16h28.11.062,WTP_SM_Choice,2022.2.1,Win32,60.24096386,,,,,,,,,,,,,,,,,,37,,,,,,,,,,0.02,1,1.1898,0,1,1,1,1,Watch tv in my bedroom while laying on my bed,Go camping with my best friend ,0.02,0.03,1.1,1,,,,
,,66202163d9e5dba57c5e831d,2024-08-23_16h28.11.062,WTP_SM_Choice,2022.2.1,Win32,60.24096386,,,,,,,,,,,,,,,,,,38,,,,,,,,,,0.03,2,1.6818,0,2,2,2,1,Make designs for my side business,Go for a drive with my dog roxie,0.03,0.03,1.1,1,,,,
,,66202163d9e5dba57c5e831d,2024-08-23_16h28.11.062,WTP_SM_Choice,2022.2.1,Win32,60.24096386,,,,,,,,,,,,,,,,,,39,,,,,,,,,,0.03,2,2.1213,0,3,3,3,1,facetime my older sister daily to just chat ,Go on a drive at night to enjoy the light and the stars,0.04,0.03,3.3,0,,,,
,,66202163d9e5dba57c5e831d,2024-08-23_16h28.11.062,WTP_SM_Choice,2022.2.1,Win32,60.24096386,,,,,,,,,,,,,,,,,,40,,,,,,,,,,0.03,2,1.2809,0,4,4,4,1,Play video games with my best friend,Go on a drive on a nice day,0.05,0.03,4.4,0,,,,
,,66202163d9e5dba57c5e831d,2024-08-23_16h28.11.062,WTP_SM_Choice,2022.2.1,Win32,60.24096386,,,,,,,NAN,,NAN,0.88,5.12,,0,39,39,39,1,40,Sam,Acc,Participant_Images/66202163d9e5dba57c5e831d/66202163d9e5dba57c5e831d_Images/66202163d9e5dba57c5e831d_Image_11.jpeg,did not like,1.672012706,,,,,,,,,,,,,,,,,,,,,,
,,66202163d9e5dba57c5e831d,2024-08-23_16h28.11.062,WTP_SM_Choice,2022.2.1,Win32,60.24096386,,,,,space,0.4893,NAN,,NAN,0.88,5.12,,0,40,40,40,1,41,Sam,Acc,Participant_Images/66202163d9e5dba57c5e831d/66202163d9e5dba57c5e831d_Images/66202163d9e5dba57c5e831d_Image_20.jpeg,liked,4.942172136,,,,,,,,,,,,,,,,,,,,,,
,,66202163d9e5dba57c5e831d,2024-08-23_16h28.11.062,WTP_SM_Choice,2022.2.1,Win32,60.24096386,,,,,space,0.4714,NAN,,NAN,0.88,5.12,,0,41,41,41,1,42,Sam,Acc,Participant_Images/66202163d9e5dba57c5e831d/66202163d9e5dba57c5e831d_Images/66202163d9e5dba57c5e831d_Image_9.jpeg,liked,2.50187214,,,,,,,,,,,,,,,,,,,,,,
,,66202163d9e5dba57c5e831d,2024-08-23_16h28.11.062,WTP_SM_Choice,2022.2.1,Win32,60.24096386,,,,,space,0.7852,NAN,,NAN,0.88,5.12,,0,42,42,42,1,43,Sam,Acc,Participant_Images/66202163d9e5dba57c5e831d/66202163d9e5dba57c5e831d_Images/66202163d9e5dba57c5e831d_Image_25.jpeg,liked,2.071164779,,,,,,,,,,,,,,,,,,,,,,
,,66202163d9e5dba57c5e831d,2024-08-23_16h28.11.062,WTP_SM_Choice,2022.2.1,Win32,60.24096386,,,,,space,0.601,NAN,,NAN,0.88,5.12,,0,43,43,43,1,44,Sam,Acc,Participant_Images/66202163d9e5dba57c5e831d/66202163d9e5dba57c5e831d_Images/66202163d9e5dba57c5e831d_Image_3.jpeg,did not like,5.336503566,,,,,,,,,,,,,,,,,,,,,,
,,66202163d9e5dba57c5e831d,2024-08-23_16h28.11.062,WTP_SM_Choice,2022.2.1,Win32,60.24096386,,,,,,,,,,,,,,,,,,41,,,,,,space,1.6554,space,0.4913,0.01,1,1.0518,0,0,0,0,1,Scroll through facebook,Go gambling with my mom ,0.01,0.04,1.1,1,,,,
,,66202163d9e5dba57c5e831d,2024-08-23_16h28.11.062,WTP_SM_Choice,2022.2.1,Win32,60.24096386,,,,,,,,,,,,,,,,,,42,,,,,,,,,,0.02,1,1.2824,0,1,1,1,1,watch football with my parents,Make designs for my side business,0.02,0.04,3.3,0,,,,
,,66202163d9e5dba57c5e831d,2024-08-23_16h28.11.062,WTP_SM_Choice,2022.2.1,Win32,60.24096386,,,,,,,,,,,,,,,,,,43,,,,,,,,,,0.03,1,1.1193,0,2,2,2,1,Play video games with my best friend,Lay on my bed listening to music ,0.03,0.04,1.1,0,,,,
,,66202163d9e5dba57c5e831d,2024-08-23_16h28.11.062,WTP_SM_Choice,2022.2.1,Win32,60.24096386,,,,,,,,,,,,,,,,,,44,,,,,,,,,,0.04,1,3.6219,0,3,3,3,1,watch a movie with my niece or nephew ,Watch tv in my bedroom while laying on my bed,0.04,0.04,1.1,0,,,,
,,66202163d9e5dba57c5e831d,2024-08-23_16h28.11.062,WTP_SM_Choice,2022.2.1,Win32,60.24096386,,,,,,,,,,,,,,,,,,45,,,,,,,,,,0.04,2,1.5156,0,4,4,4,1,Scroll through facebook,facetime my older sister daily to just chat ,0.05,0.04,4.4,1,,,,
,,66202163d9e5dba57c5e831d,2024-08-23_16h28.11.062,WTP_SM_Choice,2022.2.1,Win32,60.24096386,,,,,,,NAN,,NAN,1.02,4.98,,0,44,44,44,1,45,Sam,Acc,Participant_Images/66202163d9e5dba57c5e831d/66202163d9e5dba57c5e831d_Images/66202163d9e5dba57c5e831d_Image_21.jpeg,liked,2.642157193,,,,,,,,,,,,,,,,,,,,,,
,,66202163d9e5dba57c5e831d,2024-08-23_16h28.11.062,WTP_SM_Choice,2022.2.1,Win32,60.24096386,,,,,space,0.3375,NAN,,NAN,1.02,4.98,,0,45,45,45,1,46,Sam,Acc,Participant_Images/66202163d9e5dba57c5e831d/66202163d9e5dba57c5e831d_Images/66202163d9e5dba57c5e831d_Image_1.jpeg,liked,4.456234322,,,,,,,,,,,,,,,,,,,,,,
,,66202163d9e5dba57c5e831d,2024-08-23_16h28.11.062,WTP_SM_Choice,2022.2.1,Win32,60.24096386,,,,,space,0.6173,NAN,,NAN,1.02,4.98,,0,46,46,46,1,47,Sam,Acc,Participant_Images/66202163d9e5dba57c5e831d/66202163d9e5dba57c5e831d_Images/66202163d9e5dba57c5e831d_Image_4.jpeg,did not like,4.438512181,,,,,,,,,,,,,,,,,,,,,,
,,66202163d9e5dba57c5e831d,2024-08-23_16h28.11.062,WTP_SM_Choice,2022.2.1,Win32,60.24096386,,,,,space,0.6999,NAN,,NAN,1.02,4.98,,0,47,47,47,1,48,Sam,Acc,Participant_Images/66202163d9e5dba57c5e831d/66202163d9e5dba57c5e831d_Images/66202163d9e5dba57c5e831d_Image_5.jpeg,liked,2.682944783,,,,,,,,,,,,,,,,,,,,,,
,,66202163d9e5dba57c5e831d,2024-08-23_16h28.11.062,WTP_SM_Choice,2022.2.1,Win32,60.24096386,,,,,space,0.8035,NAN,,NAN,1.02,4.98,,0,48,48,48,1,49,Sam,Acc,Participant_Images/66202163d9e5dba57c5e831d/66202163d9e5dba57c5e831d_Images/66202163d9e5dba57c5e831d_Image_16.jpeg,did not like,4.51984296,,,,,,,,,,,,,,,,,,,,,,
,,66202163d9e5dba57c5e831d,2024-08-23_16h28.11.062,WTP_SM_Choice,2022.2.1,Win32,60.24096386,,,,,,,,,,,,,,,,,,46,,,,,,space,1.193,space,0.9359,0.01,1,0.9081,0,0,0,0,1,Play video games with my best friend,Watch tv in my bedroom while laying on my bed,0.01,0.05,8.8,0,,,,
,,66202163d9e5dba57c5e831d,2024-08-23_16h28.11.062,WTP_SM_Choice,2022.2.1,Win32,60.24096386,,,,,,,,,,,,,,,,,,47,,,,,,,,,,0.02,1,3.3966,0,1,1,1,1,Go on a drive on a nice day,Go for a drive with my dog roxie,0.02,0.05,1.1,1,,,,
,,66202163d9e5dba57c5e831d,2024-08-23_16h28.11.062,WTP_SM_Choice,2022.2.1,Win32,60.24096386,,,,,,,,,,,,,,,,,,48,,,,,,,,,,0.03,1,4.7624,0,2,2,2,1,Watch reels posted to socia media,watch football with my parents,0.03,0.05,4.4,1,,,,
,,66202163d9e5dba57c5e831d,2024-08-23_16h28.11.062,WTP_SM_Choice,2022.2.1,Win32,60.24096386,,,,,,,,,,,,,,,,,,49,,,,,,,,,,0.04,1,1.4668,0,3,3,3,1,facetime my older sister daily to just chat ,Go to the movie theater to watch a new movie that was just released,0.04,0.05,3.3,0,,,,
,,66202163d9e5dba57c5e831d,2024-08-23_16h28.11.062,WTP_SM_Choice,2022.2.1,Win32,60.24096386,,,,,,,,,,,,,,,,,,50,,,,,,,,,,0.05,1,2.62,0,4,4,4,1,watch football with my parents,Hang out with my dog roxie in a nice cool bedroom,0.05,0.05,1.1,0,,,,
,,66202163d9e5dba57c5e831d,2024-08-23_16h28.11.062,WTP_SM_Choice,2022.2.1,Win32,60.24096386,,,,,,,4,,7,1.17,4.83,,0,49,49,49,1,50,Sam,Acc,Participant_Images/66202163d9e5dba57c5e831d/66202163d9e5dba57c5e831d_Images/66202163d9e5dba57c5e831d_Image_7.jpeg,liked,3.195382774,,,,,,,,,,,,,,,,,,,space,1.1119,,
,,66202163d9e5dba57c5e831d,2024-08-23_16h28.11.062,WTP_SM_Choice,2022.2.1,Win32,60.24096386,,,space,1.9596,space,1.4343,NAN,,NAN,1.17,4.83,,0,50,50,50,1,51,Charlie,Rej,Participant_Images/66202163d9e5dba57c5e831d/66202163d9e5dba57c5e831d_Images/66202163d9e5dba57c5e831d_Image_14.jpeg,did not like,1.779333479,,,,,,,,,,,,,,,,,,,,,,
,,66202163d9e5dba57c5e831d,2024-08-23_16h28.11.062,WTP_SM_Choice,2022.2.1,Win32,60.24096386,,,,,space,1.5382,NAN,,NAN,1.17,4.83,,0,51,51,51,1,52,Charlie,Rej,Participant_Images/66202163d9e5dba57c5e831d/66202163d9e5dba57c5e831d_Images/66202163d9e5dba57c5e831d_Image_4.jpeg,did not like,4.312468682,,,,,,,,,,,,,,,,,,,,,,
,,66202163d9e5dba57c5e831d,2024-08-23_16h28.11.062,WTP_SM_Choice,2022.2.1,Win32,60.24096386,,,,,space,2.7705,NAN,,NAN,1.17,4.83,,0,52,52,52,1,53,Charlie,Rej,Participant_Images/66202163d9e5dba57c5e831d/66202163d9e5dba57c5e831d_Images/66202163d9e5dba57c5e831d_Image_2.jpeg,liked,4.940433059,,,,,,,,,,,,,,,,,,,,,,
,,66202163d9e5dba57c5e831d,2024-08-23_16h28.11.062,WTP_SM_Choice,2022.2.1,Win32,60.24096386,,,,,space,1.2371,NAN,,NAN,1.17,4.83,,0,53,53,53,1,54,Charlie,Rej,Participant_Images/66202163d9e5dba57c5e831d/66202163d9e5dba57c5e831d_Images/66202163d9e5dba57c5e831d_Image_17.jpeg,did not like,2.7105123,,,,,,,,,,,,,,,,,,,,,,
,,66202163d9e5dba57c5e831d,2024-08-23_16h28.11.062,WTP_SM_Choice,2022.2.1,Win32,60.24096386,,,,,,,,,,,,,,,,,,51,,,,,,space,1.7332,space,0.5561,0.01,1,1.2064,0,0,0,0,1,Go on a drive at night to enjoy the light and the stars,watch a movie with my niece or nephew ,0.01,0.01,1.1,1,,,,
,,66202163d9e5dba57c5e831d,2024-08-23_16h28.11.062,WTP_SM_Choice,2022.2.1,Win32,60.24096386,,,,,,,,,,,,,,,,,,52,,,,,,,,,,0.01,2,1.0058,0,1,1,1,1,Lay on my bed listening to music ,Go gambling with my mom ,0.02,0.01,3.3,1,,,,
,,66202163d9e5dba57c5e831d,2024-08-23_16h28.11.062,WTP_SM_Choice,2022.2.1,Win32,60.24096386,,,,,,,,,,,,,,,,,,53,,,,,,,,,,0.01,2,0.875,0,2,2,2,1,Go on a drive on a nice day,Go gambling with my mom ,0.03,0.01,1.1,1,,,,
,,66202163d9e5dba57c5e831d,2024-08-23_16h28.11.062,WTP_SM_Choice,2022.2.1,Win32,60.24096386,,,,,,,,,,,,,,,,,,54,,,,,,,,,,0.01,2,1.2154,0,3,3,3,1,Hang out with my dog roxie in a nice cool bedroom,Go gambling with my mom ,0.04,0.01,4.4,1,,,,
,,66202163d9e5dba57c5e831d,2024-08-23_16h28.11.062,WTP_SM_Choice,2022.2.1,Win32,60.24096386,,,,,,,,,,,,,,,,,,55,,,,,,,,,,0.01,2,5.0541,0,4,4,4,1,Talk on the phone to my mom ,Hang out with my dog roxie in a nice cool bedroom,0.05,0.01,1.1,0,,,,
,,66202163d9e5dba57c5e831d,2024-08-23_16h28.11.062,WTP_SM_Choice,2022.2.1,Win32,60.24096386,,,,,,,NAN,,NAN,1.22,4.78,,0,54,54,54,1,55,Charlie,Rej,Participant_Images/66202163d9e5dba57c5e831d/66202163d9e5dba57c5e831d_Images/66202163d9e5dba57c5e831d_Image_1.jpeg,liked,3.602308302,,,,,,,,,,,,,,,,,,,,,,
,,66202163d9e5dba57c5e831d,2024-08-23_16h28.11.062,WTP_SM_Choice,2022.2.1,Win32,60.24096386,,,,,space,1.6811,NAN,,NAN,1.22,4.78,,0,55,55,55,1,56,Charlie,Rej,Participant_Images/66202163d9e5dba57c5e831d/66202163d9e5dba57c5e831d_Images/66202163d9e5dba57c5e831d_Image_6.jpeg,did not like,4.106391878,,,,,,,,,,,,,,,,,,,,,,
,,66202163d9e5dba57c5e831d,2024-08-23_16h28.11.062,WTP_SM_Choice,2022.2.1,Win32,60.24096386,,,,,space,1.7645,NAN,,NAN,1.22,4.78,,0,56,56,56,1,57,Charlie,Rej,Participant_Images/66202163d9e5dba57c5e831d/66202163d9e5dba57c5e831d_Images/66202163d9e5dba57c5e831d_Image_16.jpeg,liked,3.799433026,,,,,,,,,,,,,,,,,,,,,,
,,66202163d9e5dba57c5e831d,2024-08-23_16h28.11.062,WTP_SM_Choice,2022.2.1,Win32,60.24096386,,,,,space,0.7243,NAN,,NAN,1.22,4.78,,0,57,57,57,1,58,Charlie,Rej,Participant_Images/66202163d9e5dba57c5e831d/66202163d9e5dba57c5e831d_Images/66202163d9e5dba57c5e831d_Image_24.jpeg,did not like,5.246980764,,,,,,,,,,,,,,,,,,,,,,
,,66202163d9e5dba57c5e831d,2024-08-23_16h28.11.062,WTP_SM_Choice,2022.2.1,Win32,60.24096386,,,,,space,1.1496,NAN,,NAN,1.22,4.78,,0,58,58,58,1,59,Charlie,Rej,Participant_Images/66202163d9e5dba57c5e831d/66202163d9e5dba57c5e831d_Images/66202163d9e5dba57c5e831d_Image_18.jpeg,did not like,3.30081769,,,,,,,,,,,,,,,,,,,,,,
,,66202163d9e5dba57c5e831d,2024-08-23_16h28.11.062,WTP_SM_Choice,2022.2.1,Win32,60.24096386,,,,,,,,,,,,,,,,,,56,,,,,,space,0.3332,space,0.6037,0.01,1,1.3771,0,0,0,0,1,Play fetch on a sunny day with my dog roxie,facetime my older sister daily to just chat ,0.01,0.02,8.8,1,,,,
,,66202163d9e5dba57c5e831d,2024-08-23_16h28.11.062,WTP_SM_Choice,2022.2.1,Win32,60.24096386,,,,,,,,,,,,,,,,,,57,,,,,,,,,,0.02,1,1.3021,0,1,1,1,1,Make designs for my side business,Play video games with my best friend,0.02,0.02,4.4,1,,,,
,,66202163d9e5dba57c5e831d,2024-08-23_16h28.11.062,WTP_SM_Choice,2022.2.1,Win32,60.24096386,,,,,,,,,,,,,,,,,,58,,,,,,,,,,0.02,2,3.5184,0,2,2,2,1,Play video games with my best friend,Go on a drive at night to enjoy the light and the stars,0.03,0.02,4.4,0,,,,
,,66202163d9e5dba57c5e831d,2024-08-23_16h28.11.062,WTP_SM_Choice,2022.2.1,Win32,60.24096386,,,,,,,,,,,,,,,,,,59,,,,,,,,,,0.02,2,0.9584,0,3,3,3,1,Watch reels posted to socia media,Go gambling with my mom ,0.04,0.02,4.4,1,,,,
,,66202163d9e5dba57c5e831d,2024-08-23_16h28.11.062,WTP_SM_Choice,2022.2.1,Win32,60.24096386,,,,,,,,,,,,,,,,,,60,,,,,,,,,,0.02,2,0.9607,0,4,4,4,1,Make designs for my side business,watch a movie with my niece or nephew ,0.05,0.02,1.1,1,,,,
,,66202163d9e5dba57c5e831d,2024-08-23_16h28.11.062,WTP_SM_Choice,2022.2.1,Win32,60.24096386,,,,,,,NAN,,NAN,1.31,4.69,,0,59,59,59,1,60,Charlie,Rej,Participant_Images/66202163d9e5dba57c5e831d/66202163d9e5dba57c5e831d_Images/66202163d9e5dba57c5e831d_Image_5.jpeg,did not like,1.661473164,,,,,,,,,,,,,,,,,,,,,,
,,66202163d9e5dba57c5e831d,2024-08-23_16h28.11.062,WTP_SM_Choice,2022.2.1,Win32,60.24096386,,,,,space,0.8061,NAN,,NAN,1.31,4.69,,0,60,60,60,1,61,Charlie,Rej,Participant_Images/66202163d9e5dba57c5e831d/66202163d9e5dba57c5e831d_Images/66202163d9e5dba57c5e831d_Image_9.jpeg,did not like,3.613205605,,,,,,,,,,,,,,,,,,,,,,
,,66202163d9e5dba57c5e831d,2024-08-23_16h28.11.062,WTP_SM_Choice,2022.2.1,Win32,60.24096386,,,,,space,0.5618,NAN,,NAN,1.31,4.69,,0,61,61,61,1,62,Charlie,Rej,Participant_Images/66202163d9e5dba57c5e831d/66202163d9e5dba57c5e831d_Images/66202163d9e5dba57c5e831d_Image_10.jpeg,did not like,4.988446431,,,,,,,,,,,,,,,,,,,,,,
,,66202163d9e5dba57c5e831d,2024-08-23_16h28.11.062,WTP_SM_Choice,2022.2.1,Win32,60.24096386,,,,,space,0.5173,NAN,,NAN,1.31,4.69,,0,62,62,62,1,63,Charlie,Rej,Participant_Images/66202163d9e5dba57c5e831d/66202163d9e5dba57c5e831d_Images/66202163d9e5dba57c5e831d_Image_8.jpeg,did not like,3.470791822,,,,,,,,,,,,,,,,,,,,,,
,,66202163d9e5dba57c5e831d,2024-08-23_16h28.11.062,WTP_SM_Choice,2022.2.1,Win32,60.24096386,,,,,space,0.4543,NAN,,NAN,1.31,4.69,,0,63,63,63,1,64,Charlie,Rej,Participant_Images/66202163d9e5dba57c5e831d/66202163d9e5dba57c5e831d_Images/66202163d9e5dba57c5e831d_Image_15.jpeg,did not like,3.820572462,,,,,,,,,,,,,,,,,,,,,,
,,66202163d9e5dba57c5e831d,2024-08-23_16h28.11.062,WTP_SM_Choice,2022.2.1,Win32,60.24096386,,,,,,,,,,,,,,,,,,61,,,,,,space,1.1952,space,0.5234,0.01,1,0.7538,0,0,0,0,1,facetime my older sister daily to just chat ,Make designs for my side business,0.01,0.03,3.3,0,,,,
,,66202163d9e5dba57c5e831d,2024-08-23_16h28.11.062,WTP_SM_Choice,2022.2.1,Win32,60.24096386,,,,,,,,,,,,,,,,,,62,,,,,,,,,,0.02,1,1.2509,0,1,1,1,1,Watch reels posted to socia media,facetime my older sister daily to just chat ,0.02,0.03,3.3,1,,,,
,,66202163d9e5dba57c5e831d,2024-08-23_16h28.11.062,WTP_SM_Choice,2022.2.1,Win32,60.24096386,,,,,,,,,,,,,,,,,,63,,,,,,,,,,0.03,1,1.129,0,2,2,2,1,Go camping with my best friend ,Play fetch on a sunny day with my dog roxie,0.03,0.03,3.3,0,,,,
,,66202163d9e5dba57c5e831d,2024-08-23_16h28.11.062,WTP_SM_Choice,2022.2.1,Win32,60.24096386,,,,,,,,,,,,,,,,,,64,,,,,,,,,,0.03,2,1.0099,0,3,3,3,1,Talk on the phone to my mom ,Lay on my bed listening to music ,0.04,0.03,1.1,0,,,,
,,66202163d9e5dba57c5e831d,2024-08-23_16h28.11.062,WTP_SM_Choice,2022.2.1,Win32,60.24096386,,,,,,,,,,,,,,,,,,65,,,,,,,,,,0.03,2,3.5104,0,4,4,4,1,Go for a drive with my dog roxie,Watch tv in my bedroom while laying on my bed,0.05,0.03,1.1,0,,,,
,,66202163d9e5dba57c5e831d,2024-08-23_16h28.11.062,WTP_SM_Choice,2022.2.1,Win32,60.24096386,,,,,,,NAN,,NAN,1.43,4.57,,0,64,64,64,1,65,Charlie,Rej,Participant_Images/66202163d9e5dba57c5e831d/66202163d9e5dba57c5e831d_Images/66202163d9e5dba57c5e831d_Image_19.jpeg,did not like,2.455989137,,,,,,,,,,,,,,,,,,,,,,
,,66202163d9e5dba57c5e831d,2024-08-23_16h28.11.062,WTP_SM_Choice,2022.2.1,Win32,60.24096386,,,,,space,0.705,NAN,,NAN,1.43,4.57,,0,65,65,65,1,66,Charlie,Rej,Participant_Images/66202163d9e5dba57c5e831d/66202163d9e5dba57c5e831d_Images/66202163d9e5dba57c5e831d_Image_20.jpeg,liked,3.79605092,,,,,,,,,,,,,,,,,,,,,,
,,66202163d9e5dba57c5e831d,2024-08-23_16h28.11.062,WTP_SM_Choice,2022.2.1,Win32,60.24096386,,,,,space,0.7686,NAN,,NAN,1.43,4.57,,0,66,66,66,1,67,Charlie,Rej,Participant_Images/66202163d9e5dba57c5e831d/66202163d9e5dba57c5e831d_Images/66202163d9e5dba57c5e831d_Image_11.jpeg,did not like,3.562416326,,,,,,,,,,,,,,,,,,,,,,
,,66202163d9e5dba57c5e831d,2024-08-23_16h28.11.062,WTP_SM_Choice,2022.2.1,Win32,60.24096386,,,,,space,0.5254,NAN,,NAN,1.43,4.57,,0,67,67,67,1,68,Charlie,Rej,Participant_Images/66202163d9e5dba57c5e831d/66202163d9e5dba57c5e831d_Images/66202163d9e5dba57c5e831d_Image_13.jpeg,liked,2.843822497,,,,,,,,,,,,,,,,,,,,,,
,,66202163d9e5dba57c5e831d,2024-08-23_16h28.11.062,WTP_SM_Choice,2022.2.1,Win32,60.24096386,,,,,space,1.6609,NAN,,NAN,1.43,4.57,,0,68,68,68,1,69,Charlie,Rej,Participant_Images/66202163d9e5dba57c5e831d/66202163d9e5dba57c5e831d_Images/66202163d9e5dba57c5e831d_Image_22.jpeg,liked,3.546495948,,,,,,,,,,,,,,,,,,,,,,
,,66202163d9e5dba57c5e831d,2024-08-23_16h28.11.062,WTP_SM_Choice,2022.2.1,Win32,60.24096386,,,,,,,,,,,,,,,,,,66,,,,,,space,0.8324,space,0.4659,0.01,1,1.0116,0,0,0,0,1,Watch tv in my bedroom while laying on my bed,Tattoo or get tattooed by my little sister,0.01,0.04,1.1,1,,,,
,,66202163d9e5dba57c5e831d,2024-08-23_16h28.11.062,WTP_SM_Choice,2022.2.1,Win32,60.24096386,,,,,,,,,,,,,,,,,,67,,,,,,,,,,0.02,1,1.8309,0,1,1,1,1,Hang out with my dog roxie in a nice cool bedroom,Go camping with my best friend ,0.02,0.04,8.8,1,,,,
,,66202163d9e5dba57c5e831d,2024-08-23_16h28.11.062,WTP_SM_Choice,2022.2.1,Win32,60.24096386,,,,,,,,,,,,,,,,,,68,,,,,,,,,,0.03,1,0.9779,0,2,2,2,1,Watch reels posted to socia media,Play video games with my best friend,0.03,0.04,4.4,1,,,,
,,66202163d9e5dba57c5e831d,2024-08-23_16h28.11.062,WTP_SM_Choice,2022.2.1,Win32,60.24096386,,,,,,,,,,,,,,,,,,69,,,,,,,,,,0.04,1,1.5804,0,3,3,3,1,Lay on my bed listening to music ,Watch a movie with my friend,0.04,0.04,1.1,1,,,,
,,66202163d9e5dba57c5e831d,2024-08-23_16h28.11.062,WTP_SM_Choice,2022.2.1,Win32,60.24096386,,,,,,,,,,,,,,,,,,70,,,,,,,,,,0.04,2,1.2847,0,4,4,4,1,Tattoo or get tattooed by my little sister,Hang out with my dog roxie in a nice cool bedroom,0.05,0.04,1.1,0,,,,
,,66202163d9e5dba57c5e831d,2024-08-23_16h28.11.062,WTP_SM_Choice,2022.2.1,Win32,60.24096386,,,,,,,NAN,,NAN,1.57,4.43,,0,69,69,69,1,70,Charlie,Rej,Participant_Images/66202163d9e5dba57c5e831d/66202163d9e5dba57c5e831d_Images/66202163d9e5dba57c5e831d_Image_12.jpeg,did not like,1.672012706,,,,,,,,,,,,,,,,,,,,,,
,,66202163d9e5dba57c5e831d,2024-08-23_16h28.11.062,WTP_SM_Choice,2022.2.1,Win32,60.24096386,,,,,space,1.3089,NAN,,NAN,1.57,4.43,,0,70,70,70,1,71,Charlie,Rej,Participant_Images/66202163d9e5dba57c5e831d/66202163d9e5dba57c5e831d_Images/66202163d9e5dba57c5e831d_Image_3.jpeg,did not like,4.942172136,,,,,,,,,,,,,,,,,,,,,,
,,66202163d9e5dba57c5e831d,2024-08-23_16h28.11.062,WTP_SM_Choice,2022.2.1,Win32,60.24096386,,,,,space,0.5668,NAN,,NAN,1.57,4.43,,0,71,71,71,1,72,Charlie,Rej,Participant_Images/66202163d9e5dba57c5e831d/66202163d9e5dba57c5e831d_Images/66202163d9e5dba57c5e831d_Image_25.jpeg,did not like,2.50187214,,,,,,,,,,,,,,,,,,,,,,
,,66202163d9e5dba57c5e831d,2024-08-23_16h28.11.062,WTP_SM_Choice,2022.2.1,Win32,60.24096386,,,,,space,0.6099,NAN,,NAN,1.57,4.43,,0,72,72,72,1,73,Charlie,Rej,Participant_Images/66202163d9e5dba57c5e831d/66202163d9e5dba57c5e831d_Images/66202163d9e5dba57c5e831d_Image_7.jpeg,liked,2.071164779,,,,,,,,,,,,,,,,,,,,,,
,,66202163d9e5dba57c5e831d,2024-08-23_16h28.11.062,WTP_SM_Choice,2022.2.1,Win32,60.24096386,,,,,space,0.5332,NAN,,NAN,1.57,4.43,,0,73,73,73,1,74,Charlie,Rej,Participant_Images/66202163d9e5dba57c5e831d/66202163d9e5dba57c5e831d_Images/66202163d9e5dba57c5e831d_Image_23.jpeg,did not like,5.336503566,,,,,,,,,,,,,,,,,,,,,,
,,66202163d9e5dba57c5e831d,2024-08-23_16h28.11.062,WTP_SM_Choice,2022.2.1,Win32,60.24096386,,,,,,,,,,,,,,,,,,71,,,,,,space,0.4982,space,0.5253,0.01,1,0.6985,0,0,0,0,1,Play video games with my best friend,Hang out with my dog roxie in a nice cool bedroom,0.01,0.05,3.3,0,,,,
,,66202163d9e5dba57c5e831d,2024-08-23_16h28.11.062,WTP_SM_Choice,2022.2.1,Win32,60.24096386,,,,,,,,,,,,,,,,,,72,,,,,,,,,,0.02,1,0.6923,0,1,1,1,1,Scroll through facebook,Go camping with my best friend ,0.02,0.05,8.8,1,,,,
,,66202163d9e5dba57c5e831d,2024-08-23_16h28.11.062,WTP_SM_Choice,2022.2.1,Win32,60.24096386,,,,,,,,,,,,,,,,,,73,,,,,,,,,,0.03,1,0.7714,0,2,2,2,1,Watch tv in my bedroom while laying on my bed,Talk on the phone to my mom ,0.03,0.05,3.3,1,,,,
,,66202163d9e5dba57c5e831d,2024-08-23_16h28.11.062,WTP_SM_Choice,2022.2.1,Win32,60.24096386,,,,,,,,,,,,,,,,,,74,,,,,,,,,,0.04,1,0.9258,0,3,3,3,1,Go for a drive with my dog roxie,Go on a drive at night to enjoy the light and the stars,0.04,0.05,4.4,0,,,,
,,66202163d9e5dba57c5e831d,2024-08-23_16h28.11.062,WTP_SM_Choice,2022.2.1,Win32,60.24096386,,,,,,,,,,,,,,,,,,75,,,,,,,,,,0.05,1,1.2315,0,4,4,4,1,facetime my older sister daily to just chat ,Lay on my bed listening to music ,0.05,0.05,3.3,0,,,,
,,66202163d9e5dba57c5e831d,2024-08-23_16h28.11.062,WTP_SM_Choice,2022.2.1,Win32,60.24096386,,,,,,,2,,5,1.72,4.28,,0,74,74,74,1,75,Charlie,Rej,Participant_Images/66202163d9e5dba57c5e831d/66202163d9e5dba57c5e831d_Images/66202163d9e5dba57c5e831d_Image_21.jpeg,did not like,2.642157193,,,,,,,,,,,,,,,,,,,space,0.983,,
,,66202163d9e5dba57c5e831d,2024-08-23_16h28.11.062,WTP_SM_Choice,2022.2.1,Win32,60.24096386,,,space,2.0469,space,0.4833,NAN,,NAN,1.72,4.28,,0,75,75,75,1,76,Alex,Rej,Participant_Images/66202163d9e5dba57c5e831d/66202163d9e5dba57c5e831d_Images/66202163d9e5dba57c5e831d_Image_25.jpeg,did not like,4.456234322,,,,,,,,,,,,,,,,,,,,,,
,,66202163d9e5dba57c5e831d,2024-08-23_16h28.11.062,WTP_SM_Choice,2022.2.1,Win32,60.24096386,,,,,space,0.6197,NAN,,NAN,1.72,4.28,,0,76,76,76,1,77,Alex,Rej,Participant_Images/66202163d9e5dba57c5e831d/66202163d9e5dba57c5e831d_Images/66202163d9e5dba57c5e831d_Image_4.jpeg,did not like,4.438512181,,,,,,,,,,,,,,,,,,,,,,
,,66202163d9e5dba57c5e831d,2024-08-23_16h28.11.062,WTP_SM_Choice,2022.2.1,Win32,60.24096386,,,,,space,0.5003,NAN,,NAN,1.72,4.28,,0,77,77,77,1,78,Alex,Rej,Participant_Images/66202163d9e5dba57c5e831d/66202163d9e5dba57c5e831d_Images/66202163d9e5dba57c5e831d_Image_10.jpeg,liked,2.682944783,,,,,,,,,,,,,,,,,,,,,,
,,66202163d9e5dba57c5e831d,2024-08-23_16h28.11.062,WTP_SM_Choice,2022.2.1,Win32,60.24096386,,,,,space,0.4405,NAN,,NAN,1.72,4.28,,0,78,78,78,1,79,Alex,Rej,Participant_Images/66202163d9e5dba57c5e831d/66202163d9e5dba57c5e831d_Images/66202163d9e5dba57c5e831d_Image_15.jpeg,did not like,4.51984296,,,,,,,,,,,,,,,,,,,,,,
,,66202163d9e5dba57c5e831d,2024-08-23_16h28.11.062,WTP_SM_Choice,2022.2.1,Win32,60.24096386,,,,,,,,,,,,,,,,,,76,,,,,,space,1.205,space,0.6658,0.01,1,1.1653,0,0,0,0,1,watch a movie with my niece or nephew ,Watch reels posted to socia media,0.01,0.01,1.1,0,,,,
,,66202163d9e5dba57c5e831d,2024-08-23_16h28.11.062,WTP_SM_Choice,2022.2.1,Win32,60.24096386,,,,,,,,,,,,,,,,,,77,,,,,,,,,,0.01,2,1.4557,0,1,1,1,1,Talk on the phone to my mom ,Watch reels posted to socia media,0.02,0.01,8.8,0,,,,
,,66202163d9e5dba57c5e831d,2024-08-23_16h28.11.062,WTP_SM_Choice,2022.2.1,Win32,60.24096386,,,,,,,,,,,,,,,,,,78,,,,,,,,,,0.01,2,1.1035,0,2,2,2,1,facetime my older sister daily to just chat ,Watch tv in my bedroom while laying on my bed,0.03,0.01,1.1,0,,,,
,,66202163d9e5dba57c5e831d,2024-08-23_16h28.11.062,WTP_SM_Choice,2022.2.1,Win32,60.24096386,,,,,,,,,,,,,,,,,,79,,,,,,,,,,0.01,2,1.1966,0,3,3,3,1,Watch a movie with my friend,Scroll through facebook,0.04,0.01,1.1,0,,,,
,,66202163d9e5dba57c5e831d,2024-08-23_16h28.11.062,WTP_SM_Choice,2022.2.1,Win32,60.24096386,,,,,,,,,,,,,,,,,,80,,,,,,,,,,0.01,2,1.8383,0,4,4,4,1,Go camping with my best friend ,Go on a drive at night to enjoy the light and the stars,0.05,0.01,4.4,0,,,,
,,66202163d9e5dba57c5e831d,2024-08-23_16h28.11.062,WTP_SM_Choice,2022.2.1,Win32,60.24096386,,,,,,,NAN,,NAN,1.77,4.23,,0,79,79,79,1,80,Alex,Rej,Participant_Images/66202163d9e5dba57c5e831d/66202163d9e5dba57c5e831d_Images/66202163d9e5dba57c5e831d_Image_1.jpeg,did not like,3.195382774,,,,,,,,,,,,,,,,,,,,,,
,,66202163d9e5dba57c5e831d,2024-08-23_16h28.11.062,WTP_SM_Choice,2022.2.1,Win32,60.24096386,,,,,space,4.5704,NAN,,NAN,1.77,4.23,,0,80,80,80,1,81,Alex,Rej,Participant_Images/66202163d9e5dba57c5e831d/66202163d9e5dba57c5e831d_Images/66202163d9e5dba57c5e831d_Image_17.jpeg,did not like,1.779333479,,,,,,,,,,,,,,,,,,,,,,
,,66202163d9e5dba57c5e831d,2024-08-23_16h28.11.062,WTP_SM_Choice,2022.2.1,Win32,60.24096386,,,,,space,0.4016,NAN,,NAN,1.77,4.23,,0,81,81,81,1,82,Alex,Rej,Participant_Images/66202163d9e5dba57c5e831d/66202163d9e5dba57c5e831d_Images/66202163d9e5dba57c5e831d_Image_11.jpeg,did not like,4.312468682,,,,,,,,,,,,,,,,,,,,,,
,,66202163d9e5dba57c5e831d,2024-08-23_16h28.11.062,WTP_SM_Choice,2022.2.1,Win32,60.24096386,,,,,space,0.4533,NAN,,NAN,1.77,4.23,,0,82,82,82,1,83,Alex,Rej,Participant_Images/66202163d9e5dba57c5e831d/66202163d9e5dba57c5e831d_Images/66202163d9e5dba57c5e831d_Image_19.jpeg,did not like,4.940433059,,,,,,,,,,,,,,,,,,,,,,
,,66202163d9e5dba57c5e831d,2024-08-23_16h28.11.062,WTP_SM_Choice,2022.2.1,Win32,60.24096386,,,,,space,0.4684,NAN,,NAN,1.77,4.23,,0,83,83,83,1,84,Alex,Rej,Participant_Images/66202163d9e5dba57c5e831d/66202163d9e5dba57c5e831d_Images/66202163d9e5dba57c5e831d_Image_3.jpeg,liked,2.7105123,,,,,,,,,,,,,,,,,,,,,,
,,66202163d9e5dba57c5e831d,2024-08-23_16h28.11.062,WTP_SM_Choice,2022.2.1,Win32,60.24096386,,,,,,,,,,,,,,,,,,81,,,,,,space,1.3997,space,0.5012,0.01,1,0.7356,0,0,0,0,1,Talk on the phone to my mom ,Play fetch on a sunny day with my dog roxie,0.01,0.02,3.3,0,,,,
,,66202163d9e5dba57c5e831d,2024-08-23_16h28.11.062,WTP_SM_Choice,2022.2.1,Win32,60.24096386,,,,,,,,,,,,,,,,,,82,,,,,,,,,,0.02,1,0.8846,0,1,1,1,1,Tattoo or get tattooed by my little sister,Make designs for my side business,0.02,0.02,4.4,0,,,,
,,66202163d9e5dba57c5e831d,2024-08-23_16h28.11.062,WTP_SM_Choice,2022.2.1,Win32,60.24096386,,,,,,,,,,,,,,,,,,83,,,,,,,,,,0.02,2,0.9226,0,2,2,2,1,Go on a drive on a nice day,watch football with my parents,0.03,0.02,1.1,1,,,,
,,66202163d9e5dba57c5e831d,2024-08-23_16h28.11.062,WTP_SM_Choice,2022.2.1,Win32,60.24096386,,,,,,,,,,,,,,,,,,84,,,,,,,,,,0.02,2,0.8695,0,3,3,3,1,facetime my older sister daily to just chat ,Go on a drive on a nice day,0.04,0.02,3.3,0,,,,
,,66202163d9e5dba57c5e831d,2024-08-23_16h28.11.062,WTP_SM_Choice,2022.2.1,Win32,60.24096386,,,,,,,,,,,,,,,,,,85,,,,,,,,,,0.02,2,1.0444,0,4,4,4,1,Go on a drive at night to enjoy the light and the stars,Go gambling with my mom ,0.05,0.02,3.3,1,,,,
,,66202163d9e5dba57c5e831d,2024-08-23_16h28.11.062,WTP_SM_Choice,2022.2.1,Win32,60.24096386,,,,,,,NAN,,NAN,1.86,4.14,,0,84,84,84,1,85,Alex,Rej,Participant_Images/66202163d9e5dba57c5e831d/66202163d9e5dba57c5e831d_Images/66202163d9e5dba57c5e831d_Image_16.jpeg,did not like,3.602308302,,,,,,,,,,,,,,,,,,,,,,
,,66202163d9e5dba57c5e831d,2024-08-23_16h28.11.062,WTP_SM_Choice,2022.2.1,Win32,60.24096386,,,,,space,0.6337,NAN,,NAN,1.86,4.14,,0,85,85,85,1,86,Alex,Rej,Participant_Images/66202163d9e5dba57c5e831d/66202163d9e5dba57c5e831d_Images/66202163d9e5dba57c5e831d_Image_24.jpeg,liked,4.106391878,,,,,,,,,,,,,,,,,,,,,,
,,66202163d9e5dba57c5e831d,2024-08-23_16h28.11.062,WTP_SM_Choice,2022.2.1,Win32,60.24096386,,,,,space,0.6325,NAN,,NAN,1.86,4.14,,0,86,86,86,1,87,Alex,Rej,Participant_Images/66202163d9e5dba57c5e831d/66202163d9e5dba57c5e831d_Images/66202163d9e5dba57c5e831d_Image_20.jpeg,liked,3.799433026,,,,,,,,,,,,,,,,,,,,,,
,,66202163d9e5dba57c5e831d,2024-08-23_16h28.11.062,WTP_SM_Choice,2022.2.1,Win32,60.24096386,,,,,space,0.5093,NAN,,NAN,1.86,4.14,,0,87,87,87,1,88,Alex,Rej,Participant_Images/66202163d9e5dba57c5e831d/66202163d9e5dba57c5e831d_Images/66202163d9e5dba57c5e831d_Image_14.jpeg,did not like,5.246980764,,,,,,,,,,,,,,,,,,,,,,
,,66202163d9e5dba57c5e831d,2024-08-23_16h28.11.062,WTP_SM_Choice,2022.2.1,Win32,60.24096386,,,,,space,0.7163,NAN,,NAN,1.86,4.14,,0,88,88,88,1,89,Alex,Rej,Participant_Images/66202163d9e5dba57c5e831d/66202163d9e5dba57c5e831d_Images/66202163d9e5dba57c5e831d_Image_2.jpeg,liked,3.30081769,,,,,,,,,,,,,,,,,,,,,,
,,66202163d9e5dba57c5e831d,2024-08-23_16h28.11.062,WTP_SM_Choice,2022.2.1,Win32,60.24096386,,,,,,,,,,,,,,,,,,86,,,,,,space,0.5503,space,0.4707,0.01,1,0.7823,0,0,0,0,1,Watch a movie with my friend,Watch reels posted to socia media,0.01,0.03,1.1,0,,,,
,,66202163d9e5dba57c5e831d,2024-08-23_16h28.11.062,WTP_SM_Choice,2022.2.1,Win32,60.24096386,,,,,,,,,,,,,,,,,,87,,,,,,,,,,0.02,1,1.5499,0,1,1,1,1,Go on a drive on a nice day,watch a movie with my niece or nephew ,0.02,0.03,4.4,1,,,,
,,66202163d9e5dba57c5e831d,2024-08-23_16h28.11.062,WTP_SM_Choice,2022.2.1,Win32,60.24096386,,,,,,,,,,,,,,,,,,88,,,,,,,,,,0.03,1,2.2602,0,2,2,2,1,Watch tv in my bedroom while laying on my bed,Watch a movie with my friend,0.03,0.03,1.1,1,,,,
,,66202163d9e5dba57c5e831d,2024-08-23_16h28.11.062,WTP_SM_Choice,2022.2.1,Win32,60.24096386,,,,,,,,,,,,,,,,,,89,,,,,,,,,,0.03,2,1.1327,0,3,3,3,1,Tattoo or get tattooed by my little sister,Go on a drive on a nice day,0.04,0.03,3.3,0,,,,
,,66202163d9e5dba57c5e831d,2024-08-23_16h28.11.062,WTP_SM_Choice,2022.2.1,Win32,60.24096386,,,,,,,,,,,,,,,,,,90,,,,,,,,,,0.03,2,1.1524,0,4,4,4,1,Make designs for my side business,Talk on the phone to my mom ,0.05,0.03,8.8,1,,,,
,,66202163d9e5dba57c5e831d,2024-08-23_16h28.11.062,WTP_SM_Choice,2022.2.1,Win32,60.24096386,,,,,,,NAN,,NAN,1.98,4.02,,0,89,89,89,1,90,Alex,Rej,Participant_Images/66202163d9e5dba57c5e831d/66202163d9e5dba57c5e831d_Images/66202163d9e5dba57c5e831d_Image_22.jpeg,did not like,1.661473164,,,,,,,,,,,,,,,,,,,,,,
,,66202163d9e5dba57c5e831d,2024-08-23_16h28.11.062,WTP_SM_Choice,2022.2.1,Win32,60.24096386,,,,,space,0.6256,NAN,,NAN,1.98,4.02,,0,90,90,90,1,91,Alex,Rej,Participant_Images/66202163d9e5dba57c5e831d/66202163d9e5dba57c5e831d_Images/66202163d9e5dba57c5e831d_Image_12.jpeg,did not like,3.613205605,,,,,,,,,,,,,,,,,,,,,,
,,66202163d9e5dba57c5e831d,2024-08-23_16h28.11.062,WTP_SM_Choice,2022.2.1,Win32,60.24096386,,,,,space,0.9551,NAN,,NAN,1.98,4.02,,0,91,91,91,1,92,Alex,Rej,Participant_Images/66202163d9e5dba57c5e831d/66202163d9e5dba57c5e831d_Images/66202163d9e5dba57c5e831d_Image_8.jpeg,did not like,4.988446431,,,,,,,,,,,,,,,,,,,,,,
,,66202163d9e5dba57c5e831d,2024-08-23_16h28.11.062,WTP_SM_Choice,2022.2.1,Win32,60.24096386,,,,,space,0.6659,NAN,,NAN,1.98,4.02,,0,92,92,92,1,93,Alex,Rej,Participant_Images/66202163d9e5dba57c5e831d/66202163d9e5dba57c5e831d_Images/66202163d9e5dba57c5e831d_Image_21.jpeg,liked,3.470791822,,,,,,,,,,,,,,,,,,,,,,
,,66202163d9e5dba57c5e831d,2024-08-23_16h28.11.062,WTP_SM_Choice,2022.2.1,Win32,60.24096386,,,,,space,0.4719,NAN,,NAN,1.98,4.02,,0,93,93,93,1,94,Alex,Rej,Participant_Images/66202163d9e5dba57c5e831d/66202163d9e5dba57c5e831d_Images/66202163d9e5dba57c5e831d_Image_6.jpeg,did not like,3.820572462,,,,,,,,,,,,,,,,,,,,,,
,,66202163d9e5dba57c5e831d,2024-08-23_16h28.11.062,WTP_SM_Choice,2022.2.1,Win32,60.24096386,,,,,,,,,,,,,,,,,,91,,,,,,space,0.5575,space,0.5647,0.01,1,1.1301,0,0,0,0,1,Go for a drive with my dog roxie,Hang out with my dog roxie in a nice cool bedroom,0.01,0.04,3.3,0,,,,
,,66202163d9e5dba57c5e831d,2024-08-23_16h28.11.062,WTP_SM_Choice,2022.2.1,Win32,60.24096386,,,,,,,,,,,,,,,,,,92,,,,,,,,,,0.02,1,1.9369,0,1,1,1,1,Watch a movie with my friend,Go on a drive at night to enjoy the light and the stars,0.02,0.04,8.8,0,,,,
,,66202163d9e5dba57c5e831d,2024-08-23_16h28.11.062,WTP_SM_Choice,2022.2.1,Win32,60.24096386,,,,,,,,,,,,,,,,,,93,,,,,,,,,,0.03,1,1.3591,0,2,2,2,1,Watch reels posted to socia media,Tattoo or get tattooed by my little sister,0.03,0.04,1.1,1,,,,
,,66202163d9e5dba57c5e831d,2024-08-23_16h28.11.062,WTP_SM_Choice,2022.2.1,Win32,60.24096386,,,,,,,,,,,,,,,,,,94,,,,,,,,,,0.04,1,1.9521,0,3,3,3,1,Hang out with my dog roxie in a nice cool bedroom,facetime my older sister daily to just chat ,0.04,0.04,4.4,1,,,,
,,66202163d9e5dba57c5e831d,2024-08-23_16h28.11.062,WTP_SM_Choice,2022.2.1,Win32,60.24096386,,,,,,,,,,,,,,,,,,95,,,,,,,,,,0.04,2,1.0302,0,4,4,4,1,Watch reels posted to socia media,Go for a drive with my dog roxie,0.05,0.04,4.4,1,,,,
,,66202163d9e5dba57c5e831d,2024-08-23_16h28.11.062,WTP_SM_Choice,2022.2.1,Win32,60.24096386,,,,,,,NAN,,NAN,2.12,3.88,,0,94,94,94,1,95,Alex,Rej,Participant_Images/66202163d9e5dba57c5e831d/66202163d9e5dba57c5e831d_Images/66202163d9e5dba57c5e831d_Image_23.jpeg,did not like,2.455989137,,,,,,,,,,,,,,,,,,,,,,
,,66202163d9e5dba57c5e831d,2024-08-23_16h28.11.062,WTP_SM_Choice,2022.2.1,Win32,60.24096386,,,,,space,0.6236,NAN,,NAN,2.12,3.88,,0,95,95,95,1,96,Alex,Rej,Participant_Images/66202163d9e5dba57c5e831d/66202163d9e5dba57c5e831d_Images/66202163d9e5dba57c5e831d_Image_13.jpeg,did not like,3.79605092,,,,,,,,,,,,,,,,,,,,,,
,,66202163d9e5dba57c5e831d,2024-08-23_16h28.11.062,WTP_SM_Choice,2022.2.1,Win32,60.24096386,,,,,space,0.7072,NAN,,NAN,2.12,3.88,,0,96,96,96,1,97,Alex,Rej,Participant_Images/66202163d9e5dba57c5e831d/66202163d9e5dba57c5e831d_Images/66202163d9e5dba57c5e831d_Image_5.jpeg,did not like,3.562416326,,,,,,,,,,,,,,,,,,,,,,
,,66202163d9e5dba57c5e831d,2024-08-23_16h28.11.062,WTP_SM_Choice,2022.2.1,Win32,60.24096386,,,,,space,1.616,NAN,,NAN,2.12,3.88,,0,97,97,97,1,98,Alex,Rej,Participant_Images/66202163d9e5dba57c5e831d/66202163d9e5dba57c5e831d_Images/66202163d9e5dba57c5e831d_Image_18.jpeg,did not like,2.843822497,,,,,,,,,,,,,,,,,,,,,,
,,66202163d9e5dba57c5e831d,2024-08-23_16h28.11.062,WTP_SM_Choice,2022.2.1,Win32,60.24096386,,,,,space,0.7164,NAN,,NAN,2.12,3.88,,0,98,98,98,1,99,Alex,Rej,Participant_Images/66202163d9e5dba57c5e831d/66202163d9e5dba57c5e831d_Images/66202163d9e5dba57c5e831d_Image_9.jpeg,liked,3.546495948,,,,,,,,,,,,,,,,,,,,,,
,,66202163d9e5dba57c5e831d,2024-08-23_16h28.11.062,WTP_SM_Choice,2022.2.1,Win32,60.24096386,,,,,,,,,,,,,,,,,,96,,,,,,space,0.9692,space,0.7997,0.01,1,0.7117,0,0,0,0,1,Talk on the phone to my mom ,Go on a drive at night to enjoy the light and the stars,0.01,0.05,3.3,0,,,,
,,66202163d9e5dba57c5e831d,2024-08-23_16h28.11.062,WTP_SM_Choice,2022.2.1,Win32,60.24096386,,,,,,,,,,,,,,,,,,97,,,,,,,,,,0.02,1,0.7314,0,1,1,1,1,Play video games with my best friend,Go to the movie theater to watch a new movie that was just released,0.02,0.05,1.1,0,,,,
,,66202163d9e5dba57c5e831d,2024-08-23_16h28.11.062,WTP_SM_Choice,2022.2.1,Win32,60.24096386,,,,,,,,,,,,,,,,,,98,,,,,,,,,,0.03,1,0.5669,0,2,2,2,1,watch football with my parents,Watch tv in my bedroom while laying on my bed,0.03,0.05,1.1,0,,,,
,,66202163d9e5dba57c5e831d,2024-08-23_16h28.11.062,WTP_SM_Choice,2022.2.1,Win32,60.24096386,,,,,,,,,,,,,,,,,,99,,,,,,,,,,0.04,1,1.0647,0,3,3,3,1,watch a movie with my niece or nephew ,Go to the movie theater to watch a new movie that was just released,0.04,0.05,3.3,0,,,,
,,66202163d9e5dba57c5e831d,2024-08-23_16h28.11.062,WTP_SM_Choice,2022.2.1,Win32,60.24096386,,,,,,,,,,,,,,,,,,100,,,,,,,,,,0.05,1,1.3829,0,4,4,4,1,Scroll through facebook,Go for a drive with my dog roxie,0.05,0.05,4.4,1,,,,
,,66202163d9e5dba57c5e831d,2024-08-23_16h28.11.062,WTP_SM_Choice,2022.2.1,Win32,60.24096386,,,,,,,2,,5,2.27,3.73,,0,99,99,99,1,100,Alex,Rej,Participant_Images/66202163d9e5dba57c5e831d/66202163d9e5dba57c5e831d_Images/66202163d9e5dba57c5e831d_Image_7.jpeg,did not like,1.672012706,,,,,,,,,,,,,,,,,,,space,1.1684,,
,,66202163d9e5dba57c5e831d,2024-08-23_16h28.11.062,WTP_SM_Choice,2022.2.1,Win32,60.24096386,,,,,,,,,,,,,,,,,,,,,,,,,,,,,,,,,,,,,,,,,,,,space,5.4053
