endwelcomescreen_keys.keys,endwelcomescreen_keys.rt,participant,STUDY_ID,SESSION_ID,date,expName,psychopyVersion,OS,frameRate,endinstructionscreen_keys.keys,endinstructionscreen_keys.rt,endpartnermatch_keys.keys,endpartnermatch_keys.rt,sharenextphoto_key.keys,sharenextphoto_key.rt,salience_rating,key_resp.keys,stress_level,subtract_bonus,TOTAL_TASK_BONUS,stresslevel_keypress.keys,entiretaskloop.thisRepN,entiretaskloop.thisTrialN,entiretaskloop.thisN,entiretaskloop.thisIndex,entiretaskloop.ran,TrialNumber,Partner,Condition,Photos,Feedback,FeedbackWait,WTP_ins_keys1.keys,WTP_ins_keys1.rt,WTP_ins_keys2.keys,WTP_ins_keys2.rt,responses.keys,WTPTaskLoop.thisRepN,WTPTaskLoop.thisTrialN,WTPTaskLoop.thisN,WTPTaskLoop.thisIndex,WTPTaskLoop.ran,right,left,leftmoney,rightmoney,WTP_ITI,social_left,decision_price,responses.rt,Resume_keys.keys,Resume_keys.rt,key_resp.rt,end_screen_keys.keys,end_screen_keys.rt
space,1.0425,6627722f249e56fcefd07b8c,6685aa9113c938e83b4f1ea0,66c900e693efe7a572effc53,2024-08-23_15h38.49.267,WTP_SM_Choice,2022.2.1,Win32,60.97560976,,,,,,,,,,,,,,,,,,,,,,,,,,,,,,,,,,,,,,,,,,,,,,
,,6627722f249e56fcefd07b8c,6685aa9113c938e83b4f1ea0,66c900e693efe7a572effc53,2024-08-23_15h38.49.267,WTP_SM_Choice,2022.2.1,Win32,60.97560976,space,3.4457,,,,,,,,,,,,,,,,,,,,,,,,,,,,,,,,,,,,,,,,,,,,
,,6627722f249e56fcefd07b8c,6685aa9113c938e83b4f1ea0,66c900e693efe7a572effc53,2024-08-23_15h38.49.267,WTP_SM_Choice,2022.2.1,Win32,60.97560976,,,space,1.5285,space,1.6668,NAN,,NAN,0,6,,0,0,0,0,1,1,Riley,Acc,Participant_Images/6627722f249e56fcefd07b8c/6627722f249e56fcefd07b8c_Images/6627722f249e56fcefd07b8c_Image_9.jpeg,liked,3.613205605,,,,,,,,,,,,,,,,,,,,,,,
,,6627722f249e56fcefd07b8c,6685aa9113c938e83b4f1ea0,66c900e693efe7a572effc53,2024-08-23_15h38.49.267,WTP_SM_Choice,2022.2.1,Win32,60.97560976,,,,,space,0.8097,NAN,,NAN,0,6,,0,1,1,1,1,2,Riley,Acc,Participant_Images/6627722f249e56fcefd07b8c/6627722f249e56fcefd07b8c_Images/6627722f249e56fcefd07b8c_Image_10.jpeg,liked,4.988446431,,,,,,,,,,,,,,,,,,,,,,,
,,6627722f249e56fcefd07b8c,6685aa9113c938e83b4f1ea0,66c900e693efe7a572effc53,2024-08-23_15h38.49.267,WTP_SM_Choice,2022.2.1,Win32,60.97560976,,,,,space,1.266,NAN,,NAN,0,6,,0,2,2,2,1,3,Riley,Acc,Participant_Images/6627722f249e56fcefd07b8c/6627722f249e56fcefd07b8c_Images/6627722f249e56fcefd07b8c_Image_7.jpeg,did not like,3.470791822,,,,,,,,,,,,,,,,,,,,,,,
,,6627722f249e56fcefd07b8c,6685aa9113c938e83b4f1ea0,66c900e693efe7a572effc53,2024-08-23_15h38.49.267,WTP_SM_Choice,2022.2.1,Win32,60.97560976,,,,,space,2.403,NAN,,NAN,0,6,,0,3,3,3,1,4,Riley,Acc,Participant_Images/6627722f249e56fcefd07b8c/6627722f249e56fcefd07b8c_Images/6627722f249e56fcefd07b8c_Image_5.jpeg,did not like,3.820572462,,,,,,,,,,,,,,,,,,,,,,,
,,6627722f249e56fcefd07b8c,6685aa9113c938e83b4f1ea0,66c900e693efe7a572effc53,2024-08-23_15h38.49.267,WTP_SM_Choice,2022.2.1,Win32,60.97560976,,,,,,,,,,,,,,,,,,1,,,,,,space,3.5766,space,850.4074,,0,0,0,0,1,Go camping with my boyfriend,Swim in the ocean,0.01,0.01,4.4,0,,,,,,,
,,6627722f249e56fcefd07b8c,6685aa9113c938e83b4f1ea0,66c900e693efe7a572effc53,2024-08-23_15h38.49.267,WTP_SM_Choice,2022.2.1,Win32,60.97560976,,,,,,,,,,,,,,,,,,2,,,,,,,,,,1,0,1,1,1,1,Take photos of nature with my friends,Walk around downtown denver,0.02,0.01,8.8,0,0.02,1.3747,,,,,
,,6627722f249e56fcefd07b8c,6685aa9113c938e83b4f1ea0,66c900e693efe7a572effc53,2024-08-23_15h38.49.267,WTP_SM_Choice,2022.2.1,Win32,60.97560976,,,,,,,,,,,,,,,,,,3,,,,,,,,,,2,0,2,2,2,1,Walk in the sand in south carolina,Swim at the pool with my siblings,0.03,0.01,3.3,1,0.01,2.2082,,,,,
,,6627722f249e56fcefd07b8c,6685aa9113c938e83b4f1ea0,66c900e693efe7a572effc53,2024-08-23_15h38.49.267,WTP_SM_Choice,2022.2.1,Win32,60.97560976,,,,,,,,,,,,,,,,,,4,,,,,,,,,,2,0,3,3,3,1,Write poetry underneath the shade of a willow tree,Go to a concert with friends,0.04,0.01,1.1,1,0.01,2.7181,,,,,
,,6627722f249e56fcefd07b8c,6685aa9113c938e83b4f1ea0,66c900e693efe7a572effc53,2024-08-23_15h38.49.267,WTP_SM_Choice,2022.2.1,Win32,60.97560976,,,,,,,,,,,,,,,,,,5,,,,,,,,,,2,0,4,4,4,1,Play outside with the cats with my boyfriend,Hike at red rocks at night in the summer,0.05,0.01,1.1,0,0.01,2.8173,,,,,
,,6627722f249e56fcefd07b8c,6685aa9113c938e83b4f1ea0,66c900e693efe7a572effc53,2024-08-23_15h38.49.267,WTP_SM_Choice,2022.2.1,Win32,60.97560976,,,,,,,NAN,,NAN,0.05,5.95,,0,4,4,4,1,5,Riley,Acc,Participant_Images/6627722f249e56fcefd07b8c/6627722f249e56fcefd07b8c_Images/6627722f249e56fcefd07b8c_Image_11.jpeg,liked,2.455989137,,,,,,,,,,,,,,,,,,,,,,,
,,6627722f249e56fcefd07b8c,6685aa9113c938e83b4f1ea0,66c900e693efe7a572effc53,2024-08-23_15h38.49.267,WTP_SM_Choice,2022.2.1,Win32,60.97560976,,,,,space,1.8043,NAN,,NAN,0.05,5.95,,0,5,5,5,1,6,Riley,Acc,Participant_Images/6627722f249e56fcefd07b8c/6627722f249e56fcefd07b8c_Images/6627722f249e56fcefd07b8c_Image_24.jpeg,liked,3.79605092,,,,,,,,,,,,,,,,,,,,,,,
,,6627722f249e56fcefd07b8c,6685aa9113c938e83b4f1ea0,66c900e693efe7a572effc53,2024-08-23_15h38.49.267,WTP_SM_Choice,2022.2.1,Win32,60.97560976,,,,,space,1.4598,NAN,,NAN,0.05,5.95,,0,6,6,6,1,7,Riley,Acc,Participant_Images/6627722f249e56fcefd07b8c/6627722f249e56fcefd07b8c_Images/6627722f249e56fcefd07b8c_Image_21.jpeg,liked,3.562416326,,,,,,,,,,,,,,,,,,,,,,,
,,6627722f249e56fcefd07b8c,6685aa9113c938e83b4f1ea0,66c900e693efe7a572effc53,2024-08-23_15h38.49.267,WTP_SM_Choice,2022.2.1,Win32,60.97560976,,,,,space,1.1691,NAN,,NAN,0.05,5.95,,0,7,7,7,1,8,Riley,Acc,Participant_Images/6627722f249e56fcefd07b8c/6627722f249e56fcefd07b8c_Images/6627722f249e56fcefd07b8c_Image_20.jpeg,did not like,2.843822497,,,,,,,,,,,,,,,,,,,,,,,
,,6627722f249e56fcefd07b8c,6685aa9113c938e83b4f1ea0,66c900e693efe7a572effc53,2024-08-23_15h38.49.267,WTP_SM_Choice,2022.2.1,Win32,60.97560976,,,,,space,1.0663,NAN,,NAN,0.05,5.95,,0,8,8,8,1,9,Riley,Acc,Participant_Images/6627722f249e56fcefd07b8c/6627722f249e56fcefd07b8c_Images/6627722f249e56fcefd07b8c_Image_4.jpeg,liked,3.546495948,,,,,,,,,,,,,,,,,,,,,,,
,,6627722f249e56fcefd07b8c,6685aa9113c938e83b4f1ea0,66c900e693efe7a572effc53,2024-08-23_15h38.49.267,WTP_SM_Choice,2022.2.1,Win32,60.97560976,,,,,,,,,,,,,,,,,,6,,,,,,space,11.3413,space,5.9433,1,0,0,0,0,1,Go on a hike with my friends,Drink iced tea on the front porch,0.01,0.02,3.3,0,0.01,1.8052,,,,,
,,6627722f249e56fcefd07b8c,6685aa9113c938e83b4f1ea0,66c900e693efe7a572effc53,2024-08-23_15h38.49.267,WTP_SM_Choice,2022.2.1,Win32,60.97560976,,,,,,,,,,,,,,,,,,7,,,,,,,,,,1,0,1,1,1,1,Listen to music while driving with the windows down,Eat at a restaurant with my boyfriend,0.02,0.02,1.1,1,0.02,2.7418,,,,,
,,6627722f249e56fcefd07b8c,6685aa9113c938e83b4f1ea0,66c900e693efe7a572effc53,2024-08-23_15h38.49.267,WTP_SM_Choice,2022.2.1,Win32,60.97560976,,,,,,,,,,,,,,,,,,8,,,,,,,,,,2,0,2,2,2,1,Take photos of nature with my friends,Play with my cats in my cool apartment,0.03,0.02,1.1,0,0.02,1.8674,,,,,
,,6627722f249e56fcefd07b8c,6685aa9113c938e83b4f1ea0,66c900e693efe7a572effc53,2024-08-23_15h38.49.267,WTP_SM_Choice,2022.2.1,Win32,60.97560976,,,,,,,,,,,,,,,,,,9,,,,,,,,,,2,0,3,3,3,1,Swim at the pool with my siblings,Do yoga early in the morning outside,0.04,0.02,4.4,0,0.02,1.7106,,,,,
,,6627722f249e56fcefd07b8c,6685aa9113c938e83b4f1ea0,66c900e693efe7a572effc53,2024-08-23_15h38.49.267,WTP_SM_Choice,2022.2.1,Win32,60.97560976,,,,,,,,,,,,,,,,,,10,,,,,,,,,,2,0,4,4,4,1,Walk around downtown denver,Walk around the mall with my mom,0.05,0.02,1.1,1,0.02,1.3784,,,,,
,,6627722f249e56fcefd07b8c,6685aa9113c938e83b4f1ea0,66c900e693efe7a572effc53,2024-08-23_15h38.49.267,WTP_SM_Choice,2022.2.1,Win32,60.97560976,,,,,,,NAN,,NAN,0.14,5.86,,0,9,9,9,1,10,Riley,Acc,Participant_Images/6627722f249e56fcefd07b8c/6627722f249e56fcefd07b8c_Images/6627722f249e56fcefd07b8c_Image_17.jpeg,liked,1.672012706,,,,,,,,,,,,,,,,,,,,,,,
,,6627722f249e56fcefd07b8c,6685aa9113c938e83b4f1ea0,66c900e693efe7a572effc53,2024-08-23_15h38.49.267,WTP_SM_Choice,2022.2.1,Win32,60.97560976,,,,,space,0.3502,NAN,,NAN,0.14,5.86,,0,10,10,10,1,11,Riley,Acc,Participant_Images/6627722f249e56fcefd07b8c/6627722f249e56fcefd07b8c_Images/6627722f249e56fcefd07b8c_Image_22.jpeg,liked,4.942172136,,,,,,,,,,,,,,,,,,,,,,,
,,6627722f249e56fcefd07b8c,6685aa9113c938e83b4f1ea0,66c900e693efe7a572effc53,2024-08-23_15h38.49.267,WTP_SM_Choice,2022.2.1,Win32,60.97560976,,,,,space,2.2306,NAN,,NAN,0.14,5.86,,0,11,11,11,1,12,Riley,Acc,Participant_Images/6627722f249e56fcefd07b8c/6627722f249e56fcefd07b8c_Images/6627722f249e56fcefd07b8c_Image_25.jpeg,liked,2.50187214,,,,,,,,,,,,,,,,,,,,,,,
,,6627722f249e56fcefd07b8c,6685aa9113c938e83b4f1ea0,66c900e693efe7a572effc53,2024-08-23_15h38.49.267,WTP_SM_Choice,2022.2.1,Win32,60.97560976,,,,,space,0.386,NAN,,NAN,0.14,5.86,,0,12,12,12,1,13,Riley,Acc,Participant_Images/6627722f249e56fcefd07b8c/6627722f249e56fcefd07b8c_Images/6627722f249e56fcefd07b8c_Image_2.jpeg,liked,2.071164779,,,,,,,,,,,,,,,,,,,,,,,
,,6627722f249e56fcefd07b8c,6685aa9113c938e83b4f1ea0,66c900e693efe7a572effc53,2024-08-23_15h38.49.267,WTP_SM_Choice,2022.2.1,Win32,60.97560976,,,,,space,0.3385,NAN,,NAN,0.14,5.86,,0,13,13,13,1,14,Riley,Acc,Participant_Images/6627722f249e56fcefd07b8c/6627722f249e56fcefd07b8c_Images/6627722f249e56fcefd07b8c_Image_12.jpeg,liked,5.336503566,,,,,,,,,,,,,,,,,,,,,,,
,,6627722f249e56fcefd07b8c,6685aa9113c938e83b4f1ea0,66c900e693efe7a572effc53,2024-08-23_15h38.49.267,WTP_SM_Choice,2022.2.1,Win32,60.97560976,,,,,,,,,,,,,,,,,,11,,,,,,space,1.3519,space,0.6821,1,0,0,0,0,1,Swim in the ocean,Play outside with the cats with my boyfriend,0.01,0.03,3.3,1,0.01,1.4441,,,,,
,,6627722f249e56fcefd07b8c,6685aa9113c938e83b4f1ea0,66c900e693efe7a572effc53,2024-08-23_15h38.49.267,WTP_SM_Choice,2022.2.1,Win32,60.97560976,,,,,,,,,,,,,,,,,,12,,,,,,,,,,1,0,1,1,1,1,Play with my cats in my cool apartment,Go to a concert with friends,0.02,0.03,4.4,1,0.02,1.0613,,,,,
,,6627722f249e56fcefd07b8c,6685aa9113c938e83b4f1ea0,66c900e693efe7a572effc53,2024-08-23_15h38.49.267,WTP_SM_Choice,2022.2.1,Win32,60.97560976,,,,,,,,,,,,,,,,,,13,,,,,,,,,,1,0,2,2,2,1,Read a book at the park,Play outside with the cats with my boyfriend,0.03,0.03,1.1,1,0.03,2.13,,,,,
,,6627722f249e56fcefd07b8c,6685aa9113c938e83b4f1ea0,66c900e693efe7a572effc53,2024-08-23_15h38.49.267,WTP_SM_Choice,2022.2.1,Win32,60.97560976,,,,,,,,,,,,,,,,,,14,,,,,,,,,,2,0,3,3,3,1,Do yoga early in the morning outside,Go camping with my boyfriend,0.04,0.03,3.3,1,0.03,2.2108,,,,,
,,6627722f249e56fcefd07b8c,6685aa9113c938e83b4f1ea0,66c900e693efe7a572effc53,2024-08-23_15h38.49.267,WTP_SM_Choice,2022.2.1,Win32,60.97560976,,,,,,,,,,,,,,,,,,15,,,,,,,,,,2,0,4,4,4,1,Swim in the ocean,Swim at the pool with my siblings,0.05,0.03,4.4,1,0.03,1.4029,,,,,
,,6627722f249e56fcefd07b8c,6685aa9113c938e83b4f1ea0,66c900e693efe7a572effc53,2024-08-23_15h38.49.267,WTP_SM_Choice,2022.2.1,Win32,60.97560976,,,,,,,NAN,,NAN,0.26,5.74,,0,14,14,14,1,15,Riley,Acc,Participant_Images/6627722f249e56fcefd07b8c/6627722f249e56fcefd07b8c_Images/6627722f249e56fcefd07b8c_Image_13.jpeg,did not like,2.642157193,,,,,,,,,,,,,,,,,,,,,,,
,,6627722f249e56fcefd07b8c,6685aa9113c938e83b4f1ea0,66c900e693efe7a572effc53,2024-08-23_15h38.49.267,WTP_SM_Choice,2022.2.1,Win32,60.97560976,,,,,space,0.3408,NAN,,NAN,0.26,5.74,,0,15,15,15,1,16,Riley,Acc,Participant_Images/6627722f249e56fcefd07b8c/6627722f249e56fcefd07b8c_Images/6627722f249e56fcefd07b8c_Image_6.jpeg,liked,4.456234322,,,,,,,,,,,,,,,,,,,,,,,
,,6627722f249e56fcefd07b8c,6685aa9113c938e83b4f1ea0,66c900e693efe7a572effc53,2024-08-23_15h38.49.267,WTP_SM_Choice,2022.2.1,Win32,60.97560976,,,,,space,1.517,NAN,,NAN,0.26,5.74,,0,16,16,16,1,17,Riley,Acc,Participant_Images/6627722f249e56fcefd07b8c/6627722f249e56fcefd07b8c_Images/6627722f249e56fcefd07b8c_Image_16.jpeg,did not like,4.438512181,,,,,,,,,,,,,,,,,,,,,,,
,,6627722f249e56fcefd07b8c,6685aa9113c938e83b4f1ea0,66c900e693efe7a572effc53,2024-08-23_15h38.49.267,WTP_SM_Choice,2022.2.1,Win32,60.97560976,,,,,space,1.2077,NAN,,NAN,0.26,5.74,,0,17,17,17,1,18,Riley,Acc,Participant_Images/6627722f249e56fcefd07b8c/6627722f249e56fcefd07b8c_Images/6627722f249e56fcefd07b8c_Image_8.jpeg,liked,2.682944783,,,,,,,,,,,,,,,,,,,,,,,
,,6627722f249e56fcefd07b8c,6685aa9113c938e83b4f1ea0,66c900e693efe7a572effc53,2024-08-23_15h38.49.267,WTP_SM_Choice,2022.2.1,Win32,60.97560976,,,,,space,0.3538,NAN,,NAN,0.26,5.74,,0,18,18,18,1,19,Riley,Acc,Participant_Images/6627722f249e56fcefd07b8c/6627722f249e56fcefd07b8c_Images/6627722f249e56fcefd07b8c_Image_19.jpeg,liked,4.51984296,,,,,,,,,,,,,,,,,,,,,,,
,,6627722f249e56fcefd07b8c,6685aa9113c938e83b4f1ea0,66c900e693efe7a572effc53,2024-08-23_15h38.49.267,WTP_SM_Choice,2022.2.1,Win32,60.97560976,,,,,,,,,,,,,,,,,,16,,,,,,space,1.1232,space,0.5736,1,0,0,0,0,1,Eat at a restaurant with my boyfriend,Write poetry underneath the shade of a willow tree,0.01,0.04,1.1,0,0.01,1.3748,,,,,
,,6627722f249e56fcefd07b8c,6685aa9113c938e83b4f1ea0,66c900e693efe7a572effc53,2024-08-23_15h38.49.267,WTP_SM_Choice,2022.2.1,Win32,60.97560976,,,,,,,,,,,,,,,,,,17,,,,,,,,,,1,0,1,1,1,1,Walk around downtown denver,Gril hamburgers outside with my dad,0.02,0.04,8.8,1,0.02,1.6153,,,,,
,,6627722f249e56fcefd07b8c,6685aa9113c938e83b4f1ea0,66c900e693efe7a572effc53,2024-08-23_15h38.49.267,WTP_SM_Choice,2022.2.1,Win32,60.97560976,,,,,,,,,,,,,,,,,,18,,,,,,,,,,1,0,2,2,2,1,Eat at a restaurant with my boyfriend,Drink iced tea on the front porch,0.03,0.04,3.3,0,0.03,2.4094,,,,,
,,6627722f249e56fcefd07b8c,6685aa9113c938e83b4f1ea0,66c900e693efe7a572effc53,2024-08-23_15h38.49.267,WTP_SM_Choice,2022.2.1,Win32,60.97560976,,,,,,,,,,,,,,,,,,19,,,,,,,,,,1,0,3,3,3,1,Swim at the pool with my siblings,Hike at red rocks at night in the summer,0.04,0.04,3.3,0,0.04,2.8106,,,,,
,,6627722f249e56fcefd07b8c,6685aa9113c938e83b4f1ea0,66c900e693efe7a572effc53,2024-08-23_15h38.49.267,WTP_SM_Choice,2022.2.1,Win32,60.97560976,,,,,,,,,,,,,,,,,,20,,,,,,,,,,2,0,4,4,4,1,Walk around the mall with my mom,Write poetry underneath the shade of a willow tree,0.05,0.04,1.1,0,0.04,1.9641,,,,,
,,6627722f249e56fcefd07b8c,6685aa9113c938e83b4f1ea0,66c900e693efe7a572effc53,2024-08-23_15h38.49.267,WTP_SM_Choice,2022.2.1,Win32,60.97560976,,,,,,,NAN,,NAN,0.4,5.6,,0,19,19,19,1,20,Riley,Acc,Participant_Images/6627722f249e56fcefd07b8c/6627722f249e56fcefd07b8c_Images/6627722f249e56fcefd07b8c_Image_15.jpeg,liked,3.195382774,,,,,,,,,,,,,,,,,,,,,,,
,,6627722f249e56fcefd07b8c,6685aa9113c938e83b4f1ea0,66c900e693efe7a572effc53,2024-08-23_15h38.49.267,WTP_SM_Choice,2022.2.1,Win32,60.97560976,,,,,space,1.636,NAN,,NAN,0.4,5.6,,0,20,20,20,1,21,Riley,Acc,Participant_Images/6627722f249e56fcefd07b8c/6627722f249e56fcefd07b8c_Images/6627722f249e56fcefd07b8c_Image_23.jpeg,liked,1.779333479,,,,,,,,,,,,,,,,,,,,,,,
,,6627722f249e56fcefd07b8c,6685aa9113c938e83b4f1ea0,66c900e693efe7a572effc53,2024-08-23_15h38.49.267,WTP_SM_Choice,2022.2.1,Win32,60.97560976,,,,,space,0.3171,NAN,,NAN,0.4,5.6,,0,21,21,21,1,22,Riley,Acc,Participant_Images/6627722f249e56fcefd07b8c/6627722f249e56fcefd07b8c_Images/6627722f249e56fcefd07b8c_Image_3.jpeg,liked,4.312468682,,,,,,,,,,,,,,,,,,,,,,,
,,6627722f249e56fcefd07b8c,6685aa9113c938e83b4f1ea0,66c900e693efe7a572effc53,2024-08-23_15h38.49.267,WTP_SM_Choice,2022.2.1,Win32,60.97560976,,,,,space,0.2704,NAN,,NAN,0.4,5.6,,0,22,22,22,1,23,Riley,Acc,Participant_Images/6627722f249e56fcefd07b8c/6627722f249e56fcefd07b8c_Images/6627722f249e56fcefd07b8c_Image_18.jpeg,did not like,4.940433059,,,,,,,,,,,,,,,,,,,,,,,
,,6627722f249e56fcefd07b8c,6685aa9113c938e83b4f1ea0,66c900e693efe7a572effc53,2024-08-23_15h38.49.267,WTP_SM_Choice,2022.2.1,Win32,60.97560976,,,,,space,0.3201,NAN,,NAN,0.4,5.6,,0,23,23,23,1,24,Riley,Acc,Participant_Images/6627722f249e56fcefd07b8c/6627722f249e56fcefd07b8c_Images/6627722f249e56fcefd07b8c_Image_14.jpeg,liked,2.7105123,,,,,,,,,,,,,,,,,,,,,,,
,,6627722f249e56fcefd07b8c,6685aa9113c938e83b4f1ea0,66c900e693efe7a572effc53,2024-08-23_15h38.49.267,WTP_SM_Choice,2022.2.1,Win32,60.97560976,,,,,,,,,,,,,,,,,,21,,,,,,space,0.2866,space,0.5746,1,0,0,0,0,1,Go on a hike with my friends,Hike at red rocks at night in the summer,0.01,0.05,8.8,0,0.01,1.2954,,,,,
,,6627722f249e56fcefd07b8c,6685aa9113c938e83b4f1ea0,66c900e693efe7a572effc53,2024-08-23_15h38.49.267,WTP_SM_Choice,2022.2.1,Win32,60.97560976,,,,,,,,,,,,,,,,,,22,,,,,,,,,,1,0,1,1,1,1,Walk in the sand in south carolina,Eat at a restaurant with my boyfriend,0.02,0.05,4.4,1,0.02,1.4052,,,,,
,,6627722f249e56fcefd07b8c,6685aa9113c938e83b4f1ea0,66c900e693efe7a572effc53,2024-08-23_15h38.49.267,WTP_SM_Choice,2022.2.1,Win32,60.97560976,,,,,,,,,,,,,,,,,,23,,,,,,,,,,1,0,2,2,2,1,Do yoga early in the morning outside,Go to a concert with friends,0.03,0.05,1.1,1,0.03,1.5136,,,,,
,,6627722f249e56fcefd07b8c,6685aa9113c938e83b4f1ea0,66c900e693efe7a572effc53,2024-08-23_15h38.49.267,WTP_SM_Choice,2022.2.1,Win32,60.97560976,,,,,,,,,,,,,,,,,,24,,,,,,,,,,1,0,3,3,3,1,Swim in the ocean,Walk around the mall with my mom,0.04,0.05,4.4,1,0.04,1.9456,,,,,
,,6627722f249e56fcefd07b8c,6685aa9113c938e83b4f1ea0,66c900e693efe7a572effc53,2024-08-23_15h38.49.267,WTP_SM_Choice,2022.2.1,Win32,60.97560976,,,,,,,,,,,,,,,,,,25,,,,,,,,,,1,0,4,4,4,1,Swim in the ocean,Eat at a restaurant with my boyfriend,0.05,0.05,3.3,1,0.05,2.2882,,,,,
,,6627722f249e56fcefd07b8c,6685aa9113c938e83b4f1ea0,66c900e693efe7a572effc53,2024-08-23_15h38.49.267,WTP_SM_Choice,2022.2.1,Win32,60.97560976,,,,,,,3,space,3,0.55,5.45,,0,24,24,24,1,25,Riley,Acc,Participant_Images/6627722f249e56fcefd07b8c/6627722f249e56fcefd07b8c_Images/6627722f249e56fcefd07b8c_Image_1.jpeg,did not like,3.602308302,,,,,,,,,,,,,,,,,,,space,1.4124,5.797,,
,,6627722f249e56fcefd07b8c,6685aa9113c938e83b4f1ea0,66c900e693efe7a572effc53,2024-08-23_15h38.49.267,WTP_SM_Choice,2022.2.1,Win32,60.97560976,,,space,1.4482,space,1.4693,NAN,,NAN,0.55,5.45,,0,25,25,25,1,26,Sam,Rej,Participant_Images/6627722f249e56fcefd07b8c/6627722f249e56fcefd07b8c_Images/6627722f249e56fcefd07b8c_Image_7.jpeg,liked,4.106391878,,,,,,,,,,,,,,,,,,,,,,,
,,6627722f249e56fcefd07b8c,6685aa9113c938e83b4f1ea0,66c900e693efe7a572effc53,2024-08-23_15h38.49.267,WTP_SM_Choice,2022.2.1,Win32,60.97560976,,,,,space,2.3873,NAN,,NAN,0.55,5.45,,0,26,26,26,1,27,Sam,Rej,Participant_Images/6627722f249e56fcefd07b8c/6627722f249e56fcefd07b8c_Images/6627722f249e56fcefd07b8c_Image_11.jpeg,did not like,3.799433026,,,,,,,,,,,,,,,,,,,,,,,
,,6627722f249e56fcefd07b8c,6685aa9113c938e83b4f1ea0,66c900e693efe7a572effc53,2024-08-23_15h38.49.267,WTP_SM_Choice,2022.2.1,Win32,60.97560976,,,,,space,1.3193,NAN,,NAN,0.55,5.45,,0,27,27,27,1,28,Sam,Rej,Participant_Images/6627722f249e56fcefd07b8c/6627722f249e56fcefd07b8c_Images/6627722f249e56fcefd07b8c_Image_8.jpeg,did not like,5.246980764,,,,,,,,,,,,,,,,,,,,,,,
,,6627722f249e56fcefd07b8c,6685aa9113c938e83b4f1ea0,66c900e693efe7a572effc53,2024-08-23_15h38.49.267,WTP_SM_Choice,2022.2.1,Win32,60.97560976,,,,,space,1.2242,NAN,,NAN,0.55,5.45,,0,28,28,28,1,29,Sam,Rej,Participant_Images/6627722f249e56fcefd07b8c/6627722f249e56fcefd07b8c_Images/6627722f249e56fcefd07b8c_Image_13.jpeg,liked,3.30081769,,,,,,,,,,,,,,,,,,,,,,,
,,6627722f249e56fcefd07b8c,6685aa9113c938e83b4f1ea0,66c900e693efe7a572effc53,2024-08-23_15h38.49.267,WTP_SM_Choice,2022.2.1,Win32,60.97560976,,,,,,,,,,,,,,,,,,26,,,,,,space,1.079,space,0.6165,1,0,0,0,0,1,Walk around the mall with my mom,Listen to music while driving with the windows down,0.01,0.01,4.4,0,0.01,2.1415,,,,,
,,6627722f249e56fcefd07b8c,6685aa9113c938e83b4f1ea0,66c900e693efe7a572effc53,2024-08-23_15h38.49.267,WTP_SM_Choice,2022.2.1,Win32,60.97560976,,,,,,,,,,,,,,,,,,27,,,,,,,,,,2,0,1,1,1,1,Listen to music while driving with the windows down,Take photos of nature with my friends,0.02,0.01,3.3,1,0.01,1.3311,,,,,
,,6627722f249e56fcefd07b8c,6685aa9113c938e83b4f1ea0,66c900e693efe7a572effc53,2024-08-23_15h38.49.267,WTP_SM_Choice,2022.2.1,Win32,60.97560976,,,,,,,,,,,,,,,,,,28,,,,,,,,,,2,0,2,2,2,1,Take photos of nature with my friends,Do yoga early in the morning outside,0.03,0.01,3.3,0,0.01,1.5201,,,,,
,,6627722f249e56fcefd07b8c,6685aa9113c938e83b4f1ea0,66c900e693efe7a572effc53,2024-08-23_15h38.49.267,WTP_SM_Choice,2022.2.1,Win32,60.97560976,,,,,,,,,,,,,,,,,,29,,,,,,,,,,2,0,3,3,3,1,Walk around the mall with my mom,Do yoga early in the morning outside,0.04,0.01,4.4,0,0.01,1.941,,,,,
,,6627722f249e56fcefd07b8c,6685aa9113c938e83b4f1ea0,66c900e693efe7a572effc53,2024-08-23_15h38.49.267,WTP_SM_Choice,2022.2.1,Win32,60.97560976,,,,,,,,,,,,,,,,,,30,,,,,,,,,,2,0,4,4,4,1,Go to a concert with friends,Read a book at the park,0.05,0.01,8.8,0,0.01,3.4277,,,,,
,,6627722f249e56fcefd07b8c,6685aa9113c938e83b4f1ea0,66c900e693efe7a572effc53,2024-08-23_15h38.49.267,WTP_SM_Choice,2022.2.1,Win32,60.97560976,,,,,,,NAN,,NAN,0.6,5.4,,0,29,29,29,1,30,Sam,Rej,Participant_Images/6627722f249e56fcefd07b8c/6627722f249e56fcefd07b8c_Images/6627722f249e56fcefd07b8c_Image_1.jpeg,liked,1.661473164,,,,,,,,,,,,,,,,,,,,,,,
,,6627722f249e56fcefd07b8c,6685aa9113c938e83b4f1ea0,66c900e693efe7a572effc53,2024-08-23_15h38.49.267,WTP_SM_Choice,2022.2.1,Win32,60.97560976,,,,,space,0.7162,NAN,,NAN,0.6,5.4,,0,30,30,30,1,31,Sam,Rej,Participant_Images/6627722f249e56fcefd07b8c/6627722f249e56fcefd07b8c_Images/6627722f249e56fcefd07b8c_Image_15.jpeg,did not like,3.613205605,,,,,,,,,,,,,,,,,,,,,,,
,,6627722f249e56fcefd07b8c,6685aa9113c938e83b4f1ea0,66c900e693efe7a572effc53,2024-08-23_15h38.49.267,WTP_SM_Choice,2022.2.1,Win32,60.97560976,,,,,space,0.3655,NAN,,NAN,0.6,5.4,,0,31,31,31,1,32,Sam,Rej,Participant_Images/6627722f249e56fcefd07b8c/6627722f249e56fcefd07b8c_Images/6627722f249e56fcefd07b8c_Image_16.jpeg,did not like,4.988446431,,,,,,,,,,,,,,,,,,,,,,,
,,6627722f249e56fcefd07b8c,6685aa9113c938e83b4f1ea0,66c900e693efe7a572effc53,2024-08-23_15h38.49.267,WTP_SM_Choice,2022.2.1,Win32,60.97560976,,,,,space,0.3935,NAN,,NAN,0.6,5.4,,0,32,32,32,1,33,Sam,Rej,Participant_Images/6627722f249e56fcefd07b8c/6627722f249e56fcefd07b8c_Images/6627722f249e56fcefd07b8c_Image_19.jpeg,did not like,3.470791822,,,,,,,,,,,,,,,,,,,,,,,
,,6627722f249e56fcefd07b8c,6685aa9113c938e83b4f1ea0,66c900e693efe7a572effc53,2024-08-23_15h38.49.267,WTP_SM_Choice,2022.2.1,Win32,60.97560976,,,,,space,0.383,NAN,,NAN,0.6,5.4,,0,33,33,33,1,34,Sam,Rej,Participant_Images/6627722f249e56fcefd07b8c/6627722f249e56fcefd07b8c_Images/6627722f249e56fcefd07b8c_Image_17.jpeg,did not like,3.820572462,,,,,,,,,,,,,,,,,,,,,,,
,,6627722f249e56fcefd07b8c,6685aa9113c938e83b4f1ea0,66c900e693efe7a572effc53,2024-08-23_15h38.49.267,WTP_SM_Choice,2022.2.1,Win32,60.97560976,,,,,,,,,,,,,,,,,,31,,,,,,space,1.1807,space,0.3355,1,0,0,0,0,1,Gril hamburgers outside with my dad,Do yoga early in the morning outside,0.01,0.02,8.8,0,0.01,1.1416,,,,,
,,6627722f249e56fcefd07b8c,6685aa9113c938e83b4f1ea0,66c900e693efe7a572effc53,2024-08-23_15h38.49.267,WTP_SM_Choice,2022.2.1,Win32,60.97560976,,,,,,,,,,,,,,,,,,32,,,,,,,,,,2,0,1,1,1,1,Walk in the sand in south carolina,Walk around the mall with my mom,0.02,0.02,1.1,1,0.02,3.6729,,,,,
,,6627722f249e56fcefd07b8c,6685aa9113c938e83b4f1ea0,66c900e693efe7a572effc53,2024-08-23_15h38.49.267,WTP_SM_Choice,2022.2.1,Win32,60.97560976,,,,,,,,,,,,,,,,,,33,,,,,,,,,,2,0,2,2,2,1,Walk the dogs with my mom,Listen to music while driving with the windows down,0.03,0.02,4.4,0,0.02,1.6956,,,,,
,,6627722f249e56fcefd07b8c,6685aa9113c938e83b4f1ea0,66c900e693efe7a572effc53,2024-08-23_15h38.49.267,WTP_SM_Choice,2022.2.1,Win32,60.97560976,,,,,,,,,,,,,,,,,,34,,,,,,,,,,2,0,3,3,3,1,Read a book at the park,Gril hamburgers outside with my dad,0.04,0.02,3.3,1,0.02,1.777,,,,,
,,6627722f249e56fcefd07b8c,6685aa9113c938e83b4f1ea0,66c900e693efe7a572effc53,2024-08-23_15h38.49.267,WTP_SM_Choice,2022.2.1,Win32,60.97560976,,,,,,,,,,,,,,,,,,35,,,,,,,,,,2,0,4,4,4,1,Drink iced tea on the front porch,Go to a concert with friends,0.05,0.02,1.1,1,0.02,1.5892,,,,,
,,6627722f249e56fcefd07b8c,6685aa9113c938e83b4f1ea0,66c900e693efe7a572effc53,2024-08-23_15h38.49.267,WTP_SM_Choice,2022.2.1,Win32,60.97560976,,,,,,,NAN,,NAN,0.69,5.31,,0,34,34,34,1,35,Sam,Rej,Participant_Images/6627722f249e56fcefd07b8c/6627722f249e56fcefd07b8c_Images/6627722f249e56fcefd07b8c_Image_6.jpeg,did not like,2.455989137,,,,,,,,,,,,,,,,,,,,,,,
,,6627722f249e56fcefd07b8c,6685aa9113c938e83b4f1ea0,66c900e693efe7a572effc53,2024-08-23_15h38.49.267,WTP_SM_Choice,2022.2.1,Win32,60.97560976,,,,,space,1.5257,NAN,,NAN,0.69,5.31,,0,35,35,35,1,36,Sam,Rej,Participant_Images/6627722f249e56fcefd07b8c/6627722f249e56fcefd07b8c_Images/6627722f249e56fcefd07b8c_Image_22.jpeg,liked,3.79605092,,,,,,,,,,,,,,,,,,,,,,,
,,6627722f249e56fcefd07b8c,6685aa9113c938e83b4f1ea0,66c900e693efe7a572effc53,2024-08-23_15h38.49.267,WTP_SM_Choice,2022.2.1,Win32,60.97560976,,,,,space,1.4367,NAN,,NAN,0.69,5.31,,0,36,36,36,1,37,Sam,Rej,Participant_Images/6627722f249e56fcefd07b8c/6627722f249e56fcefd07b8c_Images/6627722f249e56fcefd07b8c_Image_5.jpeg,liked,3.562416326,,,,,,,,,,,,,,,,,,,,,,,
,,6627722f249e56fcefd07b8c,6685aa9113c938e83b4f1ea0,66c900e693efe7a572effc53,2024-08-23_15h38.49.267,WTP_SM_Choice,2022.2.1,Win32,60.97560976,,,,,space,1.1513,NAN,,NAN,0.69,5.31,,0,37,37,37,1,38,Sam,Rej,Participant_Images/6627722f249e56fcefd07b8c/6627722f249e56fcefd07b8c_Images/6627722f249e56fcefd07b8c_Image_10.jpeg,did not like,2.843822497,,,,,,,,,,,,,,,,,,,,,,,
,,6627722f249e56fcefd07b8c,6685aa9113c938e83b4f1ea0,66c900e693efe7a572effc53,2024-08-23_15h38.49.267,WTP_SM_Choice,2022.2.1,Win32,60.97560976,,,,,space,0.3201,NAN,,NAN,0.69,5.31,,0,38,38,38,1,39,Sam,Rej,Participant_Images/6627722f249e56fcefd07b8c/6627722f249e56fcefd07b8c_Images/6627722f249e56fcefd07b8c_Image_14.jpeg,did not like,3.546495948,,,,,,,,,,,,,,,,,,,,,,,
,,6627722f249e56fcefd07b8c,6685aa9113c938e83b4f1ea0,66c900e693efe7a572effc53,2024-08-23_15h38.49.267,WTP_SM_Choice,2022.2.1,Win32,60.97560976,,,,,,,,,,,,,,,,,,36,,,,,,space,1.2328,space,0.4066,1,0,0,0,0,1,Walk in the sand in south carolina,Play outside with the cats with my boyfriend,0.01,0.03,3.3,1,0.01,1.1338,,,,,
,,6627722f249e56fcefd07b8c,6685aa9113c938e83b4f1ea0,66c900e693efe7a572effc53,2024-08-23_15h38.49.267,WTP_SM_Choice,2022.2.1,Win32,60.97560976,,,,,,,,,,,,,,,,,,37,,,,,,,,,,1,0,1,1,1,1,Swim in the ocean,Go to a concert with friends,0.02,0.03,1.1,1,0.02,1.6616,,,,,
,,6627722f249e56fcefd07b8c,6685aa9113c938e83b4f1ea0,66c900e693efe7a572effc53,2024-08-23_15h38.49.267,WTP_SM_Choice,2022.2.1,Win32,60.97560976,,,,,,,,,,,,,,,,,,38,,,,,,,,,,2,0,2,2,2,1,Listen to music while driving with the windows down,Go on a hike with my friends,0.03,0.03,1.1,1,0.03,2.4843,,,,,
,,6627722f249e56fcefd07b8c,6685aa9113c938e83b4f1ea0,66c900e693efe7a572effc53,2024-08-23_15h38.49.267,WTP_SM_Choice,2022.2.1,Win32,60.97560976,,,,,,,,,,,,,,,,,,39,,,,,,,,,,2,0,3,3,3,1,Go on a hike with my friends,Swim in the ocean,0.04,0.03,3.3,0,0.03,1.716,,,,,
,,6627722f249e56fcefd07b8c,6685aa9113c938e83b4f1ea0,66c900e693efe7a572effc53,2024-08-23_15h38.49.267,WTP_SM_Choice,2022.2.1,Win32,60.97560976,,,,,,,,,,,,,,,,,,40,,,,,,,,,,2,0,4,4,4,1,Play with my cats in my cool apartment,Play outside with the cats with my boyfriend,0.05,0.03,4.4,1,0.03,1.6567,,,,,
,,6627722f249e56fcefd07b8c,6685aa9113c938e83b4f1ea0,66c900e693efe7a572effc53,2024-08-23_15h38.49.267,WTP_SM_Choice,2022.2.1,Win32,60.97560976,,,,,,,NAN,,NAN,0.81,5.19,,0,39,39,39,1,40,Sam,Rej,Participant_Images/6627722f249e56fcefd07b8c/6627722f249e56fcefd07b8c_Images/6627722f249e56fcefd07b8c_Image_12.jpeg,liked,1.672012706,,,,,,,,,,,,,,,,,,,,,,,
,,6627722f249e56fcefd07b8c,6685aa9113c938e83b4f1ea0,66c900e693efe7a572effc53,2024-08-23_15h38.49.267,WTP_SM_Choice,2022.2.1,Win32,60.97560976,,,,,space,0.018,NAN,,NAN,0.81,5.19,,0,40,40,40,1,41,Sam,Rej,Participant_Images/6627722f249e56fcefd07b8c/6627722f249e56fcefd07b8c_Images/6627722f249e56fcefd07b8c_Image_18.jpeg,did not like,4.942172136,,,,,,,,,,,,,,,,,,,,,,,
,,6627722f249e56fcefd07b8c,6685aa9113c938e83b4f1ea0,66c900e693efe7a572effc53,2024-08-23_15h38.49.267,WTP_SM_Choice,2022.2.1,Win32,60.97560976,,,,,space,2.9152,NAN,,NAN,0.81,5.19,,0,41,41,41,1,42,Sam,Rej,Participant_Images/6627722f249e56fcefd07b8c/6627722f249e56fcefd07b8c_Images/6627722f249e56fcefd07b8c_Image_20.jpeg,did not like,2.50187214,,,,,,,,,,,,,,,,,,,,,,,
,,6627722f249e56fcefd07b8c,6685aa9113c938e83b4f1ea0,66c900e693efe7a572effc53,2024-08-23_15h38.49.267,WTP_SM_Choice,2022.2.1,Win32,60.97560976,,,,,space,0.634,NAN,,NAN,0.81,5.19,,0,42,42,42,1,43,Sam,Rej,Participant_Images/6627722f249e56fcefd07b8c/6627722f249e56fcefd07b8c_Images/6627722f249e56fcefd07b8c_Image_9.jpeg,did not like,2.071164779,,,,,,,,,,,,,,,,,,,,,,,
,,6627722f249e56fcefd07b8c,6685aa9113c938e83b4f1ea0,66c900e693efe7a572effc53,2024-08-23_15h38.49.267,WTP_SM_Choice,2022.2.1,Win32,60.97560976,,,,,space,1.0385,NAN,,NAN,0.81,5.19,,0,43,43,43,1,44,Sam,Rej,Participant_Images/6627722f249e56fcefd07b8c/6627722f249e56fcefd07b8c_Images/6627722f249e56fcefd07b8c_Image_4.jpeg,did not like,5.336503566,,,,,,,,,,,,,,,,,,,,,,,
,,6627722f249e56fcefd07b8c,6685aa9113c938e83b4f1ea0,66c900e693efe7a572effc53,2024-08-23_15h38.49.267,WTP_SM_Choice,2022.2.1,Win32,60.97560976,,,,,,,,,,,,,,,,,,41,,,,,,space,0.3441,space,0.4817,1,0,0,0,0,1,Read a book at the park,Swim at the pool with my siblings,0.01,0.04,1.1,1,0.01,1.0923,,,,,
,,6627722f249e56fcefd07b8c,6685aa9113c938e83b4f1ea0,66c900e693efe7a572effc53,2024-08-23_15h38.49.267,WTP_SM_Choice,2022.2.1,Win32,60.97560976,,,,,,,,,,,,,,,,,,42,,,,,,,,,,1,0,1,1,1,1,Walk the dogs with my mom,Write poetry underneath the shade of a willow tree,0.02,0.04,3.3,0,0.02,1.3331,,,,,
,,6627722f249e56fcefd07b8c,6685aa9113c938e83b4f1ea0,66c900e693efe7a572effc53,2024-08-23_15h38.49.267,WTP_SM_Choice,2022.2.1,Win32,60.97560976,,,,,,,,,,,,,,,,,,43,,,,,,,,,,1,0,2,2,2,1,Walk around the mall with my mom,Drink iced tea on the front porch,0.03,0.04,1.1,0,0.03,0.8791,,,,,
,,6627722f249e56fcefd07b8c,6685aa9113c938e83b4f1ea0,66c900e693efe7a572effc53,2024-08-23_15h38.49.267,WTP_SM_Choice,2022.2.1,Win32,60.97560976,,,,,,,,,,,,,,,,,,44,,,,,,,,,,2,0,3,3,3,1,Go camping with my boyfriend,Hike at red rocks at night in the summer,0.04,0.04,1.1,0,0.04,2.1339,,,,,
,,6627722f249e56fcefd07b8c,6685aa9113c938e83b4f1ea0,66c900e693efe7a572effc53,2024-08-23_15h38.49.267,WTP_SM_Choice,2022.2.1,Win32,60.97560976,,,,,,,,,,,,,,,,,,45,,,,,,,,,,2,0,4,4,4,1,Listen to music while driving with the windows down,Go camping with my boyfriend,0.05,0.04,4.4,1,0.04,1.9811,,,,,
,,6627722f249e56fcefd07b8c,6685aa9113c938e83b4f1ea0,66c900e693efe7a572effc53,2024-08-23_15h38.49.267,WTP_SM_Choice,2022.2.1,Win32,60.97560976,,,,,,,NAN,,NAN,0.95,5.05,,0,44,44,44,1,45,Sam,Rej,Participant_Images/6627722f249e56fcefd07b8c/6627722f249e56fcefd07b8c_Images/6627722f249e56fcefd07b8c_Image_23.jpeg,did not like,2.642157193,,,,,,,,,,,,,,,,,,,,,,,
,,6627722f249e56fcefd07b8c,6685aa9113c938e83b4f1ea0,66c900e693efe7a572effc53,2024-08-23_15h38.49.267,WTP_SM_Choice,2022.2.1,Win32,60.97560976,,,,,space,1.7003,NAN,,NAN,0.95,5.05,,0,45,45,45,1,46,Sam,Rej,Participant_Images/6627722f249e56fcefd07b8c/6627722f249e56fcefd07b8c_Images/6627722f249e56fcefd07b8c_Image_3.jpeg,did not like,4.456234322,,,,,,,,,,,,,,,,,,,,,,,
,,6627722f249e56fcefd07b8c,6685aa9113c938e83b4f1ea0,66c900e693efe7a572effc53,2024-08-23_15h38.49.267,WTP_SM_Choice,2022.2.1,Win32,60.97560976,,,,,space,0.2827,NAN,,NAN,0.95,5.05,,0,46,46,46,1,47,Sam,Rej,Participant_Images/6627722f249e56fcefd07b8c/6627722f249e56fcefd07b8c_Images/6627722f249e56fcefd07b8c_Image_21.jpeg,did not like,4.438512181,,,,,,,,,,,,,,,,,,,,,,,
,,6627722f249e56fcefd07b8c,6685aa9113c938e83b4f1ea0,66c900e693efe7a572effc53,2024-08-23_15h38.49.267,WTP_SM_Choice,2022.2.1,Win32,60.97560976,,,,,space,1.3836,NAN,,NAN,0.95,5.05,,0,47,47,47,1,48,Sam,Rej,Participant_Images/6627722f249e56fcefd07b8c/6627722f249e56fcefd07b8c_Images/6627722f249e56fcefd07b8c_Image_24.jpeg,liked,2.682944783,,,,,,,,,,,,,,,,,,,,,,,
,,6627722f249e56fcefd07b8c,6685aa9113c938e83b4f1ea0,66c900e693efe7a572effc53,2024-08-23_15h38.49.267,WTP_SM_Choice,2022.2.1,Win32,60.97560976,,,,,space,1.3054,NAN,,NAN,0.95,5.05,,0,48,48,48,1,49,Sam,Rej,Participant_Images/6627722f249e56fcefd07b8c/6627722f249e56fcefd07b8c_Images/6627722f249e56fcefd07b8c_Image_2.jpeg,did not like,4.51984296,,,,,,,,,,,,,,,,,,,,,,,
,,6627722f249e56fcefd07b8c,6685aa9113c938e83b4f1ea0,66c900e693efe7a572effc53,2024-08-23_15h38.49.267,WTP_SM_Choice,2022.2.1,Win32,60.97560976,,,,,,,,,,,,,,,,,,46,,,,,,space,0.7393,space,0.5193,1,0,0,0,0,1,Play with my cats in my cool apartment,Gril hamburgers outside with my dad,0.01,0.05,8.8,1,0.01,1.7133,,,,,
,,6627722f249e56fcefd07b8c,6685aa9113c938e83b4f1ea0,66c900e693efe7a572effc53,2024-08-23_15h38.49.267,WTP_SM_Choice,2022.2.1,Win32,60.97560976,,,,,,,,,,,,,,,,,,47,,,,,,,,,,1,0,1,1,1,1,Drink iced tea on the front porch,Play outside with the cats with my boyfriend,0.02,0.05,1.1,1,0.02,1.1935,,,,,
,,6627722f249e56fcefd07b8c,6685aa9113c938e83b4f1ea0,66c900e693efe7a572effc53,2024-08-23_15h38.49.267,WTP_SM_Choice,2022.2.1,Win32,60.97560976,,,,,,,,,,,,,,,,,,48,,,,,,,,,,1,0,2,2,2,1,Drink iced tea on the front porch,Gril hamburgers outside with my dad,0.03,0.05,4.4,1,0.03,1.7776,,,,,
,,6627722f249e56fcefd07b8c,6685aa9113c938e83b4f1ea0,66c900e693efe7a572effc53,2024-08-23_15h38.49.267,WTP_SM_Choice,2022.2.1,Win32,60.97560976,,,,,,,,,,,,,,,,,,49,,,,,,,,,,1,0,3,3,3,1,Play outside with the cats with my boyfriend,Walk around downtown denver,0.04,0.05,3.3,0,0.04,1.3896,,,,,
,,6627722f249e56fcefd07b8c,6685aa9113c938e83b4f1ea0,66c900e693efe7a572effc53,2024-08-23_15h38.49.267,WTP_SM_Choice,2022.2.1,Win32,60.97560976,,,,,,,,,,,,,,,,,,50,,,,,,,,,,2,0,4,4,4,1,Walk in the sand in south carolina,Go to a concert with friends,0.05,0.05,1.1,1,0.05,2.2304,,,,,
,,6627722f249e56fcefd07b8c,6685aa9113c938e83b4f1ea0,66c900e693efe7a572effc53,2024-08-23_15h38.49.267,WTP_SM_Choice,2022.2.1,Win32,60.97560976,,,,,,,3,,3,1.1,4.9,,0,49,49,49,1,50,Sam,Rej,Participant_Images/6627722f249e56fcefd07b8c/6627722f249e56fcefd07b8c_Images/6627722f249e56fcefd07b8c_Image_25.jpeg,did not like,3.195382774,,,,,,,,,,,,,,,,,,,space,1.8551,,,
,,6627722f249e56fcefd07b8c,6685aa9113c938e83b4f1ea0,66c900e693efe7a572effc53,2024-08-23_15h38.49.267,WTP_SM_Choice,2022.2.1,Win32,60.97560976,,,space,2.2888,space,0.6664,NAN,,NAN,1.1,4.9,,0,50,50,50,1,51,Charlie,Rej,Participant_Images/6627722f249e56fcefd07b8c/6627722f249e56fcefd07b8c_Images/6627722f249e56fcefd07b8c_Image_25.jpeg,did not like,1.779333479,,,,,,,,,,,,,,,,,,,,,,,
,,6627722f249e56fcefd07b8c,6685aa9113c938e83b4f1ea0,66c900e693efe7a572effc53,2024-08-23_15h38.49.267,WTP_SM_Choice,2022.2.1,Win32,60.97560976,,,,,space,0.3377,NAN,,NAN,1.1,4.9,,0,51,51,51,1,52,Charlie,Rej,Participant_Images/6627722f249e56fcefd07b8c/6627722f249e56fcefd07b8c_Images/6627722f249e56fcefd07b8c_Image_11.jpeg,liked,4.312468682,,,,,,,,,,,,,,,,,,,,,,,
,,6627722f249e56fcefd07b8c,6685aa9113c938e83b4f1ea0,66c900e693efe7a572effc53,2024-08-23_15h38.49.267,WTP_SM_Choice,2022.2.1,Win32,60.97560976,,,,,space,1.1555,NAN,,NAN,1.1,4.9,,0,52,52,52,1,53,Charlie,Rej,Participant_Images/6627722f249e56fcefd07b8c/6627722f249e56fcefd07b8c_Images/6627722f249e56fcefd07b8c_Image_17.jpeg,did not like,4.940433059,,,,,,,,,,,,,,,,,,,,,,,
,,6627722f249e56fcefd07b8c,6685aa9113c938e83b4f1ea0,66c900e693efe7a572effc53,2024-08-23_15h38.49.267,WTP_SM_Choice,2022.2.1,Win32,60.97560976,,,,,space,1.4667,NAN,,NAN,1.1,4.9,,0,53,53,53,1,54,Charlie,Rej,Participant_Images/6627722f249e56fcefd07b8c/6627722f249e56fcefd07b8c_Images/6627722f249e56fcefd07b8c_Image_18.jpeg,liked,2.7105123,,,,,,,,,,,,,,,,,,,,,,,
,,6627722f249e56fcefd07b8c,6685aa9113c938e83b4f1ea0,66c900e693efe7a572effc53,2024-08-23_15h38.49.267,WTP_SM_Choice,2022.2.1,Win32,60.97560976,,,,,,,,,,,,,,,,,,51,,,,,,space,0.5481,space,0.3597,1,0,0,0,0,1,Walk in the sand in south carolina,Walk the dogs with my mom,0.01,0.01,1.1,1,0.01,1.0782,,,,,
,,6627722f249e56fcefd07b8c,6685aa9113c938e83b4f1ea0,66c900e693efe7a572effc53,2024-08-23_15h38.49.267,WTP_SM_Choice,2022.2.1,Win32,60.97560976,,,,,,,,,,,,,,,,,,52,,,,,,,,,,2,0,1,1,1,1,Play outside with the cats with my boyfriend,Write poetry underneath the shade of a willow tree,0.02,0.01,3.3,0,0.01,2.4671,,,,,
,,6627722f249e56fcefd07b8c,6685aa9113c938e83b4f1ea0,66c900e693efe7a572effc53,2024-08-23_15h38.49.267,WTP_SM_Choice,2022.2.1,Win32,60.97560976,,,,,,,,,,,,,,,,,,53,,,,,,,,,,2,0,2,2,2,1,Take photos of nature with my friends,Drink iced tea on the front porch,0.03,0.01,1.1,0,0.01,2.5654,,,,,
,,6627722f249e56fcefd07b8c,6685aa9113c938e83b4f1ea0,66c900e693efe7a572effc53,2024-08-23_15h38.49.267,WTP_SM_Choice,2022.2.1,Win32,60.97560976,,,,,,,,,,,,,,,,,,54,,,,,,,,,,2,0,3,3,3,1,Take photos of nature with my friends,Walk in the sand in south carolina,0.04,0.01,4.4,0,0.01,1.1815,,,,,
,,6627722f249e56fcefd07b8c,6685aa9113c938e83b4f1ea0,66c900e693efe7a572effc53,2024-08-23_15h38.49.267,WTP_SM_Choice,2022.2.1,Win32,60.97560976,,,,,,,,,,,,,,,,,,55,,,,,,,,,,2,0,4,4,4,1,Write poetry underneath the shade of a willow tree,Go camping with my boyfriend,0.05,0.01,1.1,1,0.01,0.6285,,,,,
,,6627722f249e56fcefd07b8c,6685aa9113c938e83b4f1ea0,66c900e693efe7a572effc53,2024-08-23_15h38.49.267,WTP_SM_Choice,2022.2.1,Win32,60.97560976,,,,,,,NAN,,NAN,1.15,4.85,,0,54,54,54,1,55,Charlie,Rej,Participant_Images/6627722f249e56fcefd07b8c/6627722f249e56fcefd07b8c_Images/6627722f249e56fcefd07b8c_Image_20.jpeg,did not like,3.602308302,,,,,,,,,,,,,,,,,,,,,,,
,,6627722f249e56fcefd07b8c,6685aa9113c938e83b4f1ea0,66c900e693efe7a572effc53,2024-08-23_15h38.49.267,WTP_SM_Choice,2022.2.1,Win32,60.97560976,,,,,space,1.7692,NAN,,NAN,1.15,4.85,,0,55,55,55,1,56,Charlie,Rej,Participant_Images/6627722f249e56fcefd07b8c/6627722f249e56fcefd07b8c_Images/6627722f249e56fcefd07b8c_Image_1.jpeg,did not like,4.106391878,,,,,,,,,,,,,,,,,,,,,,,
,,6627722f249e56fcefd07b8c,6685aa9113c938e83b4f1ea0,66c900e693efe7a572effc53,2024-08-23_15h38.49.267,WTP_SM_Choice,2022.2.1,Win32,60.97560976,,,,,space,0.9694,NAN,,NAN,1.15,4.85,,0,56,56,56,1,57,Charlie,Rej,Participant_Images/6627722f249e56fcefd07b8c/6627722f249e56fcefd07b8c_Images/6627722f249e56fcefd07b8c_Image_19.jpeg,did not like,3.799433026,,,,,,,,,,,,,,,,,,,,,,,
,,6627722f249e56fcefd07b8c,6685aa9113c938e83b4f1ea0,66c900e693efe7a572effc53,2024-08-23_15h38.49.267,WTP_SM_Choice,2022.2.1,Win32,60.97560976,,,,,space,0.2919,NAN,,NAN,1.15,4.85,,0,57,57,57,1,58,Charlie,Rej,Participant_Images/6627722f249e56fcefd07b8c/6627722f249e56fcefd07b8c_Images/6627722f249e56fcefd07b8c_Image_24.jpeg,did not like,5.246980764,,,,,,,,,,,,,,,,,,,,,,,
,,6627722f249e56fcefd07b8c,6685aa9113c938e83b4f1ea0,66c900e693efe7a572effc53,2024-08-23_15h38.49.267,WTP_SM_Choice,2022.2.1,Win32,60.97560976,,,,,space,1.5888,NAN,,NAN,1.15,4.85,,0,58,58,58,1,59,Charlie,Rej,Participant_Images/6627722f249e56fcefd07b8c/6627722f249e56fcefd07b8c_Images/6627722f249e56fcefd07b8c_Image_23.jpeg,liked,3.30081769,,,,,,,,,,,,,,,,,,,,,,,
,,6627722f249e56fcefd07b8c,6685aa9113c938e83b4f1ea0,66c900e693efe7a572effc53,2024-08-23_15h38.49.267,WTP_SM_Choice,2022.2.1,Win32,60.97560976,,,,,,,,,,,,,,,,,,56,,,,,,space,0.3044,space,0.2721,1,0,0,0,0,1,Take photos of nature with my friends,Write poetry underneath the shade of a willow tree,0.01,0.02,8.8,0,0.01,1.0286,,,,,
,,6627722f249e56fcefd07b8c,6685aa9113c938e83b4f1ea0,66c900e693efe7a572effc53,2024-08-23_15h38.49.267,WTP_SM_Choice,2022.2.1,Win32,60.97560976,,,,,,,,,,,,,,,,,,57,,,,,,,,,,1,0,1,1,1,1,Read a book at the park,Walk around the mall with my mom,0.02,0.02,4.4,1,0.02,2.4268,,,,,
,,6627722f249e56fcefd07b8c,6685aa9113c938e83b4f1ea0,66c900e693efe7a572effc53,2024-08-23_15h38.49.267,WTP_SM_Choice,2022.2.1,Win32,60.97560976,,,,,,,,,,,,,,,,,,58,,,,,,,,,,2,0,2,2,2,1,Drink iced tea on the front porch,Go camping with my boyfriend,0.03,0.02,4.4,1,0.02,1.4416,,,,,
,,6627722f249e56fcefd07b8c,6685aa9113c938e83b4f1ea0,66c900e693efe7a572effc53,2024-08-23_15h38.49.267,WTP_SM_Choice,2022.2.1,Win32,60.97560976,,,,,,,,,,,,,,,,,,59,,,,,,,,,,2,0,3,3,3,1,Read a book at the park,Go on a hike with my friends,0.04,0.02,4.4,1,0.02,1.4394,,,,,
,,6627722f249e56fcefd07b8c,6685aa9113c938e83b4f1ea0,66c900e693efe7a572effc53,2024-08-23_15h38.49.267,WTP_SM_Choice,2022.2.1,Win32,60.97560976,,,,,,,,,,,,,,,,,,60,,,,,,,,,,2,0,4,4,4,1,Gril hamburgers outside with my dad,Listen to music while driving with the windows down,0.05,0.02,1.1,0,0.02,1.3759,,,,,
,,6627722f249e56fcefd07b8c,6685aa9113c938e83b4f1ea0,66c900e693efe7a572effc53,2024-08-23_15h38.49.267,WTP_SM_Choice,2022.2.1,Win32,60.97560976,,,,,,,NAN,,NAN,1.24,4.76,,0,59,59,59,1,60,Charlie,Rej,Participant_Images/6627722f249e56fcefd07b8c/6627722f249e56fcefd07b8c_Images/6627722f249e56fcefd07b8c_Image_2.jpeg,did not like,1.661473164,,,,,,,,,,,,,,,,,,,,,,,
,,6627722f249e56fcefd07b8c,6685aa9113c938e83b4f1ea0,66c900e693efe7a572effc53,2024-08-23_15h38.49.267,WTP_SM_Choice,2022.2.1,Win32,60.97560976,,,,,space,0.8542,NAN,,NAN,1.24,4.76,,0,60,60,60,1,61,Charlie,Rej,Participant_Images/6627722f249e56fcefd07b8c/6627722f249e56fcefd07b8c_Images/6627722f249e56fcefd07b8c_Image_4.jpeg,did not like,3.613205605,,,,,,,,,,,,,,,,,,,,,,,
,,6627722f249e56fcefd07b8c,6685aa9113c938e83b4f1ea0,66c900e693efe7a572effc53,2024-08-23_15h38.49.267,WTP_SM_Choice,2022.2.1,Win32,60.97560976,,,,,space,0.8402,NAN,,NAN,1.24,4.76,,0,61,61,61,1,62,Charlie,Rej,Participant_Images/6627722f249e56fcefd07b8c/6627722f249e56fcefd07b8c_Images/6627722f249e56fcefd07b8c_Image_9.jpeg,liked,4.988446431,,,,,,,,,,,,,,,,,,,,,,,
,,6627722f249e56fcefd07b8c,6685aa9113c938e83b4f1ea0,66c900e693efe7a572effc53,2024-08-23_15h38.49.267,WTP_SM_Choice,2022.2.1,Win32,60.97560976,,,,,space,1.7326,NAN,,NAN,1.24,4.76,,0,62,62,62,1,63,Charlie,Rej,Participant_Images/6627722f249e56fcefd07b8c/6627722f249e56fcefd07b8c_Images/6627722f249e56fcefd07b8c_Image_14.jpeg,did not like,3.470791822,,,,,,,,,,,,,,,,,,,,,,,
,,6627722f249e56fcefd07b8c,6685aa9113c938e83b4f1ea0,66c900e693efe7a572effc53,2024-08-23_15h38.49.267,WTP_SM_Choice,2022.2.1,Win32,60.97560976,,,,,space,4.0504,NAN,,NAN,1.24,4.76,,0,63,63,63,1,64,Charlie,Rej,Participant_Images/6627722f249e56fcefd07b8c/6627722f249e56fcefd07b8c_Images/6627722f249e56fcefd07b8c_Image_13.jpeg,did not like,3.820572462,,,,,,,,,,,,,,,,,,,,,,,
,,6627722f249e56fcefd07b8c,6685aa9113c938e83b4f1ea0,66c900e693efe7a572effc53,2024-08-23_15h38.49.267,WTP_SM_Choice,2022.2.1,Win32,60.97560976,,,,,,,,,,,,,,,,,,61,,,,,,space,1.0496,space,0.3316,1,0,0,0,0,1,Hike at red rocks at night in the summer,Go to a concert with friends,0.01,0.03,3.3,1,0.01,1.0106,,,,,
,,6627722f249e56fcefd07b8c,6685aa9113c938e83b4f1ea0,66c900e693efe7a572effc53,2024-08-23_15h38.49.267,WTP_SM_Choice,2022.2.1,Win32,60.97560976,,,,,,,,,,,,,,,,,,62,,,,,,,,,,1,0,1,1,1,1,Take photos of nature with my friends,Read a book at the park,0.02,0.03,3.3,0,0.02,1.339,,,,,
,,6627722f249e56fcefd07b8c,6685aa9113c938e83b4f1ea0,66c900e693efe7a572effc53,2024-08-23_15h38.49.267,WTP_SM_Choice,2022.2.1,Win32,60.97560976,,,,,,,,,,,,,,,,,,63,,,,,,,,,,2,0,2,2,2,1,Walk around downtown denver,Go on a hike with my friends,0.03,0.03,3.3,1,0.03,2.0813,,,,,
,,6627722f249e56fcefd07b8c,6685aa9113c938e83b4f1ea0,66c900e693efe7a572effc53,2024-08-23_15h38.49.267,WTP_SM_Choice,2022.2.1,Win32,60.97560976,,,,,,,,,,,,,,,,,,64,,,,,,,,,,2,0,3,3,3,1,Go on a hike with my friends,Play with my cats in my cool apartment,0.04,0.03,1.1,0,0.03,1.3089,,,,,
,,6627722f249e56fcefd07b8c,6685aa9113c938e83b4f1ea0,66c900e693efe7a572effc53,2024-08-23_15h38.49.267,WTP_SM_Choice,2022.2.1,Win32,60.97560976,,,,,,,,,,,,,,,,,,65,,,,,,,,,,2,0,4,4,4,1,Do yoga early in the morning outside,Play outside with the cats with my boyfriend,0.05,0.03,1.1,1,0.03,1.1825,,,,,
,,6627722f249e56fcefd07b8c,6685aa9113c938e83b4f1ea0,66c900e693efe7a572effc53,2024-08-23_15h38.49.267,WTP_SM_Choice,2022.2.1,Win32,60.97560976,,,,,,,NAN,,NAN,1.36,4.64,,0,64,64,64,1,65,Charlie,Rej,Participant_Images/6627722f249e56fcefd07b8c/6627722f249e56fcefd07b8c_Images/6627722f249e56fcefd07b8c_Image_12.jpeg,did not like,2.455989137,,,,,,,,,,,,,,,,,,,,,,,
,,6627722f249e56fcefd07b8c,6685aa9113c938e83b4f1ea0,66c900e693efe7a572effc53,2024-08-23_15h38.49.267,WTP_SM_Choice,2022.2.1,Win32,60.97560976,,,,,space,1.1011,NAN,,NAN,1.36,4.64,,0,65,65,65,1,66,Charlie,Rej,Participant_Images/6627722f249e56fcefd07b8c/6627722f249e56fcefd07b8c_Images/6627722f249e56fcefd07b8c_Image_21.jpeg,liked,3.79605092,,,,,,,,,,,,,,,,,,,,,,,
,,6627722f249e56fcefd07b8c,6685aa9113c938e83b4f1ea0,66c900e693efe7a572effc53,2024-08-23_15h38.49.267,WTP_SM_Choice,2022.2.1,Win32,60.97560976,,,,,space,0.5597,NAN,,NAN,1.36,4.64,,0,66,66,66,1,67,Charlie,Rej,Participant_Images/6627722f249e56fcefd07b8c/6627722f249e56fcefd07b8c_Images/6627722f249e56fcefd07b8c_Image_15.jpeg,did not like,3.562416326,,,,,,,,,,,,,,,,,,,,,,,
,,6627722f249e56fcefd07b8c,6685aa9113c938e83b4f1ea0,66c900e693efe7a572effc53,2024-08-23_15h38.49.267,WTP_SM_Choice,2022.2.1,Win32,60.97560976,,,,,space,0.3159,NAN,,NAN,1.36,4.64,,0,67,67,67,1,68,Charlie,Rej,Participant_Images/6627722f249e56fcefd07b8c/6627722f249e56fcefd07b8c_Images/6627722f249e56fcefd07b8c_Image_16.jpeg,did not like,2.843822497,,,,,,,,,,,,,,,,,,,,,,,
,,6627722f249e56fcefd07b8c,6685aa9113c938e83b4f1ea0,66c900e693efe7a572effc53,2024-08-23_15h38.49.267,WTP_SM_Choice,2022.2.1,Win32,60.97560976,,,,,space,0.2436,NAN,,NAN,1.36,4.64,,0,68,68,68,1,69,Charlie,Rej,Participant_Images/6627722f249e56fcefd07b8c/6627722f249e56fcefd07b8c_Images/6627722f249e56fcefd07b8c_Image_8.jpeg,did not like,3.546495948,,,,,,,,,,,,,,,,,,,,,,,
,,6627722f249e56fcefd07b8c,6685aa9113c938e83b4f1ea0,66c900e693efe7a572effc53,2024-08-23_15h38.49.267,WTP_SM_Choice,2022.2.1,Win32,60.97560976,,,,,,,,,,,,,,,,,,66,,,,,,space,2.391,space,0.4346,1,0,0,0,0,1,Play with my cats in my cool apartment,Walk the dogs with my mom,0.01,0.04,1.1,1,0.01,1.1585,,,,,
,,6627722f249e56fcefd07b8c,6685aa9113c938e83b4f1ea0,66c900e693efe7a572effc53,2024-08-23_15h38.49.267,WTP_SM_Choice,2022.2.1,Win32,60.97560976,,,,,,,,,,,,,,,,,,67,,,,,,,,,,1,0,1,1,1,1,Swim at the pool with my siblings,Walk around downtown denver,0.02,0.04,8.8,0,0.02,1.5098,,,,,
,,6627722f249e56fcefd07b8c,6685aa9113c938e83b4f1ea0,66c900e693efe7a572effc53,2024-08-23_15h38.49.267,WTP_SM_Choice,2022.2.1,Win32,60.97560976,,,,,,,,,,,,,,,,,,68,,,,,,,,,,1,0,2,2,2,1,Walk the dogs with my mom,Hike at red rocks at night in the summer,0.03,0.04,4.4,0,0.03,1.6768,,,,,
,,6627722f249e56fcefd07b8c,6685aa9113c938e83b4f1ea0,66c900e693efe7a572effc53,2024-08-23_15h38.49.267,WTP_SM_Choice,2022.2.1,Win32,60.97560976,,,,,,,,,,,,,,,,,,69,,,,,,,,,,2,0,3,3,3,1,Go camping with my boyfriend,Walk around downtown denver,0.04,0.04,1.1,0,0.04,2.0054,,,,,
,,6627722f249e56fcefd07b8c,6685aa9113c938e83b4f1ea0,66c900e693efe7a572effc53,2024-08-23_15h38.49.267,WTP_SM_Choice,2022.2.1,Win32,60.97560976,,,,,,,,,,,,,,,,,,70,,,,,,,,,,2,0,4,4,4,1,Gril hamburgers outside with my dad,Swim in the ocean,0.05,0.04,1.1,0,0.04,1.9158,,,,,
,,6627722f249e56fcefd07b8c,6685aa9113c938e83b4f1ea0,66c900e693efe7a572effc53,2024-08-23_15h38.49.267,WTP_SM_Choice,2022.2.1,Win32,60.97560976,,,,,,,NAN,,NAN,1.5,4.5,,0,69,69,69,1,70,Charlie,Rej,Participant_Images/6627722f249e56fcefd07b8c/6627722f249e56fcefd07b8c_Images/6627722f249e56fcefd07b8c_Image_5.jpeg,liked,1.672012706,,,,,,,,,,,,,,,,,,,,,,,
,,6627722f249e56fcefd07b8c,6685aa9113c938e83b4f1ea0,66c900e693efe7a572effc53,2024-08-23_15h38.49.267,WTP_SM_Choice,2022.2.1,Win32,60.97560976,,,,,space,0.3059,NAN,,NAN,1.5,4.5,,0,70,70,70,1,71,Charlie,Rej,Participant_Images/6627722f249e56fcefd07b8c/6627722f249e56fcefd07b8c_Images/6627722f249e56fcefd07b8c_Image_6.jpeg,did not like,4.942172136,,,,,,,,,,,,,,,,,,,,,,,
,,6627722f249e56fcefd07b8c,6685aa9113c938e83b4f1ea0,66c900e693efe7a572effc53,2024-08-23_15h38.49.267,WTP_SM_Choice,2022.2.1,Win32,60.97560976,,,,,space,0.2503,NAN,,NAN,1.5,4.5,,0,71,71,71,1,72,Charlie,Rej,Participant_Images/6627722f249e56fcefd07b8c/6627722f249e56fcefd07b8c_Images/6627722f249e56fcefd07b8c_Image_3.jpeg,did not like,2.50187214,,,,,,,,,,,,,,,,,,,,,,,
,,6627722f249e56fcefd07b8c,6685aa9113c938e83b4f1ea0,66c900e693efe7a572effc53,2024-08-23_15h38.49.267,WTP_SM_Choice,2022.2.1,Win32,60.97560976,,,,,space,0.3594,NAN,,NAN,1.5,4.5,,0,72,72,72,1,73,Charlie,Rej,Participant_Images/6627722f249e56fcefd07b8c/6627722f249e56fcefd07b8c_Images/6627722f249e56fcefd07b8c_Image_22.jpeg,did not like,2.071164779,,,,,,,,,,,,,,,,,,,,,,,
,,6627722f249e56fcefd07b8c,6685aa9113c938e83b4f1ea0,66c900e693efe7a572effc53,2024-08-23_15h38.49.267,WTP_SM_Choice,2022.2.1,Win32,60.97560976,,,,,space,0.7004,NAN,,NAN,1.5,4.5,,0,73,73,73,1,74,Charlie,Rej,Participant_Images/6627722f249e56fcefd07b8c/6627722f249e56fcefd07b8c_Images/6627722f249e56fcefd07b8c_Image_10.jpeg,did not like,5.336503566,,,,,,,,,,,,,,,,,,,,,,,
,,6627722f249e56fcefd07b8c,6685aa9113c938e83b4f1ea0,66c900e693efe7a572effc53,2024-08-23_15h38.49.267,WTP_SM_Choice,2022.2.1,Win32,60.97560976,,,,,,,,,,,,,,,,,,71,,,,,,space,1.854,space,0.2979,1,0,0,0,0,1,Go camping with my boyfriend,Walk in the sand in south carolina,0.01,0.05,3.3,0,0.01,0.9823,,,,,
,,6627722f249e56fcefd07b8c,6685aa9113c938e83b4f1ea0,66c900e693efe7a572effc53,2024-08-23_15h38.49.267,WTP_SM_Choice,2022.2.1,Win32,60.97560976,,,,,,,,,,,,,,,,,,72,,,,,,,,,,1,0,1,1,1,1,Write poetry underneath the shade of a willow tree,Go on a hike with my friends,0.02,0.05,8.8,1,0.02,1.8912,,,,,
,,6627722f249e56fcefd07b8c,6685aa9113c938e83b4f1ea0,66c900e693efe7a572effc53,2024-08-23_15h38.49.267,WTP_SM_Choice,2022.2.1,Win32,60.97560976,,,,,,,,,,,,,,,,,,73,,,,,,,,,,1,0,2,2,2,1,Walk around the mall with my mom,Play with my cats in my cool apartment,0.03,0.05,3.3,0,0.03,1.8407,,,,,
,,6627722f249e56fcefd07b8c,6685aa9113c938e83b4f1ea0,66c900e693efe7a572effc53,2024-08-23_15h38.49.267,WTP_SM_Choice,2022.2.1,Win32,60.97560976,,,,,,,,,,,,,,,,,,74,,,,,,,,,,1,0,3,3,3,1,Swim at the pool with my siblings,Play with my cats in my cool apartment,0.04,0.05,4.4,0,0.04,1.628,,,,,
,,6627722f249e56fcefd07b8c,6685aa9113c938e83b4f1ea0,66c900e693efe7a572effc53,2024-08-23_15h38.49.267,WTP_SM_Choice,2022.2.1,Win32,60.97560976,,,,,,,,,,,,,,,,,,75,,,,,,,,,,1,0,4,4,4,1,Do yoga early in the morning outside,Walk the dogs with my mom,0.05,0.05,3.3,1,0.05,2.4554,,,,,
,,6627722f249e56fcefd07b8c,6685aa9113c938e83b4f1ea0,66c900e693efe7a572effc53,2024-08-23_15h38.49.267,WTP_SM_Choice,2022.2.1,Win32,60.97560976,,,,,,,3,,3,1.65,4.35,,0,74,74,74,1,75,Charlie,Rej,Participant_Images/6627722f249e56fcefd07b8c/6627722f249e56fcefd07b8c_Images/6627722f249e56fcefd07b8c_Image_7.jpeg,liked,2.642157193,,,,,,,,,,,,,,,,,,,space,6.077,,,
,,6627722f249e56fcefd07b8c,6685aa9113c938e83b4f1ea0,66c900e693efe7a572effc53,2024-08-23_15h38.49.267,WTP_SM_Choice,2022.2.1,Win32,60.97560976,,,space,1.7872,space,1.0168,NAN,,NAN,1.65,4.35,,0,75,75,75,1,76,Alex,Acc,Participant_Images/6627722f249e56fcefd07b8c/6627722f249e56fcefd07b8c_Images/6627722f249e56fcefd07b8c_Image_9.jpeg,liked,4.456234322,,,,,,,,,,,,,,,,,,,,,,,
,,6627722f249e56fcefd07b8c,6685aa9113c938e83b4f1ea0,66c900e693efe7a572effc53,2024-08-23_15h38.49.267,WTP_SM_Choice,2022.2.1,Win32,60.97560976,,,,,space,2.8672,NAN,,NAN,1.65,4.35,,0,76,76,76,1,77,Alex,Acc,Participant_Images/6627722f249e56fcefd07b8c/6627722f249e56fcefd07b8c_Images/6627722f249e56fcefd07b8c_Image_6.jpeg,liked,4.438512181,,,,,,,,,,,,,,,,,,,,,,,
,,6627722f249e56fcefd07b8c,6685aa9113c938e83b4f1ea0,66c900e693efe7a572effc53,2024-08-23_15h38.49.267,WTP_SM_Choice,2022.2.1,Win32,60.97560976,,,,,space,0.2843,NAN,,NAN,1.65,4.35,,0,77,77,77,1,78,Alex,Acc,Participant_Images/6627722f249e56fcefd07b8c/6627722f249e56fcefd07b8c_Images/6627722f249e56fcefd07b8c_Image_25.jpeg,did not like,2.682944783,,,,,,,,,,,,,,,,,,,,,,,
,,6627722f249e56fcefd07b8c,6685aa9113c938e83b4f1ea0,66c900e693efe7a572effc53,2024-08-23_15h38.49.267,WTP_SM_Choice,2022.2.1,Win32,60.97560976,,,,,space,0.8497,NAN,,NAN,1.65,4.35,,0,78,78,78,1,79,Alex,Acc,Participant_Images/6627722f249e56fcefd07b8c/6627722f249e56fcefd07b8c_Images/6627722f249e56fcefd07b8c_Image_17.jpeg,liked,4.51984296,,,,,,,,,,,,,,,,,,,,,,,
,,6627722f249e56fcefd07b8c,6685aa9113c938e83b4f1ea0,66c900e693efe7a572effc53,2024-08-23_15h38.49.267,WTP_SM_Choice,2022.2.1,Win32,60.97560976,,,,,,,,,,,,,,,,,,76,,,,,,space,0.255,space,0.3338,1,0,0,0,0,1,Listen to music while driving with the windows down,Swim at the pool with my siblings,0.01,0.01,1.1,1,0.01,1.1411,,,,,
,,6627722f249e56fcefd07b8c,6685aa9113c938e83b4f1ea0,66c900e693efe7a572effc53,2024-08-23_15h38.49.267,WTP_SM_Choice,2022.2.1,Win32,60.97560976,,,,,,,,,,,,,,,,,,77,,,,,,,,,,2,0,1,1,1,1,Drink iced tea on the front porch,Walk the dogs with my mom,0.02,0.01,8.8,1,0.01,1.494,,,,,
,,6627722f249e56fcefd07b8c,6685aa9113c938e83b4f1ea0,66c900e693efe7a572effc53,2024-08-23_15h38.49.267,WTP_SM_Choice,2022.2.1,Win32,60.97560976,,,,,,,,,,,,,,,,,,78,,,,,,,,,,2,0,2,2,2,1,Walk the dogs with my mom,Swim in the ocean,0.03,0.01,1.1,0,0.01,1.2613,,,,,
,,6627722f249e56fcefd07b8c,6685aa9113c938e83b4f1ea0,66c900e693efe7a572effc53,2024-08-23_15h38.49.267,WTP_SM_Choice,2022.2.1,Win32,60.97560976,,,,,,,,,,,,,,,,,,79,,,,,,,,,,2,0,3,3,3,1,Write poetry underneath the shade of a willow tree,Gril hamburgers outside with my dad,0.04,0.01,1.1,1,0.01,1.7272,,,,,
,,6627722f249e56fcefd07b8c,6685aa9113c938e83b4f1ea0,66c900e693efe7a572effc53,2024-08-23_15h38.49.267,WTP_SM_Choice,2022.2.1,Win32,60.97560976,,,,,,,,,,,,,,,,,,80,,,,,,,,,,2,0,4,4,4,1,Play with my cats in my cool apartment,Eat at a restaurant with my boyfriend,0.05,0.01,4.4,1,0.01,1.6271,,,,,
,,6627722f249e56fcefd07b8c,6685aa9113c938e83b4f1ea0,66c900e693efe7a572effc53,2024-08-23_15h38.49.267,WTP_SM_Choice,2022.2.1,Win32,60.97560976,,,,,,,NAN,,NAN,1.7,4.3,,0,79,79,79,1,80,Alex,Acc,Participant_Images/6627722f249e56fcefd07b8c/6627722f249e56fcefd07b8c_Images/6627722f249e56fcefd07b8c_Image_8.jpeg,did not like,3.195382774,,,,,,,,,,,,,,,,,,,,,,,
,,6627722f249e56fcefd07b8c,6685aa9113c938e83b4f1ea0,66c900e693efe7a572effc53,2024-08-23_15h38.49.267,WTP_SM_Choice,2022.2.1,Win32,60.97560976,,,,,space,0.6679,NAN,,NAN,1.7,4.3,,0,80,80,80,1,81,Alex,Acc,Participant_Images/6627722f249e56fcefd07b8c/6627722f249e56fcefd07b8c_Images/6627722f249e56fcefd07b8c_Image_1.jpeg,liked,1.779333479,,,,,,,,,,,,,,,,,,,,,,,
,,6627722f249e56fcefd07b8c,6685aa9113c938e83b4f1ea0,66c900e693efe7a572effc53,2024-08-23_15h38.49.267,WTP_SM_Choice,2022.2.1,Win32,60.97560976,,,,,space,1.1499,NAN,,NAN,1.7,4.3,,0,81,81,81,1,82,Alex,Acc,Participant_Images/6627722f249e56fcefd07b8c/6627722f249e56fcefd07b8c_Images/6627722f249e56fcefd07b8c_Image_21.jpeg,did not like,4.312468682,,,,,,,,,,,,,,,,,,,,,,,
,,6627722f249e56fcefd07b8c,6685aa9113c938e83b4f1ea0,66c900e693efe7a572effc53,2024-08-23_15h38.49.267,WTP_SM_Choice,2022.2.1,Win32,60.97560976,,,,,space,0.1722,NAN,,NAN,1.7,4.3,,0,82,82,82,1,83,Alex,Acc,Participant_Images/6627722f249e56fcefd07b8c/6627722f249e56fcefd07b8c_Images/6627722f249e56fcefd07b8c_Image_19.jpeg,liked,4.940433059,,,,,,,,,,,,,,,,,,,,,,,
,,6627722f249e56fcefd07b8c,6685aa9113c938e83b4f1ea0,66c900e693efe7a572effc53,2024-08-23_15h38.49.267,WTP_SM_Choice,2022.2.1,Win32,60.97560976,,,,,space,0.2837,NAN,,NAN,1.7,4.3,,0,83,83,83,1,84,Alex,Acc,Participant_Images/6627722f249e56fcefd07b8c/6627722f249e56fcefd07b8c_Images/6627722f249e56fcefd07b8c_Image_18.jpeg,liked,2.7105123,,,,,,,,,,,,,,,,,,,,,,,
,,6627722f249e56fcefd07b8c,6685aa9113c938e83b4f1ea0,66c900e693efe7a572effc53,2024-08-23_15h38.49.267,WTP_SM_Choice,2022.2.1,Win32,60.97560976,,,,,,,,,,,,,,,,,,81,,,,,,space,0.9203,space,0.3205,1,0,0,0,0,1,Listen to music while driving with the windows down,Play outside with the cats with my boyfriend,0.01,0.02,3.3,1,0.01,0.9797,,,,,
,,6627722f249e56fcefd07b8c,6685aa9113c938e83b4f1ea0,66c900e693efe7a572effc53,2024-08-23_15h38.49.267,WTP_SM_Choice,2022.2.1,Win32,60.97560976,,,,,,,,,,,,,,,,,,82,,,,,,,,,,1,0,1,1,1,1,Eat at a restaurant with my boyfriend,Walk around downtown denver,0.02,0.02,4.4,0,0.02,1.7749,,,,,
,,6627722f249e56fcefd07b8c,6685aa9113c938e83b4f1ea0,66c900e693efe7a572effc53,2024-08-23_15h38.49.267,WTP_SM_Choice,2022.2.1,Win32,60.97560976,,,,,,,,,,,,,,,,,,83,,,,,,,,,,2,0,2,2,2,1,Hike at red rocks at night in the summer,Gril hamburgers outside with my dad,0.03,0.02,1.1,1,0.02,2.8285,,,,,
,,6627722f249e56fcefd07b8c,6685aa9113c938e83b4f1ea0,66c900e693efe7a572effc53,2024-08-23_15h38.49.267,WTP_SM_Choice,2022.2.1,Win32,60.97560976,,,,,,,,,,,,,,,,,,84,,,,,,,,,,2,0,3,3,3,1,Go to a concert with friends,Walk around downtown denver,0.04,0.02,3.3,0,0.02,1.9525,,,,,
,,6627722f249e56fcefd07b8c,6685aa9113c938e83b4f1ea0,66c900e693efe7a572effc53,2024-08-23_15h38.49.267,WTP_SM_Choice,2022.2.1,Win32,60.97560976,,,,,,,,,,,,,,,,,,85,,,,,,,,,,2,0,4,4,4,1,Walk around downtown denver,Walk the dogs with my mom,0.05,0.02,3.3,1,0.02,1.2303,,,,,
,,6627722f249e56fcefd07b8c,6685aa9113c938e83b4f1ea0,66c900e693efe7a572effc53,2024-08-23_15h38.49.267,WTP_SM_Choice,2022.2.1,Win32,60.97560976,,,,,,,NAN,,NAN,1.79,4.21,,0,84,84,84,1,85,Alex,Acc,Participant_Images/6627722f249e56fcefd07b8c/6627722f249e56fcefd07b8c_Images/6627722f249e56fcefd07b8c_Image_12.jpeg,liked,3.602308302,,,,,,,,,,,,,,,,,,,,,,,
,,6627722f249e56fcefd07b8c,6685aa9113c938e83b4f1ea0,66c900e693efe7a572effc53,2024-08-23_15h38.49.267,WTP_SM_Choice,2022.2.1,Win32,60.97560976,,,,,space,0.2501,NAN,,NAN,1.79,4.21,,0,85,85,85,1,86,Alex,Acc,Participant_Images/6627722f249e56fcefd07b8c/6627722f249e56fcefd07b8c_Images/6627722f249e56fcefd07b8c_Image_11.jpeg,liked,4.106391878,,,,,,,,,,,,,,,,,,,,,,,
,,6627722f249e56fcefd07b8c,6685aa9113c938e83b4f1ea0,66c900e693efe7a572effc53,2024-08-23_15h38.49.267,WTP_SM_Choice,2022.2.1,Win32,60.97560976,,,,,space,2.6903,NAN,,NAN,1.79,4.21,,0,86,86,86,1,87,Alex,Acc,Participant_Images/6627722f249e56fcefd07b8c/6627722f249e56fcefd07b8c_Images/6627722f249e56fcefd07b8c_Image_23.jpeg,did not like,3.799433026,,,,,,,,,,,,,,,,,,,,,,,
,,6627722f249e56fcefd07b8c,6685aa9113c938e83b4f1ea0,66c900e693efe7a572effc53,2024-08-23_15h38.49.267,WTP_SM_Choice,2022.2.1,Win32,60.97560976,,,,,space,0.3049,NAN,,NAN,1.79,4.21,,0,87,87,87,1,88,Alex,Acc,Participant_Images/6627722f249e56fcefd07b8c/6627722f249e56fcefd07b8c_Images/6627722f249e56fcefd07b8c_Image_20.jpeg,liked,5.246980764,,,,,,,,,,,,,,,,,,,,,,,
,,6627722f249e56fcefd07b8c,6685aa9113c938e83b4f1ea0,66c900e693efe7a572effc53,2024-08-23_15h38.49.267,WTP_SM_Choice,2022.2.1,Win32,60.97560976,,,,,space,1.1004,NAN,,NAN,1.79,4.21,,0,88,88,88,1,89,Alex,Acc,Participant_Images/6627722f249e56fcefd07b8c/6627722f249e56fcefd07b8c_Images/6627722f249e56fcefd07b8c_Image_14.jpeg,did not like,3.30081769,,,,,,,,,,,,,,,,,,,,,,,
,,6627722f249e56fcefd07b8c,6685aa9113c938e83b4f1ea0,66c900e693efe7a572effc53,2024-08-23_15h38.49.267,WTP_SM_Choice,2022.2.1,Win32,60.97560976,,,,,,,,,,,,,,,,,,86,,,,,,space,0.2925,space,0.865,1,0,0,0,0,1,Go camping with my boyfriend,Read a book at the park,0.01,0.03,1.1,0,0.01,0.764,,,,,
,,6627722f249e56fcefd07b8c,6685aa9113c938e83b4f1ea0,66c900e693efe7a572effc53,2024-08-23_15h38.49.267,WTP_SM_Choice,2022.2.1,Win32,60.97560976,,,,,,,,,,,,,,,,,,87,,,,,,,,,,1,0,1,1,1,1,Go camping with my boyfriend,Play with my cats in my cool apartment,0.02,0.03,4.4,0,0.02,1.2301,,,,,
,,6627722f249e56fcefd07b8c,6685aa9113c938e83b4f1ea0,66c900e693efe7a572effc53,2024-08-23_15h38.49.267,WTP_SM_Choice,2022.2.1,Win32,60.97560976,,,,,,,,,,,,,,,,,,88,,,,,,,,,,1,0,2,2,2,1,Eat at a restaurant with my boyfriend,Do yoga early in the morning outside,0.03,0.03,1.1,0,0.03,1.2463,,,,,
,,6627722f249e56fcefd07b8c,6685aa9113c938e83b4f1ea0,66c900e693efe7a572effc53,2024-08-23_15h38.49.267,WTP_SM_Choice,2022.2.1,Win32,60.97560976,,,,,,,,,,,,,,,,,,89,,,,,,,,,,2,0,3,3,3,1,Hike at red rocks at night in the summer,Walk around the mall with my mom,0.04,0.03,3.3,1,0.03,1.194,,,,,
,,6627722f249e56fcefd07b8c,6685aa9113c938e83b4f1ea0,66c900e693efe7a572effc53,2024-08-23_15h38.49.267,WTP_SM_Choice,2022.2.1,Win32,60.97560976,,,,,,,,,,,,,,,,,,90,,,,,,,,,,2,0,4,4,4,1,Go on a hike with my friends,Do yoga early in the morning outside,0.05,0.03,8.8,0,0.03,1.2124,,,,,
,,6627722f249e56fcefd07b8c,6685aa9113c938e83b4f1ea0,66c900e693efe7a572effc53,2024-08-23_15h38.49.267,WTP_SM_Choice,2022.2.1,Win32,60.97560976,,,,,,,NAN,,NAN,1.91,4.09,,0,89,89,89,1,90,Alex,Acc,Participant_Images/6627722f249e56fcefd07b8c/6627722f249e56fcefd07b8c_Images/6627722f249e56fcefd07b8c_Image_22.jpeg,liked,1.661473164,,,,,,,,,,,,,,,,,,,,,,,
,,6627722f249e56fcefd07b8c,6685aa9113c938e83b4f1ea0,66c900e693efe7a572effc53,2024-08-23_15h38.49.267,WTP_SM_Choice,2022.2.1,Win32,60.97560976,,,,,space,0.2344,NAN,,NAN,1.91,4.09,,0,90,90,90,1,91,Alex,Acc,Participant_Images/6627722f249e56fcefd07b8c/6627722f249e56fcefd07b8c_Images/6627722f249e56fcefd07b8c_Image_10.jpeg,did not like,3.613205605,,,,,,,,,,,,,,,,,,,,,,,
,,6627722f249e56fcefd07b8c,6685aa9113c938e83b4f1ea0,66c900e693efe7a572effc53,2024-08-23_15h38.49.267,WTP_SM_Choice,2022.2.1,Win32,60.97560976,,,,,space,0.5662,NAN,,NAN,1.91,4.09,,0,91,91,91,1,92,Alex,Acc,Participant_Images/6627722f249e56fcefd07b8c/6627722f249e56fcefd07b8c_Images/6627722f249e56fcefd07b8c_Image_13.jpeg,liked,4.988446431,,,,,,,,,,,,,,,,,,,,,,,
,,6627722f249e56fcefd07b8c,6685aa9113c938e83b4f1ea0,66c900e693efe7a572effc53,2024-08-23_15h38.49.267,WTP_SM_Choice,2022.2.1,Win32,60.97560976,,,,,space,1.8376,NAN,,NAN,1.91,4.09,,0,92,92,92,1,93,Alex,Acc,Participant_Images/6627722f249e56fcefd07b8c/6627722f249e56fcefd07b8c_Images/6627722f249e56fcefd07b8c_Image_7.jpeg,liked,3.470791822,,,,,,,,,,,,,,,,,,,,,,,
,,6627722f249e56fcefd07b8c,6685aa9113c938e83b4f1ea0,66c900e693efe7a572effc53,2024-08-23_15h38.49.267,WTP_SM_Choice,2022.2.1,Win32,60.97560976,,,,,space,1.469,NAN,,NAN,1.91,4.09,,0,93,93,93,1,94,Alex,Acc,Participant_Images/6627722f249e56fcefd07b8c/6627722f249e56fcefd07b8c_Images/6627722f249e56fcefd07b8c_Image_5.jpeg,liked,3.820572462,,,,,,,,,,,,,,,,,,,,,,,
,,6627722f249e56fcefd07b8c,6685aa9113c938e83b4f1ea0,66c900e693efe7a572effc53,2024-08-23_15h38.49.267,WTP_SM_Choice,2022.2.1,Win32,60.97560976,,,,,,,,,,,,,,,,,,91,,,,,,space,3.4302,space,0.4855,1,0,0,0,0,1,Eat at a restaurant with my boyfriend,Read a book at the park,0.01,0.04,3.3,0,0.01,0.8554,,,,,
,,6627722f249e56fcefd07b8c,6685aa9113c938e83b4f1ea0,66c900e693efe7a572effc53,2024-08-23_15h38.49.267,WTP_SM_Choice,2022.2.1,Win32,60.97560976,,,,,,,,,,,,,,,,,,92,,,,,,,,,,1,0,1,1,1,1,Swim at the pool with my siblings,Drink iced tea on the front porch,0.02,0.04,8.8,0,0.02,1.1921,,,,,
,,6627722f249e56fcefd07b8c,6685aa9113c938e83b4f1ea0,66c900e693efe7a572effc53,2024-08-23_15h38.49.267,WTP_SM_Choice,2022.2.1,Win32,60.97560976,,,,,,,,,,,,,,,,,,93,,,,,,,,,,1,0,2,2,2,1,Read a book at the park,Walk the dogs with my mom,0.03,0.04,1.1,1,0.03,1.2226,,,,,
,,6627722f249e56fcefd07b8c,6685aa9113c938e83b4f1ea0,66c900e693efe7a572effc53,2024-08-23_15h38.49.267,WTP_SM_Choice,2022.2.1,Win32,60.97560976,,,,,,,,,,,,,,,,,,94,,,,,,,,,,1,0,3,3,3,1,Swim at the pool with my siblings,Write poetry underneath the shade of a willow tree,0.04,0.04,4.4,0,0.04,1.3796,,,,,
,,6627722f249e56fcefd07b8c,6685aa9113c938e83b4f1ea0,66c900e693efe7a572effc53,2024-08-23_15h38.49.267,WTP_SM_Choice,2022.2.1,Win32,60.97560976,,,,,,,,,,,,,,,,,,95,,,,,,,,,,2,0,4,4,4,1,Walk in the sand in south carolina,Go on a hike with my friends,0.05,0.04,4.4,1,0.04,1.2604,,,,,
,,6627722f249e56fcefd07b8c,6685aa9113c938e83b4f1ea0,66c900e693efe7a572effc53,2024-08-23_15h38.49.267,WTP_SM_Choice,2022.2.1,Win32,60.97560976,,,,,,,NAN,,NAN,2.05,3.95,,0,94,94,94,1,95,Alex,Acc,Participant_Images/6627722f249e56fcefd07b8c/6627722f249e56fcefd07b8c_Images/6627722f249e56fcefd07b8c_Image_24.jpeg,did not like,2.455989137,,,,,,,,,,,,,,,,,,,,,,,
,,6627722f249e56fcefd07b8c,6685aa9113c938e83b4f1ea0,66c900e693efe7a572effc53,2024-08-23_15h38.49.267,WTP_SM_Choice,2022.2.1,Win32,60.97560976,,,,,space,0.2403,NAN,,NAN,2.05,3.95,,0,95,95,95,1,96,Alex,Acc,Participant_Images/6627722f249e56fcefd07b8c/6627722f249e56fcefd07b8c_Images/6627722f249e56fcefd07b8c_Image_2.jpeg,liked,3.79605092,,,,,,,,,,,,,,,,,,,,,,,
,,6627722f249e56fcefd07b8c,6685aa9113c938e83b4f1ea0,66c900e693efe7a572effc53,2024-08-23_15h38.49.267,WTP_SM_Choice,2022.2.1,Win32,60.97560976,,,,,space,0.5015,NAN,,NAN,2.05,3.95,,0,96,96,96,1,97,Alex,Acc,Participant_Images/6627722f249e56fcefd07b8c/6627722f249e56fcefd07b8c_Images/6627722f249e56fcefd07b8c_Image_15.jpeg,liked,3.562416326,,,,,,,,,,,,,,,,,,,,,,,
,,6627722f249e56fcefd07b8c,6685aa9113c938e83b4f1ea0,66c900e693efe7a572effc53,2024-08-23_15h38.49.267,WTP_SM_Choice,2022.2.1,Win32,60.97560976,,,,,space,0.2872,NAN,,NAN,2.05,3.95,,0,97,97,97,1,98,Alex,Acc,Participant_Images/6627722f249e56fcefd07b8c/6627722f249e56fcefd07b8c_Images/6627722f249e56fcefd07b8c_Image_4.jpeg,liked,2.843822497,,,,,,,,,,,,,,,,,,,,,,,
,,6627722f249e56fcefd07b8c,6685aa9113c938e83b4f1ea0,66c900e693efe7a572effc53,2024-08-23_15h38.49.267,WTP_SM_Choice,2022.2.1,Win32,60.97560976,,,,,space,0.2555,NAN,,NAN,2.05,3.95,,0,98,98,98,1,99,Alex,Acc,Participant_Images/6627722f249e56fcefd07b8c/6627722f249e56fcefd07b8c_Images/6627722f249e56fcefd07b8c_Image_3.jpeg,liked,3.546495948,,,,,,,,,,,,,,,,,,,,,,,
,,6627722f249e56fcefd07b8c,6685aa9113c938e83b4f1ea0,66c900e693efe7a572effc53,2024-08-23_15h38.49.267,WTP_SM_Choice,2022.2.1,Win32,60.97560976,,,,,,,,,,,,,,,,,,96,,,,,,space,0.2822,space,0.3224,1,0,0,0,0,1,Take photos of nature with my friends,Swim in the ocean,0.01,0.05,3.3,0,0.01,0.8458,,,,,
,,6627722f249e56fcefd07b8c,6685aa9113c938e83b4f1ea0,66c900e693efe7a572effc53,2024-08-23_15h38.49.267,WTP_SM_Choice,2022.2.1,Win32,60.97560976,,,,,,,,,,,,,,,,,,97,,,,,,,,,,1,0,1,1,1,1,Hike at red rocks at night in the summer,Take photos of nature with my friends,0.02,0.05,1.1,1,0.02,3.3248,,,,,
,,6627722f249e56fcefd07b8c,6685aa9113c938e83b4f1ea0,66c900e693efe7a572effc53,2024-08-23_15h38.49.267,WTP_SM_Choice,2022.2.1,Win32,60.97560976,,,,,,,,,,,,,,,,,,98,,,,,,,,,,1,0,2,2,2,1,Gril hamburgers outside with my dad,Walk in the sand in south carolina,0.03,0.05,1.1,0,0.03,1.6932,,,,,
,,6627722f249e56fcefd07b8c,6685aa9113c938e83b4f1ea0,66c900e693efe7a572effc53,2024-08-23_15h38.49.267,WTP_SM_Choice,2022.2.1,Win32,60.97560976,,,,,,,,,,,,,,,,,,99,,,,,,,,,,1,0,3,3,3,1,Eat at a restaurant with my boyfriend,Hike at red rocks at night in the summer,0.04,0.05,3.3,0,0.04,1.7353,,,,,
,,6627722f249e56fcefd07b8c,6685aa9113c938e83b4f1ea0,66c900e693efe7a572effc53,2024-08-23_15h38.49.267,WTP_SM_Choice,2022.2.1,Win32,60.97560976,,,,,,,,,,,,,,,,,,100,,,,,,,,,,1,0,4,4,4,1,Go to a concert with friends,Listen to music while driving with the windows down,0.05,0.05,4.4,0,0.05,1.4998,,,,,
,,6627722f249e56fcefd07b8c,6685aa9113c938e83b4f1ea0,66c900e693efe7a572effc53,2024-08-23_15h38.49.267,WTP_SM_Choice,2022.2.1,Win32,60.97560976,,,,,,,3,,5,2.2,3.8,,0,99,99,99,1,100,Alex,Acc,Participant_Images/6627722f249e56fcefd07b8c/6627722f249e56fcefd07b8c_Images/6627722f249e56fcefd07b8c_Image_16.jpeg,liked,1.672012706,,,,,,,,,,,,,,,,,,,space,0.7644,,,
,,6627722f249e56fcefd07b8c,6685aa9113c938e83b4f1ea0,66c900e693efe7a572effc53,2024-08-23_15h38.49.267,WTP_SM_Choice,2022.2.1,Win32,60.97560976,,,,,,,,,,,,,,,,,,,,,,,,,,,,,,,,,,,,,,,,,,,,,space,1.904
