endwelcomescreen_keys.keys,endwelcomescreen_keys.rt,participant,STUDY_ID,SESSION_ID,date,expName,psychopyVersion,OS,frameRate,endinstructionscreen_keys.keys,endinstructionscreen_keys.rt,endpartnermatch_keys.keys,endpartnermatch_keys.rt,sharenextphoto_key.keys,sharenextphoto_key.rt,salience_rating,key_resp.keys,stress_level,subtract_bonus,TOTAL_TASK_BONUS,stresslevel_keypress.keys,entiretaskloop.thisRepN,entiretaskloop.thisTrialN,entiretaskloop.thisN,entiretaskloop.thisIndex,entiretaskloop.ran,TrialNumber,Partner,Condition,Photos,Feedback,FeedbackWait,WTP_ins_keys1.keys,WTP_ins_keys1.rt,WTP_ins_keys2.keys,WTP_ins_keys2.rt,responses.keys,WTPTaskLoop.thisRepN,WTPTaskLoop.thisTrialN,WTPTaskLoop.thisN,WTPTaskLoop.thisIndex,WTPTaskLoop.ran,right,left,leftmoney,rightmoney,WTP_ITI,social_left,decision_price,responses.rt,Resume_keys.keys,Resume_keys.rt,end_screen_keys.keys,end_screen_keys.rt
space,10.7171,662a754842502c24dbb45384,6685aa9113c938e83b4f1ea0,66fee32265b467f14884b417,2024-10-03_14h32.44.084,WTP_SM_Choice,2022.2.1,Win32,59.52380952,,,,,,,,,,,,,,,,,,,,,,,,,,,,,,,,,,,,,,,,,,,,,
,,662a754842502c24dbb45384,6685aa9113c938e83b4f1ea0,66fee32265b467f14884b417,2024-10-03_14h32.44.084,WTP_SM_Choice,2022.2.1,Win32,59.52380952,space,26.9351,,,,,,,,,,,,,,,,,,,,,,,,,,,,,,,,,,,,,,,,,,,
,,662a754842502c24dbb45384,6685aa9113c938e83b4f1ea0,66fee32265b467f14884b417,2024-10-03_14h32.44.084,WTP_SM_Choice,2022.2.1,Win32,59.52380952,,,space,3.2953,space,1.9246,NAN,,NAN,0,6,,0,0,0,0,1,1,Alex,Acc,Participant_Images/662a754842502c24dbb45384/662a754842502c24dbb45384_Images/662a754842502c24dbb45384_Image_2.jpeg,liked,3.613205605,,,,,,,,,,,,,,,,,,,,,,
,,662a754842502c24dbb45384,6685aa9113c938e83b4f1ea0,66fee32265b467f14884b417,2024-10-03_14h32.44.084,WTP_SM_Choice,2022.2.1,Win32,59.52380952,,,,,space,0.818,NAN,,NAN,0,6,,0,1,1,1,1,2,Alex,Acc,Participant_Images/662a754842502c24dbb45384/662a754842502c24dbb45384_Images/662a754842502c24dbb45384_Image_10.jpeg,did not like,4.988446431,,,,,,,,,,,,,,,,,,,,,,
,,662a754842502c24dbb45384,6685aa9113c938e83b4f1ea0,66fee32265b467f14884b417,2024-10-03_14h32.44.084,WTP_SM_Choice,2022.2.1,Win32,59.52380952,,,,,space,0.8888,NAN,,NAN,0,6,,0,2,2,2,1,3,Alex,Acc,Participant_Images/662a754842502c24dbb45384/662a754842502c24dbb45384_Images/662a754842502c24dbb45384_Image_3.jpeg,liked,3.470791822,,,,,,,,,,,,,,,,,,,,,,
,,662a754842502c24dbb45384,6685aa9113c938e83b4f1ea0,66fee32265b467f14884b417,2024-10-03_14h32.44.084,WTP_SM_Choice,2022.2.1,Win32,59.52380952,,,,,space,0.7128,NAN,,NAN,0,6,,0,3,3,3,1,4,Alex,Acc,Participant_Images/662a754842502c24dbb45384/662a754842502c24dbb45384_Images/662a754842502c24dbb45384_Image_13.jpeg,liked,3.820572462,,,,,,,,,,,,,,,,,,,,,,
,,662a754842502c24dbb45384,6685aa9113c938e83b4f1ea0,66fee32265b467f14884b417,2024-10-03_14h32.44.084,WTP_SM_Choice,2022.2.1,Win32,59.52380952,,,,,,,,,,,,,,,,,,1,,,,,,space,27.8779,space,14.7715,,0,0,0,0,1,Watch documentaries in my living room with dimmed lights and snacks,Organize brunch outings with my close friends at our favorite cafe on sunday mornings,0.01,0.01,4.4,1,,,,,,
,,662a754842502c24dbb45384,6685aa9113c938e83b4f1ea0,66fee32265b467f14884b417,2024-10-03_14h32.44.084,WTP_SM_Choice,2022.2.1,Win32,59.52380952,,,,,,,,,,,,,,,,,,2,,,,,,,,,,1,0,1,1,1,1,Stargaze from my backyard on a clear summer night with soft music playing,Join book club meetings with classmates on wednesday nights discussing our latest reads over wine,0.02,0.01,8.8,1,0.02,4.6517,,,,
,,662a754842502c24dbb45384,6685aa9113c938e83b4f1ea0,66fee32265b467f14884b417,2024-10-03_14h32.44.084,WTP_SM_Choice,2022.2.1,Win32,59.52380952,,,,,,,,,,,,,,,,,,3,,,,,,,,,,2,0,2,2,2,1,Attend concerts in the park with my best friend enjoying live music and picnicking,Explore local thrift stores on a saturday afternoon searching for unique finds,0.03,0.01,3.3,0,0.01,7.6508,,,,
,,662a754842502c24dbb45384,6685aa9113c938e83b4f1ea0,66fee32265b467f14884b417,2024-10-03_14h32.44.084,WTP_SM_Choice,2022.2.1,Win32,59.52380952,,,,,,,,,,,,,,,,,,4,,,,,,,,,,1,0,3,3,3,1,Meditate on my balcony during sunrise surrounded by plants and gentle breezes,Attend pottery classes with my partner on thursday evenings creating unique pieces together,0.04,0.01,1.1,1,0.04,4.0551,,,,
,,662a754842502c24dbb45384,6685aa9113c938e83b4f1ea0,66fee32265b467f14884b417,2024-10-03_14h32.44.084,WTP_SM_Choice,2022.2.1,Win32,59.52380952,,,,,,,,,,,,,,,,,,5,,,,,,,,,,1,0,4,4,4,1,Attend pottery classes with my partner on thursday evenings creating unique pieces together,Explore local thrift stores on a saturday afternoon searching for unique finds,0.05,0.01,1.1,0,0.05,5.9012,,,,
,,662a754842502c24dbb45384,6685aa9113c938e83b4f1ea0,66fee32265b467f14884b417,2024-10-03_14h32.44.084,WTP_SM_Choice,2022.2.1,Win32,59.52380952,,,,,,,NAN,,NAN,0.12,5.88,,0,4,4,4,1,5,Alex,Acc,Participant_Images/662a754842502c24dbb45384/662a754842502c24dbb45384_Images/662a754842502c24dbb45384_Image_19.jpeg,did not like,2.455989137,,,,,,,,,,,,,,,,,,,,,,
,,662a754842502c24dbb45384,6685aa9113c938e83b4f1ea0,66fee32265b467f14884b417,2024-10-03_14h32.44.084,WTP_SM_Choice,2022.2.1,Win32,59.52380952,,,,,space,1.7439,NAN,,NAN,0.12,5.88,,0,5,5,5,1,6,Alex,Acc,Participant_Images/662a754842502c24dbb45384/662a754842502c24dbb45384_Images/662a754842502c24dbb45384_Image_8.jpeg,liked,3.79605092,,,,,,,,,,,,,,,,,,,,,,
,,662a754842502c24dbb45384,6685aa9113c938e83b4f1ea0,66fee32265b467f14884b417,2024-10-03_14h32.44.084,WTP_SM_Choice,2022.2.1,Win32,59.52380952,,,,,space,0.6365,NAN,,NAN,0.12,5.88,,0,6,6,6,1,7,Alex,Acc,Participant_Images/662a754842502c24dbb45384/662a754842502c24dbb45384_Images/662a754842502c24dbb45384_Image_22.jpeg,liked,3.562416326,,,,,,,,,,,,,,,,,,,,,,
,,662a754842502c24dbb45384,6685aa9113c938e83b4f1ea0,66fee32265b467f14884b417,2024-10-03_14h32.44.084,WTP_SM_Choice,2022.2.1,Win32,59.52380952,,,,,space,0.6177,NAN,,NAN,0.12,5.88,,0,7,7,7,1,8,Alex,Acc,Participant_Images/662a754842502c24dbb45384/662a754842502c24dbb45384_Images/662a754842502c24dbb45384_Image_4.jpeg,liked,2.843822497,,,,,,,,,,,,,,,,,,,,,,
,,662a754842502c24dbb45384,6685aa9113c938e83b4f1ea0,66fee32265b467f14884b417,2024-10-03_14h32.44.084,WTP_SM_Choice,2022.2.1,Win32,59.52380952,,,,,space,0.5841,NAN,,NAN,0.12,5.88,,0,8,8,8,1,9,Alex,Acc,Participant_Images/662a754842502c24dbb45384/662a754842502c24dbb45384_Images/662a754842502c24dbb45384_Image_20.jpeg,did not like,3.546495948,,,,,,,,,,,,,,,,,,,,,,
,,662a754842502c24dbb45384,6685aa9113c938e83b4f1ea0,66fee32265b467f14884b417,2024-10-03_14h32.44.084,WTP_SM_Choice,2022.2.1,Win32,59.52380952,,,,,,,,,,,,,,,,,,6,,,,,,space,3.5601,space,1.6876,2,0,0,0,0,1,Organize brunch outings with my close friends at our favorite cafe on sunday mornings,Practice yoga in my bedroom with calming candles and essential oils,0.01,0.02,3.3,0,0.02,2.9607,,,,
,,662a754842502c24dbb45384,6685aa9113c938e83b4f1ea0,66fee32265b467f14884b417,2024-10-03_14h32.44.084,WTP_SM_Choice,2022.2.1,Win32,59.52380952,,,,,,,,,,,,,,,,,,7,,,,,,,,,,2,0,1,1,1,1,Go hiking on weekends with my family exploring new trails and taking in the views,Explore local thrift stores on a saturday afternoon searching for unique finds,0.02,0.02,1.1,0,0.02,4.006,,,,
,,662a754842502c24dbb45384,6685aa9113c938e83b4f1ea0,66fee32265b467f14884b417,2024-10-03_14h32.44.084,WTP_SM_Choice,2022.2.1,Win32,59.52380952,,,,,,,,,,,,,,,,,,8,,,,,,,,,,1,0,2,2,2,1,Practice yoga in my bedroom with calming candles and essential oils,Host game nights with my friends in my living room while enjoying snacks and laughter,0.03,0.02,1.1,1,0.03,4.0257,,,,
,,662a754842502c24dbb45384,6685aa9113c938e83b4f1ea0,66fee32265b467f14884b417,2024-10-03_14h32.44.084,WTP_SM_Choice,2022.2.1,Win32,59.52380952,,,,,,,,,,,,,,,,,,9,,,,,,,,,,1,0,3,3,3,1,Explore local thrift stores on a saturday afternoon searching for unique finds,Organize brunch outings with my close friends at our favorite cafe on sunday mornings,0.04,0.02,4.4,1,0.04,4.4232,,,,
,,662a754842502c24dbb45384,6685aa9113c938e83b4f1ea0,66fee32265b467f14884b417,2024-10-03_14h32.44.084,WTP_SM_Choice,2022.2.1,Win32,59.52380952,,,,,,,,,,,,,,,,,,10,,,,,,,,,,2,0,4,4,4,1,Go hiking on weekends with my family exploring new trails and taking in the views,Practice yoga in my bedroom with calming candles and essential oils,0.05,0.02,1.1,0,0.02,2.8518,,,,
,,662a754842502c24dbb45384,6685aa9113c938e83b4f1ea0,66fee32265b467f14884b417,2024-10-03_14h32.44.084,WTP_SM_Choice,2022.2.1,Win32,59.52380952,,,,,,,NAN,,NAN,0.25,5.75,,0,9,9,9,1,10,Alex,Acc,Participant_Images/662a754842502c24dbb45384/662a754842502c24dbb45384_Images/662a754842502c24dbb45384_Image_15.jpeg,liked,1.672012706,,,,,,,,,,,,,,,,,,,,,,
,,662a754842502c24dbb45384,6685aa9113c938e83b4f1ea0,66fee32265b467f14884b417,2024-10-03_14h32.44.084,WTP_SM_Choice,2022.2.1,Win32,59.52380952,,,,,space,4.0132,NAN,,NAN,0.25,5.75,,0,10,10,10,1,11,Alex,Acc,Participant_Images/662a754842502c24dbb45384/662a754842502c24dbb45384_Images/662a754842502c24dbb45384_Image_18.jpeg,liked,4.942172136,,,,,,,,,,,,,,,,,,,,,,
,,662a754842502c24dbb45384,6685aa9113c938e83b4f1ea0,66fee32265b467f14884b417,2024-10-03_14h32.44.084,WTP_SM_Choice,2022.2.1,Win32,59.52380952,,,,,space,0.7528,NAN,,NAN,0.25,5.75,,0,11,11,11,1,12,Alex,Acc,Participant_Images/662a754842502c24dbb45384/662a754842502c24dbb45384_Images/662a754842502c24dbb45384_Image_23.jpeg,liked,2.50187214,,,,,,,,,,,,,,,,,,,,,,
,,662a754842502c24dbb45384,6685aa9113c938e83b4f1ea0,66fee32265b467f14884b417,2024-10-03_14h32.44.084,WTP_SM_Choice,2022.2.1,Win32,59.52380952,,,,,space,1.0718,NAN,,NAN,0.25,5.75,,0,12,12,12,1,13,Alex,Acc,Participant_Images/662a754842502c24dbb45384/662a754842502c24dbb45384_Images/662a754842502c24dbb45384_Image_24.jpeg,liked,2.071164779,,,,,,,,,,,,,,,,,,,,,,
,,662a754842502c24dbb45384,6685aa9113c938e83b4f1ea0,66fee32265b467f14884b417,2024-10-03_14h32.44.084,WTP_SM_Choice,2022.2.1,Win32,59.52380952,,,,,space,1.3192,NAN,,NAN,0.25,5.75,,0,13,13,13,1,14,Alex,Acc,Participant_Images/662a754842502c24dbb45384/662a754842502c24dbb45384_Images/662a754842502c24dbb45384_Image_25.jpeg,did not like,5.336503566,,,,,,,,,,,,,,,,,,,,,,
,,662a754842502c24dbb45384,6685aa9113c938e83b4f1ea0,66fee32265b467f14884b417,2024-10-03_14h32.44.084,WTP_SM_Choice,2022.2.1,Win32,59.52380952,,,,,,,,,,,,,,,,,,11,,,,,,space,26.4561,space,2.456,1,0,0,0,0,1,Practice yoga in my bedroom with calming candles and essential oils,Join book club meetings with classmates on wednesday nights discussing our latest reads over wine,0.01,0.03,3.3,1,0.01,1.9514,,,,
,,662a754842502c24dbb45384,6685aa9113c938e83b4f1ea0,66fee32265b467f14884b417,2024-10-03_14h32.44.084,WTP_SM_Choice,2022.2.1,Win32,59.52380952,,,,,,,,,,,,,,,,,,12,,,,,,,,,,1,0,1,1,1,1,Organize my bookshelf in my home office while sipping on iced coffee,Volunteer at the local animal shelter with my coworkers on saturday afternoons,0.02,0.03,4.4,1,0.02,7.9494,,,,
,,662a754842502c24dbb45384,6685aa9113c938e83b4f1ea0,66fee32265b467f14884b417,2024-10-03_14h32.44.084,WTP_SM_Choice,2022.2.1,Win32,59.52380952,,,,,,,,,,,,,,,,,,13,,,,,,,,,,1,0,2,2,2,1,Organize my bookshelf in my home office while sipping on iced coffee,Go hiking on weekends with my family exploring new trails and taking in the views,0.03,0.03,1.1,1,0.03,5.9012,,,,
,,662a754842502c24dbb45384,6685aa9113c938e83b4f1ea0,66fee32265b467f14884b417,2024-10-03_14h32.44.084,WTP_SM_Choice,2022.2.1,Win32,59.52380952,,,,,,,,,,,,,,,,,,14,,,,,,,,,,2,0,3,3,3,1,Join book club meetings with classmates on wednesday nights discussing our latest reads over wine,Sketch nature scenes at a quiet park bench surrounded by autumn leaves,0.04,0.03,3.3,0,0.03,6.1469,,,,
,,662a754842502c24dbb45384,6685aa9113c938e83b4f1ea0,66fee32265b467f14884b417,2024-10-03_14h32.44.084,WTP_SM_Choice,2022.2.1,Win32,59.52380952,,,,,,,,,,,,,,,,,,15,,,,,,,,,,2,0,4,4,4,1,Journal my thoughts in a cozy cafe with a warm cup of tea,Volunteer at the local animal shelter with my coworkers on saturday afternoons,0.05,0.03,4.4,1,0.03,2.6334,,,,
,,662a754842502c24dbb45384,6685aa9113c938e83b4f1ea0,66fee32265b467f14884b417,2024-10-03_14h32.44.084,WTP_SM_Choice,2022.2.1,Win32,59.52380952,,,,,,,NAN,,NAN,0.37,5.63,,0,14,14,14,1,15,Alex,Acc,Participant_Images/662a754842502c24dbb45384/662a754842502c24dbb45384_Images/662a754842502c24dbb45384_Image_17.jpeg,did not like,2.642157193,,,,,,,,,,,,,,,,,,,,,,
,,662a754842502c24dbb45384,6685aa9113c938e83b4f1ea0,66fee32265b467f14884b417,2024-10-03_14h32.44.084,WTP_SM_Choice,2022.2.1,Win32,59.52380952,,,,,space,2.9375,NAN,,NAN,0.37,5.63,,0,15,15,15,1,16,Alex,Acc,Participant_Images/662a754842502c24dbb45384/662a754842502c24dbb45384_Images/662a754842502c24dbb45384_Image_6.jpeg,liked,4.456234322,,,,,,,,,,,,,,,,,,,,,,
,,662a754842502c24dbb45384,6685aa9113c938e83b4f1ea0,66fee32265b467f14884b417,2024-10-03_14h32.44.084,WTP_SM_Choice,2022.2.1,Win32,59.52380952,,,,,space,7.5547,NAN,,NAN,0.37,5.63,,0,16,16,16,1,17,Alex,Acc,Participant_Images/662a754842502c24dbb45384/662a754842502c24dbb45384_Images/662a754842502c24dbb45384_Image_1.jpeg,liked,4.438512181,,,,,,,,,,,,,,,,,,,,,,
,,662a754842502c24dbb45384,6685aa9113c938e83b4f1ea0,66fee32265b467f14884b417,2024-10-03_14h32.44.084,WTP_SM_Choice,2022.2.1,Win32,59.52380952,,,,,space,1.2723,NAN,,NAN,0.37,5.63,,0,17,17,17,1,18,Alex,Acc,Participant_Images/662a754842502c24dbb45384/662a754842502c24dbb45384_Images/662a754842502c24dbb45384_Image_16.jpeg,liked,2.682944783,,,,,,,,,,,,,,,,,,,,,,
,,662a754842502c24dbb45384,6685aa9113c938e83b4f1ea0,66fee32265b467f14884b417,2024-10-03_14h32.44.084,WTP_SM_Choice,2022.2.1,Win32,59.52380952,,,,,space,1.0344,NAN,,NAN,0.37,5.63,,0,18,18,18,1,19,Alex,Acc,Participant_Images/662a754842502c24dbb45384/662a754842502c24dbb45384_Images/662a754842502c24dbb45384_Image_9.jpeg,liked,4.51984296,,,,,,,,,,,,,,,,,,,,,,
,,662a754842502c24dbb45384,6685aa9113c938e83b4f1ea0,66fee32265b467f14884b417,2024-10-03_14h32.44.084,WTP_SM_Choice,2022.2.1,Win32,59.52380952,,,,,,,,,,,,,,,,,,16,,,,,,space,1.0702,space,1.4673,1,0,0,0,0,1,Cook new recipes in my kitchen while listening to my favorite podcast,Play trivia at a pub with my friends on friday evenings competing for prizes and bragging,0.01,0.04,1.1,1,0.01,3.9022,,,,
,,662a754842502c24dbb45384,6685aa9113c938e83b4f1ea0,66fee32265b467f14884b417,2024-10-03_14h32.44.084,WTP_SM_Choice,2022.2.1,Win32,59.52380952,,,,,,,,,,,,,,,,,,17,,,,,,,,,,2,0,1,1,1,1,Stargaze from my backyard on a clear summer night with soft music playing,Go for bike rides along the beach with my partner during warm summer afternoons,0.02,0.04,8.8,1,0.04,1.91,,,,
,,662a754842502c24dbb45384,6685aa9113c938e83b4f1ea0,66fee32265b467f14884b417,2024-10-03_14h32.44.084,WTP_SM_Choice,2022.2.1,Win32,59.52380952,,,,,,,,,,,,,,,,,,18,,,,,,,,,,2,0,2,2,2,1,Attend concerts in the park with my best friend enjoying live music and picnicking,Cook new recipes in my kitchen while listening to my favorite podcast,0.03,0.04,3.3,0,0.04,3.1529,,,,
,,662a754842502c24dbb45384,6685aa9113c938e83b4f1ea0,66fee32265b467f14884b417,2024-10-03_14h32.44.084,WTP_SM_Choice,2022.2.1,Win32,59.52380952,,,,,,,,,,,,,,,,,,19,,,,,,,,,,1,0,3,3,3,1,Go for bike rides along the beach with my partner during warm summer afternoons,Practice yoga in my bedroom with calming candles and essential oils,0.04,0.04,3.3,0,0.04,4.239,,,,
,,662a754842502c24dbb45384,6685aa9113c938e83b4f1ea0,66fee32265b467f14884b417,2024-10-03_14h32.44.084,WTP_SM_Choice,2022.2.1,Win32,59.52380952,,,,,,,,,,,,,,,,,,20,,,,,,,,,,1,0,4,4,4,1,Watch movies at the drivein theater with my siblings during summer nights,Explore local thrift stores on a saturday afternoon searching for unique finds,0.05,0.04,1.1,0,0.05,3.9057,,,,
,,662a754842502c24dbb45384,6685aa9113c938e83b4f1ea0,66fee32265b467f14884b417,2024-10-03_14h32.44.084,WTP_SM_Choice,2022.2.1,Win32,59.52380952,,,,,,,NAN,,NAN,0.55,5.45,,0,19,19,19,1,20,Alex,Acc,Participant_Images/662a754842502c24dbb45384/662a754842502c24dbb45384_Images/662a754842502c24dbb45384_Image_14.jpeg,liked,3.195382774,,,,,,,,,,,,,,,,,,,,,,
,,662a754842502c24dbb45384,6685aa9113c938e83b4f1ea0,66fee32265b467f14884b417,2024-10-03_14h32.44.084,WTP_SM_Choice,2022.2.1,Win32,59.52380952,,,,,space,3.0183,NAN,,NAN,0.55,5.45,,0,20,20,20,1,21,Alex,Acc,Participant_Images/662a754842502c24dbb45384/662a754842502c24dbb45384_Images/662a754842502c24dbb45384_Image_21.jpeg,liked,1.779333479,,,,,,,,,,,,,,,,,,,,,,
,,662a754842502c24dbb45384,6685aa9113c938e83b4f1ea0,66fee32265b467f14884b417,2024-10-03_14h32.44.084,WTP_SM_Choice,2022.2.1,Win32,59.52380952,,,,,space,0.1113,NAN,,NAN,0.55,5.45,,0,21,21,21,1,22,Alex,Acc,Participant_Images/662a754842502c24dbb45384/662a754842502c24dbb45384_Images/662a754842502c24dbb45384_Image_7.jpeg,liked,4.312468682,,,,,,,,,,,,,,,,,,,,,,
,,662a754842502c24dbb45384,6685aa9113c938e83b4f1ea0,66fee32265b467f14884b417,2024-10-03_14h32.44.084,WTP_SM_Choice,2022.2.1,Win32,59.52380952,,,,,space,0.6595,NAN,,NAN,0.55,5.45,,0,22,22,22,1,23,Alex,Acc,Participant_Images/662a754842502c24dbb45384/662a754842502c24dbb45384_Images/662a754842502c24dbb45384_Image_12.jpeg,liked,4.940433059,,,,,,,,,,,,,,,,,,,,,,
,,662a754842502c24dbb45384,6685aa9113c938e83b4f1ea0,66fee32265b467f14884b417,2024-10-03_14h32.44.084,WTP_SM_Choice,2022.2.1,Win32,59.52380952,,,,,space,1.3345,NAN,,NAN,0.55,5.45,,0,23,23,23,1,24,Alex,Acc,Participant_Images/662a754842502c24dbb45384/662a754842502c24dbb45384_Images/662a754842502c24dbb45384_Image_5.jpeg,did not like,2.7105123,,,,,,,,,,,,,,,,,,,,,,
,,662a754842502c24dbb45384,6685aa9113c938e83b4f1ea0,66fee32265b467f14884b417,2024-10-03_14h32.44.084,WTP_SM_Choice,2022.2.1,Win32,59.52380952,,,,,,,,,,,,,,,,,,21,,,,,,space,1.102,space,5.9194,2,0,0,0,0,1,Watch documentaries in my living room with dimmed lights and snacks,Play trivia at a pub with my friends on friday evenings competing for prizes and bragging,0.01,0.05,8.8,1,0.05,3.542,,,,
,,662a754842502c24dbb45384,6685aa9113c938e83b4f1ea0,66fee32265b467f14884b417,2024-10-03_14h32.44.084,WTP_SM_Choice,2022.2.1,Win32,59.52380952,,,,,,,,,,,,,,,,,,22,,,,,,,,,,2,0,1,1,1,1,Organize brunch outings with my close friends at our favorite cafe on sunday mornings,Bike along a scenic trail during early morning hours with the sun rising,0.02,0.05,4.4,0,0.05,5.7651,,,,
,,662a754842502c24dbb45384,6685aa9113c938e83b4f1ea0,66fee32265b467f14884b417,2024-10-03_14h32.44.084,WTP_SM_Choice,2022.2.1,Win32,59.52380952,,,,,,,,,,,,,,,,,,23,,,,,,,,,,2,0,2,2,2,1,Go for bike rides along the beach with my partner during warm summer afternoons,Explore local thrift stores on a saturday afternoon searching for unique finds,0.03,0.05,1.1,0,0.05,2.4328,,,,
,,662a754842502c24dbb45384,6685aa9113c938e83b4f1ea0,66fee32265b467f14884b417,2024-10-03_14h32.44.084,WTP_SM_Choice,2022.2.1,Win32,59.52380952,,,,,,,,,,,,,,,,,,24,,,,,,,,,,2,0,3,3,3,1,Volunteer at the local animal shelter with my coworkers on saturday afternoons,Stargaze from my backyard on a clear summer night with soft music playing,0.04,0.05,4.4,0,0.05,7.6307,,,,
,,662a754842502c24dbb45384,6685aa9113c938e83b4f1ea0,66fee32265b467f14884b417,2024-10-03_14h32.44.084,WTP_SM_Choice,2022.2.1,Win32,59.52380952,,,,,,,,,,,,,,,,,,25,,,,,,,,,,2,0,4,4,4,1,Bike along a scenic trail during early morning hours with the sun rising,Go hiking on weekends with my family exploring new trails and taking in the views,0.05,0.05,3.3,1,0.05,4.6649,,,,
,,662a754842502c24dbb45384,6685aa9113c938e83b4f1ea0,66fee32265b467f14884b417,2024-10-03_14h32.44.084,WTP_SM_Choice,2022.2.1,Win32,59.52380952,,,,,,,4,,7,0.8,5.2,,0,24,24,24,1,25,Alex,Acc,Participant_Images/662a754842502c24dbb45384/662a754842502c24dbb45384_Images/662a754842502c24dbb45384_Image_11.jpeg,did not like,3.602308302,,,,,,,,,,,,,,,,,,,space,1.1563,,
,,662a754842502c24dbb45384,6685aa9113c938e83b4f1ea0,66fee32265b467f14884b417,2024-10-03_14h32.44.084,WTP_SM_Choice,2022.2.1,Win32,59.52380952,,,space,25.9133,space,1.3693,NAN,,NAN,0.8,5.2,,0,25,25,25,1,26,Charlie,Acc,Participant_Images/662a754842502c24dbb45384/662a754842502c24dbb45384_Images/662a754842502c24dbb45384_Image_12.jpeg,liked,4.106391878,,,,,,,,,,,,,,,,,,,,,,
,,662a754842502c24dbb45384,6685aa9113c938e83b4f1ea0,66fee32265b467f14884b417,2024-10-03_14h32.44.084,WTP_SM_Choice,2022.2.1,Win32,59.52380952,,,,,space,4.0353,NAN,,NAN,0.8,5.2,,0,26,26,26,1,27,Charlie,Acc,Participant_Images/662a754842502c24dbb45384/662a754842502c24dbb45384_Images/662a754842502c24dbb45384_Image_23.jpeg,liked,3.799433026,,,,,,,,,,,,,,,,,,,,,,
,,662a754842502c24dbb45384,6685aa9113c938e83b4f1ea0,66fee32265b467f14884b417,2024-10-03_14h32.44.084,WTP_SM_Choice,2022.2.1,Win32,59.52380952,,,,,space,1.2728,NAN,,NAN,0.8,5.2,,0,27,27,27,1,28,Charlie,Acc,Participant_Images/662a754842502c24dbb45384/662a754842502c24dbb45384_Images/662a754842502c24dbb45384_Image_25.jpeg,liked,5.246980764,,,,,,,,,,,,,,,,,,,,,,
,,662a754842502c24dbb45384,6685aa9113c938e83b4f1ea0,66fee32265b467f14884b417,2024-10-03_14h32.44.084,WTP_SM_Choice,2022.2.1,Win32,59.52380952,,,,,space,2.3853,NAN,,NAN,0.8,5.2,,0,28,28,28,1,29,Charlie,Acc,Participant_Images/662a754842502c24dbb45384/662a754842502c24dbb45384_Images/662a754842502c24dbb45384_Image_1.jpeg,liked,3.30081769,,,,,,,,,,,,,,,,,,,,,,
,,662a754842502c24dbb45384,6685aa9113c938e83b4f1ea0,66fee32265b467f14884b417,2024-10-03_14h32.44.084,WTP_SM_Choice,2022.2.1,Win32,59.52380952,,,,,,,,,,,,,,,,,,26,,,,,,space,4.3655,space,12.8658,2,0,0,0,0,1,Watch documentaries in my living room with dimmed lights and snacks,Attend pottery classes with my partner on thursday evenings creating unique pieces together,0.01,0.01,4.4,1,0.01,2.5228,,,,
,,662a754842502c24dbb45384,6685aa9113c938e83b4f1ea0,66fee32265b467f14884b417,2024-10-03_14h32.44.084,WTP_SM_Choice,2022.2.1,Win32,59.52380952,,,,,,,,,,,,,,,,,,27,,,,,,,,,,1,0,1,1,1,1,Join book club meetings with classmates on wednesday nights discussing our latest reads over wine,Cook new recipes in my kitchen while listening to my favorite podcast,0.02,0.01,3.3,0,0.02,1.7511,,,,
,,662a754842502c24dbb45384,6685aa9113c938e83b4f1ea0,66fee32265b467f14884b417,2024-10-03_14h32.44.084,WTP_SM_Choice,2022.2.1,Win32,59.52380952,,,,,,,,,,,,,,,,,,28,,,,,,,,,,1,0,2,2,2,1,Organize my bookshelf in my home office while sipping on iced coffee,Watch movies at the drivein theater with my siblings during summer nights,0.03,0.01,3.3,1,0.03,3.0484,,,,
,,662a754842502c24dbb45384,6685aa9113c938e83b4f1ea0,66fee32265b467f14884b417,2024-10-03_14h32.44.084,WTP_SM_Choice,2022.2.1,Win32,59.52380952,,,,,,,,,,,,,,,,,,29,,,,,,,,,,1,0,3,3,3,1,Host game nights with my friends in my living room while enjoying snacks and laughter,Journal my thoughts in a cozy cafe with a warm cup of tea,0.04,0.01,4.4,0,0.04,2.1161,,,,
,,662a754842502c24dbb45384,6685aa9113c938e83b4f1ea0,66fee32265b467f14884b417,2024-10-03_14h32.44.084,WTP_SM_Choice,2022.2.1,Win32,59.52380952,,,,,,,,,,,,,,,,,,30,,,,,,,,,,1,0,4,4,4,1,Volunteer at the local animal shelter with my coworkers on saturday afternoons,Explore local thrift stores on a saturday afternoon searching for unique finds,0.05,0.01,8.8,0,0.05,3.3663,,,,
,,662a754842502c24dbb45384,6685aa9113c938e83b4f1ea0,66fee32265b467f14884b417,2024-10-03_14h32.44.084,WTP_SM_Choice,2022.2.1,Win32,59.52380952,,,,,,,NAN,,NAN,0.95,5.05,,0,29,29,29,1,30,Charlie,Acc,Participant_Images/662a754842502c24dbb45384/662a754842502c24dbb45384_Images/662a754842502c24dbb45384_Image_24.jpeg,liked,1.661473164,,,,,,,,,,,,,,,,,,,,,,
,,662a754842502c24dbb45384,6685aa9113c938e83b4f1ea0,66fee32265b467f14884b417,2024-10-03_14h32.44.084,WTP_SM_Choice,2022.2.1,Win32,59.52380952,,,,,space,24.5344,NAN,,NAN,0.95,5.05,,0,30,30,30,1,31,Charlie,Acc,Participant_Images/662a754842502c24dbb45384/662a754842502c24dbb45384_Images/662a754842502c24dbb45384_Image_21.jpeg,liked,3.613205605,,,,,,,,,,,,,,,,,,,,,,
,,662a754842502c24dbb45384,6685aa9113c938e83b4f1ea0,66fee32265b467f14884b417,2024-10-03_14h32.44.084,WTP_SM_Choice,2022.2.1,Win32,59.52380952,,,,,space,1.5527,NAN,,NAN,0.95,5.05,,0,31,31,31,1,32,Charlie,Acc,Participant_Images/662a754842502c24dbb45384/662a754842502c24dbb45384_Images/662a754842502c24dbb45384_Image_22.jpeg,liked,4.988446431,,,,,,,,,,,,,,,,,,,,,,
,,662a754842502c24dbb45384,6685aa9113c938e83b4f1ea0,66fee32265b467f14884b417,2024-10-03_14h32.44.084,WTP_SM_Choice,2022.2.1,Win32,59.52380952,,,,,space,8.135,NAN,,NAN,0.95,5.05,,0,32,32,32,1,33,Charlie,Acc,Participant_Images/662a754842502c24dbb45384/662a754842502c24dbb45384_Images/662a754842502c24dbb45384_Image_20.jpeg,did not like,3.470791822,,,,,,,,,,,,,,,,,,,,,,
,,662a754842502c24dbb45384,6685aa9113c938e83b4f1ea0,66fee32265b467f14884b417,2024-10-03_14h32.44.084,WTP_SM_Choice,2022.2.1,Win32,59.52380952,,,,,space,2.1334,NAN,,NAN,0.95,5.05,,0,33,33,33,1,34,Charlie,Acc,Participant_Images/662a754842502c24dbb45384/662a754842502c24dbb45384_Images/662a754842502c24dbb45384_Image_10.jpeg,liked,3.820572462,,,,,,,,,,,,,,,,,,,,,,
,,662a754842502c24dbb45384,6685aa9113c938e83b4f1ea0,66fee32265b467f14884b417,2024-10-03_14h32.44.084,WTP_SM_Choice,2022.2.1,Win32,59.52380952,,,,,,,,,,,,,,,,,,31,,,,,,space,12.1369,space,1.1243,1,0,0,0,0,1,Go for bike rides along the beach with my partner during warm summer afternoons,Meditate on my balcony during sunrise surrounded by plants and gentle breezes,0.01,0.02,8.8,0,0.01,2.2546,,,,
,,662a754842502c24dbb45384,6685aa9113c938e83b4f1ea0,66fee32265b467f14884b417,2024-10-03_14h32.44.084,WTP_SM_Choice,2022.2.1,Win32,59.52380952,,,,,,,,,,,,,,,,,,32,,,,,,,,,,1,0,1,1,1,1,Volunteer at the local animal shelter with my coworkers on saturday afternoons,Cook new recipes in my kitchen while listening to my favorite podcast,0.02,0.02,1.1,0,0.02,2.6322,,,,
,,662a754842502c24dbb45384,6685aa9113c938e83b4f1ea0,66fee32265b467f14884b417,2024-10-03_14h32.44.084,WTP_SM_Choice,2022.2.1,Win32,59.52380952,,,,,,,,,,,,,,,,,,33,,,,,,,,,,1,0,2,2,2,1,Organize my bookshelf in my home office while sipping on iced coffee,Attend pottery classes with my partner on thursday evenings creating unique pieces together,0.03,0.02,4.4,1,0.03,1.8922,,,,
,,662a754842502c24dbb45384,6685aa9113c938e83b4f1ea0,66fee32265b467f14884b417,2024-10-03_14h32.44.084,WTP_SM_Choice,2022.2.1,Win32,59.52380952,,,,,,,,,,,,,,,,,,34,,,,,,,,,,1,0,3,3,3,1,Cook new recipes in my kitchen while listening to my favorite podcast,Attend pottery classes with my partner on thursday evenings creating unique pieces together,0.04,0.02,3.3,1,0.04,2.8761,,,,
,,662a754842502c24dbb45384,6685aa9113c938e83b4f1ea0,66fee32265b467f14884b417,2024-10-03_14h32.44.084,WTP_SM_Choice,2022.2.1,Win32,59.52380952,,,,,,,,,,,,,,,,,,35,,,,,,,,,,1,0,4,4,4,1,Join book club meetings with classmates on wednesday nights discussing our latest reads over wine,Bike along a scenic trail during early morning hours with the sun rising,0.05,0.02,1.1,0,0.05,4.5762,,,,
,,662a754842502c24dbb45384,6685aa9113c938e83b4f1ea0,66fee32265b467f14884b417,2024-10-03_14h32.44.084,WTP_SM_Choice,2022.2.1,Win32,59.52380952,,,,,,,NAN,,NAN,1.1,4.9,,0,34,34,34,1,35,Charlie,Acc,Participant_Images/662a754842502c24dbb45384/662a754842502c24dbb45384_Images/662a754842502c24dbb45384_Image_4.jpeg,liked,2.455989137,,,,,,,,,,,,,,,,,,,,,,
,,662a754842502c24dbb45384,6685aa9113c938e83b4f1ea0,66fee32265b467f14884b417,2024-10-03_14h32.44.084,WTP_SM_Choice,2022.2.1,Win32,59.52380952,,,,,space,7.2865,NAN,,NAN,1.1,4.9,,0,35,35,35,1,36,Charlie,Acc,Participant_Images/662a754842502c24dbb45384/662a754842502c24dbb45384_Images/662a754842502c24dbb45384_Image_2.jpeg,liked,3.79605092,,,,,,,,,,,,,,,,,,,,,,
,,662a754842502c24dbb45384,6685aa9113c938e83b4f1ea0,66fee32265b467f14884b417,2024-10-03_14h32.44.084,WTP_SM_Choice,2022.2.1,Win32,59.52380952,,,,,space,2.101,NAN,,NAN,1.1,4.9,,0,36,36,36,1,37,Charlie,Acc,Participant_Images/662a754842502c24dbb45384/662a754842502c24dbb45384_Images/662a754842502c24dbb45384_Image_7.jpeg,did not like,3.562416326,,,,,,,,,,,,,,,,,,,,,,
,,662a754842502c24dbb45384,6685aa9113c938e83b4f1ea0,66fee32265b467f14884b417,2024-10-03_14h32.44.084,WTP_SM_Choice,2022.2.1,Win32,59.52380952,,,,,space,5.3554,NAN,,NAN,1.1,4.9,,0,37,37,37,1,38,Charlie,Acc,Participant_Images/662a754842502c24dbb45384/662a754842502c24dbb45384_Images/662a754842502c24dbb45384_Image_15.jpeg,liked,2.843822497,,,,,,,,,,,,,,,,,,,,,,
,,662a754842502c24dbb45384,6685aa9113c938e83b4f1ea0,66fee32265b467f14884b417,2024-10-03_14h32.44.084,WTP_SM_Choice,2022.2.1,Win32,59.52380952,,,,,space,1.8062,NAN,,NAN,1.1,4.9,,0,38,38,38,1,39,Charlie,Acc,Participant_Images/662a754842502c24dbb45384/662a754842502c24dbb45384_Images/662a754842502c24dbb45384_Image_16.jpeg,did not like,3.546495948,,,,,,,,,,,,,,,,,,,,,,
,,662a754842502c24dbb45384,6685aa9113c938e83b4f1ea0,66fee32265b467f14884b417,2024-10-03_14h32.44.084,WTP_SM_Choice,2022.2.1,Win32,59.52380952,,,,,,,,,,,,,,,,,,36,,,,,,space,2.2775,space,1.1712,1,0,0,0,0,1,Go hiking on weekends with my family exploring new trails and taking in the views,Meditate on my balcony during sunrise surrounded by plants and gentle breezes,0.01,0.03,3.3,0,0.01,1.3082,,,,
,,662a754842502c24dbb45384,6685aa9113c938e83b4f1ea0,66fee32265b467f14884b417,2024-10-03_14h32.44.084,WTP_SM_Choice,2022.2.1,Win32,59.52380952,,,,,,,,,,,,,,,,,,37,,,,,,,,,,2,0,1,1,1,1,Cook new recipes in my kitchen while listening to my favorite podcast,Watch movies at the drivein theater with my siblings during summer nights,0.02,0.03,1.1,1,0.03,2.064,,,,
,,662a754842502c24dbb45384,6685aa9113c938e83b4f1ea0,66fee32265b467f14884b417,2024-10-03_14h32.44.084,WTP_SM_Choice,2022.2.1,Win32,59.52380952,,,,,,,,,,,,,,,,,,38,,,,,,,,,,1,0,2,2,2,1,Journal my thoughts in a cozy cafe with a warm cup of tea,Watch movies at the drivein theater with my siblings during summer nights,0.03,0.03,1.1,1,0.03,3.625,,,,
,,662a754842502c24dbb45384,6685aa9113c938e83b4f1ea0,66fee32265b467f14884b417,2024-10-03_14h32.44.084,WTP_SM_Choice,2022.2.1,Win32,59.52380952,,,,,,,,,,,,,,,,,,39,,,,,,,,,,1,0,3,3,3,1,Host game nights with my friends in my living room while enjoying snacks and laughter,Cook new recipes in my kitchen while listening to my favorite podcast,0.04,0.03,3.3,0,0.04,1.5652,,,,
,,662a754842502c24dbb45384,6685aa9113c938e83b4f1ea0,66fee32265b467f14884b417,2024-10-03_14h32.44.084,WTP_SM_Choice,2022.2.1,Win32,59.52380952,,,,,,,,,,,,,,,,,,40,,,,,,,,,,1,0,4,4,4,1,Watch documentaries in my living room with dimmed lights and snacks,Volunteer at the local animal shelter with my coworkers on saturday afternoons,0.05,0.03,4.4,1,0.05,2.2685,,,,
,,662a754842502c24dbb45384,6685aa9113c938e83b4f1ea0,66fee32265b467f14884b417,2024-10-03_14h32.44.084,WTP_SM_Choice,2022.2.1,Win32,59.52380952,,,,,,,NAN,,NAN,1.26,4.74,,0,39,39,39,1,40,Charlie,Acc,Participant_Images/662a754842502c24dbb45384/662a754842502c24dbb45384_Images/662a754842502c24dbb45384_Image_9.jpeg,did not like,1.672012706,,,,,,,,,,,,,,,,,,,,,,
,,662a754842502c24dbb45384,6685aa9113c938e83b4f1ea0,66fee32265b467f14884b417,2024-10-03_14h32.44.084,WTP_SM_Choice,2022.2.1,Win32,59.52380952,,,,,space,4.6729,NAN,,NAN,1.26,4.74,,0,40,40,40,1,41,Charlie,Acc,Participant_Images/662a754842502c24dbb45384/662a754842502c24dbb45384_Images/662a754842502c24dbb45384_Image_5.jpeg,did not like,4.942172136,,,,,,,,,,,,,,,,,,,,,,
,,662a754842502c24dbb45384,6685aa9113c938e83b4f1ea0,66fee32265b467f14884b417,2024-10-03_14h32.44.084,WTP_SM_Choice,2022.2.1,Win32,59.52380952,,,,,space,6.3362,NAN,,NAN,1.26,4.74,,0,41,41,41,1,42,Charlie,Acc,Participant_Images/662a754842502c24dbb45384/662a754842502c24dbb45384_Images/662a754842502c24dbb45384_Image_14.jpeg,liked,2.50187214,,,,,,,,,,,,,,,,,,,,,,
,,662a754842502c24dbb45384,6685aa9113c938e83b4f1ea0,66fee32265b467f14884b417,2024-10-03_14h32.44.084,WTP_SM_Choice,2022.2.1,Win32,59.52380952,,,,,space,0.6391,NAN,,NAN,1.26,4.74,,0,42,42,42,1,43,Charlie,Acc,Participant_Images/662a754842502c24dbb45384/662a754842502c24dbb45384_Images/662a754842502c24dbb45384_Image_11.jpeg,liked,2.071164779,,,,,,,,,,,,,,,,,,,,,,
,,662a754842502c24dbb45384,6685aa9113c938e83b4f1ea0,66fee32265b467f14884b417,2024-10-03_14h32.44.084,WTP_SM_Choice,2022.2.1,Win32,59.52380952,,,,,space,13.5889,NAN,,NAN,1.26,4.74,,0,43,43,43,1,44,Charlie,Acc,Participant_Images/662a754842502c24dbb45384/662a754842502c24dbb45384_Images/662a754842502c24dbb45384_Image_18.jpeg,liked,5.336503566,,,,,,,,,,,,,,,,,,,,,,
,,662a754842502c24dbb45384,6685aa9113c938e83b4f1ea0,66fee32265b467f14884b417,2024-10-03_14h32.44.084,WTP_SM_Choice,2022.2.1,Win32,59.52380952,,,,,,,,,,,,,,,,,,41,,,,,,space,0.8765,space,0.874,2,0,0,0,0,1,Join book club meetings with classmates on wednesday nights discussing our latest reads over wine,Meditate on my balcony during sunrise surrounded by plants and gentle breezes,0.01,0.04,1.1,0,0.04,1.7184,,,,
,,662a754842502c24dbb45384,6685aa9113c938e83b4f1ea0,66fee32265b467f14884b417,2024-10-03_14h32.44.084,WTP_SM_Choice,2022.2.1,Win32,59.52380952,,,,,,,,,,,,,,,,,,42,,,,,,,,,,2,0,1,1,1,1,Go for bike rides along the beach with my partner during warm summer afternoons,Sketch nature scenes at a quiet park bench surrounded by autumn leaves,0.02,0.04,3.3,0,0.04,2.119,,,,
,,662a754842502c24dbb45384,6685aa9113c938e83b4f1ea0,66fee32265b467f14884b417,2024-10-03_14h32.44.084,WTP_SM_Choice,2022.2.1,Win32,59.52380952,,,,,,,,,,,,,,,,,,43,,,,,,,,,,2,0,2,2,2,1,Stargaze from my backyard on a clear summer night with soft music playing,Go hiking on weekends with my family exploring new trails and taking in the views,0.03,0.04,1.1,1,0.04,8.6879,,,,
,,662a754842502c24dbb45384,6685aa9113c938e83b4f1ea0,66fee32265b467f14884b417,2024-10-03_14h32.44.084,WTP_SM_Choice,2022.2.1,Win32,59.52380952,,,,,,,,,,,,,,,,,,44,,,,,,,,,,1,0,3,3,3,1,Attend concerts in the park with my best friend enjoying live music and picnicking,Stargaze from my backyard on a clear summer night with soft music playing,0.04,0.04,1.1,0,0.04,4.545,,,,
,,662a754842502c24dbb45384,6685aa9113c938e83b4f1ea0,66fee32265b467f14884b417,2024-10-03_14h32.44.084,WTP_SM_Choice,2022.2.1,Win32,59.52380952,,,,,,,,,,,,,,,,,,45,,,,,,,,,,1,0,4,4,4,1,Journal my thoughts in a cozy cafe with a warm cup of tea,Attend pottery classes with my partner on thursday evenings creating unique pieces together,0.05,0.04,4.4,1,0.05,2.2426,,,,
,,662a754842502c24dbb45384,6685aa9113c938e83b4f1ea0,66fee32265b467f14884b417,2024-10-03_14h32.44.084,WTP_SM_Choice,2022.2.1,Win32,59.52380952,,,,,,,NAN,,NAN,1.47,4.53,,0,44,44,44,1,45,Charlie,Acc,Participant_Images/662a754842502c24dbb45384/662a754842502c24dbb45384_Images/662a754842502c24dbb45384_Image_19.jpeg,did not like,2.642157193,,,,,,,,,,,,,,,,,,,,,,
,,662a754842502c24dbb45384,6685aa9113c938e83b4f1ea0,66fee32265b467f14884b417,2024-10-03_14h32.44.084,WTP_SM_Choice,2022.2.1,Win32,59.52380952,,,,,space,7.6984,NAN,,NAN,1.47,4.53,,0,45,45,45,1,46,Charlie,Acc,Participant_Images/662a754842502c24dbb45384/662a754842502c24dbb45384_Images/662a754842502c24dbb45384_Image_8.jpeg,liked,4.456234322,,,,,,,,,,,,,,,,,,,,,,
,,662a754842502c24dbb45384,6685aa9113c938e83b4f1ea0,66fee32265b467f14884b417,2024-10-03_14h32.44.084,WTP_SM_Choice,2022.2.1,Win32,59.52380952,,,,,space,2.6748,NAN,,NAN,1.47,4.53,,0,46,46,46,1,47,Charlie,Acc,Participant_Images/662a754842502c24dbb45384/662a754842502c24dbb45384_Images/662a754842502c24dbb45384_Image_3.jpeg,did not like,4.438512181,,,,,,,,,,,,,,,,,,,,,,
,,662a754842502c24dbb45384,6685aa9113c938e83b4f1ea0,66fee32265b467f14884b417,2024-10-03_14h32.44.084,WTP_SM_Choice,2022.2.1,Win32,59.52380952,,,,,space,18.7725,NAN,,NAN,1.47,4.53,,0,47,47,47,1,48,Charlie,Acc,Participant_Images/662a754842502c24dbb45384/662a754842502c24dbb45384_Images/662a754842502c24dbb45384_Image_13.jpeg,liked,2.682944783,,,,,,,,,,,,,,,,,,,,,,
,,662a754842502c24dbb45384,6685aa9113c938e83b4f1ea0,66fee32265b467f14884b417,2024-10-03_14h32.44.084,WTP_SM_Choice,2022.2.1,Win32,59.52380952,,,,,space,1.611,NAN,,NAN,1.47,4.53,,0,48,48,48,1,49,Charlie,Acc,Participant_Images/662a754842502c24dbb45384/662a754842502c24dbb45384_Images/662a754842502c24dbb45384_Image_17.jpeg,liked,4.51984296,,,,,,,,,,,,,,,,,,,,,,
,,662a754842502c24dbb45384,6685aa9113c938e83b4f1ea0,66fee32265b467f14884b417,2024-10-03_14h32.44.084,WTP_SM_Choice,2022.2.1,Win32,59.52380952,,,,,,,,,,,,,,,,,,46,,,,,,space,2.8864,space,0.87,2,0,0,0,0,1,Host game nights with my friends in my living room while enjoying snacks and laughter,Watch documentaries in my living room with dimmed lights and snacks,0.01,0.05,8.8,0,0.05,1.2114,,,,
,,662a754842502c24dbb45384,6685aa9113c938e83b4f1ea0,66fee32265b467f14884b417,2024-10-03_14h32.44.084,WTP_SM_Choice,2022.2.1,Win32,59.52380952,,,,,,,,,,,,,,,,,,47,,,,,,,,,,2,0,1,1,1,1,Go hiking on weekends with my family exploring new trails and taking in the views,Journal my thoughts in a cozy cafe with a warm cup of tea,0.02,0.05,1.1,0,0.05,1.5157,,,,
,,662a754842502c24dbb45384,6685aa9113c938e83b4f1ea0,66fee32265b467f14884b417,2024-10-03_14h32.44.084,WTP_SM_Choice,2022.2.1,Win32,59.52380952,,,,,,,,,,,,,,,,,,48,,,,,,,,,,2,0,2,2,2,1,Host game nights with my friends in my living room while enjoying snacks and laughter,Bike along a scenic trail during early morning hours with the sun rising,0.03,0.05,4.4,0,0.05,1.4915,,,,
,,662a754842502c24dbb45384,6685aa9113c938e83b4f1ea0,66fee32265b467f14884b417,2024-10-03_14h32.44.084,WTP_SM_Choice,2022.2.1,Win32,59.52380952,,,,,,,,,,,,,,,,,,49,,,,,,,,,,2,0,3,3,3,1,Organize my bookshelf in my home office while sipping on iced coffee,Host game nights with my friends in my living room while enjoying snacks and laughter,0.04,0.05,3.3,1,0.05,0.5043,,,,
,,662a754842502c24dbb45384,6685aa9113c938e83b4f1ea0,66fee32265b467f14884b417,2024-10-03_14h32.44.084,WTP_SM_Choice,2022.2.1,Win32,59.52380952,,,,,,,,,,,,,,,,,,50,,,,,,,,,,2,0,4,4,4,1,Journal my thoughts in a cozy cafe with a warm cup of tea,Play trivia at a pub with my friends on friday evenings competing for prizes and bragging,0.05,0.05,1.1,1,0.05,5.0612,,,,
,,662a754842502c24dbb45384,6685aa9113c938e83b4f1ea0,66fee32265b467f14884b417,2024-10-03_14h32.44.084,WTP_SM_Choice,2022.2.1,Win32,59.52380952,,,,,,,3,,7,1.72,4.28,,0,49,49,49,1,50,Charlie,Acc,Participant_Images/662a754842502c24dbb45384/662a754842502c24dbb45384_Images/662a754842502c24dbb45384_Image_6.jpeg,liked,3.195382774,,,,,,,,,,,,,,,,,,,space,11.2867,,
,,662a754842502c24dbb45384,6685aa9113c938e83b4f1ea0,66fee32265b467f14884b417,2024-10-03_14h32.44.084,WTP_SM_Choice,2022.2.1,Win32,59.52380952,,,space,6.7203,space,5.4532,NAN,,NAN,1.72,4.28,,0,50,50,50,1,51,Riley,Rej,Participant_Images/662a754842502c24dbb45384/662a754842502c24dbb45384_Images/662a754842502c24dbb45384_Image_12.jpeg,did not like,1.779333479,,,,,,,,,,,,,,,,,,,,,,
,,662a754842502c24dbb45384,6685aa9113c938e83b4f1ea0,66fee32265b467f14884b417,2024-10-03_14h32.44.084,WTP_SM_Choice,2022.2.1,Win32,59.52380952,,,,,space,14.8481,NAN,,NAN,1.72,4.28,,0,51,51,51,1,52,Riley,Rej,Participant_Images/662a754842502c24dbb45384/662a754842502c24dbb45384_Images/662a754842502c24dbb45384_Image_16.jpeg,did not like,4.312468682,,,,,,,,,,,,,,,,,,,,,,
,,662a754842502c24dbb45384,6685aa9113c938e83b4f1ea0,66fee32265b467f14884b417,2024-10-03_14h32.44.084,WTP_SM_Choice,2022.2.1,Win32,59.52380952,,,,,space,11.676,NAN,,NAN,1.72,4.28,,0,52,52,52,1,53,Riley,Rej,Participant_Images/662a754842502c24dbb45384/662a754842502c24dbb45384_Images/662a754842502c24dbb45384_Image_7.jpeg,did not like,4.940433059,,,,,,,,,,,,,,,,,,,,,,
,,662a754842502c24dbb45384,6685aa9113c938e83b4f1ea0,66fee32265b467f14884b417,2024-10-03_14h32.44.084,WTP_SM_Choice,2022.2.1,Win32,59.52380952,,,,,space,12.8752,NAN,,NAN,1.72,4.28,,0,53,53,53,1,54,Riley,Rej,Participant_Images/662a754842502c24dbb45384/662a754842502c24dbb45384_Images/662a754842502c24dbb45384_Image_6.jpeg,did not like,2.7105123,,,,,,,,,,,,,,,,,,,,,,
,,662a754842502c24dbb45384,6685aa9113c938e83b4f1ea0,66fee32265b467f14884b417,2024-10-03_14h32.44.084,WTP_SM_Choice,2022.2.1,Win32,59.52380952,,,,,,,,,,,,,,,,,,51,,,,,,space,5.5159,space,18.8028,2,0,0,0,0,1,Go for bike rides along the beach with my partner during warm summer afternoons,Bike along a scenic trail during early morning hours with the sun rising,0.01,0.01,1.1,0,0.01,2.7373,,,,
,,662a754842502c24dbb45384,6685aa9113c938e83b4f1ea0,66fee32265b467f14884b417,2024-10-03_14h32.44.084,WTP_SM_Choice,2022.2.1,Win32,59.52380952,,,,,,,,,,,,,,,,,,52,,,,,,,,,,1,0,1,1,1,1,Explore local thrift stores on a saturday afternoon searching for unique finds,Join book club meetings with classmates on wednesday nights discussing our latest reads over wine,0.02,0.01,3.3,1,0.02,2.3358,,,,
,,662a754842502c24dbb45384,6685aa9113c938e83b4f1ea0,66fee32265b467f14884b417,2024-10-03_14h32.44.084,WTP_SM_Choice,2022.2.1,Win32,59.52380952,,,,,,,,,,,,,,,,,,53,,,,,,,,,,2,0,2,2,2,1,Join book club meetings with classmates on wednesday nights discussing our latest reads over wine,Organize my bookshelf in my home office while sipping on iced coffee,0.03,0.01,1.1,0,0.01,1.2149,,,,
,,662a754842502c24dbb45384,6685aa9113c938e83b4f1ea0,66fee32265b467f14884b417,2024-10-03_14h32.44.084,WTP_SM_Choice,2022.2.1,Win32,59.52380952,,,,,,,,,,,,,,,,,,54,,,,,,,,,,1,0,3,3,3,1,Play trivia at a pub with my friends on friday evenings competing for prizes and bragging,Bike along a scenic trail during early morning hours with the sun rising,0.04,0.01,4.4,0,0.04,2.0975,,,,
,,662a754842502c24dbb45384,6685aa9113c938e83b4f1ea0,66fee32265b467f14884b417,2024-10-03_14h32.44.084,WTP_SM_Choice,2022.2.1,Win32,59.52380952,,,,,,,,,,,,,,,,,,55,,,,,,,,,,1,0,4,4,4,1,Sketch nature scenes at a quiet park bench surrounded by autumn leaves,Host game nights with my friends in my living room while enjoying snacks and laughter,0.05,0.01,1.1,1,0.05,1.5842,,,,
,,662a754842502c24dbb45384,6685aa9113c938e83b4f1ea0,66fee32265b467f14884b417,2024-10-03_14h32.44.084,WTP_SM_Choice,2022.2.1,Win32,59.52380952,,,,,,,NAN,,NAN,1.85,4.15,,0,54,54,54,1,55,Riley,Rej,Participant_Images/662a754842502c24dbb45384/662a754842502c24dbb45384_Images/662a754842502c24dbb45384_Image_10.jpeg,did not like,3.602308302,,,,,,,,,,,,,,,,,,,,,,
,,662a754842502c24dbb45384,6685aa9113c938e83b4f1ea0,66fee32265b467f14884b417,2024-10-03_14h32.44.084,WTP_SM_Choice,2022.2.1,Win32,59.52380952,,,,,space,0.834,NAN,,NAN,1.85,4.15,,0,55,55,55,1,56,Riley,Rej,Participant_Images/662a754842502c24dbb45384/662a754842502c24dbb45384_Images/662a754842502c24dbb45384_Image_5.jpeg,did not like,4.106391878,,,,,,,,,,,,,,,,,,,,,,
,,662a754842502c24dbb45384,6685aa9113c938e83b4f1ea0,66fee32265b467f14884b417,2024-10-03_14h32.44.084,WTP_SM_Choice,2022.2.1,Win32,59.52380952,,,,,space,0.6034,NAN,,NAN,1.85,4.15,,0,56,56,56,1,57,Riley,Rej,Participant_Images/662a754842502c24dbb45384/662a754842502c24dbb45384_Images/662a754842502c24dbb45384_Image_2.jpeg,liked,3.799433026,,,,,,,,,,,,,,,,,,,,,,
,,662a754842502c24dbb45384,6685aa9113c938e83b4f1ea0,66fee32265b467f14884b417,2024-10-03_14h32.44.084,WTP_SM_Choice,2022.2.1,Win32,59.52380952,,,,,space,0.8848,NAN,,NAN,1.85,4.15,,0,57,57,57,1,58,Riley,Rej,Participant_Images/662a754842502c24dbb45384/662a754842502c24dbb45384_Images/662a754842502c24dbb45384_Image_1.jpeg,liked,5.246980764,,,,,,,,,,,,,,,,,,,,,,
,,662a754842502c24dbb45384,6685aa9113c938e83b4f1ea0,66fee32265b467f14884b417,2024-10-03_14h32.44.084,WTP_SM_Choice,2022.2.1,Win32,59.52380952,,,,,space,0.634,NAN,,NAN,1.85,4.15,,0,58,58,58,1,59,Riley,Rej,Participant_Images/662a754842502c24dbb45384/662a754842502c24dbb45384_Images/662a754842502c24dbb45384_Image_4.jpeg,did not like,3.30081769,,,,,,,,,,,,,,,,,,,,,,
,,662a754842502c24dbb45384,6685aa9113c938e83b4f1ea0,66fee32265b467f14884b417,2024-10-03_14h32.44.084,WTP_SM_Choice,2022.2.1,Win32,59.52380952,,,,,,,,,,,,,,,,,,56,,,,,,space,0.7307,space,0.6539,2,0,0,0,0,1,Attend concerts in the park with my best friend enjoying live music and picnicking,Journal my thoughts in a cozy cafe with a warm cup of tea,0.01,0.02,8.8,0,0.02,2.1359,,,,
,,662a754842502c24dbb45384,6685aa9113c938e83b4f1ea0,66fee32265b467f14884b417,2024-10-03_14h32.44.084,WTP_SM_Choice,2022.2.1,Win32,59.52380952,,,,,,,,,,,,,,,,,,57,,,,,,,,,,1,0,1,1,1,1,Bike along a scenic trail during early morning hours with the sun rising,Watch movies at the drivein theater with my siblings during summer nights,0.02,0.02,4.4,1,0.02,2.1309,,,,
,,662a754842502c24dbb45384,6685aa9113c938e83b4f1ea0,66fee32265b467f14884b417,2024-10-03_14h32.44.084,WTP_SM_Choice,2022.2.1,Win32,59.52380952,,,,,,,,,,,,,,,,,,58,,,,,,,,,,1,0,2,2,2,1,Attend concerts in the park with my best friend enjoying live music and picnicking,Sketch nature scenes at a quiet park bench surrounded by autumn leaves,0.03,0.02,4.4,0,0.03,1.3792,,,,
,,662a754842502c24dbb45384,6685aa9113c938e83b4f1ea0,66fee32265b467f14884b417,2024-10-03_14h32.44.084,WTP_SM_Choice,2022.2.1,Win32,59.52380952,,,,,,,,,,,,,,,,,,59,,,,,,,,,,1,0,3,3,3,1,Play trivia at a pub with my friends on friday evenings competing for prizes and bragging,Organize my bookshelf in my home office while sipping on iced coffee,0.04,0.02,4.4,0,0.04,1.8682,,,,
,,662a754842502c24dbb45384,6685aa9113c938e83b4f1ea0,66fee32265b467f14884b417,2024-10-03_14h32.44.084,WTP_SM_Choice,2022.2.1,Win32,59.52380952,,,,,,,,,,,,,,,,,,60,,,,,,,,,,1,0,4,4,4,1,Go hiking on weekends with my family exploring new trails and taking in the views,Cook new recipes in my kitchen while listening to my favorite podcast,0.05,0.02,1.1,0,0.05,4.5387,,,,
,,662a754842502c24dbb45384,6685aa9113c938e83b4f1ea0,66fee32265b467f14884b417,2024-10-03_14h32.44.084,WTP_SM_Choice,2022.2.1,Win32,59.52380952,,,,,,,NAN,,NAN,2.01,3.99,,0,59,59,59,1,60,Riley,Rej,Participant_Images/662a754842502c24dbb45384/662a754842502c24dbb45384_Images/662a754842502c24dbb45384_Image_18.jpeg,liked,1.661473164,,,,,,,,,,,,,,,,,,,,,,
,,662a754842502c24dbb45384,6685aa9113c938e83b4f1ea0,66fee32265b467f14884b417,2024-10-03_14h32.44.084,WTP_SM_Choice,2022.2.1,Win32,59.52380952,,,,,space,2.3404,NAN,,NAN,2.01,3.99,,0,60,60,60,1,61,Riley,Rej,Participant_Images/662a754842502c24dbb45384/662a754842502c24dbb45384_Images/662a754842502c24dbb45384_Image_24.jpeg,liked,3.613205605,,,,,,,,,,,,,,,,,,,,,,
,,662a754842502c24dbb45384,6685aa9113c938e83b4f1ea0,66fee32265b467f14884b417,2024-10-03_14h32.44.084,WTP_SM_Choice,2022.2.1,Win32,59.52380952,,,,,space,3.753,NAN,,NAN,2.01,3.99,,0,61,61,61,1,62,Riley,Rej,Participant_Images/662a754842502c24dbb45384/662a754842502c24dbb45384_Images/662a754842502c24dbb45384_Image_15.jpeg,did not like,4.988446431,,,,,,,,,,,,,,,,,,,,,,
,,662a754842502c24dbb45384,6685aa9113c938e83b4f1ea0,66fee32265b467f14884b417,2024-10-03_14h32.44.084,WTP_SM_Choice,2022.2.1,Win32,59.52380952,,,,,space,1.0514,NAN,,NAN,2.01,3.99,,0,62,62,62,1,63,Riley,Rej,Participant_Images/662a754842502c24dbb45384/662a754842502c24dbb45384_Images/662a754842502c24dbb45384_Image_3.jpeg,did not like,3.470791822,,,,,,,,,,,,,,,,,,,,,,
,,662a754842502c24dbb45384,6685aa9113c938e83b4f1ea0,66fee32265b467f14884b417,2024-10-03_14h32.44.084,WTP_SM_Choice,2022.2.1,Win32,59.52380952,,,,,space,1.2905,NAN,,NAN,2.01,3.99,,0,63,63,63,1,64,Riley,Rej,Participant_Images/662a754842502c24dbb45384/662a754842502c24dbb45384_Images/662a754842502c24dbb45384_Image_17.jpeg,did not like,3.820572462,,,,,,,,,,,,,,,,,,,,,,
,,662a754842502c24dbb45384,6685aa9113c938e83b4f1ea0,66fee32265b467f14884b417,2024-10-03_14h32.44.084,WTP_SM_Choice,2022.2.1,Win32,59.52380952,,,,,,,,,,,,,,,,,,61,,,,,,space,0.8226,space,0.8696,2,0,0,0,0,1,Sketch nature scenes at a quiet park bench surrounded by autumn leaves,Attend pottery classes with my partner on thursday evenings creating unique pieces together,0.01,0.03,3.3,1,0.03,2.0165,,,,
,,662a754842502c24dbb45384,6685aa9113c938e83b4f1ea0,66fee32265b467f14884b417,2024-10-03_14h32.44.084,WTP_SM_Choice,2022.2.1,Win32,59.52380952,,,,,,,,,,,,,,,,,,62,,,,,,,,,,2,0,1,1,1,1,Host game nights with my friends in my living room while enjoying snacks and laughter,Stargaze from my backyard on a clear summer night with soft music playing,0.02,0.03,3.3,0,0.03,1.4195,,,,
,,662a754842502c24dbb45384,6685aa9113c938e83b4f1ea0,66fee32265b467f14884b417,2024-10-03_14h32.44.084,WTP_SM_Choice,2022.2.1,Win32,59.52380952,,,,,,,,,,,,,,,,,,63,,,,,,,,,,1,0,2,2,2,1,Journal my thoughts in a cozy cafe with a warm cup of tea,Join book club meetings with classmates on wednesday nights discussing our latest reads over wine,0.03,0.03,3.3,1,0.03,1.4344,,,,
,,662a754842502c24dbb45384,6685aa9113c938e83b4f1ea0,66fee32265b467f14884b417,2024-10-03_14h32.44.084,WTP_SM_Choice,2022.2.1,Win32,59.52380952,,,,,,,,,,,,,,,,,,64,,,,,,,,,,1,0,3,3,3,1,Watch movies at the drivein theater with my siblings during summer nights,Sketch nature scenes at a quiet park bench surrounded by autumn leaves,0.04,0.03,1.1,0,0.04,1.5614,,,,
,,662a754842502c24dbb45384,6685aa9113c938e83b4f1ea0,66fee32265b467f14884b417,2024-10-03_14h32.44.084,WTP_SM_Choice,2022.2.1,Win32,59.52380952,,,,,,,,,,,,,,,,,,65,,,,,,,,,,2,0,4,4,4,1,Watch documentaries in my living room with dimmed lights and snacks,Go hiking on weekends with my family exploring new trails and taking in the views,0.05,0.03,1.1,1,0.03,3.2145,,,,
,,662a754842502c24dbb45384,6685aa9113c938e83b4f1ea0,66fee32265b467f14884b417,2024-10-03_14h32.44.084,WTP_SM_Choice,2022.2.1,Win32,59.52380952,,,,,,,NAN,,NAN,2.17,3.83,,0,64,64,64,1,65,Riley,Rej,Participant_Images/662a754842502c24dbb45384/662a754842502c24dbb45384_Images/662a754842502c24dbb45384_Image_21.jpeg,did not like,2.455989137,,,,,,,,,,,,,,,,,,,,,,
,,662a754842502c24dbb45384,6685aa9113c938e83b4f1ea0,66fee32265b467f14884b417,2024-10-03_14h32.44.084,WTP_SM_Choice,2022.2.1,Win32,59.52380952,,,,,space,0.7923,NAN,,NAN,2.17,3.83,,0,65,65,65,1,66,Riley,Rej,Participant_Images/662a754842502c24dbb45384/662a754842502c24dbb45384_Images/662a754842502c24dbb45384_Image_23.jpeg,did not like,3.79605092,,,,,,,,,,,,,,,,,,,,,,
,,662a754842502c24dbb45384,6685aa9113c938e83b4f1ea0,66fee32265b467f14884b417,2024-10-03_14h32.44.084,WTP_SM_Choice,2022.2.1,Win32,59.52380952,,,,,space,12.8046,NAN,,NAN,2.17,3.83,,0,66,66,66,1,67,Riley,Rej,Participant_Images/662a754842502c24dbb45384/662a754842502c24dbb45384_Images/662a754842502c24dbb45384_Image_13.jpeg,liked,3.562416326,,,,,,,,,,,,,,,,,,,,,,
,,662a754842502c24dbb45384,6685aa9113c938e83b4f1ea0,66fee32265b467f14884b417,2024-10-03_14h32.44.084,WTP_SM_Choice,2022.2.1,Win32,59.52380952,,,,,space,8.5954,NAN,,NAN,2.17,3.83,,0,67,67,67,1,68,Riley,Rej,Participant_Images/662a754842502c24dbb45384/662a754842502c24dbb45384_Images/662a754842502c24dbb45384_Image_9.jpeg,did not like,2.843822497,,,,,,,,,,,,,,,,,,,,,,
,,662a754842502c24dbb45384,6685aa9113c938e83b4f1ea0,66fee32265b467f14884b417,2024-10-03_14h32.44.084,WTP_SM_Choice,2022.2.1,Win32,59.52380952,,,,,space,4.2184,NAN,,NAN,2.17,3.83,,0,68,68,68,1,69,Riley,Rej,Participant_Images/662a754842502c24dbb45384/662a754842502c24dbb45384_Images/662a754842502c24dbb45384_Image_8.jpeg,did not like,3.546495948,,,,,,,,,,,,,,,,,,,,,,
,,662a754842502c24dbb45384,6685aa9113c938e83b4f1ea0,66fee32265b467f14884b417,2024-10-03_14h32.44.084,WTP_SM_Choice,2022.2.1,Win32,59.52380952,,,,,,,,,,,,,,,,,,66,,,,,,space,7.8259,space,0.5697,2,0,0,0,0,1,Go for bike rides along the beach with my partner during warm summer afternoons,Cook new recipes in my kitchen while listening to my favorite podcast,0.01,0.04,1.1,0,0.04,1.2877,,,,
,,662a754842502c24dbb45384,6685aa9113c938e83b4f1ea0,66fee32265b467f14884b417,2024-10-03_14h32.44.084,WTP_SM_Choice,2022.2.1,Win32,59.52380952,,,,,,,,,,,,,,,,,,67,,,,,,,,,,2,0,1,1,1,1,Play trivia at a pub with my friends on friday evenings competing for prizes and bragging,Stargaze from my backyard on a clear summer night with soft music playing,0.02,0.04,8.8,0,0.04,6.9739,,,,
,,662a754842502c24dbb45384,6685aa9113c938e83b4f1ea0,66fee32265b467f14884b417,2024-10-03_14h32.44.084,WTP_SM_Choice,2022.2.1,Win32,59.52380952,,,,,,,,,,,,,,,,,,68,,,,,,,,,,2,0,2,2,2,1,Stargaze from my backyard on a clear summer night with soft music playing,Organize brunch outings with my close friends at our favorite cafe on sunday mornings,0.03,0.04,4.4,1,0.04,0.7924,,,,
,,662a754842502c24dbb45384,6685aa9113c938e83b4f1ea0,66fee32265b467f14884b417,2024-10-03_14h32.44.084,WTP_SM_Choice,2022.2.1,Win32,59.52380952,,,,,,,,,,,,,,,,,,69,,,,,,,,,,2,0,3,3,3,1,Meditate on my balcony during sunrise surrounded by plants and gentle breezes,Play trivia at a pub with my friends on friday evenings competing for prizes and bragging,0.04,0.04,1.1,1,0.04,1.1045,,,,
,,662a754842502c24dbb45384,6685aa9113c938e83b4f1ea0,66fee32265b467f14884b417,2024-10-03_14h32.44.084,WTP_SM_Choice,2022.2.1,Win32,59.52380952,,,,,,,,,,,,,,,,,,70,,,,,,,,,,2,0,4,4,4,1,Practice yoga in my bedroom with calming candles and essential oils,Watch movies at the drivein theater with my siblings during summer nights,0.05,0.04,1.1,1,0.04,8.5778,,,,
,,662a754842502c24dbb45384,6685aa9113c938e83b4f1ea0,66fee32265b467f14884b417,2024-10-03_14h32.44.084,WTP_SM_Choice,2022.2.1,Win32,59.52380952,,,,,,,NAN,,NAN,2.37,3.63,,0,69,69,69,1,70,Riley,Rej,Participant_Images/662a754842502c24dbb45384/662a754842502c24dbb45384_Images/662a754842502c24dbb45384_Image_11.jpeg,did not like,1.672012706,,,,,,,,,,,,,,,,,,,,,,
,,662a754842502c24dbb45384,6685aa9113c938e83b4f1ea0,66fee32265b467f14884b417,2024-10-03_14h32.44.084,WTP_SM_Choice,2022.2.1,Win32,59.52380952,,,,,space,3.3574,NAN,,NAN,2.37,3.63,,0,70,70,70,1,71,Riley,Rej,Participant_Images/662a754842502c24dbb45384/662a754842502c24dbb45384_Images/662a754842502c24dbb45384_Image_14.jpeg,liked,4.942172136,,,,,,,,,,,,,,,,,,,,,,
,,662a754842502c24dbb45384,6685aa9113c938e83b4f1ea0,66fee32265b467f14884b417,2024-10-03_14h32.44.084,WTP_SM_Choice,2022.2.1,Win32,59.52380952,,,,,space,1.9867,NAN,,NAN,2.37,3.63,,0,71,71,71,1,72,Riley,Rej,Participant_Images/662a754842502c24dbb45384/662a754842502c24dbb45384_Images/662a754842502c24dbb45384_Image_22.jpeg,did not like,2.50187214,,,,,,,,,,,,,,,,,,,,,,
,,662a754842502c24dbb45384,6685aa9113c938e83b4f1ea0,66fee32265b467f14884b417,2024-10-03_14h32.44.084,WTP_SM_Choice,2022.2.1,Win32,59.52380952,,,,,space,4.3574,NAN,,NAN,2.37,3.63,,0,72,72,72,1,73,Riley,Rej,Participant_Images/662a754842502c24dbb45384/662a754842502c24dbb45384_Images/662a754842502c24dbb45384_Image_20.jpeg,did not like,2.071164779,,,,,,,,,,,,,,,,,,,,,,
,,662a754842502c24dbb45384,6685aa9113c938e83b4f1ea0,66fee32265b467f14884b417,2024-10-03_14h32.44.084,WTP_SM_Choice,2022.2.1,Win32,59.52380952,,,,,space,7.3017,NAN,,NAN,2.37,3.63,,0,73,73,73,1,74,Riley,Rej,Participant_Images/662a754842502c24dbb45384/662a754842502c24dbb45384_Images/662a754842502c24dbb45384_Image_25.jpeg,liked,5.336503566,,,,,,,,,,,,,,,,,,,,,,
,,662a754842502c24dbb45384,6685aa9113c938e83b4f1ea0,66fee32265b467f14884b417,2024-10-03_14h32.44.084,WTP_SM_Choice,2022.2.1,Win32,59.52380952,,,,,,,,,,,,,,,,,,71,,,,,,space,0.5041,space,0.6088,2,0,0,0,0,1,Bike along a scenic trail during early morning hours with the sun rising,Attend concerts in the park with my best friend enjoying live music and picnicking,0.01,0.05,3.3,1,0.05,5.4903,,,,
,,662a754842502c24dbb45384,6685aa9113c938e83b4f1ea0,66fee32265b467f14884b417,2024-10-03_14h32.44.084,WTP_SM_Choice,2022.2.1,Win32,59.52380952,,,,,,,,,,,,,,,,,,72,,,,,,,,,,2,0,1,1,1,1,Watch movies at the drivein theater with my siblings during summer nights,Watch documentaries in my living room with dimmed lights and snacks,0.02,0.05,8.8,0,0.05,2.6296,,,,
,,662a754842502c24dbb45384,6685aa9113c938e83b4f1ea0,66fee32265b467f14884b417,2024-10-03_14h32.44.084,WTP_SM_Choice,2022.2.1,Win32,59.52380952,,,,,,,,,,,,,,,,,,73,,,,,,,,,,2,0,2,2,2,1,Meditate on my balcony during sunrise surrounded by plants and gentle breezes,Watch movies at the drivein theater with my siblings during summer nights,0.03,0.05,3.3,1,0.05,3.3435,,,,
,,662a754842502c24dbb45384,6685aa9113c938e83b4f1ea0,66fee32265b467f14884b417,2024-10-03_14h32.44.084,WTP_SM_Choice,2022.2.1,Win32,59.52380952,,,,,,,,,,,,,,,,,,74,,,,,,,,,,2,0,3,3,3,1,Bike along a scenic trail during early morning hours with the sun rising,Attend pottery classes with my partner on thursday evenings creating unique pieces together,0.04,0.05,4.4,1,0.05,2.2878,,,,
,,662a754842502c24dbb45384,6685aa9113c938e83b4f1ea0,66fee32265b467f14884b417,2024-10-03_14h32.44.084,WTP_SM_Choice,2022.2.1,Win32,59.52380952,,,,,,,,,,,,,,,,,,75,,,,,,,,,,2,0,4,4,4,1,Organize brunch outings with my close friends at our favorite cafe on sunday mornings,Organize my bookshelf in my home office while sipping on iced coffee,0.05,0.05,3.3,0,0.05,2.1996,,,,
,,662a754842502c24dbb45384,6685aa9113c938e83b4f1ea0,66fee32265b467f14884b417,2024-10-03_14h32.44.084,WTP_SM_Choice,2022.2.1,Win32,59.52380952,,,,,,,1,,7,2.62,3.38,,0,74,74,74,1,75,Riley,Rej,Participant_Images/662a754842502c24dbb45384/662a754842502c24dbb45384_Images/662a754842502c24dbb45384_Image_19.jpeg,did not like,2.642157193,,,,,,,,,,,,,,,,,,,space,6.9938,,
,,662a754842502c24dbb45384,6685aa9113c938e83b4f1ea0,66fee32265b467f14884b417,2024-10-03_14h32.44.084,WTP_SM_Choice,2022.2.1,Win32,59.52380952,,,space,1.4001,space,0.6142,NAN,,NAN,2.62,3.38,,0,75,75,75,1,76,Sam,Rej,Participant_Images/662a754842502c24dbb45384/662a754842502c24dbb45384_Images/662a754842502c24dbb45384_Image_25.jpeg,did not like,4.456234322,,,,,,,,,,,,,,,,,,,,,,
,,662a754842502c24dbb45384,6685aa9113c938e83b4f1ea0,66fee32265b467f14884b417,2024-10-03_14h32.44.084,WTP_SM_Choice,2022.2.1,Win32,59.52380952,,,,,space,9.3015,NAN,,NAN,2.62,3.38,,0,76,76,76,1,77,Sam,Rej,Participant_Images/662a754842502c24dbb45384/662a754842502c24dbb45384_Images/662a754842502c24dbb45384_Image_21.jpeg,liked,4.438512181,,,,,,,,,,,,,,,,,,,,,,
,,662a754842502c24dbb45384,6685aa9113c938e83b4f1ea0,66fee32265b467f14884b417,2024-10-03_14h32.44.084,WTP_SM_Choice,2022.2.1,Win32,59.52380952,,,,,space,7.64,NAN,,NAN,2.62,3.38,,0,77,77,77,1,78,Sam,Rej,Participant_Images/662a754842502c24dbb45384/662a754842502c24dbb45384_Images/662a754842502c24dbb45384_Image_13.jpeg,did not like,2.682944783,,,,,,,,,,,,,,,,,,,,,,
,,662a754842502c24dbb45384,6685aa9113c938e83b4f1ea0,66fee32265b467f14884b417,2024-10-03_14h32.44.084,WTP_SM_Choice,2022.2.1,Win32,59.52380952,,,,,space,0.7062,NAN,,NAN,2.62,3.38,,0,78,78,78,1,79,Sam,Rej,Participant_Images/662a754842502c24dbb45384/662a754842502c24dbb45384_Images/662a754842502c24dbb45384_Image_22.jpeg,did not like,4.51984296,,,,,,,,,,,,,,,,,,,,,,
,,662a754842502c24dbb45384,6685aa9113c938e83b4f1ea0,66fee32265b467f14884b417,2024-10-03_14h32.44.084,WTP_SM_Choice,2022.2.1,Win32,59.52380952,,,,,,,,,,,,,,,,,,76,,,,,,space,2.4328,space,0.7529,1,0,0,0,0,1,Meditate on my balcony during sunrise surrounded by plants and gentle breezes,Attend concerts in the park with my best friend enjoying live music and picnicking,0.01,0.01,1.1,1,0.01,2.4641,,,,
,,662a754842502c24dbb45384,6685aa9113c938e83b4f1ea0,66fee32265b467f14884b417,2024-10-03_14h32.44.084,WTP_SM_Choice,2022.2.1,Win32,59.52380952,,,,,,,,,,,,,,,,,,77,,,,,,,,,,2,0,1,1,1,1,Attend concerts in the park with my best friend enjoying live music and picnicking,Practice yoga in my bedroom with calming candles and essential oils,0.02,0.01,8.8,0,0.01,2.496,,,,
,,662a754842502c24dbb45384,6685aa9113c938e83b4f1ea0,66fee32265b467f14884b417,2024-10-03_14h32.44.084,WTP_SM_Choice,2022.2.1,Win32,59.52380952,,,,,,,,,,,,,,,,,,78,,,,,,,,,,2,0,2,2,2,1,Attend pottery classes with my partner on thursday evenings creating unique pieces together,Practice yoga in my bedroom with calming candles and essential oils,0.03,0.01,1.1,0,0.01,0.7692,,,,
,,662a754842502c24dbb45384,6685aa9113c938e83b4f1ea0,66fee32265b467f14884b417,2024-10-03_14h32.44.084,WTP_SM_Choice,2022.2.1,Win32,59.52380952,,,,,,,,,,,,,,,,,,79,,,,,,,,,,1,0,3,3,3,1,Play trivia at a pub with my friends on friday evenings competing for prizes and bragging,Explore local thrift stores on a saturday afternoon searching for unique finds,0.04,0.01,1.1,0,0.04,1.6292,,,,
,,662a754842502c24dbb45384,6685aa9113c938e83b4f1ea0,66fee32265b467f14884b417,2024-10-03_14h32.44.084,WTP_SM_Choice,2022.2.1,Win32,59.52380952,,,,,,,,,,,,,,,,,,80,,,,,,,,,,2,0,4,4,4,1,Meditate on my balcony during sunrise surrounded by plants and gentle breezes,Volunteer at the local animal shelter with my coworkers on saturday afternoons,0.05,0.01,4.4,1,0.01,1.6482,,,,
,,662a754842502c24dbb45384,6685aa9113c938e83b4f1ea0,66fee32265b467f14884b417,2024-10-03_14h32.44.084,WTP_SM_Choice,2022.2.1,Win32,59.52380952,,,,,,,NAN,,NAN,2.7,3.3,,0,79,79,79,1,80,Sam,Rej,Participant_Images/662a754842502c24dbb45384/662a754842502c24dbb45384_Images/662a754842502c24dbb45384_Image_16.jpeg,did not like,3.195382774,,,,,,,,,,,,,,,,,,,,,,
,,662a754842502c24dbb45384,6685aa9113c938e83b4f1ea0,66fee32265b467f14884b417,2024-10-03_14h32.44.084,WTP_SM_Choice,2022.2.1,Win32,59.52380952,,,,,space,2.985,NAN,,NAN,2.7,3.3,,0,80,80,80,1,81,Sam,Rej,Participant_Images/662a754842502c24dbb45384/662a754842502c24dbb45384_Images/662a754842502c24dbb45384_Image_17.jpeg,did not like,1.779333479,,,,,,,,,,,,,,,,,,,,,,
,,662a754842502c24dbb45384,6685aa9113c938e83b4f1ea0,66fee32265b467f14884b417,2024-10-03_14h32.44.084,WTP_SM_Choice,2022.2.1,Win32,59.52380952,,,,,space,9.9715,NAN,,NAN,2.7,3.3,,0,81,81,81,1,82,Sam,Rej,Participant_Images/662a754842502c24dbb45384/662a754842502c24dbb45384_Images/662a754842502c24dbb45384_Image_5.jpeg,did not like,4.312468682,,,,,,,,,,,,,,,,,,,,,,
,,662a754842502c24dbb45384,6685aa9113c938e83b4f1ea0,66fee32265b467f14884b417,2024-10-03_14h32.44.084,WTP_SM_Choice,2022.2.1,Win32,59.52380952,,,,,space,0.939,NAN,,NAN,2.7,3.3,,0,82,82,82,1,83,Sam,Rej,Participant_Images/662a754842502c24dbb45384/662a754842502c24dbb45384_Images/662a754842502c24dbb45384_Image_9.jpeg,liked,4.940433059,,,,,,,,,,,,,,,,,,,,,,
,,662a754842502c24dbb45384,6685aa9113c938e83b4f1ea0,66fee32265b467f14884b417,2024-10-03_14h32.44.084,WTP_SM_Choice,2022.2.1,Win32,59.52380952,,,,,space,19.5036,NAN,,NAN,2.7,3.3,,0,83,83,83,1,84,Sam,Rej,Participant_Images/662a754842502c24dbb45384/662a754842502c24dbb45384_Images/662a754842502c24dbb45384_Image_14.jpeg,did not like,2.7105123,,,,,,,,,,,,,,,,,,,,,,
,,662a754842502c24dbb45384,6685aa9113c938e83b4f1ea0,66fee32265b467f14884b417,2024-10-03_14h32.44.084,WTP_SM_Choice,2022.2.1,Win32,59.52380952,,,,,,,,,,,,,,,,,,81,,,,,,space,0.841,space,0.455,,0,0,0,0,1,Watch movies at the drivein theater with my siblings during summer nights,Stargaze from my backyard on a clear summer night with soft music playing,0.01,0.02,3.3,0,,,,,,
,,662a754842502c24dbb45384,6685aa9113c938e83b4f1ea0,66fee32265b467f14884b417,2024-10-03_14h32.44.084,WTP_SM_Choice,2022.2.1,Win32,59.52380952,,,,,,,,,,,,,,,,,,82,,,,,,,,,,2,0,1,1,1,1,Host game nights with my friends in my living room while enjoying snacks and laughter,Explore local thrift stores on a saturday afternoon searching for unique finds,0.02,0.02,4.4,0,0.02,4.4433,,,,
,,662a754842502c24dbb45384,6685aa9113c938e83b4f1ea0,66fee32265b467f14884b417,2024-10-03_14h32.44.084,WTP_SM_Choice,2022.2.1,Win32,59.52380952,,,,,,,,,,,,,,,,,,83,,,,,,,,,,2,0,2,2,2,1,Sketch nature scenes at a quiet park bench surrounded by autumn leaves,Go hiking on weekends with my family exploring new trails and taking in the views,0.03,0.02,1.1,1,0.02,0.8558,,,,
,,662a754842502c24dbb45384,6685aa9113c938e83b4f1ea0,66fee32265b467f14884b417,2024-10-03_14h32.44.084,WTP_SM_Choice,2022.2.1,Win32,59.52380952,,,,,,,,,,,,,,,,,,84,,,,,,,,,,2,0,3,3,3,1,Stargaze from my backyard on a clear summer night with soft music playing,Attend pottery classes with my partner on thursday evenings creating unique pieces together,0.04,0.02,3.3,1,0.02,0.4759,,,,
,,662a754842502c24dbb45384,6685aa9113c938e83b4f1ea0,66fee32265b467f14884b417,2024-10-03_14h32.44.084,WTP_SM_Choice,2022.2.1,Win32,59.52380952,,,,,,,,,,,,,,,,,,85,,,,,,,,,,2,0,4,4,4,1,Organize my bookshelf in my home office while sipping on iced coffee,Attend concerts in the park with my best friend enjoying live music and picnicking,0.05,0.02,3.3,1,0.02,1.2807,,,,
,,662a754842502c24dbb45384,6685aa9113c938e83b4f1ea0,66fee32265b467f14884b417,2024-10-03_14h32.44.084,WTP_SM_Choice,2022.2.1,Win32,59.52380952,,,,,,,NAN,,NAN,2.78,3.22,,0,84,84,84,1,85,Sam,Rej,Participant_Images/662a754842502c24dbb45384/662a754842502c24dbb45384_Images/662a754842502c24dbb45384_Image_1.jpeg,did not like,3.602308302,,,,,,,,,,,,,,,,,,,,,,
,,662a754842502c24dbb45384,6685aa9113c938e83b4f1ea0,66fee32265b467f14884b417,2024-10-03_14h32.44.084,WTP_SM_Choice,2022.2.1,Win32,59.52380952,,,,,space,2.6474,NAN,,NAN,2.78,3.22,,0,85,85,85,1,86,Sam,Rej,Participant_Images/662a754842502c24dbb45384/662a754842502c24dbb45384_Images/662a754842502c24dbb45384_Image_18.jpeg,liked,4.106391878,,,,,,,,,,,,,,,,,,,,,,
,,662a754842502c24dbb45384,6685aa9113c938e83b4f1ea0,66fee32265b467f14884b417,2024-10-03_14h32.44.084,WTP_SM_Choice,2022.2.1,Win32,59.52380952,,,,,space,1.3242,NAN,,NAN,2.78,3.22,,0,86,86,86,1,87,Sam,Rej,Participant_Images/662a754842502c24dbb45384/662a754842502c24dbb45384_Images/662a754842502c24dbb45384_Image_8.jpeg,liked,3.799433026,,,,,,,,,,,,,,,,,,,,,,
,,662a754842502c24dbb45384,6685aa9113c938e83b4f1ea0,66fee32265b467f14884b417,2024-10-03_14h32.44.084,WTP_SM_Choice,2022.2.1,Win32,59.52380952,,,,,space,2.3405,NAN,,NAN,2.78,3.22,,0,87,87,87,1,88,Sam,Rej,Participant_Images/662a754842502c24dbb45384/662a754842502c24dbb45384_Images/662a754842502c24dbb45384_Image_15.jpeg,did not like,5.246980764,,,,,,,,,,,,,,,,,,,,,,
,,662a754842502c24dbb45384,6685aa9113c938e83b4f1ea0,66fee32265b467f14884b417,2024-10-03_14h32.44.084,WTP_SM_Choice,2022.2.1,Win32,59.52380952,,,,,space,2.5555,NAN,,NAN,2.78,3.22,,0,88,88,88,1,89,Sam,Rej,Participant_Images/662a754842502c24dbb45384/662a754842502c24dbb45384_Images/662a754842502c24dbb45384_Image_23.jpeg,liked,3.30081769,,,,,,,,,,,,,,,,,,,,,,
,,662a754842502c24dbb45384,6685aa9113c938e83b4f1ea0,66fee32265b467f14884b417,2024-10-03_14h32.44.084,WTP_SM_Choice,2022.2.1,Win32,59.52380952,,,,,,,,,,,,,,,,,,86,,,,,,space,0.6848,space,1.238,1,0,0,0,0,1,Meditate on my balcony during sunrise surrounded by plants and gentle breezes,Organize brunch outings with my close friends at our favorite cafe on sunday mornings,0.01,0.03,1.1,1,0.01,1.3782,,,,
,,662a754842502c24dbb45384,6685aa9113c938e83b4f1ea0,66fee32265b467f14884b417,2024-10-03_14h32.44.084,WTP_SM_Choice,2022.2.1,Win32,59.52380952,,,,,,,,,,,,,,,,,,87,,,,,,,,,,1,0,1,1,1,1,Attend concerts in the park with my best friend enjoying live music and picnicking,Watch documentaries in my living room with dimmed lights and snacks,0.02,0.03,4.4,0,0.02,5.0933,,,,
,,662a754842502c24dbb45384,6685aa9113c938e83b4f1ea0,66fee32265b467f14884b417,2024-10-03_14h32.44.084,WTP_SM_Choice,2022.2.1,Win32,59.52380952,,,,,,,,,,,,,,,,,,88,,,,,,,,,,1,0,2,2,2,1,Go for bike rides along the beach with my partner during warm summer afternoons,Journal my thoughts in a cozy cafe with a warm cup of tea,0.03,0.03,1.1,0,0.03,0.9447,,,,
,,662a754842502c24dbb45384,6685aa9113c938e83b4f1ea0,66fee32265b467f14884b417,2024-10-03_14h32.44.084,WTP_SM_Choice,2022.2.1,Win32,59.52380952,,,,,,,,,,,,,,,,,,89,,,,,,,,,,2,0,3,3,3,1,Go for bike rides along the beach with my partner during warm summer afternoons,Watch documentaries in my living room with dimmed lights and snacks,0.04,0.03,3.3,0,0.03,0.6938,,,,
,,662a754842502c24dbb45384,6685aa9113c938e83b4f1ea0,66fee32265b467f14884b417,2024-10-03_14h32.44.084,WTP_SM_Choice,2022.2.1,Win32,59.52380952,,,,,,,,,,,,,,,,,,90,,,,,,,,,,2,0,4,4,4,1,Organize my bookshelf in my home office while sipping on iced coffee,Go for bike rides along the beach with my partner during warm summer afternoons,0.05,0.03,8.8,1,0.03,6.2749,,,,
,,662a754842502c24dbb45384,6685aa9113c938e83b4f1ea0,66fee32265b467f14884b417,2024-10-03_14h32.44.084,WTP_SM_Choice,2022.2.1,Win32,59.52380952,,,,,,,NAN,,NAN,2.9,3.1,,0,89,89,89,1,90,Sam,Rej,Participant_Images/662a754842502c24dbb45384/662a754842502c24dbb45384_Images/662a754842502c24dbb45384_Image_2.jpeg,liked,1.661473164,,,,,,,,,,,,,,,,,,,,,,
,,662a754842502c24dbb45384,6685aa9113c938e83b4f1ea0,66fee32265b467f14884b417,2024-10-03_14h32.44.084,WTP_SM_Choice,2022.2.1,Win32,59.52380952,,,,,space,1.9178,NAN,,NAN,2.9,3.1,,0,90,90,90,1,91,Sam,Rej,Participant_Images/662a754842502c24dbb45384/662a754842502c24dbb45384_Images/662a754842502c24dbb45384_Image_4.jpeg,did not like,3.613205605,,,,,,,,,,,,,,,,,,,,,,
,,662a754842502c24dbb45384,6685aa9113c938e83b4f1ea0,66fee32265b467f14884b417,2024-10-03_14h32.44.084,WTP_SM_Choice,2022.2.1,Win32,59.52380952,,,,,space,3.9699,NAN,,NAN,2.9,3.1,,0,91,91,91,1,92,Sam,Rej,Participant_Images/662a754842502c24dbb45384/662a754842502c24dbb45384_Images/662a754842502c24dbb45384_Image_10.jpeg,did not like,4.988446431,,,,,,,,,,,,,,,,,,,,,,
,,662a754842502c24dbb45384,6685aa9113c938e83b4f1ea0,66fee32265b467f14884b417,2024-10-03_14h32.44.084,WTP_SM_Choice,2022.2.1,Win32,59.52380952,,,,,space,8.1686,NAN,,NAN,2.9,3.1,,0,92,92,92,1,93,Sam,Rej,Participant_Images/662a754842502c24dbb45384/662a754842502c24dbb45384_Images/662a754842502c24dbb45384_Image_3.jpeg,liked,3.470791822,,,,,,,,,,,,,,,,,,,,,,
,,662a754842502c24dbb45384,6685aa9113c938e83b4f1ea0,66fee32265b467f14884b417,2024-10-03_14h32.44.084,WTP_SM_Choice,2022.2.1,Win32,59.52380952,,,,,space,1.9993,NAN,,NAN,2.9,3.1,,0,93,93,93,1,94,Sam,Rej,Participant_Images/662a754842502c24dbb45384/662a754842502c24dbb45384_Images/662a754842502c24dbb45384_Image_24.jpeg,did not like,3.820572462,,,,,,,,,,,,,,,,,,,,,,
,,662a754842502c24dbb45384,6685aa9113c938e83b4f1ea0,66fee32265b467f14884b417,2024-10-03_14h32.44.084,WTP_SM_Choice,2022.2.1,Win32,59.52380952,,,,,,,,,,,,,,,,,,91,,,,,,space,0.8767,space,1.5343,1,0,0,0,0,1,Play trivia at a pub with my friends on friday evenings competing for prizes and bragging,Sketch nature scenes at a quiet park bench surrounded by autumn leaves,0.01,0.04,3.3,0,0.01,1.1786,,,,
,,662a754842502c24dbb45384,6685aa9113c938e83b4f1ea0,66fee32265b467f14884b417,2024-10-03_14h32.44.084,WTP_SM_Choice,2022.2.1,Win32,59.52380952,,,,,,,,,,,,,,,,,,92,,,,,,,,,,1,0,1,1,1,1,Sketch nature scenes at a quiet park bench surrounded by autumn leaves,Volunteer at the local animal shelter with my coworkers on saturday afternoons,0.02,0.04,8.8,1,0.02,1.2424,,,,
,,662a754842502c24dbb45384,6685aa9113c938e83b4f1ea0,66fee32265b467f14884b417,2024-10-03_14h32.44.084,WTP_SM_Choice,2022.2.1,Win32,59.52380952,,,,,,,,,,,,,,,,,,93,,,,,,,,,,2,0,2,2,2,1,Bike along a scenic trail during early morning hours with the sun rising,Volunteer at the local animal shelter with my coworkers on saturday afternoons,0.03,0.04,1.1,1,0.04,5.8188,,,,
,,662a754842502c24dbb45384,6685aa9113c938e83b4f1ea0,66fee32265b467f14884b417,2024-10-03_14h32.44.084,WTP_SM_Choice,2022.2.1,Win32,59.52380952,,,,,,,,,,,,,,,,,,94,,,,,,,,,,1,0,3,3,3,1,Sketch nature scenes at a quiet park bench surrounded by autumn leaves,Organize brunch outings with my close friends at our favorite cafe on sunday mornings,0.04,0.04,4.4,1,0.04,1.0334,,,,
,,662a754842502c24dbb45384,6685aa9113c938e83b4f1ea0,66fee32265b467f14884b417,2024-10-03_14h32.44.084,WTP_SM_Choice,2022.2.1,Win32,59.52380952,,,,,,,,,,,,,,,,,,95,,,,,,,,,,1,0,4,4,4,1,Practice yoga in my bedroom with calming candles and essential oils,Play trivia at a pub with my friends on friday evenings competing for prizes and bragging,0.05,0.04,4.4,1,0.05,0.1653,,,,
,,662a754842502c24dbb45384,6685aa9113c938e83b4f1ea0,66fee32265b467f14884b417,2024-10-03_14h32.44.084,WTP_SM_Choice,2022.2.1,Win32,59.52380952,,,,,,,NAN,,NAN,3.06,2.94,,0,94,94,94,1,95,Sam,Rej,Participant_Images/662a754842502c24dbb45384/662a754842502c24dbb45384_Images/662a754842502c24dbb45384_Image_7.jpeg,did not like,2.455989137,,,,,,,,,,,,,,,,,,,,,,
,,662a754842502c24dbb45384,6685aa9113c938e83b4f1ea0,66fee32265b467f14884b417,2024-10-03_14h32.44.084,WTP_SM_Choice,2022.2.1,Win32,59.52380952,,,,,space,7.0515,NAN,,NAN,3.06,2.94,,0,95,95,95,1,96,Sam,Rej,Participant_Images/662a754842502c24dbb45384/662a754842502c24dbb45384_Images/662a754842502c24dbb45384_Image_11.jpeg,did not like,3.79605092,,,,,,,,,,,,,,,,,,,,,,
,,662a754842502c24dbb45384,6685aa9113c938e83b4f1ea0,66fee32265b467f14884b417,2024-10-03_14h32.44.084,WTP_SM_Choice,2022.2.1,Win32,59.52380952,,,,,space,3.9516,NAN,,NAN,3.06,2.94,,0,96,96,96,1,97,Sam,Rej,Participant_Images/662a754842502c24dbb45384/662a754842502c24dbb45384_Images/662a754842502c24dbb45384_Image_20.jpeg,did not like,3.562416326,,,,,,,,,,,,,,,,,,,,,,
,,662a754842502c24dbb45384,6685aa9113c938e83b4f1ea0,66fee32265b467f14884b417,2024-10-03_14h32.44.084,WTP_SM_Choice,2022.2.1,Win32,59.52380952,,,,,space,3.241,NAN,,NAN,3.06,2.94,,0,97,97,97,1,98,Sam,Rej,Participant_Images/662a754842502c24dbb45384/662a754842502c24dbb45384_Images/662a754842502c24dbb45384_Image_6.jpeg,did not like,2.843822497,,,,,,,,,,,,,,,,,,,,,,
,,662a754842502c24dbb45384,6685aa9113c938e83b4f1ea0,66fee32265b467f14884b417,2024-10-03_14h32.44.084,WTP_SM_Choice,2022.2.1,Win32,59.52380952,,,,,space,3.3861,NAN,,NAN,3.06,2.94,,0,98,98,98,1,99,Sam,Rej,Participant_Images/662a754842502c24dbb45384/662a754842502c24dbb45384_Images/662a754842502c24dbb45384_Image_12.jpeg,did not like,3.546495948,,,,,,,,,,,,,,,,,,,,,,
,,662a754842502c24dbb45384,6685aa9113c938e83b4f1ea0,66fee32265b467f14884b417,2024-10-03_14h32.44.084,WTP_SM_Choice,2022.2.1,Win32,59.52380952,,,,,,,,,,,,,,,,,,96,,,,,,space,3.6589,space,0.6197,1,0,0,0,0,1,Meditate on my balcony during sunrise surrounded by plants and gentle breezes,Host game nights with my friends in my living room while enjoying snacks and laughter,0.01,0.05,3.3,1,0.01,1.0516,,,,
,,662a754842502c24dbb45384,6685aa9113c938e83b4f1ea0,66fee32265b467f14884b417,2024-10-03_14h32.44.084,WTP_SM_Choice,2022.2.1,Win32,59.52380952,,,,,,,,,,,,,,,,,,97,,,,,,,,,,1,0,1,1,1,1,Volunteer at the local animal shelter with my coworkers on saturday afternoons,Practice yoga in my bedroom with calming candles and essential oils,0.02,0.05,1.1,0,0.02,1.3951,,,,
,,662a754842502c24dbb45384,6685aa9113c938e83b4f1ea0,66fee32265b467f14884b417,2024-10-03_14h32.44.084,WTP_SM_Choice,2022.2.1,Win32,59.52380952,,,,,,,,,,,,,,,,,,98,,,,,,,,,,1,0,2,2,2,1,Watch documentaries in my living room with dimmed lights and snacks,Join book club meetings with classmates on wednesday nights discussing our latest reads over wine,0.03,0.05,1.1,1,0.03,1.2838,,,,
,,662a754842502c24dbb45384,6685aa9113c938e83b4f1ea0,66fee32265b467f14884b417,2024-10-03_14h32.44.084,WTP_SM_Choice,2022.2.1,Win32,59.52380952,,,,,,,,,,,,,,,,,,99,,,,,,,,,,1,0,3,3,3,1,Cook new recipes in my kitchen while listening to my favorite podcast,Organize brunch outings with my close friends at our favorite cafe on sunday mornings,0.04,0.05,3.3,1,0.04,1.4156,,,,
,,662a754842502c24dbb45384,6685aa9113c938e83b4f1ea0,66fee32265b467f14884b417,2024-10-03_14h32.44.084,WTP_SM_Choice,2022.2.1,Win32,59.52380952,,,,,,,,,,,,,,,,,,100,,,,,,,,,,2,0,4,4,4,1,Organize brunch outings with my close friends at our favorite cafe on sunday mornings,Journal my thoughts in a cozy cafe with a warm cup of tea,0.05,0.05,4.4,0,0.05,2.6059,,,,
,,662a754842502c24dbb45384,6685aa9113c938e83b4f1ea0,66fee32265b467f14884b417,2024-10-03_14h32.44.084,WTP_SM_Choice,2022.2.1,Win32,59.52380952,,,,,,,2,,6,3.21,2.79,,0,99,99,99,1,100,Sam,Rej,Participant_Images/662a754842502c24dbb45384/662a754842502c24dbb45384_Images/662a754842502c24dbb45384_Image_19.jpeg,did not like,1.672012706,,,,,,,,,,,,,,,,,,,space,2.2704,,
,,662a754842502c24dbb45384,6685aa9113c938e83b4f1ea0,66fee32265b467f14884b417,2024-10-03_14h32.44.084,WTP_SM_Choice,2022.2.1,Win32,59.52380952,,,,,,,,,,,,,,,,,,,,,,,,,,,,,,,,,,,,,,,,,,,,space,4.4415
