endwelcomescreen_keys.keys,endwelcomescreen_keys.rt,participant,STUDY_ID,SESSION_ID,date,expName,psychopyVersion,OS,frameRate,endinstructionscreen_keys.keys,endinstructionscreen_keys.rt,endpartnermatch_keys.keys,endpartnermatch_keys.rt,sharenextphoto_key.keys,sharenextphoto_key.rt,salience_rating,key_resp.keys,stress_level,subtract_bonus,TOTAL_TASK_BONUS,stresslevel_keypress.keys,entiretaskloop.thisRepN,entiretaskloop.thisTrialN,entiretaskloop.thisN,entiretaskloop.thisIndex,entiretaskloop.ran,TrialNumber,Partner,Condition,Photos,Feedback,FeedbackWait,WTP_ins_keys1.keys,WTP_ins_keys1.rt,WTP_ins_keys2.keys,WTP_ins_keys2.rt,decision_price,responses.keys,responses.rt,WTPTaskLoop.thisRepN,WTPTaskLoop.thisTrialN,WTPTaskLoop.thisN,WTPTaskLoop.thisIndex,WTPTaskLoop.ran,right,left,leftmoney,rightmoney,WTP_ITI,social_left,Resume_keys.keys,Resume_keys.rt,end_screen_keys.keys,end_screen_keys.rt
space,3.963,662fad6b6f397a64efc67680,6685aa9113c938e83b4f1ea0,672d4cc22f439c108031e690,2024-11-07_18h28.02.723,WTP_SM_Choice,2022.2.1,Win32,120.1923077,,,,,,,,,,,,,,,,,,,,,,,,,,,,,,,,,,,,,,,,,,,,,
,,662fad6b6f397a64efc67680,6685aa9113c938e83b4f1ea0,672d4cc22f439c108031e690,2024-11-07_18h28.02.723,WTP_SM_Choice,2022.2.1,Win32,120.1923077,space,13.635,,,,,,,,,,,,,,,,,,,,,,,,,,,,,,,,,,,,,,,,,,,
,,662fad6b6f397a64efc67680,6685aa9113c938e83b4f1ea0,672d4cc22f439c108031e690,2024-11-07_18h28.02.723,WTP_SM_Choice,2022.2.1,Win32,120.1923077,,,space,1.838,space,1.669,NAN,,NAN,0,6,,0,0,0,0,1,1,Charlie,Acc,Participant_Images/662fad6b6f397a64efc67680/662fad6b6f397a64efc67680_Images/662fad6b6f397a64efc67680_Image_4.jpeg,liked,3.613205605,,,,,,,,,,,,,,,,,,,,,,
,,662fad6b6f397a64efc67680,6685aa9113c938e83b4f1ea0,672d4cc22f439c108031e690,2024-11-07_18h28.02.723,WTP_SM_Choice,2022.2.1,Win32,120.1923077,,,,,space,1.257,NAN,,NAN,0,6,,0,1,1,1,1,2,Charlie,Acc,Participant_Images/662fad6b6f397a64efc67680/662fad6b6f397a64efc67680_Images/662fad6b6f397a64efc67680_Image_6.jpeg,did not like,4.988446431,,,,,,,,,,,,,,,,,,,,,,
,,662fad6b6f397a64efc67680,6685aa9113c938e83b4f1ea0,672d4cc22f439c108031e690,2024-11-07_18h28.02.723,WTP_SM_Choice,2022.2.1,Win32,120.1923077,,,,,space,1.372,NAN,,NAN,0,6,,0,2,2,2,1,3,Charlie,Acc,Participant_Images/662fad6b6f397a64efc67680/662fad6b6f397a64efc67680_Images/662fad6b6f397a64efc67680_Image_11.jpeg,liked,3.470791822,,,,,,,,,,,,,,,,,,,,,,
,,662fad6b6f397a64efc67680,6685aa9113c938e83b4f1ea0,672d4cc22f439c108031e690,2024-11-07_18h28.02.723,WTP_SM_Choice,2022.2.1,Win32,120.1923077,,,,,space,0.293,NAN,,NAN,0,6,,0,3,3,3,1,4,Charlie,Acc,Participant_Images/662fad6b6f397a64efc67680/662fad6b6f397a64efc67680_Images/662fad6b6f397a64efc67680_Image_12.jpeg,did not like,3.820572462,,,,,,,,,,,,,,,,,,,,,,
,,662fad6b6f397a64efc67680,6685aa9113c938e83b4f1ea0,672d4cc22f439c108031e690,2024-11-07_18h28.02.723,WTP_SM_Choice,2022.2.1,Win32,120.1923077,,,,,,,,,,,,,,,,,,1,,,,,,space,0.294,space,9.838,0.01,1,4.469,0,0,0,0,1,Go out to eat on the weekend with my family,Watch The Last Kingdom on Netflix while eating,0.01,0.01,4.4,0,,,,
,,662fad6b6f397a64efc67680,6685aa9113c938e83b4f1ea0,672d4cc22f439c108031e690,2024-11-07_18h28.02.723,WTP_SM_Choice,2022.2.1,Win32,120.1923077,,,,,,,,,,,,,,,,,,2,,,,,,,,,,0.02,1,1.917,0,1,1,1,1,Learn new science related things with my classmates,Play puzzle games on my phone in my room,0.02,0.01,8.8,0,,,,
,,662fad6b6f397a64efc67680,6685aa9113c938e83b4f1ea0,672d4cc22f439c108031e690,2024-11-07_18h28.02.723,WTP_SM_Choice,2022.2.1,Win32,120.1923077,,,,,,,,,,,,,,,,,,3,,,,,,,,,,0.01,2,1.941,0,2,2,2,1,Read Cinder by Marissa Meyer on my porch,Go to Tennessee with my family to our cabin,0.03,0.01,3.3,1,,,,
,,662fad6b6f397a64efc67680,6685aa9113c938e83b4f1ea0,672d4cc22f439c108031e690,2024-11-07_18h28.02.723,WTP_SM_Choice,2022.2.1,Win32,120.1923077,,,,,,,,,,,,,,,,,,4,,,,,,,,,,0.01,2,1.716,0,3,3,3,1,Watch The Last Kingdom on Netflix while eating,Learn new science related things with my classmates,0.04,0.01,1.1,1,,,,
,,662fad6b6f397a64efc67680,6685aa9113c938e83b4f1ea0,672d4cc22f439c108031e690,2024-11-07_18h28.02.723,WTP_SM_Choice,2022.2.1,Win32,120.1923077,,,,,,,,,,,,,,,,,,5,,,,,,,,,,0.01,2,1.915,0,4,4,4,1,Learn new science related things with my classmates,Eat jerk chicken alfredo in my kitchen,0.05,0.01,1.1,0,,,,
,,662fad6b6f397a64efc67680,6685aa9113c938e83b4f1ea0,672d4cc22f439c108031e690,2024-11-07_18h28.02.723,WTP_SM_Choice,2022.2.1,Win32,120.1923077,,,,,,,NAN,,NAN,0.06,5.94,,0,4,4,4,1,5,Charlie,Acc,Participant_Images/662fad6b6f397a64efc67680/662fad6b6f397a64efc67680_Images/662fad6b6f397a64efc67680_Image_15.jpeg,liked,2.455989137,,,,,,,,,,,,,,,,,,,,,,
,,662fad6b6f397a64efc67680,6685aa9113c938e83b4f1ea0,672d4cc22f439c108031e690,2024-11-07_18h28.02.723,WTP_SM_Choice,2022.2.1,Win32,120.1923077,,,,,space,1.011,NAN,,NAN,0.06,5.94,,0,5,5,5,1,6,Charlie,Acc,Participant_Images/662fad6b6f397a64efc67680/662fad6b6f397a64efc67680_Images/662fad6b6f397a64efc67680_Image_7.jpeg,liked,3.79605092,,,,,,,,,,,,,,,,,,,,,,
,,662fad6b6f397a64efc67680,6685aa9113c938e83b4f1ea0,672d4cc22f439c108031e690,2024-11-07_18h28.02.723,WTP_SM_Choice,2022.2.1,Win32,120.1923077,,,,,space,0.858,NAN,,NAN,0.06,5.94,,0,6,6,6,1,7,Charlie,Acc,Participant_Images/662fad6b6f397a64efc67680/662fad6b6f397a64efc67680_Images/662fad6b6f397a64efc67680_Image_5.jpeg,liked,3.562416326,,,,,,,,,,,,,,,,,,,,,,
,,662fad6b6f397a64efc67680,6685aa9113c938e83b4f1ea0,672d4cc22f439c108031e690,2024-11-07_18h28.02.723,WTP_SM_Choice,2022.2.1,Win32,120.1923077,,,,,space,3.135,NAN,,NAN,0.06,5.94,,0,7,7,7,1,8,Charlie,Acc,Participant_Images/662fad6b6f397a64efc67680/662fad6b6f397a64efc67680_Images/662fad6b6f397a64efc67680_Image_2.jpeg,liked,2.843822497,,,,,,,,,,,,,,,,,,,,,,
,,662fad6b6f397a64efc67680,6685aa9113c938e83b4f1ea0,672d4cc22f439c108031e690,2024-11-07_18h28.02.723,WTP_SM_Choice,2022.2.1,Win32,120.1923077,,,,,space,0.43,NAN,,NAN,0.06,5.94,,0,8,8,8,1,9,Charlie,Acc,Participant_Images/662fad6b6f397a64efc67680/662fad6b6f397a64efc67680_Images/662fad6b6f397a64efc67680_Image_23.jpeg,liked,3.546495948,,,,,,,,,,,,,,,,,,,,,,
,,662fad6b6f397a64efc67680,6685aa9113c938e83b4f1ea0,672d4cc22f439c108031e690,2024-11-07_18h28.02.723,WTP_SM_Choice,2022.2.1,Win32,120.1923077,,,,,,,,,,,,,,,,,,6,,,,,,space,8.166,space,1.293,0.01,1,1.722,0,0,0,0,1,Go to Six Flags with my friends amd family during the summer,Watch The Last Kingdom on Netflix while eating,0.01,0.02,3.3,0,,,,
,,662fad6b6f397a64efc67680,6685aa9113c938e83b4f1ea0,672d4cc22f439c108031e690,2024-11-07_18h28.02.723,WTP_SM_Choice,2022.2.1,Win32,120.1923077,,,,,,,,,,,,,,,,,,7,,,,,,,,,,0.02,2,2.226,0,1,1,1,1,Play Red Dead Redemption 2 in my room on my Xbox,Go shopping at the mall with my friends,0.02,0.02,1.1,1,,,,
,,662fad6b6f397a64efc67680,6685aa9113c938e83b4f1ea0,672d4cc22f439c108031e690,2024-11-07_18h28.02.723,WTP_SM_Choice,2022.2.1,Win32,120.1923077,,,,,,,,,,,,,,,,,,8,,,,,,,,,,0.02,2,2.293,0,2,2,2,1,Play puzzle games on my phone in my room,Go to Tennessee with my family to our cabin,0.03,0.02,1.1,1,,,,
,,662fad6b6f397a64efc67680,6685aa9113c938e83b4f1ea0,672d4cc22f439c108031e690,2024-11-07_18h28.02.723,WTP_SM_Choice,2022.2.1,Win32,120.1923077,,,,,,,,,,,,,,,,,,9,,,,,,,,,,0.02,2,1.98,0,3,3,3,1,Go to the movies to watch anything horror related while it is hot outside,Go to Tennessee with my family to our cabin,0.04,0.02,4.4,1,,,,
,,662fad6b6f397a64efc67680,6685aa9113c938e83b4f1ea0,672d4cc22f439c108031e690,2024-11-07_18h28.02.723,WTP_SM_Choice,2022.2.1,Win32,120.1923077,,,,,,,,,,,,,,,,,,10,,,,,,,,,,0.02,2,1.42,0,4,4,4,1,Watch any Marvel movies on the weekends with my family,Go to a history museum in the spring and seeing really cool artifacts,0.05,0.02,1.1,0,,,,
,,662fad6b6f397a64efc67680,6685aa9113c938e83b4f1ea0,672d4cc22f439c108031e690,2024-11-07_18h28.02.723,WTP_SM_Choice,2022.2.1,Win32,120.1923077,,,,,,,NAN,,NAN,0.15,5.85,,0,9,9,9,1,10,Charlie,Acc,Participant_Images/662fad6b6f397a64efc67680/662fad6b6f397a64efc67680_Images/662fad6b6f397a64efc67680_Image_8.jpeg,did not like,1.672012706,,,,,,,,,,,,,,,,,,,,,,
,,662fad6b6f397a64efc67680,6685aa9113c938e83b4f1ea0,672d4cc22f439c108031e690,2024-11-07_18h28.02.723,WTP_SM_Choice,2022.2.1,Win32,120.1923077,,,,,space,1.193,NAN,,NAN,0.15,5.85,,0,10,10,10,1,11,Charlie,Acc,Participant_Images/662fad6b6f397a64efc67680/662fad6b6f397a64efc67680_Images/662fad6b6f397a64efc67680_Image_3.jpeg,liked,4.942172136,,,,,,,,,,,,,,,,,,,,,,
,,662fad6b6f397a64efc67680,6685aa9113c938e83b4f1ea0,672d4cc22f439c108031e690,2024-11-07_18h28.02.723,WTP_SM_Choice,2022.2.1,Win32,120.1923077,,,,,space,5.394,NAN,,NAN,0.15,5.85,,0,11,11,11,1,12,Charlie,Acc,Participant_Images/662fad6b6f397a64efc67680/662fad6b6f397a64efc67680_Images/662fad6b6f397a64efc67680_Image_21.jpeg,liked,2.50187214,,,,,,,,,,,,,,,,,,,,,,
,,662fad6b6f397a64efc67680,6685aa9113c938e83b4f1ea0,672d4cc22f439c108031e690,2024-11-07_18h28.02.723,WTP_SM_Choice,2022.2.1,Win32,120.1923077,,,,,space,3.639,NAN,,NAN,0.15,5.85,,0,12,12,12,1,13,Charlie,Acc,Participant_Images/662fad6b6f397a64efc67680/662fad6b6f397a64efc67680_Images/662fad6b6f397a64efc67680_Image_17.jpeg,liked,2.071164779,,,,,,,,,,,,,,,,,,,,,,
,,662fad6b6f397a64efc67680,6685aa9113c938e83b4f1ea0,672d4cc22f439c108031e690,2024-11-07_18h28.02.723,WTP_SM_Choice,2022.2.1,Win32,120.1923077,,,,,space,0.897,NAN,,NAN,0.15,5.85,,0,13,13,13,1,14,Charlie,Acc,Participant_Images/662fad6b6f397a64efc67680/662fad6b6f397a64efc67680_Images/662fad6b6f397a64efc67680_Image_10.jpeg,liked,5.336503566,,,,,,,,,,,,,,,,,,,,,,
,,662fad6b6f397a64efc67680,6685aa9113c938e83b4f1ea0,672d4cc22f439c108031e690,2024-11-07_18h28.02.723,WTP_SM_Choice,2022.2.1,Win32,120.1923077,,,,,,,,,,,,,,,,,,11,,,,,,space,1.392,space,0.709,0.01,1,1.784,0,0,0,0,1,Rewatch Money Heist in my bedroom,Learn new science related things with my classmates,0.01,0.03,3.3,1,,,,
,,662fad6b6f397a64efc67680,6685aa9113c938e83b4f1ea0,672d4cc22f439c108031e690,2024-11-07_18h28.02.723,WTP_SM_Choice,2022.2.1,Win32,120.1923077,,,,,,,,,,,,,,,,,,12,,,,,,,,,,0.02,1,1.935,0,1,1,1,1,Watch The Last Kingdom on Netflix while eating,Go bowling with my friends and family at night in the summer,0.02,0.03,4.4,1,,,,
,,662fad6b6f397a64efc67680,6685aa9113c938e83b4f1ea0,672d4cc22f439c108031e690,2024-11-07_18h28.02.723,WTP_SM_Choice,2022.2.1,Win32,120.1923077,,,,,,,,,,,,,,,,,,13,,,,,,,,,,0.03,1,1.947,0,2,2,2,1,Go to a history museum in the spring and seeing really cool artifacts,Go trick or treating with my friends/family on Halloween,0.03,0.03,1.1,1,,,,
,,662fad6b6f397a64efc67680,6685aa9113c938e83b4f1ea0,672d4cc22f439c108031e690,2024-11-07_18h28.02.723,WTP_SM_Choice,2022.2.1,Win32,120.1923077,,,,,,,,,,,,,,,,,,14,,,,,,,,,,0.03,2,1.82,0,3,3,3,1,Eat jerk chicken alfredo in my kitchen,Go bowling with my friends and family at night in the summer,0.04,0.03,3.3,1,,,,
,,662fad6b6f397a64efc67680,6685aa9113c938e83b4f1ea0,672d4cc22f439c108031e690,2024-11-07_18h28.02.723,WTP_SM_Choice,2022.2.1,Win32,120.1923077,,,,,,,,,,,,,,,,,,15,,,,,,,,,,0.03,2,1.509,0,4,4,4,1,Watch any Marvel movies on the weekends with my family,Go to the movies to watch anything horror related while it is hot outside,0.05,0.03,4.4,0,,,,
,,662fad6b6f397a64efc67680,6685aa9113c938e83b4f1ea0,672d4cc22f439c108031e690,2024-11-07_18h28.02.723,WTP_SM_Choice,2022.2.1,Win32,120.1923077,,,,,,,NAN,,NAN,0.27,5.73,,0,14,14,14,1,15,Charlie,Acc,Participant_Images/662fad6b6f397a64efc67680/662fad6b6f397a64efc67680_Images/662fad6b6f397a64efc67680_Image_19.jpeg,did not like,2.642157193,,,,,,,,,,,,,,,,,,,,,,
,,662fad6b6f397a64efc67680,6685aa9113c938e83b4f1ea0,672d4cc22f439c108031e690,2024-11-07_18h28.02.723,WTP_SM_Choice,2022.2.1,Win32,120.1923077,,,,,space,2.68,NAN,,NAN,0.27,5.73,,0,15,15,15,1,16,Charlie,Acc,Participant_Images/662fad6b6f397a64efc67680/662fad6b6f397a64efc67680_Images/662fad6b6f397a64efc67680_Image_22.jpeg,liked,4.456234322,,,,,,,,,,,,,,,,,,,,,,
,,662fad6b6f397a64efc67680,6685aa9113c938e83b4f1ea0,672d4cc22f439c108031e690,2024-11-07_18h28.02.723,WTP_SM_Choice,2022.2.1,Win32,120.1923077,,,,,space,1.817,NAN,,NAN,0.27,5.73,,0,16,16,16,1,17,Charlie,Acc,Participant_Images/662fad6b6f397a64efc67680/662fad6b6f397a64efc67680_Images/662fad6b6f397a64efc67680_Image_13.jpeg,did not like,4.438512181,,,,,,,,,,,,,,,,,,,,,,
,,662fad6b6f397a64efc67680,6685aa9113c938e83b4f1ea0,672d4cc22f439c108031e690,2024-11-07_18h28.02.723,WTP_SM_Choice,2022.2.1,Win32,120.1923077,,,,,space,1.204,NAN,,NAN,0.27,5.73,,0,17,17,17,1,18,Charlie,Acc,Participant_Images/662fad6b6f397a64efc67680/662fad6b6f397a64efc67680_Images/662fad6b6f397a64efc67680_Image_16.jpeg,liked,2.682944783,,,,,,,,,,,,,,,,,,,,,,
,,662fad6b6f397a64efc67680,6685aa9113c938e83b4f1ea0,672d4cc22f439c108031e690,2024-11-07_18h28.02.723,WTP_SM_Choice,2022.2.1,Win32,120.1923077,,,,,space,1.027,NAN,,NAN,0.27,5.73,,0,18,18,18,1,19,Charlie,Acc,Participant_Images/662fad6b6f397a64efc67680/662fad6b6f397a64efc67680_Images/662fad6b6f397a64efc67680_Image_18.jpeg,liked,4.51984296,,,,,,,,,,,,,,,,,,,,,,
,,662fad6b6f397a64efc67680,6685aa9113c938e83b4f1ea0,672d4cc22f439c108031e690,2024-11-07_18h28.02.723,WTP_SM_Choice,2022.2.1,Win32,120.1923077,,,,,,,,,,,,,,,,,,16,,,,,,space,2.049,space,1.408,0.01,1,1.16,0,0,0,0,1,Go shopping at the mall with my friends,Listen to Billie Eilish while taking a shower,0.01,0.04,1.1,0,,,,
,,662fad6b6f397a64efc67680,6685aa9113c938e83b4f1ea0,672d4cc22f439c108031e690,2024-11-07_18h28.02.723,WTP_SM_Choice,2022.2.1,Win32,120.1923077,,,,,,,,,,,,,,,,,,17,,,,,,,,,,0.02,1,1.35,0,1,1,1,1,Listen to Billie Eilish while taking a shower,Read new books with my aunt and uncle on the weekend,0.02,0.04,8.8,1,,,,
,,662fad6b6f397a64efc67680,6685aa9113c938e83b4f1ea0,672d4cc22f439c108031e690,2024-11-07_18h28.02.723,WTP_SM_Choice,2022.2.1,Win32,120.1923077,,,,,,,,,,,,,,,,,,18,,,,,,,,,,0.03,1,1.275,0,2,2,2,1,Listen to Billie Eilish while taking a shower,Go to the movies with my friends at night on Friday,0.03,0.04,3.3,1,,,,
,,662fad6b6f397a64efc67680,6685aa9113c938e83b4f1ea0,672d4cc22f439c108031e690,2024-11-07_18h28.02.723,WTP_SM_Choice,2022.2.1,Win32,120.1923077,,,,,,,,,,,,,,,,,,19,,,,,,,,,,0.04,1,1.679,0,3,3,3,1,Eat jerk chicken alfredo in my kitchen,Go trick or treating with my friends/family on Halloween,0.04,0.04,3.3,1,,,,
,,662fad6b6f397a64efc67680,6685aa9113c938e83b4f1ea0,672d4cc22f439c108031e690,2024-11-07_18h28.02.723,WTP_SM_Choice,2022.2.1,Win32,120.1923077,,,,,,,,,,,,,,,,,,20,,,,,,,,,,0.05,1,1.695,0,4,4,4,1,Learn new science related things with my classmates,Watch the full Harry Potter series in my living room,0.05,0.04,1.1,0,,,,
,,662fad6b6f397a64efc67680,6685aa9113c938e83b4f1ea0,672d4cc22f439c108031e690,2024-11-07_18h28.02.723,WTP_SM_Choice,2022.2.1,Win32,120.1923077,,,,,,,NAN,,NAN,0.42,5.58,,0,19,19,19,1,20,Charlie,Acc,Participant_Images/662fad6b6f397a64efc67680/662fad6b6f397a64efc67680_Images/662fad6b6f397a64efc67680_Image_24.jpeg,liked,3.195382774,,,,,,,,,,,,,,,,,,,,,,
,,662fad6b6f397a64efc67680,6685aa9113c938e83b4f1ea0,672d4cc22f439c108031e690,2024-11-07_18h28.02.723,WTP_SM_Choice,2022.2.1,Win32,120.1923077,,,,,space,0.359,NAN,,NAN,0.42,5.58,,0,20,20,20,1,21,Charlie,Acc,Participant_Images/662fad6b6f397a64efc67680/662fad6b6f397a64efc67680_Images/662fad6b6f397a64efc67680_Image_25.jpeg,did not like,1.779333479,,,,,,,,,,,,,,,,,,,,,,
,,662fad6b6f397a64efc67680,6685aa9113c938e83b4f1ea0,672d4cc22f439c108031e690,2024-11-07_18h28.02.723,WTP_SM_Choice,2022.2.1,Win32,120.1923077,,,,,space,1.065,NAN,,NAN,0.42,5.58,,0,21,21,21,1,22,Charlie,Acc,Participant_Images/662fad6b6f397a64efc67680/662fad6b6f397a64efc67680_Images/662fad6b6f397a64efc67680_Image_9.jpeg,liked,4.312468682,,,,,,,,,,,,,,,,,,,,,,
,,662fad6b6f397a64efc67680,6685aa9113c938e83b4f1ea0,672d4cc22f439c108031e690,2024-11-07_18h28.02.723,WTP_SM_Choice,2022.2.1,Win32,120.1923077,,,,,space,0.989,NAN,,NAN,0.42,5.58,,0,22,22,22,1,23,Charlie,Acc,Participant_Images/662fad6b6f397a64efc67680/662fad6b6f397a64efc67680_Images/662fad6b6f397a64efc67680_Image_14.jpeg,did not like,4.940433059,,,,,,,,,,,,,,,,,,,,,,
,,662fad6b6f397a64efc67680,6685aa9113c938e83b4f1ea0,672d4cc22f439c108031e690,2024-11-07_18h28.02.723,WTP_SM_Choice,2022.2.1,Win32,120.1923077,,,,,space,0.674,NAN,,NAN,0.42,5.58,,0,23,23,23,1,24,Charlie,Acc,Participant_Images/662fad6b6f397a64efc67680/662fad6b6f397a64efc67680_Images/662fad6b6f397a64efc67680_Image_20.jpeg,liked,2.7105123,,,,,,,,,,,,,,,,,,,,,,
,,662fad6b6f397a64efc67680,6685aa9113c938e83b4f1ea0,672d4cc22f439c108031e690,2024-11-07_18h28.02.723,WTP_SM_Choice,2022.2.1,Win32,120.1923077,,,,,,,,,,,,,,,,,,21,,,,,,space,1.081,space,1.392,0.01,1,1.671,0,0,0,0,1,Listen to Billie Eilish while taking a shower,Go trick or treating with my friends/family on Halloween,0.01,0.05,8.8,1,,,,
,,662fad6b6f397a64efc67680,6685aa9113c938e83b4f1ea0,672d4cc22f439c108031e690,2024-11-07_18h28.02.723,WTP_SM_Choice,2022.2.1,Win32,120.1923077,,,,,,,,,,,,,,,,,,22,,,,,,,,,,0.02,1,1.008,0,1,1,1,1,Read Cinder by Marissa Meyer on my porch,Go bowling with my friends and family at night in the summer,0.02,0.05,4.4,1,,,,
,,662fad6b6f397a64efc67680,6685aa9113c938e83b4f1ea0,672d4cc22f439c108031e690,2024-11-07_18h28.02.723,WTP_SM_Choice,2022.2.1,Win32,120.1923077,,,,,,,,,,,,,,,,,,23,,,,,,,,,,0.03,1,1.442,0,2,2,2,1,Go to a history museum in the spring and seeing really cool artifacts,Go to Tennessee with my family to our cabin,0.03,0.05,1.1,1,,,,
,,662fad6b6f397a64efc67680,6685aa9113c938e83b4f1ea0,672d4cc22f439c108031e690,2024-11-07_18h28.02.723,WTP_SM_Choice,2022.2.1,Win32,120.1923077,,,,,,,,,,,,,,,,,,24,,,,,,,,,,0.04,1,1.385,0,3,3,3,1,Go bowling with my friends and family at night in the summer,Watch the full Harry Potter series in my living room,0.04,0.05,4.4,0,,,,
,,662fad6b6f397a64efc67680,6685aa9113c938e83b4f1ea0,672d4cc22f439c108031e690,2024-11-07_18h28.02.723,WTP_SM_Choice,2022.2.1,Win32,120.1923077,,,,,,,,,,,,,,,,,,25,,,,,,,,,,0.05,1,1.423,0,4,4,4,1,Go bowling with my friends and family at night in the summer,Listen to Billie Eilish while taking a shower,0.05,0.05,3.3,0,,,,
,,662fad6b6f397a64efc67680,6685aa9113c938e83b4f1ea0,672d4cc22f439c108031e690,2024-11-07_18h28.02.723,WTP_SM_Choice,2022.2.1,Win32,120.1923077,,,,,,,3,,6,0.57,5.43,,0,24,24,24,1,25,Charlie,Acc,Participant_Images/662fad6b6f397a64efc67680/662fad6b6f397a64efc67680_Images/662fad6b6f397a64efc67680_Image_1.jpeg,liked,3.602308302,,,,,,,,,,,,,,,,,,,space,1.368,,
,,662fad6b6f397a64efc67680,6685aa9113c938e83b4f1ea0,672d4cc22f439c108031e690,2024-11-07_18h28.02.723,WTP_SM_Choice,2022.2.1,Win32,120.1923077,,,space,1.407,space,1.695,NAN,,NAN,0.57,5.43,,0,25,25,25,1,26,Alex,Rej,Participant_Images/662fad6b6f397a64efc67680/662fad6b6f397a64efc67680_Images/662fad6b6f397a64efc67680_Image_6.jpeg,did not like,4.106391878,,,,,,,,,,,,,,,,,,,,,,
,,662fad6b6f397a64efc67680,6685aa9113c938e83b4f1ea0,672d4cc22f439c108031e690,2024-11-07_18h28.02.723,WTP_SM_Choice,2022.2.1,Win32,120.1923077,,,,,space,0.594,NAN,,NAN,0.57,5.43,,0,26,26,26,1,27,Alex,Rej,Participant_Images/662fad6b6f397a64efc67680/662fad6b6f397a64efc67680_Images/662fad6b6f397a64efc67680_Image_19.jpeg,did not like,3.799433026,,,,,,,,,,,,,,,,,,,,,,
,,662fad6b6f397a64efc67680,6685aa9113c938e83b4f1ea0,672d4cc22f439c108031e690,2024-11-07_18h28.02.723,WTP_SM_Choice,2022.2.1,Win32,120.1923077,,,,,space,1.344,NAN,,NAN,0.57,5.43,,0,27,27,27,1,28,Alex,Rej,Participant_Images/662fad6b6f397a64efc67680/662fad6b6f397a64efc67680_Images/662fad6b6f397a64efc67680_Image_14.jpeg,liked,5.246980764,,,,,,,,,,,,,,,,,,,,,,
,,662fad6b6f397a64efc67680,6685aa9113c938e83b4f1ea0,672d4cc22f439c108031e690,2024-11-07_18h28.02.723,WTP_SM_Choice,2022.2.1,Win32,120.1923077,,,,,space,1.722,NAN,,NAN,0.57,5.43,,0,28,28,28,1,29,Alex,Rej,Participant_Images/662fad6b6f397a64efc67680/662fad6b6f397a64efc67680_Images/662fad6b6f397a64efc67680_Image_20.jpeg,did not like,3.30081769,,,,,,,,,,,,,,,,,,,,,,
,,662fad6b6f397a64efc67680,6685aa9113c938e83b4f1ea0,672d4cc22f439c108031e690,2024-11-07_18h28.02.723,WTP_SM_Choice,2022.2.1,Win32,120.1923077,,,,,,,,,,,,,,,,,,26,,,,,,space,0.975,space,0.557,0.01,2,2.087,0,0,0,0,1,Go trick or treating with my friends/family on Halloween,Read Cinder by Marissa Meyer on my porch,0.01,0.01,4.4,0,,,,
,,662fad6b6f397a64efc67680,6685aa9113c938e83b4f1ea0,672d4cc22f439c108031e690,2024-11-07_18h28.02.723,WTP_SM_Choice,2022.2.1,Win32,120.1923077,,,,,,,,,,,,,,,,,,27,,,,,,,,,,0.01,2,1.187,0,1,1,1,1,Read Cinder by Marissa Meyer on my porch,Read new books with my aunt and uncle on the weekend,0.02,0.01,3.3,1,,,,
,,662fad6b6f397a64efc67680,6685aa9113c938e83b4f1ea0,672d4cc22f439c108031e690,2024-11-07_18h28.02.723,WTP_SM_Choice,2022.2.1,Win32,120.1923077,,,,,,,,,,,,,,,,,,28,,,,,,,,,,0.01,2,1.218,0,2,2,2,1,Read new books with my aunt and uncle on the weekend,Watch The Last Kingdom on Netflix while eating,0.03,0.01,3.3,0,,,,
,,662fad6b6f397a64efc67680,6685aa9113c938e83b4f1ea0,672d4cc22f439c108031e690,2024-11-07_18h28.02.723,WTP_SM_Choice,2022.2.1,Win32,120.1923077,,,,,,,,,,,,,,,,,,29,,,,,,,,,,0.01,2,1.166,0,3,3,3,1,Go shopping at the mall with my friends,Watch The Last Kingdom on Netflix while eating,0.04,0.01,4.4,0,,,,
,,662fad6b6f397a64efc67680,6685aa9113c938e83b4f1ea0,672d4cc22f439c108031e690,2024-11-07_18h28.02.723,WTP_SM_Choice,2022.2.1,Win32,120.1923077,,,,,,,,,,,,,,,,,,30,,,,,,,,,,0.01,2,1.049,0,4,4,4,1,Go trick or treating with my friends/family on Halloween,Watch The Last Kingdom on Netflix while eating,0.05,0.01,8.8,0,,,,
,,662fad6b6f397a64efc67680,6685aa9113c938e83b4f1ea0,672d4cc22f439c108031e690,2024-11-07_18h28.02.723,WTP_SM_Choice,2022.2.1,Win32,120.1923077,,,,,,,NAN,,NAN,0.62,5.38,,0,29,29,29,1,30,Alex,Rej,Participant_Images/662fad6b6f397a64efc67680/662fad6b6f397a64efc67680_Images/662fad6b6f397a64efc67680_Image_5.jpeg,did not like,1.661473164,,,,,,,,,,,,,,,,,,,,,,
,,662fad6b6f397a64efc67680,6685aa9113c938e83b4f1ea0,672d4cc22f439c108031e690,2024-11-07_18h28.02.723,WTP_SM_Choice,2022.2.1,Win32,120.1923077,,,,,space,0.585,NAN,,NAN,0.62,5.38,,0,30,30,30,1,31,Alex,Rej,Participant_Images/662fad6b6f397a64efc67680/662fad6b6f397a64efc67680_Images/662fad6b6f397a64efc67680_Image_22.jpeg,liked,3.613205605,,,,,,,,,,,,,,,,,,,,,,
,,662fad6b6f397a64efc67680,6685aa9113c938e83b4f1ea0,672d4cc22f439c108031e690,2024-11-07_18h28.02.723,WTP_SM_Choice,2022.2.1,Win32,120.1923077,,,,,space,3.336,NAN,,NAN,0.62,5.38,,0,31,31,31,1,32,Alex,Rej,Participant_Images/662fad6b6f397a64efc67680/662fad6b6f397a64efc67680_Images/662fad6b6f397a64efc67680_Image_11.jpeg,liked,4.988446431,,,,,,,,,,,,,,,,,,,,,,
,,662fad6b6f397a64efc67680,6685aa9113c938e83b4f1ea0,672d4cc22f439c108031e690,2024-11-07_18h28.02.723,WTP_SM_Choice,2022.2.1,Win32,120.1923077,,,,,space,0.604,NAN,,NAN,0.62,5.38,,0,32,32,32,1,33,Alex,Rej,Participant_Images/662fad6b6f397a64efc67680/662fad6b6f397a64efc67680_Images/662fad6b6f397a64efc67680_Image_4.jpeg,did not like,3.470791822,,,,,,,,,,,,,,,,,,,,,,
,,662fad6b6f397a64efc67680,6685aa9113c938e83b4f1ea0,672d4cc22f439c108031e690,2024-11-07_18h28.02.723,WTP_SM_Choice,2022.2.1,Win32,120.1923077,,,,,space,0.88,NAN,,NAN,0.62,5.38,,0,33,33,33,1,34,Alex,Rej,Participant_Images/662fad6b6f397a64efc67680/662fad6b6f397a64efc67680_Images/662fad6b6f397a64efc67680_Image_23.jpeg,did not like,3.820572462,,,,,,,,,,,,,,,,,,,,,,
,,662fad6b6f397a64efc67680,6685aa9113c938e83b4f1ea0,672d4cc22f439c108031e690,2024-11-07_18h28.02.723,WTP_SM_Choice,2022.2.1,Win32,120.1923077,,,,,,,,,,,,,,,,,,31,,,,,,space,1.518,space,1.615,0.01,1,1.693,0,0,0,0,1,Go shopping at the mall with my friends,Play puzzle games on my phone in my room,0.01,0.02,8.8,0,,,,
,,662fad6b6f397a64efc67680,6685aa9113c938e83b4f1ea0,672d4cc22f439c108031e690,2024-11-07_18h28.02.723,WTP_SM_Choice,2022.2.1,Win32,120.1923077,,,,,,,,,,,,,,,,,,32,,,,,,,,,,0.02,1,2.013,0,1,1,1,1,Go to a history museum in the spring and seeing really cool artifacts,Learn new science related things with my classmates,0.02,0.02,1.1,1,,,,
,,662fad6b6f397a64efc67680,6685aa9113c938e83b4f1ea0,672d4cc22f439c108031e690,2024-11-07_18h28.02.723,WTP_SM_Choice,2022.2.1,Win32,120.1923077,,,,,,,,,,,,,,,,,,33,,,,,,,,,,0.02,2,0.925,0,2,2,2,1,Go to the movies with my friends at night on Friday,Rewatch Money Heist in my bedroom,0.03,0.02,4.4,0,,,,
,,662fad6b6f397a64efc67680,6685aa9113c938e83b4f1ea0,672d4cc22f439c108031e690,2024-11-07_18h28.02.723,WTP_SM_Choice,2022.2.1,Win32,120.1923077,,,,,,,,,,,,,,,,,,34,,,,,,,,,,0.02,2,0.86,0,3,3,3,1,Go to Six Flags with my friends amd family during the summer,Eat jerk chicken alfredo in my kitchen,0.04,0.02,3.3,0,,,,
,,662fad6b6f397a64efc67680,6685aa9113c938e83b4f1ea0,672d4cc22f439c108031e690,2024-11-07_18h28.02.723,WTP_SM_Choice,2022.2.1,Win32,120.1923077,,,,,,,,,,,,,,,,,,35,,,,,,,,,,0.02,2,1.994,0,4,4,4,1,Go trick or treating with my friends/family on Halloween,Play Red Dead Redemption 2 in my room on my Xbox,0.05,0.02,1.1,0,,,,
,,662fad6b6f397a64efc67680,6685aa9113c938e83b4f1ea0,672d4cc22f439c108031e690,2024-11-07_18h28.02.723,WTP_SM_Choice,2022.2.1,Win32,120.1923077,,,,,,,NAN,,NAN,0.71,5.29,,0,34,34,34,1,35,Alex,Rej,Participant_Images/662fad6b6f397a64efc67680/662fad6b6f397a64efc67680_Images/662fad6b6f397a64efc67680_Image_9.jpeg,did not like,2.455989137,,,,,,,,,,,,,,,,,,,,,,
,,662fad6b6f397a64efc67680,6685aa9113c938e83b4f1ea0,672d4cc22f439c108031e690,2024-11-07_18h28.02.723,WTP_SM_Choice,2022.2.1,Win32,120.1923077,,,,,space,2.058,NAN,,NAN,0.71,5.29,,0,35,35,35,1,36,Alex,Rej,Participant_Images/662fad6b6f397a64efc67680/662fad6b6f397a64efc67680_Images/662fad6b6f397a64efc67680_Image_18.jpeg,liked,3.79605092,,,,,,,,,,,,,,,,,,,,,,
,,662fad6b6f397a64efc67680,6685aa9113c938e83b4f1ea0,672d4cc22f439c108031e690,2024-11-07_18h28.02.723,WTP_SM_Choice,2022.2.1,Win32,120.1923077,,,,,space,0.903,NAN,,NAN,0.71,5.29,,0,36,36,36,1,37,Alex,Rej,Participant_Images/662fad6b6f397a64efc67680/662fad6b6f397a64efc67680_Images/662fad6b6f397a64efc67680_Image_17.jpeg,did not like,3.562416326,,,,,,,,,,,,,,,,,,,,,,
,,662fad6b6f397a64efc67680,6685aa9113c938e83b4f1ea0,672d4cc22f439c108031e690,2024-11-07_18h28.02.723,WTP_SM_Choice,2022.2.1,Win32,120.1923077,,,,,space,3.35,NAN,,NAN,0.71,5.29,,0,37,37,37,1,38,Alex,Rej,Participant_Images/662fad6b6f397a64efc67680/662fad6b6f397a64efc67680_Images/662fad6b6f397a64efc67680_Image_13.jpeg,did not like,2.843822497,,,,,,,,,,,,,,,,,,,,,,
,,662fad6b6f397a64efc67680,6685aa9113c938e83b4f1ea0,672d4cc22f439c108031e690,2024-11-07_18h28.02.723,WTP_SM_Choice,2022.2.1,Win32,120.1923077,,,,,space,1.193,NAN,,NAN,0.71,5.29,,0,38,38,38,1,39,Alex,Rej,Participant_Images/662fad6b6f397a64efc67680/662fad6b6f397a64efc67680_Images/662fad6b6f397a64efc67680_Image_25.jpeg,liked,3.546495948,,,,,,,,,,,,,,,,,,,,,,
,,662fad6b6f397a64efc67680,6685aa9113c938e83b4f1ea0,672d4cc22f439c108031e690,2024-11-07_18h28.02.723,WTP_SM_Choice,2022.2.1,Win32,120.1923077,,,,,,,,,,,,,,,,,,36,,,,,,space,0.768,space,1.126,0.01,1,1.021,0,0,0,0,1,Watch any Marvel movies on the weekends with my family,Listen to Billie Eilish while taking a shower,0.01,0.03,3.3,0,,,,
,,662fad6b6f397a64efc67680,6685aa9113c938e83b4f1ea0,672d4cc22f439c108031e690,2024-11-07_18h28.02.723,WTP_SM_Choice,2022.2.1,Win32,120.1923077,,,,,,,,,,,,,,,,,,37,,,,,,,,,,0.02,1,1.091,0,1,1,1,1,Watch The Last Kingdom on Netflix while eating,Go to the movies with my friends at night on Friday,0.02,0.03,1.1,1,,,,
,,662fad6b6f397a64efc67680,6685aa9113c938e83b4f1ea0,672d4cc22f439c108031e690,2024-11-07_18h28.02.723,WTP_SM_Choice,2022.2.1,Win32,120.1923077,,,,,,,,,,,,,,,,,,38,,,,,,,,,,0.03,2,1.728,0,2,2,2,1,Learn new science related things with my classmates,Go to the movies to watch anything horror related while it is hot outside,0.03,0.03,1.1,0,,,,
,,662fad6b6f397a64efc67680,6685aa9113c938e83b4f1ea0,672d4cc22f439c108031e690,2024-11-07_18h28.02.723,WTP_SM_Choice,2022.2.1,Win32,120.1923077,,,,,,,,,,,,,,,,,,39,,,,,,,,,,0.03,2,3.037,0,3,3,3,1,Watch any Marvel movies on the weekends with my family,Read Cinder by Marissa Meyer on my porch,0.04,0.03,3.3,0,,,,
,,662fad6b6f397a64efc67680,6685aa9113c938e83b4f1ea0,672d4cc22f439c108031e690,2024-11-07_18h28.02.723,WTP_SM_Choice,2022.2.1,Win32,120.1923077,,,,,,,,,,,,,,,,,,40,,,,,,,,,,0.03,2,1.358,0,4,4,4,1,Go out to eat on the weekend with my family,Watch the full Harry Potter series in my living room,0.05,0.03,4.4,0,,,,
,,662fad6b6f397a64efc67680,6685aa9113c938e83b4f1ea0,672d4cc22f439c108031e690,2024-11-07_18h28.02.723,WTP_SM_Choice,2022.2.1,Win32,120.1923077,,,,,,,NAN,,NAN,0.83,5.17,,0,39,39,39,1,40,Alex,Rej,Participant_Images/662fad6b6f397a64efc67680/662fad6b6f397a64efc67680_Images/662fad6b6f397a64efc67680_Image_3.jpeg,did not like,1.672012706,,,,,,,,,,,,,,,,,,,,,,
,,662fad6b6f397a64efc67680,6685aa9113c938e83b4f1ea0,672d4cc22f439c108031e690,2024-11-07_18h28.02.723,WTP_SM_Choice,2022.2.1,Win32,120.1923077,,,,,space,3.257,NAN,,NAN,0.83,5.17,,0,40,40,40,1,41,Alex,Rej,Participant_Images/662fad6b6f397a64efc67680/662fad6b6f397a64efc67680_Images/662fad6b6f397a64efc67680_Image_15.jpeg,did not like,4.942172136,,,,,,,,,,,,,,,,,,,,,,
,,662fad6b6f397a64efc67680,6685aa9113c938e83b4f1ea0,672d4cc22f439c108031e690,2024-11-07_18h28.02.723,WTP_SM_Choice,2022.2.1,Win32,120.1923077,,,,,space,1.291,NAN,,NAN,0.83,5.17,,0,41,41,41,1,42,Alex,Rej,Participant_Images/662fad6b6f397a64efc67680/662fad6b6f397a64efc67680_Images/662fad6b6f397a64efc67680_Image_10.jpeg,did not like,2.50187214,,,,,,,,,,,,,,,,,,,,,,
,,662fad6b6f397a64efc67680,6685aa9113c938e83b4f1ea0,672d4cc22f439c108031e690,2024-11-07_18h28.02.723,WTP_SM_Choice,2022.2.1,Win32,120.1923077,,,,,space,1.489,NAN,,NAN,0.83,5.17,,0,42,42,42,1,43,Alex,Rej,Participant_Images/662fad6b6f397a64efc67680/662fad6b6f397a64efc67680_Images/662fad6b6f397a64efc67680_Image_16.jpeg,did not like,2.071164779,,,,,,,,,,,,,,,,,,,,,,
,,662fad6b6f397a64efc67680,6685aa9113c938e83b4f1ea0,672d4cc22f439c108031e690,2024-11-07_18h28.02.723,WTP_SM_Choice,2022.2.1,Win32,120.1923077,,,,,space,5.675,NAN,,NAN,0.83,5.17,,0,43,43,43,1,44,Alex,Rej,Participant_Images/662fad6b6f397a64efc67680/662fad6b6f397a64efc67680_Images/662fad6b6f397a64efc67680_Image_7.jpeg,liked,5.336503566,,,,,,,,,,,,,,,,,,,,,,
,,662fad6b6f397a64efc67680,6685aa9113c938e83b4f1ea0,672d4cc22f439c108031e690,2024-11-07_18h28.02.723,WTP_SM_Choice,2022.2.1,Win32,120.1923077,,,,,,,,,,,,,,,,,,41,,,,,,space,1.439,space,1.014,0.01,1,1.458,0,0,0,0,1,Go to Tennessee with my family to our cabin,Play Red Dead Redemption 2 in my room on my Xbox,0.01,0.04,1.1,0,,,,
,,662fad6b6f397a64efc67680,6685aa9113c938e83b4f1ea0,672d4cc22f439c108031e690,2024-11-07_18h28.02.723,WTP_SM_Choice,2022.2.1,Win32,120.1923077,,,,,,,,,,,,,,,,,,42,,,,,,,,,,0.02,1,1.402,0,1,1,1,1,Eat jerk chicken alfredo in my kitchen,Read new books with my aunt and uncle on the weekend,0.02,0.04,3.3,1,,,,
,,662fad6b6f397a64efc67680,6685aa9113c938e83b4f1ea0,672d4cc22f439c108031e690,2024-11-07_18h28.02.723,WTP_SM_Choice,2022.2.1,Win32,120.1923077,,,,,,,,,,,,,,,,,,43,,,,,,,,,,0.03,1,1.394,0,2,2,2,1,Go to the movies with my friends at night on Friday,Watch the full Harry Potter series in my living room,0.03,0.04,1.1,0,,,,
,,662fad6b6f397a64efc67680,6685aa9113c938e83b4f1ea0,672d4cc22f439c108031e690,2024-11-07_18h28.02.723,WTP_SM_Choice,2022.2.1,Win32,120.1923077,,,,,,,,,,,,,,,,,,44,,,,,,,,,,0.04,2,2.152,0,3,3,3,1,Go to the movies with my friends at night on Friday,Go to a history museum in the spring and seeing really cool artifacts,0.04,0.04,1.1,0,,,,
,,662fad6b6f397a64efc67680,6685aa9113c938e83b4f1ea0,672d4cc22f439c108031e690,2024-11-07_18h28.02.723,WTP_SM_Choice,2022.2.1,Win32,120.1923077,,,,,,,,,,,,,,,,,,45,,,,,,,,,,0.04,2,3.599,0,4,4,4,1,Go to the movies to watch anything horror related while it is hot outside,Go trick or treating with my friends/family on Halloween,0.05,0.04,4.4,1,,,,
,,662fad6b6f397a64efc67680,6685aa9113c938e83b4f1ea0,672d4cc22f439c108031e690,2024-11-07_18h28.02.723,WTP_SM_Choice,2022.2.1,Win32,120.1923077,,,,,,,NAN,,NAN,0.97,5.03,,0,44,44,44,1,45,Alex,Rej,Participant_Images/662fad6b6f397a64efc67680/662fad6b6f397a64efc67680_Images/662fad6b6f397a64efc67680_Image_1.jpeg,did not like,2.642157193,,,,,,,,,,,,,,,,,,,,,,
,,662fad6b6f397a64efc67680,6685aa9113c938e83b4f1ea0,672d4cc22f439c108031e690,2024-11-07_18h28.02.723,WTP_SM_Choice,2022.2.1,Win32,120.1923077,,,,,space,3.964,NAN,,NAN,0.97,5.03,,0,45,45,45,1,46,Alex,Rej,Participant_Images/662fad6b6f397a64efc67680/662fad6b6f397a64efc67680_Images/662fad6b6f397a64efc67680_Image_2.jpeg,did not like,4.456234322,,,,,,,,,,,,,,,,,,,,,,
,,662fad6b6f397a64efc67680,6685aa9113c938e83b4f1ea0,672d4cc22f439c108031e690,2024-11-07_18h28.02.723,WTP_SM_Choice,2022.2.1,Win32,120.1923077,,,,,space,0.812,NAN,,NAN,0.97,5.03,,0,46,46,46,1,47,Alex,Rej,Participant_Images/662fad6b6f397a64efc67680/662fad6b6f397a64efc67680_Images/662fad6b6f397a64efc67680_Image_12.jpeg,did not like,4.438512181,,,,,,,,,,,,,,,,,,,,,,
,,662fad6b6f397a64efc67680,6685aa9113c938e83b4f1ea0,672d4cc22f439c108031e690,2024-11-07_18h28.02.723,WTP_SM_Choice,2022.2.1,Win32,120.1923077,,,,,space,0.639,NAN,,NAN,0.97,5.03,,0,47,47,47,1,48,Alex,Rej,Participant_Images/662fad6b6f397a64efc67680/662fad6b6f397a64efc67680_Images/662fad6b6f397a64efc67680_Image_24.jpeg,did not like,2.682944783,,,,,,,,,,,,,,,,,,,,,,
,,662fad6b6f397a64efc67680,6685aa9113c938e83b4f1ea0,672d4cc22f439c108031e690,2024-11-07_18h28.02.723,WTP_SM_Choice,2022.2.1,Win32,120.1923077,,,,,space,2.663,NAN,,NAN,0.97,5.03,,0,48,48,48,1,49,Alex,Rej,Participant_Images/662fad6b6f397a64efc67680/662fad6b6f397a64efc67680_Images/662fad6b6f397a64efc67680_Image_8.jpeg,did not like,4.51984296,,,,,,,,,,,,,,,,,,,,,,
,,662fad6b6f397a64efc67680,6685aa9113c938e83b4f1ea0,672d4cc22f439c108031e690,2024-11-07_18h28.02.723,WTP_SM_Choice,2022.2.1,Win32,120.1923077,,,,,,,,,,,,,,,,,,46,,,,,,space,0.784,space,0.771,0.01,1,1.489,0,0,0,0,1,Watch any Marvel movies on the weekends with my family,Play puzzle games on my phone in my room,0.01,0.05,8.8,0,,,,
,,662fad6b6f397a64efc67680,6685aa9113c938e83b4f1ea0,672d4cc22f439c108031e690,2024-11-07_18h28.02.723,WTP_SM_Choice,2022.2.1,Win32,120.1923077,,,,,,,,,,,,,,,,,,47,,,,,,,,,,0.02,1,1.042,0,1,1,1,1,Go shopping at the mall with my friends,Read Cinder by Marissa Meyer on my porch,0.02,0.05,1.1,0,,,,
,,662fad6b6f397a64efc67680,6685aa9113c938e83b4f1ea0,672d4cc22f439c108031e690,2024-11-07_18h28.02.723,WTP_SM_Choice,2022.2.1,Win32,120.1923077,,,,,,,,,,,,,,,,,,48,,,,,,,,,,0.03,1,1.294,0,2,2,2,1,Learn new science related things with my classmates,Listen to Billie Eilish while taking a shower,0.03,0.05,4.4,0,,,,
,,662fad6b6f397a64efc67680,6685aa9113c938e83b4f1ea0,672d4cc22f439c108031e690,2024-11-07_18h28.02.723,WTP_SM_Choice,2022.2.1,Win32,120.1923077,,,,,,,,,,,,,,,,,,49,,,,,,,,,,0.04,1,1.257,0,3,3,3,1,Go to the movies to watch anything horror related while it is hot outside,Go to Six Flags with my friends amd family during the summer,0.04,0.05,3.3,1,,,,
,,662fad6b6f397a64efc67680,6685aa9113c938e83b4f1ea0,672d4cc22f439c108031e690,2024-11-07_18h28.02.723,WTP_SM_Choice,2022.2.1,Win32,120.1923077,,,,,,,,,,,,,,,,,,50,,,,,,,,,,0.05,2,1.579,0,4,4,4,1,Play Red Dead Redemption 2 in my room on my Xbox,Read new books with my aunt and uncle on the weekend,0.05,0.05,1.1,1,,,,
,,662fad6b6f397a64efc67680,6685aa9113c938e83b4f1ea0,672d4cc22f439c108031e690,2024-11-07_18h28.02.723,WTP_SM_Choice,2022.2.1,Win32,120.1923077,,,,,,,2,,5,1.12,4.88,,0,49,49,49,1,50,Alex,Rej,Participant_Images/662fad6b6f397a64efc67680/662fad6b6f397a64efc67680_Images/662fad6b6f397a64efc67680_Image_21.jpeg,liked,3.195382774,,,,,,,,,,,,,,,,,,,space,5.376,,
,,662fad6b6f397a64efc67680,6685aa9113c938e83b4f1ea0,672d4cc22f439c108031e690,2024-11-07_18h28.02.723,WTP_SM_Choice,2022.2.1,Win32,120.1923077,,,space,1.699,space,0.746,NAN,,NAN,1.12,4.88,,0,50,50,50,1,51,Riley,Acc,Participant_Images/662fad6b6f397a64efc67680/662fad6b6f397a64efc67680_Images/662fad6b6f397a64efc67680_Image_25.jpeg,liked,1.779333479,,,,,,,,,,,,,,,,,,,,,,
,,662fad6b6f397a64efc67680,6685aa9113c938e83b4f1ea0,672d4cc22f439c108031e690,2024-11-07_18h28.02.723,WTP_SM_Choice,2022.2.1,Win32,120.1923077,,,,,space,0.862,NAN,,NAN,1.12,4.88,,0,51,51,51,1,52,Riley,Acc,Participant_Images/662fad6b6f397a64efc67680/662fad6b6f397a64efc67680_Images/662fad6b6f397a64efc67680_Image_14.jpeg,liked,4.312468682,,,,,,,,,,,,,,,,,,,,,,
,,662fad6b6f397a64efc67680,6685aa9113c938e83b4f1ea0,672d4cc22f439c108031e690,2024-11-07_18h28.02.723,WTP_SM_Choice,2022.2.1,Win32,120.1923077,,,,,space,2.107,NAN,,NAN,1.12,4.88,,0,52,52,52,1,53,Riley,Acc,Participant_Images/662fad6b6f397a64efc67680/662fad6b6f397a64efc67680_Images/662fad6b6f397a64efc67680_Image_13.jpeg,liked,4.940433059,,,,,,,,,,,,,,,,,,,,,,
,,662fad6b6f397a64efc67680,6685aa9113c938e83b4f1ea0,672d4cc22f439c108031e690,2024-11-07_18h28.02.723,WTP_SM_Choice,2022.2.1,Win32,120.1923077,,,,,space,0.485,NAN,,NAN,1.12,4.88,,0,53,53,53,1,54,Riley,Acc,Participant_Images/662fad6b6f397a64efc67680/662fad6b6f397a64efc67680_Images/662fad6b6f397a64efc67680_Image_16.jpeg,liked,2.7105123,,,,,,,,,,,,,,,,,,,,,,
,,662fad6b6f397a64efc67680,6685aa9113c938e83b4f1ea0,672d4cc22f439c108031e690,2024-11-07_18h28.02.723,WTP_SM_Choice,2022.2.1,Win32,120.1923077,,,,,,,,,,,,,,,,,,51,,,,,,space,3.371,space,0.555,0.01,1,1.744,0,0,0,0,1,Eat jerk chicken alfredo in my kitchen,Go out to eat on the weekend with my family,0.01,0.01,1.1,1,,,,
,,662fad6b6f397a64efc67680,6685aa9113c938e83b4f1ea0,672d4cc22f439c108031e690,2024-11-07_18h28.02.723,WTP_SM_Choice,2022.2.1,Win32,120.1923077,,,,,,,,,,,,,,,,,,52,,,,,,,,,,0.01,2,1.065,0,1,1,1,1,Watch the full Harry Potter series in my living room,Watch any Marvel movies on the weekends with my family,0.02,0.01,3.3,1,,,,
,,662fad6b6f397a64efc67680,6685aa9113c938e83b4f1ea0,672d4cc22f439c108031e690,2024-11-07_18h28.02.723,WTP_SM_Choice,2022.2.1,Win32,120.1923077,,,,,,,,,,,,,,,,,,53,,,,,,,,,,0.01,2,1.07,0,2,2,2,1,Watch The Last Kingdom on Netflix while eating,Go to Tennessee with my family to our cabin,0.03,0.01,1.1,1,,,,
,,662fad6b6f397a64efc67680,6685aa9113c938e83b4f1ea0,672d4cc22f439c108031e690,2024-11-07_18h28.02.723,WTP_SM_Choice,2022.2.1,Win32,120.1923077,,,,,,,,,,,,,,,,,,54,,,,,,,,,,0.01,2,4.782,0,3,3,3,1,Eat jerk chicken alfredo in my kitchen,Go to the movies with my friends at night on Friday,0.04,0.01,4.4,1,,,,
,,662fad6b6f397a64efc67680,6685aa9113c938e83b4f1ea0,672d4cc22f439c108031e690,2024-11-07_18h28.02.723,WTP_SM_Choice,2022.2.1,Win32,120.1923077,,,,,,,,,,,,,,,,,,55,,,,,,,,,,0.01,2,1.282,0,4,4,4,1,Read Cinder by Marissa Meyer on my porch,Learn new science related things with my classmates,0.05,0.01,1.1,1,,,,
,,662fad6b6f397a64efc67680,6685aa9113c938e83b4f1ea0,672d4cc22f439c108031e690,2024-11-07_18h28.02.723,WTP_SM_Choice,2022.2.1,Win32,120.1923077,,,,,,,NAN,,NAN,1.17,4.83,,0,54,54,54,1,55,Riley,Acc,Participant_Images/662fad6b6f397a64efc67680/662fad6b6f397a64efc67680_Images/662fad6b6f397a64efc67680_Image_23.jpeg,liked,3.602308302,,,,,,,,,,,,,,,,,,,,,,
,,662fad6b6f397a64efc67680,6685aa9113c938e83b4f1ea0,672d4cc22f439c108031e690,2024-11-07_18h28.02.723,WTP_SM_Choice,2022.2.1,Win32,120.1923077,,,,,space,0.664,NAN,,NAN,1.17,4.83,,0,55,55,55,1,56,Riley,Acc,Participant_Images/662fad6b6f397a64efc67680/662fad6b6f397a64efc67680_Images/662fad6b6f397a64efc67680_Image_17.jpeg,liked,4.106391878,,,,,,,,,,,,,,,,,,,,,,
,,662fad6b6f397a64efc67680,6685aa9113c938e83b4f1ea0,672d4cc22f439c108031e690,2024-11-07_18h28.02.723,WTP_SM_Choice,2022.2.1,Win32,120.1923077,,,,,space,3.975,NAN,,NAN,1.17,4.83,,0,56,56,56,1,57,Riley,Acc,Participant_Images/662fad6b6f397a64efc67680/662fad6b6f397a64efc67680_Images/662fad6b6f397a64efc67680_Image_7.jpeg,liked,3.799433026,,,,,,,,,,,,,,,,,,,,,,
,,662fad6b6f397a64efc67680,6685aa9113c938e83b4f1ea0,672d4cc22f439c108031e690,2024-11-07_18h28.02.723,WTP_SM_Choice,2022.2.1,Win32,120.1923077,,,,,space,1.139,NAN,,NAN,1.17,4.83,,0,57,57,57,1,58,Riley,Acc,Participant_Images/662fad6b6f397a64efc67680/662fad6b6f397a64efc67680_Images/662fad6b6f397a64efc67680_Image_19.jpeg,liked,5.246980764,,,,,,,,,,,,,,,,,,,,,,
,,662fad6b6f397a64efc67680,6685aa9113c938e83b4f1ea0,672d4cc22f439c108031e690,2024-11-07_18h28.02.723,WTP_SM_Choice,2022.2.1,Win32,120.1923077,,,,,space,1.813,NAN,,NAN,1.17,4.83,,0,58,58,58,1,59,Riley,Acc,Participant_Images/662fad6b6f397a64efc67680/662fad6b6f397a64efc67680_Images/662fad6b6f397a64efc67680_Image_22.jpeg,liked,3.30081769,,,,,,,,,,,,,,,,,,,,,,
,,662fad6b6f397a64efc67680,6685aa9113c938e83b4f1ea0,672d4cc22f439c108031e690,2024-11-07_18h28.02.723,WTP_SM_Choice,2022.2.1,Win32,120.1923077,,,,,,,,,,,,,,,,,,56,,,,,,space,3.43,space,0.647,0.01,1,1.264,0,0,0,0,1,Go to a history museum in the spring and seeing really cool artifacts,Go to Six Flags with my friends amd family during the summer,0.01,0.02,8.8,1,,,,
,,662fad6b6f397a64efc67680,6685aa9113c938e83b4f1ea0,672d4cc22f439c108031e690,2024-11-07_18h28.02.723,WTP_SM_Choice,2022.2.1,Win32,120.1923077,,,,,,,,,,,,,,,,,,57,,,,,,,,,,0.02,1,1.448,0,1,1,1,1,Go to the movies to watch anything horror related while it is hot outside,Go to the movies with my friends at night on Friday,0.02,0.02,4.4,1,,,,
,,662fad6b6f397a64efc67680,6685aa9113c938e83b4f1ea0,672d4cc22f439c108031e690,2024-11-07_18h28.02.723,WTP_SM_Choice,2022.2.1,Win32,120.1923077,,,,,,,,,,,,,,,,,,58,,,,,,,,,,0.02,2,2.491,0,2,2,2,1,Go bowling with my friends and family at night in the summer,Play puzzle games on my phone in my room,0.03,0.02,4.4,0,,,,
,,662fad6b6f397a64efc67680,6685aa9113c938e83b4f1ea0,672d4cc22f439c108031e690,2024-11-07_18h28.02.723,WTP_SM_Choice,2022.2.1,Win32,120.1923077,,,,,,,,,,,,,,,,,,59,,,,,,,,,,0.02,2,1.193,0,3,3,3,1,Read new books with my aunt and uncle on the weekend,Watch the full Harry Potter series in my living room,0.04,0.02,4.4,0,,,,
,,662fad6b6f397a64efc67680,6685aa9113c938e83b4f1ea0,672d4cc22f439c108031e690,2024-11-07_18h28.02.723,WTP_SM_Choice,2022.2.1,Win32,120.1923077,,,,,,,,,,,,,,,,,,60,,,,,,,,,,0.02,2,1.227,0,4,4,4,1,Rewatch Money Heist in my bedroom,Go to Tennessee with my family to our cabin,0.05,0.02,1.1,1,,,,
,,662fad6b6f397a64efc67680,6685aa9113c938e83b4f1ea0,672d4cc22f439c108031e690,2024-11-07_18h28.02.723,WTP_SM_Choice,2022.2.1,Win32,120.1923077,,,,,,,NAN,,NAN,1.26,4.74,,0,59,59,59,1,60,Riley,Acc,Participant_Images/662fad6b6f397a64efc67680/662fad6b6f397a64efc67680_Images/662fad6b6f397a64efc67680_Image_9.jpeg,liked,1.661473164,,,,,,,,,,,,,,,,,,,,,,
,,662fad6b6f397a64efc67680,6685aa9113c938e83b4f1ea0,672d4cc22f439c108031e690,2024-11-07_18h28.02.723,WTP_SM_Choice,2022.2.1,Win32,120.1923077,,,,,space,1.015,NAN,,NAN,1.26,4.74,,0,60,60,60,1,61,Riley,Acc,Participant_Images/662fad6b6f397a64efc67680/662fad6b6f397a64efc67680_Images/662fad6b6f397a64efc67680_Image_15.jpeg,did not like,3.613205605,,,,,,,,,,,,,,,,,,,,,,
,,662fad6b6f397a64efc67680,6685aa9113c938e83b4f1ea0,672d4cc22f439c108031e690,2024-11-07_18h28.02.723,WTP_SM_Choice,2022.2.1,Win32,120.1923077,,,,,space,2.077,NAN,,NAN,1.26,4.74,,0,61,61,61,1,62,Riley,Acc,Participant_Images/662fad6b6f397a64efc67680/662fad6b6f397a64efc67680_Images/662fad6b6f397a64efc67680_Image_2.jpeg,liked,4.988446431,,,,,,,,,,,,,,,,,,,,,,
,,662fad6b6f397a64efc67680,6685aa9113c938e83b4f1ea0,672d4cc22f439c108031e690,2024-11-07_18h28.02.723,WTP_SM_Choice,2022.2.1,Win32,120.1923077,,,,,space,3.729,NAN,,NAN,1.26,4.74,,0,62,62,62,1,63,Riley,Acc,Participant_Images/662fad6b6f397a64efc67680/662fad6b6f397a64efc67680_Images/662fad6b6f397a64efc67680_Image_1.jpeg,liked,3.470791822,,,,,,,,,,,,,,,,,,,,,,
,,662fad6b6f397a64efc67680,6685aa9113c938e83b4f1ea0,672d4cc22f439c108031e690,2024-11-07_18h28.02.723,WTP_SM_Choice,2022.2.1,Win32,120.1923077,,,,,space,1.522,NAN,,NAN,1.26,4.74,,0,63,63,63,1,64,Riley,Acc,Participant_Images/662fad6b6f397a64efc67680/662fad6b6f397a64efc67680_Images/662fad6b6f397a64efc67680_Image_12.jpeg,did not like,3.820572462,,,,,,,,,,,,,,,,,,,,,,
,,662fad6b6f397a64efc67680,6685aa9113c938e83b4f1ea0,672d4cc22f439c108031e690,2024-11-07_18h28.02.723,WTP_SM_Choice,2022.2.1,Win32,120.1923077,,,,,,,,,,,,,,,,,,61,,,,,,space,1.024,space,0.535,0.01,1,0.871,0,0,0,0,1,Go bowling with my friends and family at night in the summer,Rewatch Money Heist in my bedroom,0.01,0.03,3.3,0,,,,
,,662fad6b6f397a64efc67680,6685aa9113c938e83b4f1ea0,672d4cc22f439c108031e690,2024-11-07_18h28.02.723,WTP_SM_Choice,2022.2.1,Win32,120.1923077,,,,,,,,,,,,,,,,,,62,,,,,,,,,,0.02,1,1.45,0,1,1,1,1,Go bowling with my friends and family at night in the summer,Play Red Dead Redemption 2 in my room on my Xbox,0.02,0.03,3.3,0,,,,
,,662fad6b6f397a64efc67680,6685aa9113c938e83b4f1ea0,672d4cc22f439c108031e690,2024-11-07_18h28.02.723,WTP_SM_Choice,2022.2.1,Win32,120.1923077,,,,,,,,,,,,,,,,,,63,,,,,,,,,,0.03,1,2.489,0,2,2,2,1,Learn new science related things with my classmates,Play Red Dead Redemption 2 in my room on my Xbox,0.03,0.03,3.3,0,,,,
,,662fad6b6f397a64efc67680,6685aa9113c938e83b4f1ea0,672d4cc22f439c108031e690,2024-11-07_18h28.02.723,WTP_SM_Choice,2022.2.1,Win32,120.1923077,,,,,,,,,,,,,,,,,,64,,,,,,,,,,0.03,2,1.009,0,3,3,3,1,Go to a history museum in the spring and seeing really cool artifacts,Go bowling with my friends and family at night in the summer,0.04,0.03,1.1,1,,,,
,,662fad6b6f397a64efc67680,6685aa9113c938e83b4f1ea0,672d4cc22f439c108031e690,2024-11-07_18h28.02.723,WTP_SM_Choice,2022.2.1,Win32,120.1923077,,,,,,,,,,,,,,,,,,65,,,,,,,,,,0.03,2,1.13,0,4,4,4,1,Go to Six Flags with my friends amd family during the summer,Rewatch Money Heist in my bedroom,0.05,0.03,1.1,0,,,,
,,662fad6b6f397a64efc67680,6685aa9113c938e83b4f1ea0,672d4cc22f439c108031e690,2024-11-07_18h28.02.723,WTP_SM_Choice,2022.2.1,Win32,120.1923077,,,,,,,NAN,,NAN,1.38,4.62,,0,64,64,64,1,65,Riley,Acc,Participant_Images/662fad6b6f397a64efc67680/662fad6b6f397a64efc67680_Images/662fad6b6f397a64efc67680_Image_18.jpeg,did not like,2.455989137,,,,,,,,,,,,,,,,,,,,,,
,,662fad6b6f397a64efc67680,6685aa9113c938e83b4f1ea0,672d4cc22f439c108031e690,2024-11-07_18h28.02.723,WTP_SM_Choice,2022.2.1,Win32,120.1923077,,,,,space,1.073,NAN,,NAN,1.38,4.62,,0,65,65,65,1,66,Riley,Acc,Participant_Images/662fad6b6f397a64efc67680/662fad6b6f397a64efc67680_Images/662fad6b6f397a64efc67680_Image_4.jpeg,did not like,3.79605092,,,,,,,,,,,,,,,,,,,,,,
,,662fad6b6f397a64efc67680,6685aa9113c938e83b4f1ea0,672d4cc22f439c108031e690,2024-11-07_18h28.02.723,WTP_SM_Choice,2022.2.1,Win32,120.1923077,,,,,space,0.989,NAN,,NAN,1.38,4.62,,0,66,66,66,1,67,Riley,Acc,Participant_Images/662fad6b6f397a64efc67680/662fad6b6f397a64efc67680_Images/662fad6b6f397a64efc67680_Image_21.jpeg,liked,3.562416326,,,,,,,,,,,,,,,,,,,,,,
,,662fad6b6f397a64efc67680,6685aa9113c938e83b4f1ea0,672d4cc22f439c108031e690,2024-11-07_18h28.02.723,WTP_SM_Choice,2022.2.1,Win32,120.1923077,,,,,space,1.321,NAN,,NAN,1.38,4.62,,0,67,67,67,1,68,Riley,Acc,Participant_Images/662fad6b6f397a64efc67680/662fad6b6f397a64efc67680_Images/662fad6b6f397a64efc67680_Image_5.jpeg,liked,2.843822497,,,,,,,,,,,,,,,,,,,,,,
,,662fad6b6f397a64efc67680,6685aa9113c938e83b4f1ea0,672d4cc22f439c108031e690,2024-11-07_18h28.02.723,WTP_SM_Choice,2022.2.1,Win32,120.1923077,,,,,space,0.931,NAN,,NAN,1.38,4.62,,0,68,68,68,1,69,Riley,Acc,Participant_Images/662fad6b6f397a64efc67680/662fad6b6f397a64efc67680_Images/662fad6b6f397a64efc67680_Image_8.jpeg,liked,3.546495948,,,,,,,,,,,,,,,,,,,,,,
,,662fad6b6f397a64efc67680,6685aa9113c938e83b4f1ea0,672d4cc22f439c108031e690,2024-11-07_18h28.02.723,WTP_SM_Choice,2022.2.1,Win32,120.1923077,,,,,,,,,,,,,,,,,,66,,,,,,space,1.241,space,0.686,0.01,1,1.521,0,0,0,0,1,Go to the movies to watch anything horror related while it is hot outside,Go bowling with my friends and family at night in the summer,0.01,0.04,1.1,1,,,,
,,662fad6b6f397a64efc67680,6685aa9113c938e83b4f1ea0,672d4cc22f439c108031e690,2024-11-07_18h28.02.723,WTP_SM_Choice,2022.2.1,Win32,120.1923077,,,,,,,,,,,,,,,,,,67,,,,,,,,,,0.02,1,1.356,0,1,1,1,1,Read new books with my aunt and uncle on the weekend,Play puzzle games on my phone in my room,0.02,0.04,8.8,0,,,,
,,662fad6b6f397a64efc67680,6685aa9113c938e83b4f1ea0,672d4cc22f439c108031e690,2024-11-07_18h28.02.723,WTP_SM_Choice,2022.2.1,Win32,120.1923077,,,,,,,,,,,,,,,,,,68,,,,,,,,,,0.03,1,2.578,0,2,2,2,1,Go out to eat on the weekend with my family,Listen to Billie Eilish while taking a shower,0.03,0.04,4.4,0,,,,
,,662fad6b6f397a64efc67680,6685aa9113c938e83b4f1ea0,672d4cc22f439c108031e690,2024-11-07_18h28.02.723,WTP_SM_Choice,2022.2.1,Win32,120.1923077,,,,,,,,,,,,,,,,,,69,,,,,,,,,,0.04,1,1.856,0,3,3,3,1,Play Red Dead Redemption 2 in my room on my Xbox,Go to the movies with my friends at night on Friday,0.04,0.04,1.1,1,,,,
,,662fad6b6f397a64efc67680,6685aa9113c938e83b4f1ea0,672d4cc22f439c108031e690,2024-11-07_18h28.02.723,WTP_SM_Choice,2022.2.1,Win32,120.1923077,,,,,,,,,,,,,,,,,,70,,,,,,,,,,0.04,2,1.611,0,4,4,4,1,Go shopping at the mall with my friends,Go to the movies to watch anything horror related while it is hot outside,0.05,0.04,1.1,0,,,,
,,662fad6b6f397a64efc67680,6685aa9113c938e83b4f1ea0,672d4cc22f439c108031e690,2024-11-07_18h28.02.723,WTP_SM_Choice,2022.2.1,Win32,120.1923077,,,,,,,NAN,,NAN,1.52,4.48,,0,69,69,69,1,70,Riley,Acc,Participant_Images/662fad6b6f397a64efc67680/662fad6b6f397a64efc67680_Images/662fad6b6f397a64efc67680_Image_3.jpeg,liked,1.672012706,,,,,,,,,,,,,,,,,,,,,,
,,662fad6b6f397a64efc67680,6685aa9113c938e83b4f1ea0,672d4cc22f439c108031e690,2024-11-07_18h28.02.723,WTP_SM_Choice,2022.2.1,Win32,120.1923077,,,,,space,4.082,NAN,,NAN,1.52,4.48,,0,70,70,70,1,71,Riley,Acc,Participant_Images/662fad6b6f397a64efc67680/662fad6b6f397a64efc67680_Images/662fad6b6f397a64efc67680_Image_11.jpeg,liked,4.942172136,,,,,,,,,,,,,,,,,,,,,,
,,662fad6b6f397a64efc67680,6685aa9113c938e83b4f1ea0,672d4cc22f439c108031e690,2024-11-07_18h28.02.723,WTP_SM_Choice,2022.2.1,Win32,120.1923077,,,,,space,0.923,NAN,,NAN,1.52,4.48,,0,71,71,71,1,72,Riley,Acc,Participant_Images/662fad6b6f397a64efc67680/662fad6b6f397a64efc67680_Images/662fad6b6f397a64efc67680_Image_24.jpeg,did not like,2.50187214,,,,,,,,,,,,,,,,,,,,,,
,,662fad6b6f397a64efc67680,6685aa9113c938e83b4f1ea0,672d4cc22f439c108031e690,2024-11-07_18h28.02.723,WTP_SM_Choice,2022.2.1,Win32,120.1923077,,,,,space,1.096,NAN,,NAN,1.52,4.48,,0,72,72,72,1,73,Riley,Acc,Participant_Images/662fad6b6f397a64efc67680/662fad6b6f397a64efc67680_Images/662fad6b6f397a64efc67680_Image_10.jpeg,liked,2.071164779,,,,,,,,,,,,,,,,,,,,,,
,,662fad6b6f397a64efc67680,6685aa9113c938e83b4f1ea0,672d4cc22f439c108031e690,2024-11-07_18h28.02.723,WTP_SM_Choice,2022.2.1,Win32,120.1923077,,,,,space,3.276,NAN,,NAN,1.52,4.48,,0,73,73,73,1,74,Riley,Acc,Participant_Images/662fad6b6f397a64efc67680/662fad6b6f397a64efc67680_Images/662fad6b6f397a64efc67680_Image_6.jpeg,did not like,5.336503566,,,,,,,,,,,,,,,,,,,,,,
,,662fad6b6f397a64efc67680,6685aa9113c938e83b4f1ea0,672d4cc22f439c108031e690,2024-11-07_18h28.02.723,WTP_SM_Choice,2022.2.1,Win32,120.1923077,,,,,,,,,,,,,,,,,,71,,,,,,space,1.533,space,2.097,0.01,1,1.089,0,0,0,0,1,Go out to eat on the weekend with my family,Rewatch Money Heist in my bedroom,0.01,0.05,3.3,0,,,,
,,662fad6b6f397a64efc67680,6685aa9113c938e83b4f1ea0,672d4cc22f439c108031e690,2024-11-07_18h28.02.723,WTP_SM_Choice,2022.2.1,Win32,120.1923077,,,,,,,,,,,,,,,,,,72,,,,,,,,,,0.02,1,1.3,0,1,1,1,1,Read new books with my aunt and uncle on the weekend,Go to a history museum in the spring and seeing really cool artifacts,0.02,0.05,8.8,0,,,,
,,662fad6b6f397a64efc67680,6685aa9113c938e83b4f1ea0,672d4cc22f439c108031e690,2024-11-07_18h28.02.723,WTP_SM_Choice,2022.2.1,Win32,120.1923077,,,,,,,,,,,,,,,,,,73,,,,,,,,,,0.03,1,0.902,0,2,2,2,1,Rewatch Money Heist in my bedroom,Go trick or treating with my friends/family on Halloween,0.03,0.05,3.3,1,,,,
,,662fad6b6f397a64efc67680,6685aa9113c938e83b4f1ea0,672d4cc22f439c108031e690,2024-11-07_18h28.02.723,WTP_SM_Choice,2022.2.1,Win32,120.1923077,,,,,,,,,,,,,,,,,,74,,,,,,,,,,0.04,1,1.281,0,3,3,3,1,Go trick or treating with my friends/family on Halloween,Play puzzle games on my phone in my room,0.04,0.05,4.4,0,,,,
,,662fad6b6f397a64efc67680,6685aa9113c938e83b4f1ea0,672d4cc22f439c108031e690,2024-11-07_18h28.02.723,WTP_SM_Choice,2022.2.1,Win32,120.1923077,,,,,,,,,,,,,,,,,,75,,,,,,,,,,0.05,1,1.381,0,4,4,4,1,Go to Tennessee with my family to our cabin,Eat jerk chicken alfredo in my kitchen,0.05,0.05,3.3,0,,,,
,,662fad6b6f397a64efc67680,6685aa9113c938e83b4f1ea0,672d4cc22f439c108031e690,2024-11-07_18h28.02.723,WTP_SM_Choice,2022.2.1,Win32,120.1923077,,,,,,,3,,6,1.67,4.33,,0,74,74,74,1,75,Riley,Acc,Participant_Images/662fad6b6f397a64efc67680/662fad6b6f397a64efc67680_Images/662fad6b6f397a64efc67680_Image_20.jpeg,did not like,2.642157193,,,,,,,,,,,,,,,,,,,space,2.908,,
,,662fad6b6f397a64efc67680,6685aa9113c938e83b4f1ea0,672d4cc22f439c108031e690,2024-11-07_18h28.02.723,WTP_SM_Choice,2022.2.1,Win32,120.1923077,,,space,5.285,space,1.028,NAN,,NAN,1.67,4.33,,0,75,75,75,1,76,Sam,Rej,Participant_Images/662fad6b6f397a64efc67680/662fad6b6f397a64efc67680_Images/662fad6b6f397a64efc67680_Image_14.jpeg,did not like,4.456234322,,,,,,,,,,,,,,,,,,,,,,
,,662fad6b6f397a64efc67680,6685aa9113c938e83b4f1ea0,672d4cc22f439c108031e690,2024-11-07_18h28.02.723,WTP_SM_Choice,2022.2.1,Win32,120.1923077,,,,,space,1.515,NAN,,NAN,1.67,4.33,,0,76,76,76,1,77,Sam,Rej,Participant_Images/662fad6b6f397a64efc67680/662fad6b6f397a64efc67680_Images/662fad6b6f397a64efc67680_Image_4.jpeg,did not like,4.438512181,,,,,,,,,,,,,,,,,,,,,,
,,662fad6b6f397a64efc67680,6685aa9113c938e83b4f1ea0,672d4cc22f439c108031e690,2024-11-07_18h28.02.723,WTP_SM_Choice,2022.2.1,Win32,120.1923077,,,,,space,1.431,NAN,,NAN,1.67,4.33,,0,77,77,77,1,78,Sam,Rej,Participant_Images/662fad6b6f397a64efc67680/662fad6b6f397a64efc67680_Images/662fad6b6f397a64efc67680_Image_23.jpeg,liked,2.682944783,,,,,,,,,,,,,,,,,,,,,,
,,662fad6b6f397a64efc67680,6685aa9113c938e83b4f1ea0,672d4cc22f439c108031e690,2024-11-07_18h28.02.723,WTP_SM_Choice,2022.2.1,Win32,120.1923077,,,,,space,1.275,NAN,,NAN,1.67,4.33,,0,78,78,78,1,79,Sam,Rej,Participant_Images/662fad6b6f397a64efc67680/662fad6b6f397a64efc67680_Images/662fad6b6f397a64efc67680_Image_25.jpeg,did not like,4.51984296,,,,,,,,,,,,,,,,,,,,,,
,,662fad6b6f397a64efc67680,6685aa9113c938e83b4f1ea0,672d4cc22f439c108031e690,2024-11-07_18h28.02.723,WTP_SM_Choice,2022.2.1,Win32,120.1923077,,,,,,,,,,,,,,,,,,76,,,,,,space,3.811,space,0.419,0.01,1,1.162,0,0,0,0,1,Go to Tennessee with my family to our cabin,Watch the full Harry Potter series in my living room,0.01,0.01,1.1,0,,,,
,,662fad6b6f397a64efc67680,6685aa9113c938e83b4f1ea0,672d4cc22f439c108031e690,2024-11-07_18h28.02.723,WTP_SM_Choice,2022.2.1,Win32,120.1923077,,,,,,,,,,,,,,,,,,77,,,,,,,,,,0.01,2,1.13,0,1,1,1,1,Rewatch Money Heist in my bedroom,Read new books with my aunt and uncle on the weekend,0.02,0.01,8.8,1,,,,
,,662fad6b6f397a64efc67680,6685aa9113c938e83b4f1ea0,672d4cc22f439c108031e690,2024-11-07_18h28.02.723,WTP_SM_Choice,2022.2.1,Win32,120.1923077,,,,,,,,,,,,,,,,,,78,,,,,,,,,,0.01,2,1.033,0,2,2,2,1,Go to Six Flags with my friends amd family during the summer,Watch the full Harry Potter series in my living room,0.03,0.01,1.1,0,,,,
,,662fad6b6f397a64efc67680,6685aa9113c938e83b4f1ea0,672d4cc22f439c108031e690,2024-11-07_18h28.02.723,WTP_SM_Choice,2022.2.1,Win32,120.1923077,,,,,,,,,,,,,,,,,,79,,,,,,,,,,0.01,2,2.168,0,3,3,3,1,Play puzzle games on my phone in my room,Go to Six Flags with my friends amd family during the summer,0.04,0.01,1.1,1,,,,
,,662fad6b6f397a64efc67680,6685aa9113c938e83b4f1ea0,672d4cc22f439c108031e690,2024-11-07_18h28.02.723,WTP_SM_Choice,2022.2.1,Win32,120.1923077,,,,,,,,,,,,,,,,,,80,,,,,,,,,,0.01,2,2.834,0,4,4,4,1,Watch the full Harry Potter series in my living room,Go shopping at the mall with my friends,0.05,0.01,4.4,1,,,,
,,662fad6b6f397a64efc67680,6685aa9113c938e83b4f1ea0,672d4cc22f439c108031e690,2024-11-07_18h28.02.723,WTP_SM_Choice,2022.2.1,Win32,120.1923077,,,,,,,NAN,,NAN,1.72,4.28,,0,79,79,79,1,80,Sam,Rej,Participant_Images/662fad6b6f397a64efc67680/662fad6b6f397a64efc67680_Images/662fad6b6f397a64efc67680_Image_17.jpeg,liked,3.195382774,,,,,,,,,,,,,,,,,,,,,,
,,662fad6b6f397a64efc67680,6685aa9113c938e83b4f1ea0,672d4cc22f439c108031e690,2024-11-07_18h28.02.723,WTP_SM_Choice,2022.2.1,Win32,120.1923077,,,,,space,3.213,NAN,,NAN,1.72,4.28,,0,80,80,80,1,81,Sam,Rej,Participant_Images/662fad6b6f397a64efc67680/662fad6b6f397a64efc67680_Images/662fad6b6f397a64efc67680_Image_21.jpeg,did not like,1.779333479,,,,,,,,,,,,,,,,,,,,,,
,,662fad6b6f397a64efc67680,6685aa9113c938e83b4f1ea0,672d4cc22f439c108031e690,2024-11-07_18h28.02.723,WTP_SM_Choice,2022.2.1,Win32,120.1923077,,,,,space,1.861,NAN,,NAN,1.72,4.28,,0,81,81,81,1,82,Sam,Rej,Participant_Images/662fad6b6f397a64efc67680/662fad6b6f397a64efc67680_Images/662fad6b6f397a64efc67680_Image_13.jpeg,did not like,4.312468682,,,,,,,,,,,,,,,,,,,,,,
,,662fad6b6f397a64efc67680,6685aa9113c938e83b4f1ea0,672d4cc22f439c108031e690,2024-11-07_18h28.02.723,WTP_SM_Choice,2022.2.1,Win32,120.1923077,,,,,space,3.528,NAN,,NAN,1.72,4.28,,0,82,82,82,1,83,Sam,Rej,Participant_Images/662fad6b6f397a64efc67680/662fad6b6f397a64efc67680_Images/662fad6b6f397a64efc67680_Image_19.jpeg,did not like,4.940433059,,,,,,,,,,,,,,,,,,,,,,
,,662fad6b6f397a64efc67680,6685aa9113c938e83b4f1ea0,672d4cc22f439c108031e690,2024-11-07_18h28.02.723,WTP_SM_Choice,2022.2.1,Win32,120.1923077,,,,,space,1.442,NAN,,NAN,1.72,4.28,,0,83,83,83,1,84,Sam,Rej,Participant_Images/662fad6b6f397a64efc67680/662fad6b6f397a64efc67680_Images/662fad6b6f397a64efc67680_Image_12.jpeg,did not like,2.7105123,,,,,,,,,,,,,,,,,,,,,,
,,662fad6b6f397a64efc67680,6685aa9113c938e83b4f1ea0,672d4cc22f439c108031e690,2024-11-07_18h28.02.723,WTP_SM_Choice,2022.2.1,Win32,120.1923077,,,,,,,,,,,,,,,,,,81,,,,,,space,2.685,space,1.644,0.01,1,1.369,0,0,0,0,1,Go to a history museum in the spring and seeing really cool artifacts,Go shopping at the mall with my friends,0.01,0.02,3.3,1,,,,
,,662fad6b6f397a64efc67680,6685aa9113c938e83b4f1ea0,672d4cc22f439c108031e690,2024-11-07_18h28.02.723,WTP_SM_Choice,2022.2.1,Win32,120.1923077,,,,,,,,,,,,,,,,,,82,,,,,,,,,,0.02,2,1.271,0,1,1,1,1,Play puzzle games on my phone in my room,Go out to eat on the weekend with my family,0.02,0.02,4.4,1,,,,
,,662fad6b6f397a64efc67680,6685aa9113c938e83b4f1ea0,672d4cc22f439c108031e690,2024-11-07_18h28.02.723,WTP_SM_Choice,2022.2.1,Win32,120.1923077,,,,,,,,,,,,,,,,,,83,,,,,,,,,,0.02,2,1.497,0,2,2,2,1,Read Cinder by Marissa Meyer on my porch,Go to the movies with my friends at night on Friday,0.03,0.02,1.1,1,,,,
,,662fad6b6f397a64efc67680,6685aa9113c938e83b4f1ea0,672d4cc22f439c108031e690,2024-11-07_18h28.02.723,WTP_SM_Choice,2022.2.1,Win32,120.1923077,,,,,,,,,,,,,,,,,,84,,,,,,,,,,0.02,2,4.492,0,3,3,3,1,Read Cinder by Marissa Meyer on my porch,Go to Six Flags with my friends amd family during the summer,0.04,0.02,3.3,1,,,,
,,662fad6b6f397a64efc67680,6685aa9113c938e83b4f1ea0,672d4cc22f439c108031e690,2024-11-07_18h28.02.723,WTP_SM_Choice,2022.2.1,Win32,120.1923077,,,,,,,,,,,,,,,,,,85,,,,,,,,,,0.02,2,1.029,0,4,4,4,1,Go out to eat on the weekend with my family,Read Cinder by Marissa Meyer on my porch,0.05,0.02,3.3,0,,,,
,,662fad6b6f397a64efc67680,6685aa9113c938e83b4f1ea0,672d4cc22f439c108031e690,2024-11-07_18h28.02.723,WTP_SM_Choice,2022.2.1,Win32,120.1923077,,,,,,,NAN,,NAN,1.81,4.19,,0,84,84,84,1,85,Sam,Rej,Participant_Images/662fad6b6f397a64efc67680/662fad6b6f397a64efc67680_Images/662fad6b6f397a64efc67680_Image_24.jpeg,did not like,3.602308302,,,,,,,,,,,,,,,,,,,,,,
,,662fad6b6f397a64efc67680,6685aa9113c938e83b4f1ea0,672d4cc22f439c108031e690,2024-11-07_18h28.02.723,WTP_SM_Choice,2022.2.1,Win32,120.1923077,,,,,space,3.228,NAN,,NAN,1.81,4.19,,0,85,85,85,1,86,Sam,Rej,Participant_Images/662fad6b6f397a64efc67680/662fad6b6f397a64efc67680_Images/662fad6b6f397a64efc67680_Image_1.jpeg,did not like,4.106391878,,,,,,,,,,,,,,,,,,,,,,
,,662fad6b6f397a64efc67680,6685aa9113c938e83b4f1ea0,672d4cc22f439c108031e690,2024-11-07_18h28.02.723,WTP_SM_Choice,2022.2.1,Win32,120.1923077,,,,,space,1.899,NAN,,NAN,1.81,4.19,,0,86,86,86,1,87,Sam,Rej,Participant_Images/662fad6b6f397a64efc67680/662fad6b6f397a64efc67680_Images/662fad6b6f397a64efc67680_Image_22.jpeg,did not like,3.799433026,,,,,,,,,,,,,,,,,,,,,,
,,662fad6b6f397a64efc67680,6685aa9113c938e83b4f1ea0,672d4cc22f439c108031e690,2024-11-07_18h28.02.723,WTP_SM_Choice,2022.2.1,Win32,120.1923077,,,,,space,2.087,NAN,,NAN,1.81,4.19,,0,87,87,87,1,88,Sam,Rej,Participant_Images/662fad6b6f397a64efc67680/662fad6b6f397a64efc67680_Images/662fad6b6f397a64efc67680_Image_18.jpeg,did not like,5.246980764,,,,,,,,,,,,,,,,,,,,,,
,,662fad6b6f397a64efc67680,6685aa9113c938e83b4f1ea0,672d4cc22f439c108031e690,2024-11-07_18h28.02.723,WTP_SM_Choice,2022.2.1,Win32,120.1923077,,,,,space,1.536,NAN,,NAN,1.81,4.19,,0,88,88,88,1,89,Sam,Rej,Participant_Images/662fad6b6f397a64efc67680/662fad6b6f397a64efc67680_Images/662fad6b6f397a64efc67680_Image_20.jpeg,did not like,3.30081769,,,,,,,,,,,,,,,,,,,,,,
,,662fad6b6f397a64efc67680,6685aa9113c938e83b4f1ea0,672d4cc22f439c108031e690,2024-11-07_18h28.02.723,WTP_SM_Choice,2022.2.1,Win32,120.1923077,,,,,,,,,,,,,,,,,,86,,,,,,space,4.423,space,0.569,0.01,1,6.118,0,0,0,0,1,Rewatch Money Heist in my bedroom,Go shopping at the mall with my friends,0.01,0.03,1.1,1,,,,
,,662fad6b6f397a64efc67680,6685aa9113c938e83b4f1ea0,672d4cc22f439c108031e690,2024-11-07_18h28.02.723,WTP_SM_Choice,2022.2.1,Win32,120.1923077,,,,,,,,,,,,,,,,,,87,,,,,,,,,,0.02,1,1.108,0,1,1,1,1,Watch The Last Kingdom on Netflix while eating,Watch any Marvel movies on the weekends with my family,0.02,0.03,4.4,1,,,,
,,662fad6b6f397a64efc67680,6685aa9113c938e83b4f1ea0,672d4cc22f439c108031e690,2024-11-07_18h28.02.723,WTP_SM_Choice,2022.2.1,Win32,120.1923077,,,,,,,,,,,,,,,,,,88,,,,,,,,,,0.03,2,1.178,0,2,2,2,1,Play Red Dead Redemption 2 in my room on my Xbox,Go out to eat on the weekend with my family,0.03,0.03,1.1,1,,,,
,,662fad6b6f397a64efc67680,6685aa9113c938e83b4f1ea0,672d4cc22f439c108031e690,2024-11-07_18h28.02.723,WTP_SM_Choice,2022.2.1,Win32,120.1923077,,,,,,,,,,,,,,,,,,89,,,,,,,,,,0.03,2,0.819,0,3,3,3,1,Watch any Marvel movies on the weekends with my family,Eat jerk chicken alfredo in my kitchen,0.04,0.03,3.3,0,,,,
,,662fad6b6f397a64efc67680,6685aa9113c938e83b4f1ea0,672d4cc22f439c108031e690,2024-11-07_18h28.02.723,WTP_SM_Choice,2022.2.1,Win32,120.1923077,,,,,,,,,,,,,,,,,,90,,,,,,,,,,0.03,2,0.963,0,4,4,4,1,Go to the movies to watch anything horror related while it is hot outside,Go out to eat on the weekend with my family,0.05,0.03,8.8,1,,,,
,,662fad6b6f397a64efc67680,6685aa9113c938e83b4f1ea0,672d4cc22f439c108031e690,2024-11-07_18h28.02.723,WTP_SM_Choice,2022.2.1,Win32,120.1923077,,,,,,,NAN,,NAN,1.93,4.07,,0,89,89,89,1,90,Sam,Rej,Participant_Images/662fad6b6f397a64efc67680/662fad6b6f397a64efc67680_Images/662fad6b6f397a64efc67680_Image_15.jpeg,liked,1.661473164,,,,,,,,,,,,,,,,,,,,,,
,,662fad6b6f397a64efc67680,6685aa9113c938e83b4f1ea0,672d4cc22f439c108031e690,2024-11-07_18h28.02.723,WTP_SM_Choice,2022.2.1,Win32,120.1923077,,,,,space,1.319,NAN,,NAN,1.93,4.07,,0,90,90,90,1,91,Sam,Rej,Participant_Images/662fad6b6f397a64efc67680/662fad6b6f397a64efc67680_Images/662fad6b6f397a64efc67680_Image_11.jpeg,did not like,3.613205605,,,,,,,,,,,,,,,,,,,,,,
,,662fad6b6f397a64efc67680,6685aa9113c938e83b4f1ea0,672d4cc22f439c108031e690,2024-11-07_18h28.02.723,WTP_SM_Choice,2022.2.1,Win32,120.1923077,,,,,space,4.266,NAN,,NAN,1.93,4.07,,0,91,91,91,1,92,Sam,Rej,Participant_Images/662fad6b6f397a64efc67680/662fad6b6f397a64efc67680_Images/662fad6b6f397a64efc67680_Image_3.jpeg,liked,4.988446431,,,,,,,,,,,,,,,,,,,,,,
,,662fad6b6f397a64efc67680,6685aa9113c938e83b4f1ea0,672d4cc22f439c108031e690,2024-11-07_18h28.02.723,WTP_SM_Choice,2022.2.1,Win32,120.1923077,,,,,space,1.763,NAN,,NAN,1.93,4.07,,0,92,92,92,1,93,Sam,Rej,Participant_Images/662fad6b6f397a64efc67680/662fad6b6f397a64efc67680_Images/662fad6b6f397a64efc67680_Image_10.jpeg,liked,3.470791822,,,,,,,,,,,,,,,,,,,,,,
,,662fad6b6f397a64efc67680,6685aa9113c938e83b4f1ea0,672d4cc22f439c108031e690,2024-11-07_18h28.02.723,WTP_SM_Choice,2022.2.1,Win32,120.1923077,,,,,space,0.937,NAN,,NAN,1.93,4.07,,0,93,93,93,1,94,Sam,Rej,Participant_Images/662fad6b6f397a64efc67680/662fad6b6f397a64efc67680_Images/662fad6b6f397a64efc67680_Image_8.jpeg,did not like,3.820572462,,,,,,,,,,,,,,,,,,,,,,
,,662fad6b6f397a64efc67680,6685aa9113c938e83b4f1ea0,672d4cc22f439c108031e690,2024-11-07_18h28.02.723,WTP_SM_Choice,2022.2.1,Win32,120.1923077,,,,,,,,,,,,,,,,,,91,,,,,,space,1.284,space,0.659,0.01,1,0.948,0,0,0,0,1,Go to Six Flags with my friends amd family during the summer,Listen to Billie Eilish while taking a shower,0.01,0.04,3.3,0,,,,
,,662fad6b6f397a64efc67680,6685aa9113c938e83b4f1ea0,672d4cc22f439c108031e690,2024-11-07_18h28.02.723,WTP_SM_Choice,2022.2.1,Win32,120.1923077,,,,,,,,,,,,,,,,,,92,,,,,,,,,,0.02,1,1.823,0,1,1,1,1,Go trick or treating with my friends/family on Halloween,Watch the full Harry Potter series in my living room,0.02,0.04,8.8,0,,,,
,,662fad6b6f397a64efc67680,6685aa9113c938e83b4f1ea0,672d4cc22f439c108031e690,2024-11-07_18h28.02.723,WTP_SM_Choice,2022.2.1,Win32,120.1923077,,,,,,,,,,,,,,,,,,93,,,,,,,,,,0.03,1,2.121,0,2,2,2,1,Eat jerk chicken alfredo in my kitchen,Go shopping at the mall with my friends,0.03,0.04,1.1,1,,,,
,,662fad6b6f397a64efc67680,6685aa9113c938e83b4f1ea0,672d4cc22f439c108031e690,2024-11-07_18h28.02.723,WTP_SM_Choice,2022.2.1,Win32,120.1923077,,,,,,,,,,,,,,,,,,94,,,,,,,,,,0.04,2,2.707,0,3,3,3,1,Play Red Dead Redemption 2 in my room on my Xbox,Go to Six Flags with my friends amd family during the summer,0.04,0.04,4.4,1,,,,
,,662fad6b6f397a64efc67680,6685aa9113c938e83b4f1ea0,672d4cc22f439c108031e690,2024-11-07_18h28.02.723,WTP_SM_Choice,2022.2.1,Win32,120.1923077,,,,,,,,,,,,,,,,,,95,,,,,,,,,,0.04,2,0.951,0,4,4,4,1,Play puzzle games on my phone in my room,Go to the movies with my friends at night on Friday,0.05,0.04,4.4,1,,,,
,,662fad6b6f397a64efc67680,6685aa9113c938e83b4f1ea0,672d4cc22f439c108031e690,2024-11-07_18h28.02.723,WTP_SM_Choice,2022.2.1,Win32,120.1923077,,,,,,,NAN,,NAN,2.07,3.93,,0,94,94,94,1,95,Sam,Rej,Participant_Images/662fad6b6f397a64efc67680/662fad6b6f397a64efc67680_Images/662fad6b6f397a64efc67680_Image_5.jpeg,liked,2.455989137,,,,,,,,,,,,,,,,,,,,,,
,,662fad6b6f397a64efc67680,6685aa9113c938e83b4f1ea0,672d4cc22f439c108031e690,2024-11-07_18h28.02.723,WTP_SM_Choice,2022.2.1,Win32,120.1923077,,,,,space,0.583,NAN,,NAN,2.07,3.93,,0,95,95,95,1,96,Sam,Rej,Participant_Images/662fad6b6f397a64efc67680/662fad6b6f397a64efc67680_Images/662fad6b6f397a64efc67680_Image_2.jpeg,did not like,3.79605092,,,,,,,,,,,,,,,,,,,,,,
,,662fad6b6f397a64efc67680,6685aa9113c938e83b4f1ea0,672d4cc22f439c108031e690,2024-11-07_18h28.02.723,WTP_SM_Choice,2022.2.1,Win32,120.1923077,,,,,space,1.231,NAN,,NAN,2.07,3.93,,0,96,96,96,1,97,Sam,Rej,Participant_Images/662fad6b6f397a64efc67680/662fad6b6f397a64efc67680_Images/662fad6b6f397a64efc67680_Image_9.jpeg,did not like,3.562416326,,,,,,,,,,,,,,,,,,,,,,
,,662fad6b6f397a64efc67680,6685aa9113c938e83b4f1ea0,672d4cc22f439c108031e690,2024-11-07_18h28.02.723,WTP_SM_Choice,2022.2.1,Win32,120.1923077,,,,,space,1.061,NAN,,NAN,2.07,3.93,,0,97,97,97,1,98,Sam,Rej,Participant_Images/662fad6b6f397a64efc67680/662fad6b6f397a64efc67680_Images/662fad6b6f397a64efc67680_Image_7.jpeg,liked,2.843822497,,,,,,,,,,,,,,,,,,,,,,
,,662fad6b6f397a64efc67680,6685aa9113c938e83b4f1ea0,672d4cc22f439c108031e690,2024-11-07_18h28.02.723,WTP_SM_Choice,2022.2.1,Win32,120.1923077,,,,,space,1.25,NAN,,NAN,2.07,3.93,,0,98,98,98,1,99,Sam,Rej,Participant_Images/662fad6b6f397a64efc67680/662fad6b6f397a64efc67680_Images/662fad6b6f397a64efc67680_Image_6.jpeg,did not like,3.546495948,,,,,,,,,,,,,,,,,,,,,,
,,662fad6b6f397a64efc67680,6685aa9113c938e83b4f1ea0,672d4cc22f439c108031e690,2024-11-07_18h28.02.723,WTP_SM_Choice,2022.2.1,Win32,120.1923077,,,,,,,,,,,,,,,,,,96,,,,,,space,2.002,space,0.364,0.01,1,1.289,0,0,0,0,1,Read new books with my aunt and uncle on the weekend,Go to the movies to watch anything horror related while it is hot outside,0.01,0.05,3.3,0,,,,
,,662fad6b6f397a64efc67680,6685aa9113c938e83b4f1ea0,672d4cc22f439c108031e690,2024-11-07_18h28.02.723,WTP_SM_Choice,2022.2.1,Win32,120.1923077,,,,,,,,,,,,,,,,,,97,,,,,,,,,,0.02,1,2.412,0,1,1,1,1,Go to a history museum in the spring and seeing really cool artifacts,Go out to eat on the weekend with my family,0.02,0.05,1.1,1,,,,
,,662fad6b6f397a64efc67680,6685aa9113c938e83b4f1ea0,672d4cc22f439c108031e690,2024-11-07_18h28.02.723,WTP_SM_Choice,2022.2.1,Win32,120.1923077,,,,,,,,,,,,,,,,,,98,,,,,,,,,,0.03,1,1.3,0,2,2,2,1,Play Red Dead Redemption 2 in my room on my Xbox,Watch any Marvel movies on the weekends with my family,0.03,0.05,1.1,1,,,,
,,662fad6b6f397a64efc67680,6685aa9113c938e83b4f1ea0,672d4cc22f439c108031e690,2024-11-07_18h28.02.723,WTP_SM_Choice,2022.2.1,Win32,120.1923077,,,,,,,,,,,,,,,,,,99,,,,,,,,,,0.04,1,1.41,0,3,3,3,1,Go to Tennessee with my family to our cabin,Listen to Billie Eilish while taking a shower,0.04,0.05,3.3,0,,,,
,,662fad6b6f397a64efc67680,6685aa9113c938e83b4f1ea0,672d4cc22f439c108031e690,2024-11-07_18h28.02.723,WTP_SM_Choice,2022.2.1,Win32,120.1923077,,,,,,,,,,,,,,,,,,100,,,,,,,,,,0.05,2,2.446,0,4,4,4,1,Watch any Marvel movies on the weekends with my family,Rewatch Money Heist in my bedroom,0.05,0.05,4.4,0,,,,
,,662fad6b6f397a64efc67680,6685aa9113c938e83b4f1ea0,672d4cc22f439c108031e690,2024-11-07_18h28.02.723,WTP_SM_Choice,2022.2.1,Win32,120.1923077,,,,,,,2,,6,2.22,3.78,,0,99,99,99,1,100,Sam,Rej,Participant_Images/662fad6b6f397a64efc67680/662fad6b6f397a64efc67680_Images/662fad6b6f397a64efc67680_Image_16.jpeg,did not like,1.672012706,,,,,,,,,,,,,,,,,,,space,2.457,,
,,662fad6b6f397a64efc67680,6685aa9113c938e83b4f1ea0,672d4cc22f439c108031e690,2024-11-07_18h28.02.723,WTP_SM_Choice,2022.2.1,Win32,120.1923077,,,,,,,,,,,,,,,,,,,,,,,,,,,,,,,,,,,,,,,,,,,,space,1.941
