endwelcomescreen_keys.keys,endwelcomescreen_keys.rt,participant,STUDY_ID,SESSION_ID,date,expName,psychopyVersion,OS,frameRate,endinstructionscreen_keys.keys,endinstructionscreen_keys.rt,endpartnermatch_keys.keys,endpartnermatch_keys.rt,sharenextphoto_key.keys,sharenextphoto_key.rt,salience_rating,key_resp.keys,stress_level,subtract_bonus,TOTAL_TASK_BONUS,stresslevel_keypress.keys,entiretaskloop.thisRepN,entiretaskloop.thisTrialN,entiretaskloop.thisN,entiretaskloop.thisIndex,entiretaskloop.ran,TrialNumber,Partner,Condition,Photos,Feedback,FeedbackWait,WTP_ins_keys1.keys,WTP_ins_keys1.rt,WTP_ins_keys2.keys,WTP_ins_keys2.rt,decision_price,responses.keys,responses.rt,WTPTaskLoop.thisRepN,WTPTaskLoop.thisTrialN,WTPTaskLoop.thisN,WTPTaskLoop.thisIndex,WTPTaskLoop.ran,right,left,leftmoney,rightmoney,WTP_ITI,social_left,Resume_keys.keys,Resume_keys.rt,end_screen_keys.keys,end_screen_keys.rt
space,10.3131,6637ca249e9c662fac63cfcb,6685aa9113c938e83b4f1ea0,6709a28cf586e96a65a71684,2024-10-11_18h11.48.458,WTP_SM_Choice,2022.2.1,Win32,59.52380952,,,,,,,,,,,,,,,,,,,,,,,,,,,,,,,,,,,,,,,,,,,,,
,,6637ca249e9c662fac63cfcb,6685aa9113c938e83b4f1ea0,6709a28cf586e96a65a71684,2024-10-11_18h11.48.458,WTP_SM_Choice,2022.2.1,Win32,59.52380952,space,13.7923,,,,,,,,,,,,,,,,,,,,,,,,,,,,,,,,,,,,,,,,,,,
,,6637ca249e9c662fac63cfcb,6685aa9113c938e83b4f1ea0,6709a28cf586e96a65a71684,2024-10-11_18h11.48.458,WTP_SM_Choice,2022.2.1,Win32,59.52380952,,,space,3.1779,space,1.6684,NAN,,NAN,0,6,,0,0,0,0,1,1,Charlie,Acc,Participant_Images/6637ca249e9c662fac63cfcb/6637ca249e9c662fac63cfcb_Images/6637ca249e9c662fac63cfcb_Image_20.jpeg,liked,3.613205605,,,,,,,,,,,,,,,,,,,,,,
,,6637ca249e9c662fac63cfcb,6685aa9113c938e83b4f1ea0,6709a28cf586e96a65a71684,2024-10-11_18h11.48.458,WTP_SM_Choice,2022.2.1,Win32,59.52380952,,,,,space,0.7202,NAN,,NAN,0,6,,0,1,1,1,1,2,Charlie,Acc,Participant_Images/6637ca249e9c662fac63cfcb/6637ca249e9c662fac63cfcb_Images/6637ca249e9c662fac63cfcb_Image_24.jpeg,liked,4.988446431,,,,,,,,,,,,,,,,,,,,,,
,,6637ca249e9c662fac63cfcb,6685aa9113c938e83b4f1ea0,6709a28cf586e96a65a71684,2024-10-11_18h11.48.458,WTP_SM_Choice,2022.2.1,Win32,59.52380952,,,,,space,0.7838,NAN,,NAN,0,6,,0,2,2,2,1,3,Charlie,Acc,Participant_Images/6637ca249e9c662fac63cfcb/6637ca249e9c662fac63cfcb_Images/6637ca249e9c662fac63cfcb_Image_17.jpeg,liked,3.470791822,,,,,,,,,,,,,,,,,,,,,,
,,6637ca249e9c662fac63cfcb,6685aa9113c938e83b4f1ea0,6709a28cf586e96a65a71684,2024-10-11_18h11.48.458,WTP_SM_Choice,2022.2.1,Win32,59.52380952,,,,,space,1.7985,NAN,,NAN,0,6,,0,3,3,3,1,4,Charlie,Acc,Participant_Images/6637ca249e9c662fac63cfcb/6637ca249e9c662fac63cfcb_Images/6637ca249e9c662fac63cfcb_Image_13.jpeg,did not like,3.820572462,,,,,,,,,,,,,,,,,,,,,,
,,6637ca249e9c662fac63cfcb,6685aa9113c938e83b4f1ea0,6709a28cf586e96a65a71684,2024-10-11_18h11.48.458,WTP_SM_Choice,2022.2.1,Win32,59.52380952,,,,,,,,,,,,,,,,,,1,,,,,,space,15.7021,space,7.4284,0.01,1,4.4492,0,0,0,0,1,have time when i get home to do whatever i want without being bothered,talk with wife,0.01,0.01,4.4,1,,,,
,,6637ca249e9c662fac63cfcb,6685aa9113c938e83b4f1ea0,6709a28cf586e96a65a71684,2024-10-11_18h11.48.458,WTP_SM_Choice,2022.2.1,Win32,59.52380952,,,,,,,,,,,,,,,,,,2,,,,,,,,,,0.01,2,3.8807,0,1,1,1,1,going bowling with friends,Go on a walk,0.02,0.01,8.8,0,,,,
,,6637ca249e9c662fac63cfcb,6685aa9113c938e83b4f1ea0,6709a28cf586e96a65a71684,2024-10-11_18h11.48.458,WTP_SM_Choice,2022.2.1,Win32,59.52380952,,,,,,,,,,,,,,,,,,3,,,,,,,,,,0.03,1,2.9164,0,2,2,2,1,going bowling with friends,watch movies,0.03,0.01,3.3,0,,,,
,,6637ca249e9c662fac63cfcb,6685aa9113c938e83b4f1ea0,6709a28cf586e96a65a71684,2024-10-11_18h11.48.458,WTP_SM_Choice,2022.2.1,Win32,59.52380952,,,,,,,,,,,,,,,,,,4,,,,,,,,,,0.01,2,2.7329,0,3,3,3,1,going on long roadtrips with my wife,make a pretty big dinner ,0.04,0.01,1.1,0,,,,
,,6637ca249e9c662fac63cfcb,6685aa9113c938e83b4f1ea0,6709a28cf586e96a65a71684,2024-10-11_18h11.48.458,WTP_SM_Choice,2022.2.1,Win32,59.52380952,,,,,,,,,,,,,,,,,,5,,,,,,,,,,0.01,2,2.3502,0,4,4,4,1,playing some sport with my friend group,Go on a walk,0.05,0.01,1.1,0,,,,
,,6637ca249e9c662fac63cfcb,6685aa9113c938e83b4f1ea0,6709a28cf586e96a65a71684,2024-10-11_18h11.48.458,WTP_SM_Choice,2022.2.1,Win32,59.52380952,,,,,,,NAN,,NAN,0.07,5.93,,0,4,4,4,1,5,Charlie,Acc,Participant_Images/6637ca249e9c662fac63cfcb/6637ca249e9c662fac63cfcb_Images/6637ca249e9c662fac63cfcb_Image_19.jpeg,liked,2.455989137,,,,,,,,,,,,,,,,,,,,,,
,,6637ca249e9c662fac63cfcb,6685aa9113c938e83b4f1ea0,6709a28cf586e96a65a71684,2024-10-11_18h11.48.458,WTP_SM_Choice,2022.2.1,Win32,59.52380952,,,,,space,1.4906,NAN,,NAN,0.07,5.93,,0,5,5,5,1,6,Charlie,Acc,Participant_Images/6637ca249e9c662fac63cfcb/6637ca249e9c662fac63cfcb_Images/6637ca249e9c662fac63cfcb_Image_23.jpeg,did not like,3.79605092,,,,,,,,,,,,,,,,,,,,,,
,,6637ca249e9c662fac63cfcb,6685aa9113c938e83b4f1ea0,6709a28cf586e96a65a71684,2024-10-11_18h11.48.458,WTP_SM_Choice,2022.2.1,Win32,59.52380952,,,,,space,1.3504,NAN,,NAN,0.07,5.93,,0,6,6,6,1,7,Charlie,Acc,Participant_Images/6637ca249e9c662fac63cfcb/6637ca249e9c662fac63cfcb_Images/6637ca249e9c662fac63cfcb_Image_14.jpeg,liked,3.562416326,,,,,,,,,,,,,,,,,,,,,,
,,6637ca249e9c662fac63cfcb,6685aa9113c938e83b4f1ea0,6709a28cf586e96a65a71684,2024-10-11_18h11.48.458,WTP_SM_Choice,2022.2.1,Win32,59.52380952,,,,,space,2.269,NAN,,NAN,0.07,5.93,,0,7,7,7,1,8,Charlie,Acc,Participant_Images/6637ca249e9c662fac63cfcb/6637ca249e9c662fac63cfcb_Images/6637ca249e9c662fac63cfcb_Image_10.jpeg,liked,2.843822497,,,,,,,,,,,,,,,,,,,,,,
,,6637ca249e9c662fac63cfcb,6685aa9113c938e83b4f1ea0,6709a28cf586e96a65a71684,2024-10-11_18h11.48.458,WTP_SM_Choice,2022.2.1,Win32,59.52380952,,,,,space,0.8736,NAN,,NAN,0.07,5.93,,0,8,8,8,1,9,Charlie,Acc,Participant_Images/6637ca249e9c662fac63cfcb/6637ca249e9c662fac63cfcb_Images/6637ca249e9c662fac63cfcb_Image_25.jpeg,liked,3.546495948,,,,,,,,,,,,,,,,,,,,,,
,,6637ca249e9c662fac63cfcb,6685aa9113c938e83b4f1ea0,6709a28cf586e96a65a71684,2024-10-11_18h11.48.458,WTP_SM_Choice,2022.2.1,Win32,59.52380952,,,,,,,,,,,,,,,,,,6,,,,,,space,6.8036,space,2.9597,0.01,1,2.7663,0,0,0,0,1,going bowling with friends,fix things around the house,0.01,0.02,3.3,0,,,,
,,6637ca249e9c662fac63cfcb,6685aa9113c938e83b4f1ea0,6709a28cf586e96a65a71684,2024-10-11_18h11.48.458,WTP_SM_Choice,2022.2.1,Win32,59.52380952,,,,,,,,,,,,,,,,,,7,,,,,,,,,,0.02,1,2.5249,0,1,1,1,1,lay down doing nothing,gathering around with friends and complaining about work,0.02,0.02,1.1,1,,,,
,,6637ca249e9c662fac63cfcb,6685aa9113c938e83b4f1ea0,6709a28cf586e96a65a71684,2024-10-11_18h11.48.458,WTP_SM_Choice,2022.2.1,Win32,59.52380952,,,,,,,,,,,,,,,,,,8,,,,,,,,,,0.03,1,1.6506,0,2,2,2,1,sleep,playing some sport with my friend group,0.03,0.02,1.1,1,,,,
,,6637ca249e9c662fac63cfcb,6685aa9113c938e83b4f1ea0,6709a28cf586e96a65a71684,2024-10-11_18h11.48.458,WTP_SM_Choice,2022.2.1,Win32,59.52380952,,,,,,,,,,,,,,,,,,9,,,,,,,,,,0.04,1,3.9518,0,3,3,3,1,play with my dog,going to an arcade or bar with close friends,0.04,0.02,4.4,1,,,,
,,6637ca249e9c662fac63cfcb,6685aa9113c938e83b4f1ea0,6709a28cf586e96a65a71684,2024-10-11_18h11.48.458,WTP_SM_Choice,2022.2.1,Win32,59.52380952,,,,,,,,,,,,,,,,,,10,,,,,,,,,,0.05,1,2.2781,0,4,4,4,1,watch movies,going to an arcade or bar with close friends,0.05,0.02,1.1,1,,,,
,,6637ca249e9c662fac63cfcb,6685aa9113c938e83b4f1ea0,6709a28cf586e96a65a71684,2024-10-11_18h11.48.458,WTP_SM_Choice,2022.2.1,Win32,59.52380952,,,,,,,NAN,,NAN,0.22,5.78,,0,9,9,9,1,10,Charlie,Acc,Participant_Images/6637ca249e9c662fac63cfcb/6637ca249e9c662fac63cfcb_Images/6637ca249e9c662fac63cfcb_Image_7.jpeg,liked,1.672012706,,,,,,,,,,,,,,,,,,,,,,
,,6637ca249e9c662fac63cfcb,6685aa9113c938e83b4f1ea0,6709a28cf586e96a65a71684,2024-10-11_18h11.48.458,WTP_SM_Choice,2022.2.1,Win32,59.52380952,,,,,space,1.4854,NAN,,NAN,0.22,5.78,,0,10,10,10,1,11,Charlie,Acc,Participant_Images/6637ca249e9c662fac63cfcb/6637ca249e9c662fac63cfcb_Images/6637ca249e9c662fac63cfcb_Image_22.jpeg,did not like,4.942172136,,,,,,,,,,,,,,,,,,,,,,
,,6637ca249e9c662fac63cfcb,6685aa9113c938e83b4f1ea0,6709a28cf586e96a65a71684,2024-10-11_18h11.48.458,WTP_SM_Choice,2022.2.1,Win32,59.52380952,,,,,space,2.31,NAN,,NAN,0.22,5.78,,0,11,11,11,1,12,Charlie,Acc,Participant_Images/6637ca249e9c662fac63cfcb/6637ca249e9c662fac63cfcb_Images/6637ca249e9c662fac63cfcb_Image_4.jpeg,liked,2.50187214,,,,,,,,,,,,,,,,,,,,,,
,,6637ca249e9c662fac63cfcb,6685aa9113c938e83b4f1ea0,6709a28cf586e96a65a71684,2024-10-11_18h11.48.458,WTP_SM_Choice,2022.2.1,Win32,59.52380952,,,,,space,0.9219,NAN,,NAN,0.22,5.78,,0,12,12,12,1,13,Charlie,Acc,Participant_Images/6637ca249e9c662fac63cfcb/6637ca249e9c662fac63cfcb_Images/6637ca249e9c662fac63cfcb_Image_1.jpeg,did not like,2.071164779,,,,,,,,,,,,,,,,,,,,,,
,,6637ca249e9c662fac63cfcb,6685aa9113c938e83b4f1ea0,6709a28cf586e96a65a71684,2024-10-11_18h11.48.458,WTP_SM_Choice,2022.2.1,Win32,59.52380952,,,,,space,1.8885,NAN,,NAN,0.22,5.78,,0,13,13,13,1,14,Charlie,Acc,Participant_Images/6637ca249e9c662fac63cfcb/6637ca249e9c662fac63cfcb_Images/6637ca249e9c662fac63cfcb_Image_18.jpeg,liked,5.336503566,,,,,,,,,,,,,,,,,,,,,,
,,6637ca249e9c662fac63cfcb,6685aa9113c938e83b4f1ea0,6709a28cf586e96a65a71684,2024-10-11_18h11.48.458,WTP_SM_Choice,2022.2.1,Win32,59.52380952,,,,,,,,,,,,,,,,,,11,,,,,,space,9.2345,space,1.396,0.01,1,2.5407,0,0,0,0,1,sleep,gathering around with friends and complaining about work,0.01,0.03,3.3,1,,,,
,,6637ca249e9c662fac63cfcb,6685aa9113c938e83b4f1ea0,6709a28cf586e96a65a71684,2024-10-11_18h11.48.458,WTP_SM_Choice,2022.2.1,Win32,59.52380952,,,,,,,,,,,,,,,,,,12,,,,,,,,,,0.03,2,1.7681,0,1,1,1,1,fix things around the house,watching moves together with my partner,0.02,0.03,4.4,1,,,,
,,6637ca249e9c662fac63cfcb,6685aa9113c938e83b4f1ea0,6709a28cf586e96a65a71684,2024-10-11_18h11.48.458,WTP_SM_Choice,2022.2.1,Win32,59.52380952,,,,,,,,,,,,,,,,,,13,,,,,,,,,,0.03,2,3.4649,0,2,2,2,1,have time when i get home to do whatever i want without being bothered,going bowling with friends,0.03,0.03,1.1,1,,,,
,,6637ca249e9c662fac63cfcb,6685aa9113c938e83b4f1ea0,6709a28cf586e96a65a71684,2024-10-11_18h11.48.458,WTP_SM_Choice,2022.2.1,Win32,59.52380952,,,,,,,,,,,,,,,,,,14,,,,,,,,,,0.03,2,2.5712,0,3,3,3,1,going to an arcade or bar with close friends,Go on a walk,0.04,0.03,3.3,0,,,,
,,6637ca249e9c662fac63cfcb,6685aa9113c938e83b4f1ea0,6709a28cf586e96a65a71684,2024-10-11_18h11.48.458,WTP_SM_Choice,2022.2.1,Win32,59.52380952,,,,,,,,,,,,,,,,,,15,,,,,,,,,,0.03,2,1.5833,0,4,4,4,1,watching moves together with my partner,Go on a walk,0.05,0.03,4.4,0,,,,
,,6637ca249e9c662fac63cfcb,6685aa9113c938e83b4f1ea0,6709a28cf586e96a65a71684,2024-10-11_18h11.48.458,WTP_SM_Choice,2022.2.1,Win32,59.52380952,,,,,,,NAN,,NAN,0.35,5.65,,0,14,14,14,1,15,Charlie,Acc,Participant_Images/6637ca249e9c662fac63cfcb/6637ca249e9c662fac63cfcb_Images/6637ca249e9c662fac63cfcb_Image_12.jpeg,liked,2.642157193,,,,,,,,,,,,,,,,,,,,,,
,,6637ca249e9c662fac63cfcb,6685aa9113c938e83b4f1ea0,6709a28cf586e96a65a71684,2024-10-11_18h11.48.458,WTP_SM_Choice,2022.2.1,Win32,59.52380952,,,,,space,1.306,NAN,,NAN,0.35,5.65,,0,15,15,15,1,16,Charlie,Acc,Participant_Images/6637ca249e9c662fac63cfcb/6637ca249e9c662fac63cfcb_Images/6637ca249e9c662fac63cfcb_Image_3.jpeg,liked,4.456234322,,,,,,,,,,,,,,,,,,,,,,
,,6637ca249e9c662fac63cfcb,6685aa9113c938e83b4f1ea0,6709a28cf586e96a65a71684,2024-10-11_18h11.48.458,WTP_SM_Choice,2022.2.1,Win32,59.52380952,,,,,space,0.6835,NAN,,NAN,0.35,5.65,,0,16,16,16,1,17,Charlie,Acc,Participant_Images/6637ca249e9c662fac63cfcb/6637ca249e9c662fac63cfcb_Images/6637ca249e9c662fac63cfcb_Image_15.jpeg,did not like,4.438512181,,,,,,,,,,,,,,,,,,,,,,
,,6637ca249e9c662fac63cfcb,6685aa9113c938e83b4f1ea0,6709a28cf586e96a65a71684,2024-10-11_18h11.48.458,WTP_SM_Choice,2022.2.1,Win32,59.52380952,,,,,space,1.0841,NAN,,NAN,0.35,5.65,,0,17,17,17,1,18,Charlie,Acc,Participant_Images/6637ca249e9c662fac63cfcb/6637ca249e9c662fac63cfcb_Images/6637ca249e9c662fac63cfcb_Image_8.jpeg,did not like,2.682944783,,,,,,,,,,,,,,,,,,,,,,
,,6637ca249e9c662fac63cfcb,6685aa9113c938e83b4f1ea0,6709a28cf586e96a65a71684,2024-10-11_18h11.48.458,WTP_SM_Choice,2022.2.1,Win32,59.52380952,,,,,space,0.9673,NAN,,NAN,0.35,5.65,,0,18,18,18,1,19,Charlie,Acc,Participant_Images/6637ca249e9c662fac63cfcb/6637ca249e9c662fac63cfcb_Images/6637ca249e9c662fac63cfcb_Image_6.jpeg,did not like,4.51984296,,,,,,,,,,,,,,,,,,,,,,
,,6637ca249e9c662fac63cfcb,6685aa9113c938e83b4f1ea0,6709a28cf586e96a65a71684,2024-10-11_18h11.48.458,WTP_SM_Choice,2022.2.1,Win32,59.52380952,,,,,,,,,,,,,,,,,,16,,,,,,space,3.2751,space,0.4843,0.04,2,2.3504,0,0,0,0,1,playing cards with friends,have time when i get home to do whatever i want without being bothered,0.01,0.04,1.1,0,,,,
,,6637ca249e9c662fac63cfcb,6685aa9113c938e83b4f1ea0,6709a28cf586e96a65a71684,2024-10-11_18h11.48.458,WTP_SM_Choice,2022.2.1,Win32,59.52380952,,,,,,,,,,,,,,,,,,17,,,,,,,,,,0.04,2,3.5033,0,1,1,1,1,fix things around the house,gathering around with friends and complaining about work,0.02,0.04,8.8,1,,,,
,,6637ca249e9c662fac63cfcb,6685aa9113c938e83b4f1ea0,6709a28cf586e96a65a71684,2024-10-11_18h11.48.458,WTP_SM_Choice,2022.2.1,Win32,59.52380952,,,,,,,,,,,,,,,,,,18,,,,,,,,,,0.04,2,2.4168,0,2,2,2,1,gathering around with friends and complaining about work,read my books,0.03,0.04,3.3,0,,,,
,,6637ca249e9c662fac63cfcb,6685aa9113c938e83b4f1ea0,6709a28cf586e96a65a71684,2024-10-11_18h11.48.458,WTP_SM_Choice,2022.2.1,Win32,59.52380952,,,,,,,,,,,,,,,,,,19,,,,,,,,,,0.04,2,3.9993,0,3,3,3,1,going to an arcade or bar with close friends,lay down doing nothing,0.04,0.04,3.3,0,,,,
,,6637ca249e9c662fac63cfcb,6685aa9113c938e83b4f1ea0,6709a28cf586e96a65a71684,2024-10-11_18h11.48.458,WTP_SM_Choice,2022.2.1,Win32,59.52380952,,,,,,,,,,,,,,,,,,20,,,,,,,,,,0.04,2,2.4496,0,4,4,4,1,playing cards with friends,Go on a walk,0.05,0.04,1.1,0,,,,
,,6637ca249e9c662fac63cfcb,6685aa9113c938e83b4f1ea0,6709a28cf586e96a65a71684,2024-10-11_18h11.48.458,WTP_SM_Choice,2022.2.1,Win32,59.52380952,,,,,,,NAN,,NAN,0.55,5.45,,0,19,19,19,1,20,Charlie,Acc,Participant_Images/6637ca249e9c662fac63cfcb/6637ca249e9c662fac63cfcb_Images/6637ca249e9c662fac63cfcb_Image_11.jpeg,liked,3.195382774,,,,,,,,,,,,,,,,,,,,,,
,,6637ca249e9c662fac63cfcb,6685aa9113c938e83b4f1ea0,6709a28cf586e96a65a71684,2024-10-11_18h11.48.458,WTP_SM_Choice,2022.2.1,Win32,59.52380952,,,,,space,12.545,NAN,,NAN,0.55,5.45,,0,20,20,20,1,21,Charlie,Acc,Participant_Images/6637ca249e9c662fac63cfcb/6637ca249e9c662fac63cfcb_Images/6637ca249e9c662fac63cfcb_Image_2.jpeg,liked,1.779333479,,,,,,,,,,,,,,,,,,,,,,
,,6637ca249e9c662fac63cfcb,6685aa9113c938e83b4f1ea0,6709a28cf586e96a65a71684,2024-10-11_18h11.48.458,WTP_SM_Choice,2022.2.1,Win32,59.52380952,,,,,space,2.8579,NAN,,NAN,0.55,5.45,,0,21,21,21,1,22,Charlie,Acc,Participant_Images/6637ca249e9c662fac63cfcb/6637ca249e9c662fac63cfcb_Images/6637ca249e9c662fac63cfcb_Image_5.jpeg,liked,4.312468682,,,,,,,,,,,,,,,,,,,,,,
,,6637ca249e9c662fac63cfcb,6685aa9113c938e83b4f1ea0,6709a28cf586e96a65a71684,2024-10-11_18h11.48.458,WTP_SM_Choice,2022.2.1,Win32,59.52380952,,,,,space,0.6678,NAN,,NAN,0.55,5.45,,0,22,22,22,1,23,Charlie,Acc,Participant_Images/6637ca249e9c662fac63cfcb/6637ca249e9c662fac63cfcb_Images/6637ca249e9c662fac63cfcb_Image_21.jpeg,liked,4.940433059,,,,,,,,,,,,,,,,,,,,,,
,,6637ca249e9c662fac63cfcb,6685aa9113c938e83b4f1ea0,6709a28cf586e96a65a71684,2024-10-11_18h11.48.458,WTP_SM_Choice,2022.2.1,Win32,59.52380952,,,,,space,2.1334,NAN,,NAN,0.55,5.45,,0,23,23,23,1,24,Charlie,Acc,Participant_Images/6637ca249e9c662fac63cfcb/6637ca249e9c662fac63cfcb_Images/6637ca249e9c662fac63cfcb_Image_16.jpeg,liked,2.7105123,,,,,,,,,,,,,,,,,,,,,,
,,6637ca249e9c662fac63cfcb,6685aa9113c938e83b4f1ea0,6709a28cf586e96a65a71684,2024-10-11_18h11.48.458,WTP_SM_Choice,2022.2.1,Win32,59.52380952,,,,,,,,,,,,,,,,,,21,,,,,,space,2.9826,space,0.7674,0.01,1,2.3125,0,0,0,0,1,sleep,going on long roadtrips with my wife,0.01,0.05,8.8,1,,,,
,,6637ca249e9c662fac63cfcb,6685aa9113c938e83b4f1ea0,6709a28cf586e96a65a71684,2024-10-11_18h11.48.458,WTP_SM_Choice,2022.2.1,Win32,59.52380952,,,,,,,,,,,,,,,,,,22,,,,,,,,,,0.05,2,1.8349,0,1,1,1,1,gathering around with friends and complaining about work,Go on a walk,0.02,0.05,4.4,0,,,,
,,6637ca249e9c662fac63cfcb,6685aa9113c938e83b4f1ea0,6709a28cf586e96a65a71684,2024-10-11_18h11.48.458,WTP_SM_Choice,2022.2.1,Win32,59.52380952,,,,,,,,,,,,,,,,,,23,,,,,,,,,,0.03,1,1.9994,0,2,2,2,1,Not talk to anyone at work,making fun of a tv show together with my wife,0.03,0.05,1.1,1,,,,
,,6637ca249e9c662fac63cfcb,6685aa9113c938e83b4f1ea0,6709a28cf586e96a65a71684,2024-10-11_18h11.48.458,WTP_SM_Choice,2022.2.1,Win32,59.52380952,,,,,,,,,,,,,,,,,,24,,,,,,,,,,0.04,1,4.8724,0,3,3,3,1,lay down doing nothing,going bowling with friends,0.04,0.05,4.4,1,,,,
,,6637ca249e9c662fac63cfcb,6685aa9113c938e83b4f1ea0,6709a28cf586e96a65a71684,2024-10-11_18h11.48.458,WTP_SM_Choice,2022.2.1,Win32,59.52380952,,,,,,,,,,,,,,,,,,25,,,,,,,,,,0.05,2,2.5485,0,4,4,4,1,make a pretty big dinner ,gathering around with friends and complaining about work,0.05,0.05,3.3,1,,,,
,,6637ca249e9c662fac63cfcb,6685aa9113c938e83b4f1ea0,6709a28cf586e96a65a71684,2024-10-11_18h11.48.458,WTP_SM_Choice,2022.2.1,Win32,59.52380952,,,,,,,2,,5,0.73,5.27,,0,24,24,24,1,25,Charlie,Acc,Participant_Images/6637ca249e9c662fac63cfcb/6637ca249e9c662fac63cfcb_Images/6637ca249e9c662fac63cfcb_Image_9.jpeg,liked,3.602308302,,,,,,,,,,,,,,,,,,,space,1.8252,,
,,6637ca249e9c662fac63cfcb,6685aa9113c938e83b4f1ea0,6709a28cf586e96a65a71684,2024-10-11_18h11.48.458,WTP_SM_Choice,2022.2.1,Win32,59.52380952,,,space,1.1836,space,4.9775,NAN,,NAN,0.73,5.27,,0,25,25,25,1,26,Riley,Rej,Participant_Images/6637ca249e9c662fac63cfcb/6637ca249e9c662fac63cfcb_Images/6637ca249e9c662fac63cfcb_Image_22.jpeg,liked,4.106391878,,,,,,,,,,,,,,,,,,,,,,
,,6637ca249e9c662fac63cfcb,6685aa9113c938e83b4f1ea0,6709a28cf586e96a65a71684,2024-10-11_18h11.48.458,WTP_SM_Choice,2022.2.1,Win32,59.52380952,,,,,space,0.8815,NAN,,NAN,0.73,5.27,,0,26,26,26,1,27,Riley,Rej,Participant_Images/6637ca249e9c662fac63cfcb/6637ca249e9c662fac63cfcb_Images/6637ca249e9c662fac63cfcb_Image_20.jpeg,did not like,3.799433026,,,,,,,,,,,,,,,,,,,,,,
,,6637ca249e9c662fac63cfcb,6685aa9113c938e83b4f1ea0,6709a28cf586e96a65a71684,2024-10-11_18h11.48.458,WTP_SM_Choice,2022.2.1,Win32,59.52380952,,,,,space,3.4984,NAN,,NAN,0.73,5.27,,0,27,27,27,1,28,Riley,Rej,Participant_Images/6637ca249e9c662fac63cfcb/6637ca249e9c662fac63cfcb_Images/6637ca249e9c662fac63cfcb_Image_4.jpeg,liked,5.246980764,,,,,,,,,,,,,,,,,,,,,,
,,6637ca249e9c662fac63cfcb,6685aa9113c938e83b4f1ea0,6709a28cf586e96a65a71684,2024-10-11_18h11.48.458,WTP_SM_Choice,2022.2.1,Win32,59.52380952,,,,,space,2.4545,NAN,,NAN,0.73,5.27,,0,28,28,28,1,29,Riley,Rej,Participant_Images/6637ca249e9c662fac63cfcb/6637ca249e9c662fac63cfcb_Images/6637ca249e9c662fac63cfcb_Image_10.jpeg,liked,3.30081769,,,,,,,,,,,,,,,,,,,,,,
,,6637ca249e9c662fac63cfcb,6685aa9113c938e83b4f1ea0,6709a28cf586e96a65a71684,2024-10-11_18h11.48.458,WTP_SM_Choice,2022.2.1,Win32,59.52380952,,,,,,,,,,,,,,,,,,26,,,,,,space,4.6642,space,1.0569,0.01,1,3.69,0,0,0,0,1,read my books,play games online with college friends,0.01,0.01,4.4,1,,,,
,,6637ca249e9c662fac63cfcb,6685aa9113c938e83b4f1ea0,6709a28cf586e96a65a71684,2024-10-11_18h11.48.458,WTP_SM_Choice,2022.2.1,Win32,59.52380952,,,,,,,,,,,,,,,,,,27,,,,,,,,,,0.02,1,3.7184,0,1,1,1,1,fix things around the house,talk with wife,0.02,0.01,3.3,1,,,,
,,6637ca249e9c662fac63cfcb,6685aa9113c938e83b4f1ea0,6709a28cf586e96a65a71684,2024-10-11_18h11.48.458,WTP_SM_Choice,2022.2.1,Win32,59.52380952,,,,,,,,,,,,,,,,,,28,,,,,,,,,,0.03,1,7.7406,0,2,2,2,1,fix things around the house,playing some sport with my friend group,0.03,0.01,3.3,1,,,,
,,6637ca249e9c662fac63cfcb,6685aa9113c938e83b4f1ea0,6709a28cf586e96a65a71684,2024-10-11_18h11.48.458,WTP_SM_Choice,2022.2.1,Win32,59.52380952,,,,,,,,,,,,,,,,,,29,,,,,,,,,,0.04,1,4.8992,0,3,3,3,1,lay down doing nothing,going on long roadtrips with my wife,0.04,0.01,4.4,1,,,,
,,6637ca249e9c662fac63cfcb,6685aa9113c938e83b4f1ea0,6709a28cf586e96a65a71684,2024-10-11_18h11.48.458,WTP_SM_Choice,2022.2.1,Win32,59.52380952,,,,,,,,,,,,,,,,,,30,,,,,,,,,,,,,0,4,4,4,1,have time when i get home to do whatever i want without being bothered,play games online with college friends,0.05,0.01,8.8,1,,,,
,,6637ca249e9c662fac63cfcb,6685aa9113c938e83b4f1ea0,6709a28cf586e96a65a71684,2024-10-11_18h11.48.458,WTP_SM_Choice,2022.2.1,Win32,59.52380952,,,,,,,NAN,,NAN,0.83,5.17,,0,29,29,29,1,30,Riley,Rej,Participant_Images/6637ca249e9c662fac63cfcb/6637ca249e9c662fac63cfcb_Images/6637ca249e9c662fac63cfcb_Image_7.jpeg,did not like,1.661473164,,,,,,,,,,,,,,,,,,,,,,
,,6637ca249e9c662fac63cfcb,6685aa9113c938e83b4f1ea0,6709a28cf586e96a65a71684,2024-10-11_18h11.48.458,WTP_SM_Choice,2022.2.1,Win32,59.52380952,,,,,space,13.9278,NAN,,NAN,0.83,5.17,,0,30,30,30,1,31,Riley,Rej,Participant_Images/6637ca249e9c662fac63cfcb/6637ca249e9c662fac63cfcb_Images/6637ca249e9c662fac63cfcb_Image_13.jpeg,did not like,3.613205605,,,,,,,,,,,,,,,,,,,,,,
,,6637ca249e9c662fac63cfcb,6685aa9113c938e83b4f1ea0,6709a28cf586e96a65a71684,2024-10-11_18h11.48.458,WTP_SM_Choice,2022.2.1,Win32,59.52380952,,,,,space,10.6319,NAN,,NAN,0.83,5.17,,0,31,31,31,1,32,Riley,Rej,Participant_Images/6637ca249e9c662fac63cfcb/6637ca249e9c662fac63cfcb_Images/6637ca249e9c662fac63cfcb_Image_12.jpeg,did not like,4.988446431,,,,,,,,,,,,,,,,,,,,,,
,,6637ca249e9c662fac63cfcb,6685aa9113c938e83b4f1ea0,6709a28cf586e96a65a71684,2024-10-11_18h11.48.458,WTP_SM_Choice,2022.2.1,Win32,59.52380952,,,,,space,0.9381,NAN,,NAN,0.83,5.17,,0,32,32,32,1,33,Riley,Rej,Participant_Images/6637ca249e9c662fac63cfcb/6637ca249e9c662fac63cfcb_Images/6637ca249e9c662fac63cfcb_Image_24.jpeg,did not like,3.470791822,,,,,,,,,,,,,,,,,,,,,,
,,6637ca249e9c662fac63cfcb,6685aa9113c938e83b4f1ea0,6709a28cf586e96a65a71684,2024-10-11_18h11.48.458,WTP_SM_Choice,2022.2.1,Win32,59.52380952,,,,,space,1.1542,NAN,,NAN,0.83,5.17,,0,33,33,33,1,34,Riley,Rej,Participant_Images/6637ca249e9c662fac63cfcb/6637ca249e9c662fac63cfcb_Images/6637ca249e9c662fac63cfcb_Image_17.jpeg,did not like,3.820572462,,,,,,,,,,,,,,,,,,,,,,
,,6637ca249e9c662fac63cfcb,6685aa9113c938e83b4f1ea0,6709a28cf586e96a65a71684,2024-10-11_18h11.48.458,WTP_SM_Choice,2022.2.1,Win32,59.52380952,,,,,,,,,,,,,,,,,,31,,,,,,space,2.3042,space,3.0167,0.02,2,2.5009,0,0,0,0,1,going to an arcade or bar with close friends,sleep,0.01,0.02,8.8,0,,,,
,,6637ca249e9c662fac63cfcb,6685aa9113c938e83b4f1ea0,6709a28cf586e96a65a71684,2024-10-11_18h11.48.458,WTP_SM_Choice,2022.2.1,Win32,59.52380952,,,,,,,,,,,,,,,,,,32,,,,,,,,,,0.02,2,1.5396,0,1,1,1,1,talk with wife,sleep,0.02,0.02,1.1,0,,,,
,,6637ca249e9c662fac63cfcb,6685aa9113c938e83b4f1ea0,6709a28cf586e96a65a71684,2024-10-11_18h11.48.458,WTP_SM_Choice,2022.2.1,Win32,59.52380952,,,,,,,,,,,,,,,,,,33,,,,,,,,,,0.03,1,4.5675,0,2,2,2,1,watch movies,gathering around with friends and complaining about work,0.03,0.02,4.4,1,,,,
,,6637ca249e9c662fac63cfcb,6685aa9113c938e83b4f1ea0,6709a28cf586e96a65a71684,2024-10-11_18h11.48.458,WTP_SM_Choice,2022.2.1,Win32,59.52380952,,,,,,,,,,,,,,,,,,34,,,,,,,,,,0.02,2,2.1169,0,3,3,3,1,making fun of a tv show together with my wife,watch movies,0.04,0.02,3.3,0,,,,
,,6637ca249e9c662fac63cfcb,6685aa9113c938e83b4f1ea0,6709a28cf586e96a65a71684,2024-10-11_18h11.48.458,WTP_SM_Choice,2022.2.1,Win32,59.52380952,,,,,,,,,,,,,,,,,,35,,,,,,,,,,0.02,2,2.9486,0,4,4,4,1,playing cards with friends,make a pretty big dinner ,0.05,0.02,1.1,0,,,,
,,6637ca249e9c662fac63cfcb,6685aa9113c938e83b4f1ea0,6709a28cf586e96a65a71684,2024-10-11_18h11.48.458,WTP_SM_Choice,2022.2.1,Win32,59.52380952,,,,,,,NAN,,NAN,0.94,5.06,,0,34,34,34,1,35,Riley,Rej,Participant_Images/6637ca249e9c662fac63cfcb/6637ca249e9c662fac63cfcb_Images/6637ca249e9c662fac63cfcb_Image_9.jpeg,did not like,2.455989137,,,,,,,,,,,,,,,,,,,,,,
,,6637ca249e9c662fac63cfcb,6685aa9113c938e83b4f1ea0,6709a28cf586e96a65a71684,2024-10-11_18h11.48.458,WTP_SM_Choice,2022.2.1,Win32,59.52380952,,,,,space,1.9358,NAN,,NAN,0.94,5.06,,0,35,35,35,1,36,Riley,Rej,Participant_Images/6637ca249e9c662fac63cfcb/6637ca249e9c662fac63cfcb_Images/6637ca249e9c662fac63cfcb_Image_16.jpeg,did not like,3.79605092,,,,,,,,,,,,,,,,,,,,,,
,,6637ca249e9c662fac63cfcb,6685aa9113c938e83b4f1ea0,6709a28cf586e96a65a71684,2024-10-11_18h11.48.458,WTP_SM_Choice,2022.2.1,Win32,59.52380952,,,,,space,1.5655,NAN,,NAN,0.94,5.06,,0,36,36,36,1,37,Riley,Rej,Participant_Images/6637ca249e9c662fac63cfcb/6637ca249e9c662fac63cfcb_Images/6637ca249e9c662fac63cfcb_Image_19.jpeg,did not like,3.562416326,,,,,,,,,,,,,,,,,,,,,,
,,6637ca249e9c662fac63cfcb,6685aa9113c938e83b4f1ea0,6709a28cf586e96a65a71684,2024-10-11_18h11.48.458,WTP_SM_Choice,2022.2.1,Win32,59.52380952,,,,,space,0.8926,NAN,,NAN,0.94,5.06,,0,37,37,37,1,38,Riley,Rej,Participant_Images/6637ca249e9c662fac63cfcb/6637ca249e9c662fac63cfcb_Images/6637ca249e9c662fac63cfcb_Image_21.jpeg,did not like,2.843822497,,,,,,,,,,,,,,,,,,,,,,
,,6637ca249e9c662fac63cfcb,6685aa9113c938e83b4f1ea0,6709a28cf586e96a65a71684,2024-10-11_18h11.48.458,WTP_SM_Choice,2022.2.1,Win32,59.52380952,,,,,space,1.7893,NAN,,NAN,0.94,5.06,,0,38,38,38,1,39,Riley,Rej,Participant_Images/6637ca249e9c662fac63cfcb/6637ca249e9c662fac63cfcb_Images/6637ca249e9c662fac63cfcb_Image_15.jpeg,liked,3.546495948,,,,,,,,,,,,,,,,,,,,,,
,,6637ca249e9c662fac63cfcb,6685aa9113c938e83b4f1ea0,6709a28cf586e96a65a71684,2024-10-11_18h11.48.458,WTP_SM_Choice,2022.2.1,Win32,59.52380952,,,,,,,,,,,,,,,,,,36,,,,,,space,3.2784,space,1.4363,0.03,2,2.2045,0,0,0,0,1,play with my dog,gathering around with friends and complaining about work,0.01,0.03,3.3,1,,,,
,,6637ca249e9c662fac63cfcb,6685aa9113c938e83b4f1ea0,6709a28cf586e96a65a71684,2024-10-11_18h11.48.458,WTP_SM_Choice,2022.2.1,Win32,59.52380952,,,,,,,,,,,,,,,,,,37,,,,,,,,,,0.02,1,2.3199,0,1,1,1,1,Not talk to anyone at work,going on long roadtrips with my wife,0.02,0.03,1.1,1,,,,
,,6637ca249e9c662fac63cfcb,6685aa9113c938e83b4f1ea0,6709a28cf586e96a65a71684,2024-10-11_18h11.48.458,WTP_SM_Choice,2022.2.1,Win32,59.52380952,,,,,,,,,,,,,,,,,,38,,,,,,,,,,0.03,1,2.9568,0,2,2,2,1,lay down doing nothing,watching moves together with my partner,0.03,0.03,1.1,1,,,,
,,6637ca249e9c662fac63cfcb,6685aa9113c938e83b4f1ea0,6709a28cf586e96a65a71684,2024-10-11_18h11.48.458,WTP_SM_Choice,2022.2.1,Win32,59.52380952,,,,,,,,,,,,,,,,,,39,,,,,,,,,,0.03,2,3.0697,0,3,3,3,1,Not talk to anyone at work,playing some sport with my friend group,0.04,0.03,3.3,1,,,,
,,6637ca249e9c662fac63cfcb,6685aa9113c938e83b4f1ea0,6709a28cf586e96a65a71684,2024-10-11_18h11.48.458,WTP_SM_Choice,2022.2.1,Win32,59.52380952,,,,,,,,,,,,,,,,,,40,,,,,,,,,,0.05,1,4.2603,0,4,4,4,1,gathering around with friends and complaining about work,have time when i get home to do whatever i want without being bothered,0.05,0.03,4.4,0,,,,
,,6637ca249e9c662fac63cfcb,6685aa9113c938e83b4f1ea0,6709a28cf586e96a65a71684,2024-10-11_18h11.48.458,WTP_SM_Choice,2022.2.1,Win32,59.52380952,,,,,,,NAN,,NAN,1.1,4.9,,0,39,39,39,1,40,Riley,Rej,Participant_Images/6637ca249e9c662fac63cfcb/6637ca249e9c662fac63cfcb_Images/6637ca249e9c662fac63cfcb_Image_11.jpeg,did not like,1.672012706,,,,,,,,,,,,,,,,,,,,,,
,,6637ca249e9c662fac63cfcb,6685aa9113c938e83b4f1ea0,6709a28cf586e96a65a71684,2024-10-11_18h11.48.458,WTP_SM_Choice,2022.2.1,Win32,59.52380952,,,,,space,1.2753,NAN,,NAN,1.1,4.9,,0,40,40,40,1,41,Riley,Rej,Participant_Images/6637ca249e9c662fac63cfcb/6637ca249e9c662fac63cfcb_Images/6637ca249e9c662fac63cfcb_Image_8.jpeg,did not like,4.942172136,,,,,,,,,,,,,,,,,,,,,,
,,6637ca249e9c662fac63cfcb,6685aa9113c938e83b4f1ea0,6709a28cf586e96a65a71684,2024-10-11_18h11.48.458,WTP_SM_Choice,2022.2.1,Win32,59.52380952,,,,,space,8.995,NAN,,NAN,1.1,4.9,,0,41,41,41,1,42,Riley,Rej,Participant_Images/6637ca249e9c662fac63cfcb/6637ca249e9c662fac63cfcb_Images/6637ca249e9c662fac63cfcb_Image_18.jpeg,did not like,2.50187214,,,,,,,,,,,,,,,,,,,,,,
,,6637ca249e9c662fac63cfcb,6685aa9113c938e83b4f1ea0,6709a28cf586e96a65a71684,2024-10-11_18h11.48.458,WTP_SM_Choice,2022.2.1,Win32,59.52380952,,,,,space,1.0358,NAN,,NAN,1.1,4.9,,0,42,42,42,1,43,Riley,Rej,Participant_Images/6637ca249e9c662fac63cfcb/6637ca249e9c662fac63cfcb_Images/6637ca249e9c662fac63cfcb_Image_14.jpeg,liked,2.071164779,,,,,,,,,,,,,,,,,,,,,,
,,6637ca249e9c662fac63cfcb,6685aa9113c938e83b4f1ea0,6709a28cf586e96a65a71684,2024-10-11_18h11.48.458,WTP_SM_Choice,2022.2.1,Win32,59.52380952,,,,,space,0.9202,NAN,,NAN,1.1,4.9,,0,43,43,43,1,44,Riley,Rej,Participant_Images/6637ca249e9c662fac63cfcb/6637ca249e9c662fac63cfcb_Images/6637ca249e9c662fac63cfcb_Image_6.jpeg,did not like,5.336503566,,,,,,,,,,,,,,,,,,,,,,
,,6637ca249e9c662fac63cfcb,6685aa9113c938e83b4f1ea0,6709a28cf586e96a65a71684,2024-10-11_18h11.48.458,WTP_SM_Choice,2022.2.1,Win32,59.52380952,,,,,,,,,,,,,,,,,,41,,,,,,space,1.687,space,1.979,0.04,2,2.2215,0,0,0,0,1,talk with wife,Go on a walk,0.01,0.04,1.1,0,,,,
,,6637ca249e9c662fac63cfcb,6685aa9113c938e83b4f1ea0,6709a28cf586e96a65a71684,2024-10-11_18h11.48.458,WTP_SM_Choice,2022.2.1,Win32,59.52380952,,,,,,,,,,,,,,,,,,42,,,,,,,,,,0.02,1,2.4404,0,1,1,1,1,playing some sport with my friend group,read my books,0.02,0.04,3.3,0,,,,
,,6637ca249e9c662fac63cfcb,6685aa9113c938e83b4f1ea0,6709a28cf586e96a65a71684,2024-10-11_18h11.48.458,WTP_SM_Choice,2022.2.1,Win32,59.52380952,,,,,,,,,,,,,,,,,,43,,,,,,,,,,0.04,2,2.8341,0,2,2,2,1,play with my dog,making fun of a tv show together with my wife,0.03,0.04,1.1,1,,,,
,,6637ca249e9c662fac63cfcb,6685aa9113c938e83b4f1ea0,6709a28cf586e96a65a71684,2024-10-11_18h11.48.458,WTP_SM_Choice,2022.2.1,Win32,59.52380952,,,,,,,,,,,,,,,,,,44,,,,,,,,,,0.04,2,4.3669,0,3,3,3,1,going on long roadtrips with my wife,watch movies,0.04,0.04,1.1,0,,,,
,,6637ca249e9c662fac63cfcb,6685aa9113c938e83b4f1ea0,6709a28cf586e96a65a71684,2024-10-11_18h11.48.458,WTP_SM_Choice,2022.2.1,Win32,59.52380952,,,,,,,,,,,,,,,,,,45,,,,,,,,,,0.04,2,3.9635,0,4,4,4,1,have time when i get home to do whatever i want without being bothered,going to an arcade or bar with close friends,0.05,0.04,4.4,1,,,,
,,6637ca249e9c662fac63cfcb,6685aa9113c938e83b4f1ea0,6709a28cf586e96a65a71684,2024-10-11_18h11.48.458,WTP_SM_Choice,2022.2.1,Win32,59.52380952,,,,,,,NAN,,NAN,1.28,4.72,,0,44,44,44,1,45,Riley,Rej,Participant_Images/6637ca249e9c662fac63cfcb/6637ca249e9c662fac63cfcb_Images/6637ca249e9c662fac63cfcb_Image_2.jpeg,did not like,2.642157193,,,,,,,,,,,,,,,,,,,,,,
,,6637ca249e9c662fac63cfcb,6685aa9113c938e83b4f1ea0,6709a28cf586e96a65a71684,2024-10-11_18h11.48.458,WTP_SM_Choice,2022.2.1,Win32,59.52380952,,,,,space,4.8335,NAN,,NAN,1.28,4.72,,0,45,45,45,1,46,Riley,Rej,Participant_Images/6637ca249e9c662fac63cfcb/6637ca249e9c662fac63cfcb_Images/6637ca249e9c662fac63cfcb_Image_25.jpeg,liked,4.456234322,,,,,,,,,,,,,,,,,,,,,,
,,6637ca249e9c662fac63cfcb,6685aa9113c938e83b4f1ea0,6709a28cf586e96a65a71684,2024-10-11_18h11.48.458,WTP_SM_Choice,2022.2.1,Win32,59.52380952,,,,,space,2.0547,NAN,,NAN,1.28,4.72,,0,46,46,46,1,47,Riley,Rej,Participant_Images/6637ca249e9c662fac63cfcb/6637ca249e9c662fac63cfcb_Images/6637ca249e9c662fac63cfcb_Image_1.jpeg,did not like,4.438512181,,,,,,,,,,,,,,,,,,,,,,
,,6637ca249e9c662fac63cfcb,6685aa9113c938e83b4f1ea0,6709a28cf586e96a65a71684,2024-10-11_18h11.48.458,WTP_SM_Choice,2022.2.1,Win32,59.52380952,,,,,space,1.1229,NAN,,NAN,1.28,4.72,,0,47,47,47,1,48,Riley,Rej,Participant_Images/6637ca249e9c662fac63cfcb/6637ca249e9c662fac63cfcb_Images/6637ca249e9c662fac63cfcb_Image_23.jpeg,did not like,2.682944783,,,,,,,,,,,,,,,,,,,,,,
,,6637ca249e9c662fac63cfcb,6685aa9113c938e83b4f1ea0,6709a28cf586e96a65a71684,2024-10-11_18h11.48.458,WTP_SM_Choice,2022.2.1,Win32,59.52380952,,,,,space,1.0225,NAN,,NAN,1.28,4.72,,0,48,48,48,1,49,Riley,Rej,Participant_Images/6637ca249e9c662fac63cfcb/6637ca249e9c662fac63cfcb_Images/6637ca249e9c662fac63cfcb_Image_3.jpeg,liked,4.51984296,,,,,,,,,,,,,,,,,,,,,,
,,6637ca249e9c662fac63cfcb,6685aa9113c938e83b4f1ea0,6709a28cf586e96a65a71684,2024-10-11_18h11.48.458,WTP_SM_Choice,2022.2.1,Win32,59.52380952,,,,,,,,,,,,,,,,,,46,,,,,,space,5.6409,space,0.842,0.01,1,2.1065,0,0,0,0,1,make a pretty big dinner ,going to an arcade or bar with close friends,0.01,0.05,8.8,1,,,,
,,6637ca249e9c662fac63cfcb,6685aa9113c938e83b4f1ea0,6709a28cf586e96a65a71684,2024-10-11_18h11.48.458,WTP_SM_Choice,2022.2.1,Win32,59.52380952,,,,,,,,,,,,,,,,,,47,,,,,,,,,,0.02,1,1.662,0,1,1,1,1,going on long roadtrips with my wife,read my books,0.02,0.05,1.1,0,,,,
,,6637ca249e9c662fac63cfcb,6685aa9113c938e83b4f1ea0,6709a28cf586e96a65a71684,2024-10-11_18h11.48.458,WTP_SM_Choice,2022.2.1,Win32,59.52380952,,,,,,,,,,,,,,,,,,48,,,,,,,,,,0.03,1,4.2005,0,2,2,2,1,Not talk to anyone at work,talk with wife,0.03,0.05,4.4,1,,,,
,,6637ca249e9c662fac63cfcb,6685aa9113c938e83b4f1ea0,6709a28cf586e96a65a71684,2024-10-11_18h11.48.458,WTP_SM_Choice,2022.2.1,Win32,59.52380952,,,,,,,,,,,,,,,,,,49,,,,,,,,,,0.04,1,3.1007,0,3,3,3,1,playing some sport with my friend group,play with my dog,0.04,0.05,3.3,0,,,,
,,6637ca249e9c662fac63cfcb,6685aa9113c938e83b4f1ea0,6709a28cf586e96a65a71684,2024-10-11_18h11.48.458,WTP_SM_Choice,2022.2.1,Win32,59.52380952,,,,,,,,,,,,,,,,,,50,,,,,,,,,,0.05,2,3.7761,0,4,4,4,1,lay down doing nothing,making fun of a tv show together with my wife,0.05,0.05,1.1,1,,,,
,,6637ca249e9c662fac63cfcb,6685aa9113c938e83b4f1ea0,6709a28cf586e96a65a71684,2024-10-11_18h11.48.458,WTP_SM_Choice,2022.2.1,Win32,59.52380952,,,,,,,3,,6,1.43,4.57,,0,49,49,49,1,50,Riley,Rej,Participant_Images/6637ca249e9c662fac63cfcb/6637ca249e9c662fac63cfcb_Images/6637ca249e9c662fac63cfcb_Image_5.jpeg,did not like,3.195382774,,,,,,,,,,,,,,,,,,,space,4.6818,,
,,6637ca249e9c662fac63cfcb,6685aa9113c938e83b4f1ea0,6709a28cf586e96a65a71684,2024-10-11_18h11.48.458,WTP_SM_Choice,2022.2.1,Win32,59.52380952,,,space,5.0318,space,3.7366,NAN,,NAN,1.43,4.57,,0,50,50,50,1,51,Sam,Rej,Participant_Images/6637ca249e9c662fac63cfcb/6637ca249e9c662fac63cfcb_Images/6637ca249e9c662fac63cfcb_Image_9.jpeg,did not like,1.779333479,,,,,,,,,,,,,,,,,,,,,,
,,6637ca249e9c662fac63cfcb,6685aa9113c938e83b4f1ea0,6709a28cf586e96a65a71684,2024-10-11_18h11.48.458,WTP_SM_Choice,2022.2.1,Win32,59.52380952,,,,,space,5.9592,NAN,,NAN,1.43,4.57,,0,51,51,51,1,52,Sam,Rej,Participant_Images/6637ca249e9c662fac63cfcb/6637ca249e9c662fac63cfcb_Images/6637ca249e9c662fac63cfcb_Image_20.jpeg,did not like,4.312468682,,,,,,,,,,,,,,,,,,,,,,
,,6637ca249e9c662fac63cfcb,6685aa9113c938e83b4f1ea0,6709a28cf586e96a65a71684,2024-10-11_18h11.48.458,WTP_SM_Choice,2022.2.1,Win32,59.52380952,,,,,space,1.9993,NAN,,NAN,1.43,4.57,,0,52,52,52,1,53,Sam,Rej,Participant_Images/6637ca249e9c662fac63cfcb/6637ca249e9c662fac63cfcb_Images/6637ca249e9c662fac63cfcb_Image_7.jpeg,did not like,4.940433059,,,,,,,,,,,,,,,,,,,,,,
,,6637ca249e9c662fac63cfcb,6685aa9113c938e83b4f1ea0,6709a28cf586e96a65a71684,2024-10-11_18h11.48.458,WTP_SM_Choice,2022.2.1,Win32,59.52380952,,,,,space,4.2316,NAN,,NAN,1.43,4.57,,0,53,53,53,1,54,Sam,Rej,Participant_Images/6637ca249e9c662fac63cfcb/6637ca249e9c662fac63cfcb_Images/6637ca249e9c662fac63cfcb_Image_18.jpeg,did not like,2.7105123,,,,,,,,,,,,,,,,,,,,,,
,,6637ca249e9c662fac63cfcb,6685aa9113c938e83b4f1ea0,6709a28cf586e96a65a71684,2024-10-11_18h11.48.458,WTP_SM_Choice,2022.2.1,Win32,59.52380952,,,,,,,,,,,,,,,,,,51,,,,,,space,2.3322,space,1.6843,0.01,1,1.9057,0,0,0,0,1,going bowling with friends,sleep,0.01,0.01,1.1,0,,,,
,,6637ca249e9c662fac63cfcb,6685aa9113c938e83b4f1ea0,6709a28cf586e96a65a71684,2024-10-11_18h11.48.458,WTP_SM_Choice,2022.2.1,Win32,59.52380952,,,,,,,,,,,,,,,,,,52,,,,,,,,,,0.02,1,2.1438,0,1,1,1,1,read my books,making fun of a tv show together with my wife,0.02,0.01,3.3,1,,,,
,,6637ca249e9c662fac63cfcb,6685aa9113c938e83b4f1ea0,6709a28cf586e96a65a71684,2024-10-11_18h11.48.458,WTP_SM_Choice,2022.2.1,Win32,59.52380952,,,,,,,,,,,,,,,,,,53,,,,,,,,,,0.01,2,1.5494,0,2,2,2,1,playing cards with friends,sleep,0.03,0.01,1.1,0,,,,
,,6637ca249e9c662fac63cfcb,6685aa9113c938e83b4f1ea0,6709a28cf586e96a65a71684,2024-10-11_18h11.48.458,WTP_SM_Choice,2022.2.1,Win32,59.52380952,,,,,,,,,,,,,,,,,,54,,,,,,,,,,0.01,2,2.8726,0,3,3,3,1,making fun of a tv show together with my wife,fix things around the house,0.04,0.01,4.4,0,,,,
,,6637ca249e9c662fac63cfcb,6685aa9113c938e83b4f1ea0,6709a28cf586e96a65a71684,2024-10-11_18h11.48.458,WTP_SM_Choice,2022.2.1,Win32,59.52380952,,,,,,,,,,,,,,,,,,55,,,,,,,,,,0.01,2,2.9835,0,4,4,4,1,Not talk to anyone at work,going bowling with friends,0.05,0.01,1.1,1,,,,
,,6637ca249e9c662fac63cfcb,6685aa9113c938e83b4f1ea0,6709a28cf586e96a65a71684,2024-10-11_18h11.48.458,WTP_SM_Choice,2022.2.1,Win32,59.52380952,,,,,,,NAN,,NAN,1.49,4.51,,0,54,54,54,1,55,Sam,Rej,Participant_Images/6637ca249e9c662fac63cfcb/6637ca249e9c662fac63cfcb_Images/6637ca249e9c662fac63cfcb_Image_12.jpeg,did not like,3.602308302,,,,,,,,,,,,,,,,,,,,,,
,,6637ca249e9c662fac63cfcb,6685aa9113c938e83b4f1ea0,6709a28cf586e96a65a71684,2024-10-11_18h11.48.458,WTP_SM_Choice,2022.2.1,Win32,59.52380952,,,,,space,1.2225,NAN,,NAN,1.49,4.51,,0,55,55,55,1,56,Sam,Rej,Participant_Images/6637ca249e9c662fac63cfcb/6637ca249e9c662fac63cfcb_Images/6637ca249e9c662fac63cfcb_Image_10.jpeg,did not like,4.106391878,,,,,,,,,,,,,,,,,,,,,,
,,6637ca249e9c662fac63cfcb,6685aa9113c938e83b4f1ea0,6709a28cf586e96a65a71684,2024-10-11_18h11.48.458,WTP_SM_Choice,2022.2.1,Win32,59.52380952,,,,,space,1.5105,NAN,,NAN,1.49,4.51,,0,56,56,56,1,57,Sam,Rej,Participant_Images/6637ca249e9c662fac63cfcb/6637ca249e9c662fac63cfcb_Images/6637ca249e9c662fac63cfcb_Image_2.jpeg,liked,3.799433026,,,,,,,,,,,,,,,,,,,,,,
,,6637ca249e9c662fac63cfcb,6685aa9113c938e83b4f1ea0,6709a28cf586e96a65a71684,2024-10-11_18h11.48.458,WTP_SM_Choice,2022.2.1,Win32,59.52380952,,,,,space,0.8494,NAN,,NAN,1.49,4.51,,0,57,57,57,1,58,Sam,Rej,Participant_Images/6637ca249e9c662fac63cfcb/6637ca249e9c662fac63cfcb_Images/6637ca249e9c662fac63cfcb_Image_23.jpeg,did not like,5.246980764,,,,,,,,,,,,,,,,,,,,,,
,,6637ca249e9c662fac63cfcb,6685aa9113c938e83b4f1ea0,6709a28cf586e96a65a71684,2024-10-11_18h11.48.458,WTP_SM_Choice,2022.2.1,Win32,59.52380952,,,,,space,2.116,NAN,,NAN,1.49,4.51,,0,58,58,58,1,59,Sam,Rej,Participant_Images/6637ca249e9c662fac63cfcb/6637ca249e9c662fac63cfcb_Images/6637ca249e9c662fac63cfcb_Image_25.jpeg,did not like,3.30081769,,,,,,,,,,,,,,,,,,,,,,
,,6637ca249e9c662fac63cfcb,6685aa9113c938e83b4f1ea0,6709a28cf586e96a65a71684,2024-10-11_18h11.48.458,WTP_SM_Choice,2022.2.1,Win32,59.52380952,,,,,,,,,,,,,,,,,,56,,,,,,space,1.6033,space,0.9271,0.01,1,1.8942,0,0,0,0,1,play with my dog,playing cards with friends,0.01,0.02,8.8,1,,,,
,,6637ca249e9c662fac63cfcb,6685aa9113c938e83b4f1ea0,6709a28cf586e96a65a71684,2024-10-11_18h11.48.458,WTP_SM_Choice,2022.2.1,Win32,59.52380952,,,,,,,,,,,,,,,,,,57,,,,,,,,,,0.02,2,1.6351,0,1,1,1,1,fix things around the house,playing cards with friends,0.02,0.02,4.4,1,,,,
,,6637ca249e9c662fac63cfcb,6685aa9113c938e83b4f1ea0,6709a28cf586e96a65a71684,2024-10-11_18h11.48.458,WTP_SM_Choice,2022.2.1,Win32,59.52380952,,,,,,,,,,,,,,,,,,58,,,,,,,,,,0.02,2,2.3104,0,2,2,2,1,sleep,watching moves together with my partner,0.03,0.02,4.4,1,,,,
,,6637ca249e9c662fac63cfcb,6685aa9113c938e83b4f1ea0,6709a28cf586e96a65a71684,2024-10-11_18h11.48.458,WTP_SM_Choice,2022.2.1,Win32,59.52380952,,,,,,,,,,,,,,,,,,59,,,,,,,,,,0.04,1,2.0997,0,3,3,3,1,Not talk to anyone at work,watching moves together with my partner,0.04,0.02,4.4,1,,,,
,,6637ca249e9c662fac63cfcb,6685aa9113c938e83b4f1ea0,6709a28cf586e96a65a71684,2024-10-11_18h11.48.458,WTP_SM_Choice,2022.2.1,Win32,59.52380952,,,,,,,,,,,,,,,,,,60,,,,,,,,,,0.02,2,1.8178,0,4,4,4,1,playing cards with friends,Not talk to anyone at work,0.05,0.02,1.1,0,,,,
,,6637ca249e9c662fac63cfcb,6685aa9113c938e83b4f1ea0,6709a28cf586e96a65a71684,2024-10-11_18h11.48.458,WTP_SM_Choice,2022.2.1,Win32,59.52380952,,,,,,,NAN,,NAN,1.6,4.4,,0,59,59,59,1,60,Sam,Rej,Participant_Images/6637ca249e9c662fac63cfcb/6637ca249e9c662fac63cfcb_Images/6637ca249e9c662fac63cfcb_Image_8.jpeg,did not like,1.661473164,,,,,,,,,,,,,,,,,,,,,,
,,6637ca249e9c662fac63cfcb,6685aa9113c938e83b4f1ea0,6709a28cf586e96a65a71684,2024-10-11_18h11.48.458,WTP_SM_Choice,2022.2.1,Win32,59.52380952,,,,,space,1.2314,NAN,,NAN,1.6,4.4,,0,60,60,60,1,61,Sam,Rej,Participant_Images/6637ca249e9c662fac63cfcb/6637ca249e9c662fac63cfcb_Images/6637ca249e9c662fac63cfcb_Image_6.jpeg,did not like,3.613205605,,,,,,,,,,,,,,,,,,,,,,
,,6637ca249e9c662fac63cfcb,6685aa9113c938e83b4f1ea0,6709a28cf586e96a65a71684,2024-10-11_18h11.48.458,WTP_SM_Choice,2022.2.1,Win32,59.52380952,,,,,space,0.7888,NAN,,NAN,1.6,4.4,,0,61,61,61,1,62,Sam,Rej,Participant_Images/6637ca249e9c662fac63cfcb/6637ca249e9c662fac63cfcb_Images/6637ca249e9c662fac63cfcb_Image_24.jpeg,liked,4.988446431,,,,,,,,,,,,,,,,,,,,,,
,,6637ca249e9c662fac63cfcb,6685aa9113c938e83b4f1ea0,6709a28cf586e96a65a71684,2024-10-11_18h11.48.458,WTP_SM_Choice,2022.2.1,Win32,59.52380952,,,,,space,1.1724,NAN,,NAN,1.6,4.4,,0,62,62,62,1,63,Sam,Rej,Participant_Images/6637ca249e9c662fac63cfcb/6637ca249e9c662fac63cfcb_Images/6637ca249e9c662fac63cfcb_Image_3.jpeg,did not like,3.470791822,,,,,,,,,,,,,,,,,,,,,,
,,6637ca249e9c662fac63cfcb,6685aa9113c938e83b4f1ea0,6709a28cf586e96a65a71684,2024-10-11_18h11.48.458,WTP_SM_Choice,2022.2.1,Win32,59.52380952,,,,,space,0.917,NAN,,NAN,1.6,4.4,,0,63,63,63,1,64,Sam,Rej,Participant_Images/6637ca249e9c662fac63cfcb/6637ca249e9c662fac63cfcb_Images/6637ca249e9c662fac63cfcb_Image_14.jpeg,liked,3.820572462,,,,,,,,,,,,,,,,,,,,,,
,,6637ca249e9c662fac63cfcb,6685aa9113c938e83b4f1ea0,6709a28cf586e96a65a71684,2024-10-11_18h11.48.458,WTP_SM_Choice,2022.2.1,Win32,59.52380952,,,,,,,,,,,,,,,,,,61,,,,,,space,1.4182,space,1.1002,0.03,2,2.4696,0,0,0,0,1,watch movies,playing some sport with my friend group,0.01,0.03,3.3,1,,,,
,,6637ca249e9c662fac63cfcb,6685aa9113c938e83b4f1ea0,6709a28cf586e96a65a71684,2024-10-11_18h11.48.458,WTP_SM_Choice,2022.2.1,Win32,59.52380952,,,,,,,,,,,,,,,,,,62,,,,,,,,,,0.02,1,3.0026,0,1,1,1,1,lay down doing nothing,playing some sport with my friend group,0.02,0.03,3.3,1,,,,
,,6637ca249e9c662fac63cfcb,6685aa9113c938e83b4f1ea0,6709a28cf586e96a65a71684,2024-10-11_18h11.48.458,WTP_SM_Choice,2022.2.1,Win32,59.52380952,,,,,,,,,,,,,,,,,,63,,,,,,,,,,0.03,2,2.2078,0,2,2,2,1,play with my dog,going bowling with friends,0.03,0.03,3.3,1,,,,
,,6637ca249e9c662fac63cfcb,6685aa9113c938e83b4f1ea0,6709a28cf586e96a65a71684,2024-10-11_18h11.48.458,WTP_SM_Choice,2022.2.1,Win32,59.52380952,,,,,,,,,,,,,,,,,,64,,,,,,,,,,0.03,2,2.4375,0,3,3,3,1,watching moves together with my partner,read my books,0.04,0.03,1.1,0,,,,
,,6637ca249e9c662fac63cfcb,6685aa9113c938e83b4f1ea0,6709a28cf586e96a65a71684,2024-10-11_18h11.48.458,WTP_SM_Choice,2022.2.1,Win32,59.52380952,,,,,,,,,,,,,,,,,,65,,,,,,,,,,0.03,2,3.0679,0,4,4,4,1,play games online with college friends,make a pretty big dinner ,0.05,0.03,1.1,0,,,,
,,6637ca249e9c662fac63cfcb,6685aa9113c938e83b4f1ea0,6709a28cf586e96a65a71684,2024-10-11_18h11.48.458,WTP_SM_Choice,2022.2.1,Win32,59.52380952,,,,,,,NAN,,NAN,1.74,4.26,,0,64,64,64,1,65,Sam,Rej,Participant_Images/6637ca249e9c662fac63cfcb/6637ca249e9c662fac63cfcb_Images/6637ca249e9c662fac63cfcb_Image_22.jpeg,did not like,2.455989137,,,,,,,,,,,,,,,,,,,,,,
,,6637ca249e9c662fac63cfcb,6685aa9113c938e83b4f1ea0,6709a28cf586e96a65a71684,2024-10-11_18h11.48.458,WTP_SM_Choice,2022.2.1,Win32,59.52380952,,,,,space,3.0281,NAN,,NAN,1.74,4.26,,0,65,65,65,1,66,Sam,Rej,Participant_Images/6637ca249e9c662fac63cfcb/6637ca249e9c662fac63cfcb_Images/6637ca249e9c662fac63cfcb_Image_11.jpeg,did not like,3.79605092,,,,,,,,,,,,,,,,,,,,,,
,,6637ca249e9c662fac63cfcb,6685aa9113c938e83b4f1ea0,6709a28cf586e96a65a71684,2024-10-11_18h11.48.458,WTP_SM_Choice,2022.2.1,Win32,59.52380952,,,,,space,0.6169,NAN,,NAN,1.74,4.26,,0,66,66,66,1,67,Sam,Rej,Participant_Images/6637ca249e9c662fac63cfcb/6637ca249e9c662fac63cfcb_Images/6637ca249e9c662fac63cfcb_Image_1.jpeg,liked,3.562416326,,,,,,,,,,,,,,,,,,,,,,
,,6637ca249e9c662fac63cfcb,6685aa9113c938e83b4f1ea0,6709a28cf586e96a65a71684,2024-10-11_18h11.48.458,WTP_SM_Choice,2022.2.1,Win32,59.52380952,,,,,space,1.4526,NAN,,NAN,1.74,4.26,,0,67,67,67,1,68,Sam,Rej,Participant_Images/6637ca249e9c662fac63cfcb/6637ca249e9c662fac63cfcb_Images/6637ca249e9c662fac63cfcb_Image_16.jpeg,did not like,2.843822497,,,,,,,,,,,,,,,,,,,,,,
,,6637ca249e9c662fac63cfcb,6685aa9113c938e83b4f1ea0,6709a28cf586e96a65a71684,2024-10-11_18h11.48.458,WTP_SM_Choice,2022.2.1,Win32,59.52380952,,,,,space,0.8758,NAN,,NAN,1.74,4.26,,0,68,68,68,1,69,Sam,Rej,Participant_Images/6637ca249e9c662fac63cfcb/6637ca249e9c662fac63cfcb_Images/6637ca249e9c662fac63cfcb_Image_13.jpeg,liked,3.546495948,,,,,,,,,,,,,,,,,,,,,,
,,6637ca249e9c662fac63cfcb,6685aa9113c938e83b4f1ea0,6709a28cf586e96a65a71684,2024-10-11_18h11.48.458,WTP_SM_Choice,2022.2.1,Win32,59.52380952,,,,,,,,,,,,,,,,,,66,,,,,,space,1.7867,space,0.7713,0.01,1,2.1568,0,0,0,0,1,playing cards with friends,lay down doing nothing,0.01,0.04,1.1,0,,,,
,,6637ca249e9c662fac63cfcb,6685aa9113c938e83b4f1ea0,6709a28cf586e96a65a71684,2024-10-11_18h11.48.458,WTP_SM_Choice,2022.2.1,Win32,59.52380952,,,,,,,,,,,,,,,,,,67,,,,,,,,,,0.04,2,1.7051,0,1,1,1,1,talk with wife,play with my dog,0.02,0.04,8.8,0,,,,
,,6637ca249e9c662fac63cfcb,6685aa9113c938e83b4f1ea0,6709a28cf586e96a65a71684,2024-10-11_18h11.48.458,WTP_SM_Choice,2022.2.1,Win32,59.52380952,,,,,,,,,,,,,,,,,,68,,,,,,,,,,0.03,1,3.7163,0,2,2,2,1,watching moves together with my partner,have time when i get home to do whatever i want without being bothered,0.03,0.04,4.4,0,,,,
,,6637ca249e9c662fac63cfcb,6685aa9113c938e83b4f1ea0,6709a28cf586e96a65a71684,2024-10-11_18h11.48.458,WTP_SM_Choice,2022.2.1,Win32,59.52380952,,,,,,,,,,,,,,,,,,69,,,,,,,,,,0.04,2,3.5945,0,3,3,3,1,making fun of a tv show together with my wife,make a pretty big dinner ,0.04,0.04,1.1,0,,,,
,,6637ca249e9c662fac63cfcb,6685aa9113c938e83b4f1ea0,6709a28cf586e96a65a71684,2024-10-11_18h11.48.458,WTP_SM_Choice,2022.2.1,Win32,59.52380952,,,,,,,,,,,,,,,,,,70,,,,,,,,,,0.04,2,5.7662,0,4,4,4,1,going bowling with friends,make a pretty big dinner ,0.05,0.04,1.1,0,,,,
,,6637ca249e9c662fac63cfcb,6685aa9113c938e83b4f1ea0,6709a28cf586e96a65a71684,2024-10-11_18h11.48.458,WTP_SM_Choice,2022.2.1,Win32,59.52380952,,,,,,,NAN,,NAN,1.9,4.1,,0,69,69,69,1,70,Sam,Rej,Participant_Images/6637ca249e9c662fac63cfcb/6637ca249e9c662fac63cfcb_Images/6637ca249e9c662fac63cfcb_Image_5.jpeg,did not like,1.672012706,,,,,,,,,,,,,,,,,,,,,,
,,6637ca249e9c662fac63cfcb,6685aa9113c938e83b4f1ea0,6709a28cf586e96a65a71684,2024-10-11_18h11.48.458,WTP_SM_Choice,2022.2.1,Win32,59.52380952,,,,,space,0.9054,NAN,,NAN,1.9,4.1,,0,70,70,70,1,71,Sam,Rej,Participant_Images/6637ca249e9c662fac63cfcb/6637ca249e9c662fac63cfcb_Images/6637ca249e9c662fac63cfcb_Image_15.jpeg,did not like,4.942172136,,,,,,,,,,,,,,,,,,,,,,
,,6637ca249e9c662fac63cfcb,6685aa9113c938e83b4f1ea0,6709a28cf586e96a65a71684,2024-10-11_18h11.48.458,WTP_SM_Choice,2022.2.1,Win32,59.52380952,,,,,space,1.335,NAN,,NAN,1.9,4.1,,0,71,71,71,1,72,Sam,Rej,Participant_Images/6637ca249e9c662fac63cfcb/6637ca249e9c662fac63cfcb_Images/6637ca249e9c662fac63cfcb_Image_17.jpeg,did not like,2.50187214,,,,,,,,,,,,,,,,,,,,,,
,,6637ca249e9c662fac63cfcb,6685aa9113c938e83b4f1ea0,6709a28cf586e96a65a71684,2024-10-11_18h11.48.458,WTP_SM_Choice,2022.2.1,Win32,59.52380952,,,,,space,0.5494,NAN,,NAN,1.9,4.1,,0,72,72,72,1,73,Sam,Rej,Participant_Images/6637ca249e9c662fac63cfcb/6637ca249e9c662fac63cfcb_Images/6637ca249e9c662fac63cfcb_Image_4.jpeg,liked,2.071164779,,,,,,,,,,,,,,,,,,,,,,
,,6637ca249e9c662fac63cfcb,6685aa9113c938e83b4f1ea0,6709a28cf586e96a65a71684,2024-10-11_18h11.48.458,WTP_SM_Choice,2022.2.1,Win32,59.52380952,,,,,space,1.2043,NAN,,NAN,1.9,4.1,,0,73,73,73,1,74,Sam,Rej,Participant_Images/6637ca249e9c662fac63cfcb/6637ca249e9c662fac63cfcb_Images/6637ca249e9c662fac63cfcb_Image_19.jpeg,liked,5.336503566,,,,,,,,,,,,,,,,,,,,,,
,,6637ca249e9c662fac63cfcb,6685aa9113c938e83b4f1ea0,6709a28cf586e96a65a71684,2024-10-11_18h11.48.458,WTP_SM_Choice,2022.2.1,Win32,59.52380952,,,,,,,,,,,,,,,,,,71,,,,,,space,2.6843,space,1.1591,0.01,1,1.8782,0,0,0,0,1,play games online with college friends,sleep,0.01,0.05,3.3,0,,,,
,,6637ca249e9c662fac63cfcb,6685aa9113c938e83b4f1ea0,6709a28cf586e96a65a71684,2024-10-11_18h11.48.458,WTP_SM_Choice,2022.2.1,Win32,59.52380952,,,,,,,,,,,,,,,,,,72,,,,,,,,,,0.02,1,2.4371,0,1,1,1,1,play games online with college friends,Go on a walk,0.02,0.05,8.8,0,,,,
,,6637ca249e9c662fac63cfcb,6685aa9113c938e83b4f1ea0,6709a28cf586e96a65a71684,2024-10-11_18h11.48.458,WTP_SM_Choice,2022.2.1,Win32,59.52380952,,,,,,,,,,,,,,,,,,73,,,,,,,,,,0.05,2,2.7426,0,2,2,2,1,talk with wife,lay down doing nothing,0.03,0.05,3.3,0,,,,
,,6637ca249e9c662fac63cfcb,6685aa9113c938e83b4f1ea0,6709a28cf586e96a65a71684,2024-10-11_18h11.48.458,WTP_SM_Choice,2022.2.1,Win32,59.52380952,,,,,,,,,,,,,,,,,,74,,,,,,,,,,0.04,1,4.0501,0,3,3,3,1,playing some sport with my friend group,have time when i get home to do whatever i want without being bothered,0.04,0.05,4.4,0,,,,
,,6637ca249e9c662fac63cfcb,6685aa9113c938e83b4f1ea0,6709a28cf586e96a65a71684,2024-10-11_18h11.48.458,WTP_SM_Choice,2022.2.1,Win32,59.52380952,,,,,,,,,,,,,,,,,,75,,,,,,,,,,0.05,1,3.9185,0,4,4,4,1,make a pretty big dinner ,watching moves together with my partner,0.05,0.05,3.3,1,,,,
,,6637ca249e9c662fac63cfcb,6685aa9113c938e83b4f1ea0,6709a28cf586e96a65a71684,2024-10-11_18h11.48.458,WTP_SM_Choice,2022.2.1,Win32,59.52380952,,,,,,,2,,7,2.07,3.93,,0,74,74,74,1,75,Sam,Rej,Participant_Images/6637ca249e9c662fac63cfcb/6637ca249e9c662fac63cfcb_Images/6637ca249e9c662fac63cfcb_Image_21.jpeg,did not like,2.642157193,,,,,,,,,,,,,,,,,,,space,1.5428,,
,,6637ca249e9c662fac63cfcb,6685aa9113c938e83b4f1ea0,6709a28cf586e96a65a71684,2024-10-11_18h11.48.458,WTP_SM_Choice,2022.2.1,Win32,59.52380952,,,space,1.6181,space,1.1016,NAN,,NAN,2.07,3.93,,0,75,75,75,1,76,Alex,Acc,Participant_Images/6637ca249e9c662fac63cfcb/6637ca249e9c662fac63cfcb_Images/6637ca249e9c662fac63cfcb_Image_7.jpeg,did not like,4.456234322,,,,,,,,,,,,,,,,,,,,,,
,,6637ca249e9c662fac63cfcb,6685aa9113c938e83b4f1ea0,6709a28cf586e96a65a71684,2024-10-11_18h11.48.458,WTP_SM_Choice,2022.2.1,Win32,59.52380952,,,,,space,1.0833,NAN,,NAN,2.07,3.93,,0,76,76,76,1,77,Alex,Acc,Participant_Images/6637ca249e9c662fac63cfcb/6637ca249e9c662fac63cfcb_Images/6637ca249e9c662fac63cfcb_Image_23.jpeg,liked,4.438512181,,,,,,,,,,,,,,,,,,,,,,
,,6637ca249e9c662fac63cfcb,6685aa9113c938e83b4f1ea0,6709a28cf586e96a65a71684,2024-10-11_18h11.48.458,WTP_SM_Choice,2022.2.1,Win32,59.52380952,,,,,space,1.4164,NAN,,NAN,2.07,3.93,,0,77,77,77,1,78,Alex,Acc,Participant_Images/6637ca249e9c662fac63cfcb/6637ca249e9c662fac63cfcb_Images/6637ca249e9c662fac63cfcb_Image_5.jpeg,liked,2.682944783,,,,,,,,,,,,,,,,,,,,,,
,,6637ca249e9c662fac63cfcb,6685aa9113c938e83b4f1ea0,6709a28cf586e96a65a71684,2024-10-11_18h11.48.458,WTP_SM_Choice,2022.2.1,Win32,59.52380952,,,,,space,0.6574,NAN,,NAN,2.07,3.93,,0,78,78,78,1,79,Alex,Acc,Participant_Images/6637ca249e9c662fac63cfcb/6637ca249e9c662fac63cfcb_Images/6637ca249e9c662fac63cfcb_Image_10.jpeg,did not like,4.51984296,,,,,,,,,,,,,,,,,,,,,,
,,6637ca249e9c662fac63cfcb,6685aa9113c938e83b4f1ea0,6709a28cf586e96a65a71684,2024-10-11_18h11.48.458,WTP_SM_Choice,2022.2.1,Win32,59.52380952,,,,,,,,,,,,,,,,,,76,,,,,,space,2.6512,space,1.3925,0.01,2,2.569,0,0,0,0,1,going to an arcade or bar with close friends,fix things around the house,0.01,0.01,1.1,0,,,,
,,6637ca249e9c662fac63cfcb,6685aa9113c938e83b4f1ea0,6709a28cf586e96a65a71684,2024-10-11_18h11.48.458,WTP_SM_Choice,2022.2.1,Win32,59.52380952,,,,,,,,,,,,,,,,,,77,,,,,,,,,,0.02,1,2.7287,0,1,1,1,1,read my books,going to an arcade or bar with close friends,0.02,0.01,8.8,1,,,,
,,6637ca249e9c662fac63cfcb,6685aa9113c938e83b4f1ea0,6709a28cf586e96a65a71684,2024-10-11_18h11.48.458,WTP_SM_Choice,2022.2.1,Win32,59.52380952,,,,,,,,,,,,,,,,,,78,,,,,,,,,,0.03,1,2.5627,0,2,2,2,1,Go on a walk,going on long roadtrips with my wife,0.03,0.01,1.1,1,,,,
,,6637ca249e9c662fac63cfcb,6685aa9113c938e83b4f1ea0,6709a28cf586e96a65a71684,2024-10-11_18h11.48.458,WTP_SM_Choice,2022.2.1,Win32,59.52380952,,,,,,,,,,,,,,,,,,79,,,,,,,,,,0.01,2,3.0849,0,3,3,3,1,lay down doing nothing,play games online with college friends,0.04,0.01,1.1,1,,,,
,,6637ca249e9c662fac63cfcb,6685aa9113c938e83b4f1ea0,6709a28cf586e96a65a71684,2024-10-11_18h11.48.458,WTP_SM_Choice,2022.2.1,Win32,59.52380952,,,,,,,,,,,,,,,,,,80,,,,,,,,,,0.01,2,2.6118,0,4,4,4,1,making fun of a tv show together with my wife,Go on a walk,0.05,0.01,4.4,0,,,,
,,6637ca249e9c662fac63cfcb,6685aa9113c938e83b4f1ea0,6709a28cf586e96a65a71684,2024-10-11_18h11.48.458,WTP_SM_Choice,2022.2.1,Win32,59.52380952,,,,,,,NAN,,NAN,2.15,3.85,,0,79,79,79,1,80,Alex,Acc,Participant_Images/6637ca249e9c662fac63cfcb/6637ca249e9c662fac63cfcb_Images/6637ca249e9c662fac63cfcb_Image_4.jpeg,did not like,3.195382774,,,,,,,,,,,,,,,,,,,,,,
,,6637ca249e9c662fac63cfcb,6685aa9113c938e83b4f1ea0,6709a28cf586e96a65a71684,2024-10-11_18h11.48.458,WTP_SM_Choice,2022.2.1,Win32,59.52380952,,,,,space,0.7509,NAN,,NAN,2.15,3.85,,0,80,80,80,1,81,Alex,Acc,Participant_Images/6637ca249e9c662fac63cfcb/6637ca249e9c662fac63cfcb_Images/6637ca249e9c662fac63cfcb_Image_24.jpeg,liked,1.779333479,,,,,,,,,,,,,,,,,,,,,,
,,6637ca249e9c662fac63cfcb,6685aa9113c938e83b4f1ea0,6709a28cf586e96a65a71684,2024-10-11_18h11.48.458,WTP_SM_Choice,2022.2.1,Win32,59.52380952,,,,,space,0.9534,NAN,,NAN,2.15,3.85,,0,81,81,81,1,82,Alex,Acc,Participant_Images/6637ca249e9c662fac63cfcb/6637ca249e9c662fac63cfcb_Images/6637ca249e9c662fac63cfcb_Image_21.jpeg,liked,4.312468682,,,,,,,,,,,,,,,,,,,,,,
,,6637ca249e9c662fac63cfcb,6685aa9113c938e83b4f1ea0,6709a28cf586e96a65a71684,2024-10-11_18h11.48.458,WTP_SM_Choice,2022.2.1,Win32,59.52380952,,,,,space,0.9159,NAN,,NAN,2.15,3.85,,0,82,82,82,1,83,Alex,Acc,Participant_Images/6637ca249e9c662fac63cfcb/6637ca249e9c662fac63cfcb_Images/6637ca249e9c662fac63cfcb_Image_11.jpeg,did not like,4.940433059,,,,,,,,,,,,,,,,,,,,,,
,,6637ca249e9c662fac63cfcb,6685aa9113c938e83b4f1ea0,6709a28cf586e96a65a71684,2024-10-11_18h11.48.458,WTP_SM_Choice,2022.2.1,Win32,59.52380952,,,,,space,4.0708,NAN,,NAN,2.15,3.85,,0,83,83,83,1,84,Alex,Acc,Participant_Images/6637ca249e9c662fac63cfcb/6637ca249e9c662fac63cfcb_Images/6637ca249e9c662fac63cfcb_Image_22.jpeg,liked,2.7105123,,,,,,,,,,,,,,,,,,,,,,
,,6637ca249e9c662fac63cfcb,6685aa9113c938e83b4f1ea0,6709a28cf586e96a65a71684,2024-10-11_18h11.48.458,WTP_SM_Choice,2022.2.1,Win32,59.52380952,,,,,,,,,,,,,,,,,,81,,,,,,space,1.4777,space,1.6975,0.01,1,1.8378,0,0,0,0,1,play with my dog,play games online with college friends,0.01,0.02,3.3,1,,,,
,,6637ca249e9c662fac63cfcb,6685aa9113c938e83b4f1ea0,6709a28cf586e96a65a71684,2024-10-11_18h11.48.458,WTP_SM_Choice,2022.2.1,Win32,59.52380952,,,,,,,,,,,,,,,,,,82,,,,,,,,,,0.02,2,1.6463,0,1,1,1,1,have time when i get home to do whatever i want without being bothered,going on long roadtrips with my wife,0.02,0.02,4.4,1,,,,
,,6637ca249e9c662fac63cfcb,6685aa9113c938e83b4f1ea0,6709a28cf586e96a65a71684,2024-10-11_18h11.48.458,WTP_SM_Choice,2022.2.1,Win32,59.52380952,,,,,,,,,,,,,,,,,,83,,,,,,,,,,0.03,1,1.7258,0,2,2,2,1,sleep,making fun of a tv show together with my wife,0.03,0.02,1.1,1,,,,
,,6637ca249e9c662fac63cfcb,6685aa9113c938e83b4f1ea0,6709a28cf586e96a65a71684,2024-10-11_18h11.48.458,WTP_SM_Choice,2022.2.1,Win32,59.52380952,,,,,,,,,,,,,,,,,,84,,,,,,,,,,0.02,2,2.8675,0,3,3,3,1,going bowling with friends,read my books,0.04,0.02,3.3,0,,,,
,,6637ca249e9c662fac63cfcb,6685aa9113c938e83b4f1ea0,6709a28cf586e96a65a71684,2024-10-11_18h11.48.458,WTP_SM_Choice,2022.2.1,Win32,59.52380952,,,,,,,,,,,,,,,,,,85,,,,,,,,,,0.02,2,1.9257,0,4,4,4,1,read my books,talk with wife,0.05,0.02,3.3,1,,,,
,,6637ca249e9c662fac63cfcb,6685aa9113c938e83b4f1ea0,6709a28cf586e96a65a71684,2024-10-11_18h11.48.458,WTP_SM_Choice,2022.2.1,Win32,59.52380952,,,,,,,NAN,,NAN,2.25,3.75,,0,84,84,84,1,85,Alex,Acc,Participant_Images/6637ca249e9c662fac63cfcb/6637ca249e9c662fac63cfcb_Images/6637ca249e9c662fac63cfcb_Image_15.jpeg,liked,3.602308302,,,,,,,,,,,,,,,,,,,,,,
,,6637ca249e9c662fac63cfcb,6685aa9113c938e83b4f1ea0,6709a28cf586e96a65a71684,2024-10-11_18h11.48.458,WTP_SM_Choice,2022.2.1,Win32,59.52380952,,,,,space,1.0001,NAN,,NAN,2.25,3.75,,0,85,85,85,1,86,Alex,Acc,Participant_Images/6637ca249e9c662fac63cfcb/6637ca249e9c662fac63cfcb_Images/6637ca249e9c662fac63cfcb_Image_19.jpeg,liked,4.106391878,,,,,,,,,,,,,,,,,,,,,,
,,6637ca249e9c662fac63cfcb,6685aa9113c938e83b4f1ea0,6709a28cf586e96a65a71684,2024-10-11_18h11.48.458,WTP_SM_Choice,2022.2.1,Win32,59.52380952,,,,,space,1.1571,NAN,,NAN,2.25,3.75,,0,86,86,86,1,87,Alex,Acc,Participant_Images/6637ca249e9c662fac63cfcb/6637ca249e9c662fac63cfcb_Images/6637ca249e9c662fac63cfcb_Image_14.jpeg,liked,3.799433026,,,,,,,,,,,,,,,,,,,,,,
,,6637ca249e9c662fac63cfcb,6685aa9113c938e83b4f1ea0,6709a28cf586e96a65a71684,2024-10-11_18h11.48.458,WTP_SM_Choice,2022.2.1,Win32,59.52380952,,,,,space,1.9415,NAN,,NAN,2.25,3.75,,0,87,87,87,1,88,Alex,Acc,Participant_Images/6637ca249e9c662fac63cfcb/6637ca249e9c662fac63cfcb_Images/6637ca249e9c662fac63cfcb_Image_6.jpeg,liked,5.246980764,,,,,,,,,,,,,,,,,,,,,,
,,6637ca249e9c662fac63cfcb,6685aa9113c938e83b4f1ea0,6709a28cf586e96a65a71684,2024-10-11_18h11.48.458,WTP_SM_Choice,2022.2.1,Win32,59.52380952,,,,,space,6.3579,NAN,,NAN,2.25,3.75,,0,88,88,88,1,89,Alex,Acc,Participant_Images/6637ca249e9c662fac63cfcb/6637ca249e9c662fac63cfcb_Images/6637ca249e9c662fac63cfcb_Image_20.jpeg,liked,3.30081769,,,,,,,,,,,,,,,,,,,,,,
,,6637ca249e9c662fac63cfcb,6685aa9113c938e83b4f1ea0,6709a28cf586e96a65a71684,2024-10-11_18h11.48.458,WTP_SM_Choice,2022.2.1,Win32,59.52380952,,,,,,,,,,,,,,,,,,86,,,,,,space,3.035,space,3.3918,0.01,1,1.8084,0,0,0,0,1,talk with wife,watch movies,0.01,0.03,1.1,0,,,,
,,6637ca249e9c662fac63cfcb,6685aa9113c938e83b4f1ea0,6709a28cf586e96a65a71684,2024-10-11_18h11.48.458,WTP_SM_Choice,2022.2.1,Win32,59.52380952,,,,,,,,,,,,,,,,,,87,,,,,,,,,,0.03,2,3.4206,0,1,1,1,1,make a pretty big dinner ,playing some sport with my friend group,0.02,0.03,4.4,1,,,,
,,6637ca249e9c662fac63cfcb,6685aa9113c938e83b4f1ea0,6709a28cf586e96a65a71684,2024-10-11_18h11.48.458,WTP_SM_Choice,2022.2.1,Win32,59.52380952,,,,,,,,,,,,,,,,,,88,,,,,,,,,,0.03,2,1.4244,0,2,2,2,1,playing cards with friends,read my books,0.03,0.03,1.1,0,,,,
,,6637ca249e9c662fac63cfcb,6685aa9113c938e83b4f1ea0,6709a28cf586e96a65a71684,2024-10-11_18h11.48.458,WTP_SM_Choice,2022.2.1,Win32,59.52380952,,,,,,,,,,,,,,,,,,89,,,,,,,,,,0.03,2,3.5881,0,3,3,3,1,going on long roadtrips with my wife,fix things around the house,0.04,0.03,3.3,0,,,,
,,6637ca249e9c662fac63cfcb,6685aa9113c938e83b4f1ea0,6709a28cf586e96a65a71684,2024-10-11_18h11.48.458,WTP_SM_Choice,2022.2.1,Win32,59.52380952,,,,,,,,,,,,,,,,,,90,,,,,,,,,,0.03,2,3.4469,0,4,4,4,1,play games online with college friends,Not talk to anyone at work,0.05,0.03,8.8,0,,,,
,,6637ca249e9c662fac63cfcb,6685aa9113c938e83b4f1ea0,6709a28cf586e96a65a71684,2024-10-11_18h11.48.458,WTP_SM_Choice,2022.2.1,Win32,59.52380952,,,,,,,NAN,,NAN,2.38,3.62,,0,89,89,89,1,90,Alex,Acc,Participant_Images/6637ca249e9c662fac63cfcb/6637ca249e9c662fac63cfcb_Images/6637ca249e9c662fac63cfcb_Image_9.jpeg,liked,1.661473164,,,,,,,,,,,,,,,,,,,,,,
,,6637ca249e9c662fac63cfcb,6685aa9113c938e83b4f1ea0,6709a28cf586e96a65a71684,2024-10-11_18h11.48.458,WTP_SM_Choice,2022.2.1,Win32,59.52380952,,,,,space,0.9084,NAN,,NAN,2.38,3.62,,0,90,90,90,1,91,Alex,Acc,Participant_Images/6637ca249e9c662fac63cfcb/6637ca249e9c662fac63cfcb_Images/6637ca249e9c662fac63cfcb_Image_8.jpeg,liked,3.613205605,,,,,,,,,,,,,,,,,,,,,,
,,6637ca249e9c662fac63cfcb,6685aa9113c938e83b4f1ea0,6709a28cf586e96a65a71684,2024-10-11_18h11.48.458,WTP_SM_Choice,2022.2.1,Win32,59.52380952,,,,,space,1.71,NAN,,NAN,2.38,3.62,,0,91,91,91,1,92,Alex,Acc,Participant_Images/6637ca249e9c662fac63cfcb/6637ca249e9c662fac63cfcb_Images/6637ca249e9c662fac63cfcb_Image_18.jpeg,liked,4.988446431,,,,,,,,,,,,,,,,,,,,,,
,,6637ca249e9c662fac63cfcb,6685aa9113c938e83b4f1ea0,6709a28cf586e96a65a71684,2024-10-11_18h11.48.458,WTP_SM_Choice,2022.2.1,Win32,59.52380952,,,,,space,1.0916,NAN,,NAN,2.38,3.62,,0,92,92,92,1,93,Alex,Acc,Participant_Images/6637ca249e9c662fac63cfcb/6637ca249e9c662fac63cfcb_Images/6637ca249e9c662fac63cfcb_Image_2.jpeg,liked,3.470791822,,,,,,,,,,,,,,,,,,,,,,
,,6637ca249e9c662fac63cfcb,6685aa9113c938e83b4f1ea0,6709a28cf586e96a65a71684,2024-10-11_18h11.48.458,WTP_SM_Choice,2022.2.1,Win32,59.52380952,,,,,space,1.5731,NAN,,NAN,2.38,3.62,,0,93,93,93,1,94,Alex,Acc,Participant_Images/6637ca249e9c662fac63cfcb/6637ca249e9c662fac63cfcb_Images/6637ca249e9c662fac63cfcb_Image_16.jpeg,did not like,3.820572462,,,,,,,,,,,,,,,,,,,,,,
,,6637ca249e9c662fac63cfcb,6685aa9113c938e83b4f1ea0,6709a28cf586e96a65a71684,2024-10-11_18h11.48.458,WTP_SM_Choice,2022.2.1,Win32,59.52380952,,,,,,,,,,,,,,,,,,91,,,,,,space,1.8654,space,3.4205,0.01,1,2.5051,0,0,0,0,1,playing cards with friends,watch movies,0.01,0.04,3.3,0,,,,
,,6637ca249e9c662fac63cfcb,6685aa9113c938e83b4f1ea0,6709a28cf586e96a65a71684,2024-10-11_18h11.48.458,WTP_SM_Choice,2022.2.1,Win32,59.52380952,,,,,,,,,,,,,,,,,,92,,,,,,,,,,0.04,2,2.7242,0,1,1,1,1,making fun of a tv show together with my wife,have time when i get home to do whatever i want without being bothered,0.02,0.04,8.8,0,,,,
,,6637ca249e9c662fac63cfcb,6685aa9113c938e83b4f1ea0,6709a28cf586e96a65a71684,2024-10-11_18h11.48.458,WTP_SM_Choice,2022.2.1,Win32,59.52380952,,,,,,,,,,,,,,,,,,93,,,,,,,,,,0.03,1,2.2047,0,2,2,2,1,make a pretty big dinner ,talk with wife,0.03,0.04,1.1,1,,,,
,,6637ca249e9c662fac63cfcb,6685aa9113c938e83b4f1ea0,6709a28cf586e96a65a71684,2024-10-11_18h11.48.458,WTP_SM_Choice,2022.2.1,Win32,59.52380952,,,,,,,,,,,,,,,,,,94,,,,,,,,,,0.04,2,2.7092,0,3,3,3,1,gathering around with friends and complaining about work,Not talk to anyone at work,0.04,0.04,4.4,0,,,,
,,6637ca249e9c662fac63cfcb,6685aa9113c938e83b4f1ea0,6709a28cf586e96a65a71684,2024-10-11_18h11.48.458,WTP_SM_Choice,2022.2.1,Win32,59.52380952,,,,,,,,,,,,,,,,,,95,,,,,,,,,,0.04,2,4.4057,0,4,4,4,1,going to an arcade or bar with close friends,Not talk to anyone at work,0.05,0.04,4.4,0,,,,
,,6637ca249e9c662fac63cfcb,6685aa9113c938e83b4f1ea0,6709a28cf586e96a65a71684,2024-10-11_18h11.48.458,WTP_SM_Choice,2022.2.1,Win32,59.52380952,,,,,,,NAN,,NAN,2.54,3.46,,0,94,94,94,1,95,Alex,Acc,Participant_Images/6637ca249e9c662fac63cfcb/6637ca249e9c662fac63cfcb_Images/6637ca249e9c662fac63cfcb_Image_13.jpeg,did not like,2.455989137,,,,,,,,,,,,,,,,,,,,,,
,,6637ca249e9c662fac63cfcb,6685aa9113c938e83b4f1ea0,6709a28cf586e96a65a71684,2024-10-11_18h11.48.458,WTP_SM_Choice,2022.2.1,Win32,59.52380952,,,,,space,1.3833,NAN,,NAN,2.54,3.46,,0,95,95,95,1,96,Alex,Acc,Participant_Images/6637ca249e9c662fac63cfcb/6637ca249e9c662fac63cfcb_Images/6637ca249e9c662fac63cfcb_Image_1.jpeg,did not like,3.79605092,,,,,,,,,,,,,,,,,,,,,,
,,6637ca249e9c662fac63cfcb,6685aa9113c938e83b4f1ea0,6709a28cf586e96a65a71684,2024-10-11_18h11.48.458,WTP_SM_Choice,2022.2.1,Win32,59.52380952,,,,,space,1.1605,NAN,,NAN,2.54,3.46,,0,96,96,96,1,97,Alex,Acc,Participant_Images/6637ca249e9c662fac63cfcb/6637ca249e9c662fac63cfcb_Images/6637ca249e9c662fac63cfcb_Image_17.jpeg,liked,3.562416326,,,,,,,,,,,,,,,,,,,,,,
,,6637ca249e9c662fac63cfcb,6685aa9113c938e83b4f1ea0,6709a28cf586e96a65a71684,2024-10-11_18h11.48.458,WTP_SM_Choice,2022.2.1,Win32,59.52380952,,,,,space,1.1535,NAN,,NAN,2.54,3.46,,0,97,97,97,1,98,Alex,Acc,Participant_Images/6637ca249e9c662fac63cfcb/6637ca249e9c662fac63cfcb_Images/6637ca249e9c662fac63cfcb_Image_3.jpeg,liked,2.843822497,,,,,,,,,,,,,,,,,,,,,,
,,6637ca249e9c662fac63cfcb,6685aa9113c938e83b4f1ea0,6709a28cf586e96a65a71684,2024-10-11_18h11.48.458,WTP_SM_Choice,2022.2.1,Win32,59.52380952,,,,,space,1.2008,NAN,,NAN,2.54,3.46,,0,98,98,98,1,99,Alex,Acc,Participant_Images/6637ca249e9c662fac63cfcb/6637ca249e9c662fac63cfcb_Images/6637ca249e9c662fac63cfcb_Image_12.jpeg,liked,3.546495948,,,,,,,,,,,,,,,,,,,,,,
,,6637ca249e9c662fac63cfcb,6685aa9113c938e83b4f1ea0,6709a28cf586e96a65a71684,2024-10-11_18h11.48.458,WTP_SM_Choice,2022.2.1,Win32,59.52380952,,,,,,,,,,,,,,,,,,96,,,,,,space,2.0333,space,1.5587,0.05,2,2.8146,0,0,0,0,1,play games online with college friends,fix things around the house,0.01,0.05,3.3,0,,,,
,,6637ca249e9c662fac63cfcb,6685aa9113c938e83b4f1ea0,6709a28cf586e96a65a71684,2024-10-11_18h11.48.458,WTP_SM_Choice,2022.2.1,Win32,59.52380952,,,,,,,,,,,,,,,,,,97,,,,,,,,,,0.02,1,1.4511,0,1,1,1,1,watch movies,play games online with college friends,0.02,0.05,1.1,1,,,,
,,6637ca249e9c662fac63cfcb,6685aa9113c938e83b4f1ea0,6709a28cf586e96a65a71684,2024-10-11_18h11.48.458,WTP_SM_Choice,2022.2.1,Win32,59.52380952,,,,,,,,,,,,,,,,,,98,,,,,,,,,,0.05,2,1.5754,0,2,2,2,1,play with my dog,going on long roadtrips with my wife,0.03,0.05,1.1,1,,,,
,,6637ca249e9c662fac63cfcb,6685aa9113c938e83b4f1ea0,6709a28cf586e96a65a71684,2024-10-11_18h11.48.458,WTP_SM_Choice,2022.2.1,Win32,59.52380952,,,,,,,,,,,,,,,,,,99,,,,,,,,,,0.05,2,1.5697,0,3,3,3,1,watching moves together with my partner,watch movies,0.04,0.05,3.3,0,,,,
,,6637ca249e9c662fac63cfcb,6685aa9113c938e83b4f1ea0,6709a28cf586e96a65a71684,2024-10-11_18h11.48.458,WTP_SM_Choice,2022.2.1,Win32,59.52380952,,,,,,,,,,,,,,,,,,100,,,,,,,,,,0.05,1,1.6837,0,4,4,4,1,play with my dog,watching moves together with my partner,0.05,0.05,4.4,1,,,,
,,6637ca249e9c662fac63cfcb,6685aa9113c938e83b4f1ea0,6709a28cf586e96a65a71684,2024-10-11_18h11.48.458,WTP_SM_Choice,2022.2.1,Win32,59.52380952,,,,,,,4,,3,2.76,3.24,,0,99,99,99,1,100,Alex,Acc,Participant_Images/6637ca249e9c662fac63cfcb/6637ca249e9c662fac63cfcb_Images/6637ca249e9c662fac63cfcb_Image_25.jpeg,liked,1.672012706,,,,,,,,,,,,,,,,,,,space,2.7833,,
,,6637ca249e9c662fac63cfcb,6685aa9113c938e83b4f1ea0,6709a28cf586e96a65a71684,2024-10-11_18h11.48.458,WTP_SM_Choice,2022.2.1,Win32,59.52380952,,,,,,,,,,,,,,,,,,,,,,,,,,,,,,,,,,,,,,,,,,,,space,2.4665
