endwelcomescreen_keys.keys,endwelcomescreen_keys.rt,participant,STUDY_ID,SESSION_ID,date,expName,psychopyVersion,OS,frameRate,endinstructionscreen_keys.keys,endinstructionscreen_keys.rt,endpartnermatch_keys.keys,endpartnermatch_keys.rt,sharenextphoto_key.keys,sharenextphoto_key.rt,salience_rating,key_resp.keys,stress_level,subtract_bonus,TOTAL_TASK_BONUS,stresslevel_keypress.keys,entiretaskloop.thisRepN,entiretaskloop.thisTrialN,entiretaskloop.thisN,entiretaskloop.thisIndex,entiretaskloop.ran,TrialNumber,Partner,Condition,Photos,Feedback,FeedbackWait,WTP_ins_keys1.keys,WTP_ins_keys1.rt,WTP_ins_keys2.keys,WTP_ins_keys2.rt,decision_price,responses.keys,responses.rt,WTPTaskLoop.thisRepN,WTPTaskLoop.thisTrialN,WTPTaskLoop.thisN,WTPTaskLoop.thisIndex,WTPTaskLoop.ran,right,left,leftmoney,rightmoney,WTP_ITI,social_left,Resume_keys.keys,Resume_keys.rt,key_resp.rt,end_screen_keys.keys,end_screen_keys.rt
space,5.7654,663a7379aca69d9c20130cd1,6685aa9113c938e83b4f1ea0,671f94aba3531e1d0dd741a2,2024-10-28_09h52.25.812,WTP_SM_Choice,2022.2.1,MacIntel,59.88023952,,,,,,,,,,,,,,,,,,,,,,,,,,,,,,,,,,,,,,,,,,,,,,
,,663a7379aca69d9c20130cd1,6685aa9113c938e83b4f1ea0,671f94aba3531e1d0dd741a2,2024-10-28_09h52.25.812,WTP_SM_Choice,2022.2.1,MacIntel,59.88023952,space,13.598,,,,,,,,,,,,,,,,,,,,,,,,,,,,,,,,,,,,,,,,,,,,
,,663a7379aca69d9c20130cd1,6685aa9113c938e83b4f1ea0,671f94aba3531e1d0dd741a2,2024-10-28_09h52.25.812,WTP_SM_Choice,2022.2.1,MacIntel,59.88023952,,,space,1.9042,space,1.2351,NAN,,NAN,0,6,,0,0,0,0,1,1,Alex,Rej,Participant_Images/663a7379aca69d9c20130cd1/663a7379aca69d9c20130cd1_Images/663a7379aca69d9c20130cd1_Image_20.jpeg,liked,3.613205605,,,,,,,,,,,,,,,,,,,,,,,
,,663a7379aca69d9c20130cd1,6685aa9113c938e83b4f1ea0,671f94aba3531e1d0dd741a2,2024-10-28_09h52.25.812,WTP_SM_Choice,2022.2.1,MacIntel,59.88023952,,,,,space,1.1392,NAN,,NAN,0,6,,0,1,1,1,1,2,Alex,Rej,Participant_Images/663a7379aca69d9c20130cd1/663a7379aca69d9c20130cd1_Images/663a7379aca69d9c20130cd1_Image_1.jpeg,did not like,4.988446431,,,,,,,,,,,,,,,,,,,,,,,
,,663a7379aca69d9c20130cd1,6685aa9113c938e83b4f1ea0,671f94aba3531e1d0dd741a2,2024-10-28_09h52.25.812,WTP_SM_Choice,2022.2.1,MacIntel,59.88023952,,,,,space,1.2863,NAN,,NAN,0,6,,0,2,2,2,1,3,Alex,Rej,Participant_Images/663a7379aca69d9c20130cd1/663a7379aca69d9c20130cd1_Images/663a7379aca69d9c20130cd1_Image_16.jpeg,did not like,3.470791822,,,,,,,,,,,,,,,,,,,,,,,
,,663a7379aca69d9c20130cd1,6685aa9113c938e83b4f1ea0,671f94aba3531e1d0dd741a2,2024-10-28_09h52.25.812,WTP_SM_Choice,2022.2.1,MacIntel,59.88023952,,,,,space,0.9538,NAN,,NAN,0,6,,0,3,3,3,1,4,Alex,Rej,Participant_Images/663a7379aca69d9c20130cd1/663a7379aca69d9c20130cd1_Images/663a7379aca69d9c20130cd1_Image_25.jpeg,did not like,3.820572462,,,,,,,,,,,,,,,,,,,,,,,
,,663a7379aca69d9c20130cd1,6685aa9113c938e83b4f1ea0,671f94aba3531e1d0dd741a2,2024-10-28_09h52.25.812,WTP_SM_Choice,2022.2.1,MacIntel,59.88023952,,,,,,,,,,,,,,,,,,1,,,,,,space,16.1624,space,11.0667,0.01,2,9.5091,0,0,0,0,1,Sing and dance to music throughout the apartment without any restraint,Walk in the park with my best friend to share what has been going on in our lives,0.01,0.01,4.4,1,,,,,
,,663a7379aca69d9c20130cd1,6685aa9113c938e83b4f1ea0,671f94aba3531e1d0dd741a2,2024-10-28_09h52.25.812,WTP_SM_Choice,2022.2.1,MacIntel,59.88023952,,,,,,,,,,,,,,,,,,2,,,,,,,,,,0.01,2,6.9133,0,1,1,1,1,Cuddle on the couch  with my partner and watch a movie,Take the subway to manhattan to go to the farmers market and be around all of the diverse people in the city,0.02,0.01,8.8,0,,,,,
,,663a7379aca69d9c20130cd1,6685aa9113c938e83b4f1ea0,671f94aba3531e1d0dd741a2,2024-10-28_09h52.25.812,WTP_SM_Choice,2022.2.1,MacIntel,59.88023952,,,,,,,,,,,,,,,,,,3,,,,,,,,,,0.01,2,2.3903,0,2,2,2,1,Browse items at an antique shop with my family,Go to the park to write in my journal about my dreams and current goals,0.03,0.01,3.3,0,,,,,
,,663a7379aca69d9c20130cd1,6685aa9113c938e83b4f1ea0,671f94aba3531e1d0dd741a2,2024-10-28_09h52.25.812,WTP_SM_Choice,2022.2.1,MacIntel,59.88023952,,,,,,,,,,,,,,,,,,4,,,,,,,,,,0.04,1,3.275,0,3,3,3,1,Hike somewhere new with a friend,Go to the park to write in my journal about my dreams and current goals,0.04,0.01,1.1,0,,,,,
,,663a7379aca69d9c20130cd1,6685aa9113c938e83b4f1ea0,671f94aba3531e1d0dd741a2,2024-10-28_09h52.25.812,WTP_SM_Choice,2022.2.1,MacIntel,59.88023952,,,,,,,,,,,,,,,,,,5,,,,,,,,,,0.01,2,2.5973,0,4,4,4,1,Prep a meal as with my partner ,Go to the park to write in my journal about my dreams and current goals,0.05,0.01,1.1,0,,,,,
,,663a7379aca69d9c20130cd1,6685aa9113c938e83b4f1ea0,671f94aba3531e1d0dd741a2,2024-10-28_09h52.25.812,WTP_SM_Choice,2022.2.1,MacIntel,59.88023952,,,,,,,NAN,,NAN,0.08,5.92,,0,4,4,4,1,5,Alex,Rej,Participant_Images/663a7379aca69d9c20130cd1/663a7379aca69d9c20130cd1_Images/663a7379aca69d9c20130cd1_Image_7.jpeg,liked,2.455989137,,,,,,,,,,,,,,,,,,,,,,,
,,663a7379aca69d9c20130cd1,6685aa9113c938e83b4f1ea0,671f94aba3531e1d0dd741a2,2024-10-28_09h52.25.812,WTP_SM_Choice,2022.2.1,MacIntel,59.88023952,,,,,space,1.2328,NAN,,NAN,0.08,5.92,,0,5,5,5,1,6,Alex,Rej,Participant_Images/663a7379aca69d9c20130cd1/663a7379aca69d9c20130cd1_Images/663a7379aca69d9c20130cd1_Image_8.jpeg,did not like,3.79605092,,,,,,,,,,,,,,,,,,,,,,,
,,663a7379aca69d9c20130cd1,6685aa9113c938e83b4f1ea0,671f94aba3531e1d0dd741a2,2024-10-28_09h52.25.812,WTP_SM_Choice,2022.2.1,MacIntel,59.88023952,,,,,space,0.8337,NAN,,NAN,0.08,5.92,,0,6,6,6,1,7,Alex,Rej,Participant_Images/663a7379aca69d9c20130cd1/663a7379aca69d9c20130cd1_Images/663a7379aca69d9c20130cd1_Image_10.jpeg,did not like,3.562416326,,,,,,,,,,,,,,,,,,,,,,,
,,663a7379aca69d9c20130cd1,6685aa9113c938e83b4f1ea0,671f94aba3531e1d0dd741a2,2024-10-28_09h52.25.812,WTP_SM_Choice,2022.2.1,MacIntel,59.88023952,,,,,space,1.3843,NAN,,NAN,0.08,5.92,,0,7,7,7,1,8,Alex,Rej,Participant_Images/663a7379aca69d9c20130cd1/663a7379aca69d9c20130cd1_Images/663a7379aca69d9c20130cd1_Image_14.jpeg,liked,2.843822497,,,,,,,,,,,,,,,,,,,,,,,
,,663a7379aca69d9c20130cd1,6685aa9113c938e83b4f1ea0,671f94aba3531e1d0dd741a2,2024-10-28_09h52.25.812,WTP_SM_Choice,2022.2.1,MacIntel,59.88023952,,,,,space,0.6255,NAN,,NAN,0.08,5.92,,0,8,8,8,1,9,Alex,Rej,Participant_Images/663a7379aca69d9c20130cd1/663a7379aca69d9c20130cd1_Images/663a7379aca69d9c20130cd1_Image_6.jpeg,liked,3.546495948,,,,,,,,,,,,,,,,,,,,,,,
,,663a7379aca69d9c20130cd1,6685aa9113c938e83b4f1ea0,671f94aba3531e1d0dd741a2,2024-10-28_09h52.25.812,WTP_SM_Choice,2022.2.1,MacIntel,59.88023952,,,,,,,,,,,,,,,,,,6,,,,,,space,10.7582,space,3.7718,0.01,1,3.1725,0,0,0,0,1,Prep a meal as with my partner ,Sing and dance to music throughout the apartment without any restraint,0.01,0.02,3.3,0,,,,,
,,663a7379aca69d9c20130cd1,6685aa9113c938e83b4f1ea0,671f94aba3531e1d0dd741a2,2024-10-28_09h52.25.812,WTP_SM_Choice,2022.2.1,MacIntel,59.88023952,,,,,,,,,,,,,,,,,,7,,,,,,,,,,0.02,2,2.9221,0,1,1,1,1,Bike on a crisp fall or spring day to get out energy and discover something new in the neighborhood,Eat new foods at a local spot in the city with my partner,0.02,0.02,1.1,1,,,,,
,,663a7379aca69d9c20130cd1,6685aa9113c938e83b4f1ea0,671f94aba3531e1d0dd741a2,2024-10-28_09h52.25.812,WTP_SM_Choice,2022.2.1,MacIntel,59.88023952,,,,,,,,,,,,,,,,,,8,,,,,,,,,,0.02,2,3.9779,0,2,2,2,1,Eat new foods at a local spot in the city with my partner,Go to the park to write in my journal about my dreams and current goals,0.03,0.02,1.1,0,,,,,
,,663a7379aca69d9c20130cd1,6685aa9113c938e83b4f1ea0,671f94aba3531e1d0dd741a2,2024-10-28_09h52.25.812,WTP_SM_Choice,2022.2.1,MacIntel,59.88023952,,,,,,,,,,,,,,,,,,9,,,,,,,,,,0.04,1,3.6045,0,3,3,3,1,Prep a meal as with my partner ,Cook nutritious and seasonal foods based on how I am feeling and how the weather is outside,0.04,0.02,4.4,0,,,,,
,,663a7379aca69d9c20130cd1,6685aa9113c938e83b4f1ea0,671f94aba3531e1d0dd741a2,2024-10-28_09h52.25.812,WTP_SM_Choice,2022.2.1,MacIntel,59.88023952,,,,,,,,,,,,,,,,,,10,,,,,,,,,,0.02,2,2.2266,0,4,4,4,1,Play fetch with my partner and his dog  ,Walk to a local coffee shop and buying my favorite baked treat,0.05,0.02,1.1,0,,,,,
,,663a7379aca69d9c20130cd1,6685aa9113c938e83b4f1ea0,671f94aba3531e1d0dd741a2,2024-10-28_09h52.25.812,WTP_SM_Choice,2022.2.1,MacIntel,59.88023952,,,,,,,NAN,,NAN,0.19,5.81,,0,9,9,9,1,10,Alex,Rej,Participant_Images/663a7379aca69d9c20130cd1/663a7379aca69d9c20130cd1_Images/663a7379aca69d9c20130cd1_Image_23.jpeg,did not like,1.672012706,,,,,,,,,,,,,,,,,,,,,,,
,,663a7379aca69d9c20130cd1,6685aa9113c938e83b4f1ea0,671f94aba3531e1d0dd741a2,2024-10-28_09h52.25.812,WTP_SM_Choice,2022.2.1,MacIntel,59.88023952,,,,,space,1.0718,NAN,,NAN,0.19,5.81,,0,10,10,10,1,11,Alex,Rej,Participant_Images/663a7379aca69d9c20130cd1/663a7379aca69d9c20130cd1_Images/663a7379aca69d9c20130cd1_Image_17.jpeg,did not like,4.942172136,,,,,,,,,,,,,,,,,,,,,,,
,,663a7379aca69d9c20130cd1,6685aa9113c938e83b4f1ea0,671f94aba3531e1d0dd741a2,2024-10-28_09h52.25.812,WTP_SM_Choice,2022.2.1,MacIntel,59.88023952,,,,,space,0.8857,NAN,,NAN,0.19,5.81,,0,11,11,11,1,12,Alex,Rej,Participant_Images/663a7379aca69d9c20130cd1/663a7379aca69d9c20130cd1_Images/663a7379aca69d9c20130cd1_Image_5.jpeg,did not like,2.50187214,,,,,,,,,,,,,,,,,,,,,,,
,,663a7379aca69d9c20130cd1,6685aa9113c938e83b4f1ea0,671f94aba3531e1d0dd741a2,2024-10-28_09h52.25.812,WTP_SM_Choice,2022.2.1,MacIntel,59.88023952,,,,,space,1.0219,NAN,,NAN,0.19,5.81,,0,12,12,12,1,13,Alex,Rej,Participant_Images/663a7379aca69d9c20130cd1/663a7379aca69d9c20130cd1_Images/663a7379aca69d9c20130cd1_Image_2.jpeg,did not like,2.071164779,,,,,,,,,,,,,,,,,,,,,,,
,,663a7379aca69d9c20130cd1,6685aa9113c938e83b4f1ea0,671f94aba3531e1d0dd741a2,2024-10-28_09h52.25.812,WTP_SM_Choice,2022.2.1,MacIntel,59.88023952,,,,,space,3.8856,NAN,,NAN,0.19,5.81,,0,13,13,13,1,14,Alex,Rej,Participant_Images/663a7379aca69d9c20130cd1/663a7379aca69d9c20130cd1_Images/663a7379aca69d9c20130cd1_Image_21.jpeg,did not like,5.336503566,,,,,,,,,,,,,,,,,,,,,,,
,,663a7379aca69d9c20130cd1,6685aa9113c938e83b4f1ea0,671f94aba3531e1d0dd741a2,2024-10-28_09h52.25.812,WTP_SM_Choice,2022.2.1,MacIntel,59.88023952,,,,,,,,,,,,,,,,,,11,,,,,,space,6.4361,space,1.4337,0.01,1,3.4841,0,0,0,0,1,Play fetch with my partner and his dog  ,Smoke my medical cannabis on a sunny temperate day on my balcony with the sea breeze,0.01,0.03,3.3,0,,,,,
,,663a7379aca69d9c20130cd1,6685aa9113c938e83b4f1ea0,671f94aba3531e1d0dd741a2,2024-10-28_09h52.25.812,WTP_SM_Choice,2022.2.1,MacIntel,59.88023952,,,,,,,,,,,,,,,,,,12,,,,,,,,,,0.02,1,1.9255,0,1,1,1,1,Smoke my medical cannabis on a sunny temperate day on my balcony with the sea breeze,Walk in the park with my best friend to share what has been going on in our lives,0.02,0.03,4.4,1,,,,,
,,663a7379aca69d9c20130cd1,6685aa9113c938e83b4f1ea0,671f94aba3531e1d0dd741a2,2024-10-28_09h52.25.812,WTP_SM_Choice,2022.2.1,MacIntel,59.88023952,,,,,,,,,,,,,,,,,,13,,,,,,,,,,0.03,2,4.4102,0,2,2,2,1,Browse items at an antique shop with my family,Take the subway to manhattan to go to the farmers market and be around all of the diverse people in the city,0.03,0.03,1.1,0,,,,,
,,663a7379aca69d9c20130cd1,6685aa9113c938e83b4f1ea0,671f94aba3531e1d0dd741a2,2024-10-28_09h52.25.812,WTP_SM_Choice,2022.2.1,MacIntel,59.88023952,,,,,,,,,,,,,,,,,,14,,,,,,,,,,0.03,2,4.009,0,3,3,3,1,Walk in the park with my best friend to share what has been going on in our lives,Organize my closet by rearranging my belongings or getting rid of items I no longer use,0.04,0.03,3.3,0,,,,,
,,663a7379aca69d9c20130cd1,6685aa9113c938e83b4f1ea0,671f94aba3531e1d0dd741a2,2024-10-28_09h52.25.812,WTP_SM_Choice,2022.2.1,MacIntel,59.88023952,,,,,,,,,,,,,,,,,,15,,,,,,,,,,0.03,2,1.129,0,4,4,4,1,Take the subway to manhattan to go to the farmers market and be around all of the diverse people in the city,Eat new foods at a local spot in the city with my partner,0.05,0.03,4.4,1,,,,,
,,663a7379aca69d9c20130cd1,6685aa9113c938e83b4f1ea0,671f94aba3531e1d0dd741a2,2024-10-28_09h52.25.812,WTP_SM_Choice,2022.2.1,MacIntel,59.88023952,,,,,,,NAN,,NAN,0.31,5.69,,0,14,14,14,1,15,Alex,Rej,Participant_Images/663a7379aca69d9c20130cd1/663a7379aca69d9c20130cd1_Images/663a7379aca69d9c20130cd1_Image_13.jpeg,did not like,2.642157193,,,,,,,,,,,,,,,,,,,,,,,
,,663a7379aca69d9c20130cd1,6685aa9113c938e83b4f1ea0,671f94aba3531e1d0dd741a2,2024-10-28_09h52.25.812,WTP_SM_Choice,2022.2.1,MacIntel,59.88023952,,,,,space,0.7189,NAN,,NAN,0.31,5.69,,0,15,15,15,1,16,Alex,Rej,Participant_Images/663a7379aca69d9c20130cd1/663a7379aca69d9c20130cd1_Images/663a7379aca69d9c20130cd1_Image_12.jpeg,did not like,4.456234322,,,,,,,,,,,,,,,,,,,,,,,
,,663a7379aca69d9c20130cd1,6685aa9113c938e83b4f1ea0,671f94aba3531e1d0dd741a2,2024-10-28_09h52.25.812,WTP_SM_Choice,2022.2.1,MacIntel,59.88023952,,,,,space,10.7887,NAN,,NAN,0.31,5.69,,0,16,16,16,1,17,Alex,Rej,Participant_Images/663a7379aca69d9c20130cd1/663a7379aca69d9c20130cd1_Images/663a7379aca69d9c20130cd1_Image_18.jpeg,did not like,4.438512181,,,,,,,,,,,,,,,,,,,,,,,
,,663a7379aca69d9c20130cd1,6685aa9113c938e83b4f1ea0,671f94aba3531e1d0dd741a2,2024-10-28_09h52.25.812,WTP_SM_Choice,2022.2.1,MacIntel,59.88023952,,,,,space,6.4876,NAN,,NAN,0.31,5.69,,0,17,17,17,1,18,Alex,Rej,Participant_Images/663a7379aca69d9c20130cd1/663a7379aca69d9c20130cd1_Images/663a7379aca69d9c20130cd1_Image_9.jpeg,liked,2.682944783,,,,,,,,,,,,,,,,,,,,,,,
,,663a7379aca69d9c20130cd1,6685aa9113c938e83b4f1ea0,671f94aba3531e1d0dd741a2,2024-10-28_09h52.25.812,WTP_SM_Choice,2022.2.1,MacIntel,59.88023952,,,,,space,2.7225,NAN,,NAN,0.31,5.69,,0,18,18,18,1,19,Alex,Rej,Participant_Images/663a7379aca69d9c20130cd1/663a7379aca69d9c20130cd1_Images/663a7379aca69d9c20130cd1_Image_19.jpeg,did not like,4.51984296,,,,,,,,,,,,,,,,,,,,,,,
,,663a7379aca69d9c20130cd1,6685aa9113c938e83b4f1ea0,671f94aba3531e1d0dd741a2,2024-10-28_09h52.25.812,WTP_SM_Choice,2022.2.1,MacIntel,59.88023952,,,,,,,,,,,,,,,,,,16,,,,,,space,14.391,space,2.1543,0.01,1,2.2849,0,0,0,0,1,Go through old photos at night when to process my feelings and remember my experiences,Hike somewhere new with a friend,0.01,0.04,1.1,1,,,,,
,,663a7379aca69d9c20130cd1,6685aa9113c938e83b4f1ea0,671f94aba3531e1d0dd741a2,2024-10-28_09h52.25.812,WTP_SM_Choice,2022.2.1,MacIntel,59.88023952,,,,,,,,,,,,,,,,,,17,,,,,,,,,,0.04,2,1.3713,0,1,1,1,1,Play fetch with my partner and his dog  ,Organize my closet by rearranging my belongings or getting rid of items I no longer use,0.02,0.04,8.8,0,,,,,
,,663a7379aca69d9c20130cd1,6685aa9113c938e83b4f1ea0,671f94aba3531e1d0dd741a2,2024-10-28_09h52.25.812,WTP_SM_Choice,2022.2.1,MacIntel,59.88023952,,,,,,,,,,,,,,,,,,18,,,,,,,,,,0.03,1,1.244,0,2,2,2,1,Play fetch with my partner and his dog  ,Take the subway to manhattan to go to the farmers market and be around all of the diverse people in the city,0.03,0.04,3.3,0,,,,,
,,663a7379aca69d9c20130cd1,6685aa9113c938e83b4f1ea0,671f94aba3531e1d0dd741a2,2024-10-28_09h52.25.812,WTP_SM_Choice,2022.2.1,MacIntel,59.88023952,,,,,,,,,,,,,,,,,,19,,,,,,,,,,,,,0,3,3,3,1,Cuddle on the couch  with my partner and watch a movie,Sing and dance to music throughout the apartment without any restraint,0.04,0.04,3.3,0,,,,,
,,663a7379aca69d9c20130cd1,6685aa9113c938e83b4f1ea0,671f94aba3531e1d0dd741a2,2024-10-28_09h52.25.812,WTP_SM_Choice,2022.2.1,MacIntel,59.88023952,,,,,,,,,,,,,,,,,,20,,,,,,,,,,0.04,2,1.4535,0,4,4,4,1,Organize my closet by rearranging my belongings or getting rid of items I no longer use,Sing karaoke with my partner,0.05,0.04,1.1,1,,,,,
,,663a7379aca69d9c20130cd1,6685aa9113c938e83b4f1ea0,671f94aba3531e1d0dd741a2,2024-10-28_09h52.25.812,WTP_SM_Choice,2022.2.1,MacIntel,59.88023952,,,,,,,NAN,,NAN,0.43,5.57,,0,19,19,19,1,20,Alex,Rej,Participant_Images/663a7379aca69d9c20130cd1/663a7379aca69d9c20130cd1_Images/663a7379aca69d9c20130cd1_Image_22.jpeg,did not like,3.195382774,,,,,,,,,,,,,,,,,,,,,,,
,,663a7379aca69d9c20130cd1,6685aa9113c938e83b4f1ea0,671f94aba3531e1d0dd741a2,2024-10-28_09h52.25.812,WTP_SM_Choice,2022.2.1,MacIntel,59.88023952,,,,,space,7.9916,NAN,,NAN,0.43,5.57,,0,20,20,20,1,21,Alex,Rej,Participant_Images/663a7379aca69d9c20130cd1/663a7379aca69d9c20130cd1_Images/663a7379aca69d9c20130cd1_Image_3.jpeg,did not like,1.779333479,,,,,,,,,,,,,,,,,,,,,,,
,,663a7379aca69d9c20130cd1,6685aa9113c938e83b4f1ea0,671f94aba3531e1d0dd741a2,2024-10-28_09h52.25.812,WTP_SM_Choice,2022.2.1,MacIntel,59.88023952,,,,,space,5.5233,NAN,,NAN,0.43,5.57,,0,21,21,21,1,22,Alex,Rej,Participant_Images/663a7379aca69d9c20130cd1/663a7379aca69d9c20130cd1_Images/663a7379aca69d9c20130cd1_Image_4.jpeg,liked,4.312468682,,,,,,,,,,,,,,,,,,,,,,,
,,663a7379aca69d9c20130cd1,6685aa9113c938e83b4f1ea0,671f94aba3531e1d0dd741a2,2024-10-28_09h52.25.812,WTP_SM_Choice,2022.2.1,MacIntel,59.88023952,,,,,space,5.8185,NAN,,NAN,0.43,5.57,,0,22,22,22,1,23,Alex,Rej,Participant_Images/663a7379aca69d9c20130cd1/663a7379aca69d9c20130cd1_Images/663a7379aca69d9c20130cd1_Image_11.jpeg,liked,4.940433059,,,,,,,,,,,,,,,,,,,,,,,
,,663a7379aca69d9c20130cd1,6685aa9113c938e83b4f1ea0,671f94aba3531e1d0dd741a2,2024-10-28_09h52.25.812,WTP_SM_Choice,2022.2.1,MacIntel,59.88023952,,,,,space,7.5251,NAN,,NAN,0.43,5.57,,0,23,23,23,1,24,Alex,Rej,Participant_Images/663a7379aca69d9c20130cd1/663a7379aca69d9c20130cd1_Images/663a7379aca69d9c20130cd1_Image_24.jpeg,did not like,2.7105123,,,,,,,,,,,,,,,,,,,,,,,
,,663a7379aca69d9c20130cd1,6685aa9113c938e83b4f1ea0,671f94aba3531e1d0dd741a2,2024-10-28_09h52.25.812,WTP_SM_Choice,2022.2.1,MacIntel,59.88023952,,,,,,,,,,,,,,,,,,21,,,,,,space,3.6203,space,1.7581,0.01,1,1.2658,0,0,0,0,1,Cook nutritious and seasonal foods based on how I am feeling and how the weather is outside,Eat new foods at a local spot in the city with my partner,0.01,0.05,8.8,1,,,,,
,,663a7379aca69d9c20130cd1,6685aa9113c938e83b4f1ea0,671f94aba3531e1d0dd741a2,2024-10-28_09h52.25.812,WTP_SM_Choice,2022.2.1,MacIntel,59.88023952,,,,,,,,,,,,,,,,,,22,,,,,,,,,,0.02,1,1.4142,0,1,1,1,1,Bike on a crisp fall or spring day to get out energy and discover something new in the neighborhood,Cuddle on the couch  with my partner and watch a movie,0.02,0.05,4.4,1,,,,,
,,663a7379aca69d9c20130cd1,6685aa9113c938e83b4f1ea0,671f94aba3531e1d0dd741a2,2024-10-28_09h52.25.812,WTP_SM_Choice,2022.2.1,MacIntel,59.88023952,,,,,,,,,,,,,,,,,,23,,,,,,,,,,0.03,1,2.5983,0,2,2,2,1,Go to the park to write in my journal about my dreams and current goals,Cuddle on the couch  with my partner and watch a movie,0.03,0.05,1.1,1,,,,,
,,663a7379aca69d9c20130cd1,6685aa9113c938e83b4f1ea0,671f94aba3531e1d0dd741a2,2024-10-28_09h52.25.812,WTP_SM_Choice,2022.2.1,MacIntel,59.88023952,,,,,,,,,,,,,,,,,,24,,,,,,,,,,0.04,1,2.5556,0,3,3,3,1,Sit at the beach with my friend and enjoy the sun and the water ,Cook nutritious and seasonal foods based on how I am feeling and how the weather is outside,0.04,0.05,4.4,0,,,,,
,,663a7379aca69d9c20130cd1,6685aa9113c938e83b4f1ea0,671f94aba3531e1d0dd741a2,2024-10-28_09h52.25.812,WTP_SM_Choice,2022.2.1,MacIntel,59.88023952,,,,,,,,,,,,,,,,,,25,,,,,,,,,,0.05,1,4.2147,0,4,4,4,1,Sit at the beach with my friend and enjoy the sun and the water ,Smoke my medical cannabis on a sunny temperate day on my balcony with the sea breeze,0.05,0.05,3.3,0,,,,,
,,663a7379aca69d9c20130cd1,6685aa9113c938e83b4f1ea0,671f94aba3531e1d0dd741a2,2024-10-28_09h52.25.812,WTP_SM_Choice,2022.2.1,MacIntel,59.88023952,,,,,,,1,space,3,0.58,5.42,,0,24,24,24,1,25,Alex,Rej,Participant_Images/663a7379aca69d9c20130cd1/663a7379aca69d9c20130cd1_Images/663a7379aca69d9c20130cd1_Image_15.jpeg,did not like,3.602308302,,,,,,,,,,,,,,,,,,,space,1.8299,8.2951,,
,,663a7379aca69d9c20130cd1,6685aa9113c938e83b4f1ea0,671f94aba3531e1d0dd741a2,2024-10-28_09h52.25.812,WTP_SM_Choice,2022.2.1,MacIntel,59.88023952,,,space,5.7216,space,4.4573,NAN,,NAN,0.58,5.42,,0,25,25,25,1,26,Charlie,Acc,Participant_Images/663a7379aca69d9c20130cd1/663a7379aca69d9c20130cd1_Images/663a7379aca69d9c20130cd1_Image_15.jpeg,did not like,4.106391878,,,,,,,,,,,,,,,,,,,,,,,
,,663a7379aca69d9c20130cd1,6685aa9113c938e83b4f1ea0,671f94aba3531e1d0dd741a2,2024-10-28_09h52.25.812,WTP_SM_Choice,2022.2.1,MacIntel,59.88023952,,,,,space,2.2222,NAN,,NAN,0.58,5.42,,0,26,26,26,1,27,Charlie,Acc,Participant_Images/663a7379aca69d9c20130cd1/663a7379aca69d9c20130cd1_Images/663a7379aca69d9c20130cd1_Image_20.jpeg,liked,3.799433026,,,,,,,,,,,,,,,,,,,,,,,
,,663a7379aca69d9c20130cd1,6685aa9113c938e83b4f1ea0,671f94aba3531e1d0dd741a2,2024-10-28_09h52.25.812,WTP_SM_Choice,2022.2.1,MacIntel,59.88023952,,,,,space,6.3753,NAN,,NAN,0.58,5.42,,0,27,27,27,1,28,Charlie,Acc,Participant_Images/663a7379aca69d9c20130cd1/663a7379aca69d9c20130cd1_Images/663a7379aca69d9c20130cd1_Image_14.jpeg,did not like,5.246980764,,,,,,,,,,,,,,,,,,,,,,,
,,663a7379aca69d9c20130cd1,6685aa9113c938e83b4f1ea0,671f94aba3531e1d0dd741a2,2024-10-28_09h52.25.812,WTP_SM_Choice,2022.2.1,MacIntel,59.88023952,,,,,space,1.0385,NAN,,NAN,0.58,5.42,,0,28,28,28,1,29,Charlie,Acc,Participant_Images/663a7379aca69d9c20130cd1/663a7379aca69d9c20130cd1_Images/663a7379aca69d9c20130cd1_Image_13.jpeg,did not like,3.30081769,,,,,,,,,,,,,,,,,,,,,,,
,,663a7379aca69d9c20130cd1,6685aa9113c938e83b4f1ea0,671f94aba3531e1d0dd741a2,2024-10-28_09h52.25.812,WTP_SM_Choice,2022.2.1,MacIntel,59.88023952,,,,,,,,,,,,,,,,,,26,,,,,,space,9.6255,space,1.4514,0.01,1,2.6521,0,0,0,0,1,Walk to a local coffee shop and buying my favorite baked treat,Drive out of the city to experience nature and get fresh air with friends,0.01,0.01,4.4,1,,,,,
,,663a7379aca69d9c20130cd1,6685aa9113c938e83b4f1ea0,671f94aba3531e1d0dd741a2,2024-10-28_09h52.25.812,WTP_SM_Choice,2022.2.1,MacIntel,59.88023952,,,,,,,,,,,,,,,,,,27,,,,,,,,,,0.01,2,2.3129,0,1,1,1,1,Organize my closet by rearranging my belongings or getting rid of items I no longer use,Drive out of the city to experience nature and get fresh air with friends,0.02,0.01,3.3,1,,,,,
,,663a7379aca69d9c20130cd1,6685aa9113c938e83b4f1ea0,671f94aba3531e1d0dd741a2,2024-10-28_09h52.25.812,WTP_SM_Choice,2022.2.1,MacIntel,59.88023952,,,,,,,,,,,,,,,,,,28,,,,,,,,,,0.01,2,2.5931,0,2,2,2,1,Browse items at an antique shop with my family,Go through old photos at night when to process my feelings and remember my experiences,0.03,0.01,3.3,0,,,,,
,,663a7379aca69d9c20130cd1,6685aa9113c938e83b4f1ea0,671f94aba3531e1d0dd741a2,2024-10-28_09h52.25.812,WTP_SM_Choice,2022.2.1,MacIntel,59.88023952,,,,,,,,,,,,,,,,,,29,,,,,,,,,,0.01,2,2.0278,0,3,3,3,1,Take the subway to manhattan to go to the farmers market and be around all of the diverse people in the city,Prep a meal as with my partner ,0.04,0.01,4.4,1,,,,,
,,663a7379aca69d9c20130cd1,6685aa9113c938e83b4f1ea0,671f94aba3531e1d0dd741a2,2024-10-28_09h52.25.812,WTP_SM_Choice,2022.2.1,MacIntel,59.88023952,,,,,,,,,,,,,,,,,,30,,,,,,,,,,0.01,2,1.4556,0,4,4,4,1,Sing karaoke with my partner,Cook nutritious and seasonal foods based on how I am feeling and how the weather is outside,0.05,0.01,8.8,0,,,,,
,,663a7379aca69d9c20130cd1,6685aa9113c938e83b4f1ea0,671f94aba3531e1d0dd741a2,2024-10-28_09h52.25.812,WTP_SM_Choice,2022.2.1,MacIntel,59.88023952,,,,,,,NAN,,NAN,0.63,5.37,,0,29,29,29,1,30,Charlie,Acc,Participant_Images/663a7379aca69d9c20130cd1/663a7379aca69d9c20130cd1_Images/663a7379aca69d9c20130cd1_Image_19.jpeg,liked,1.661473164,,,,,,,,,,,,,,,,,,,,,,,
,,663a7379aca69d9c20130cd1,6685aa9113c938e83b4f1ea0,671f94aba3531e1d0dd741a2,2024-10-28_09h52.25.812,WTP_SM_Choice,2022.2.1,MacIntel,59.88023952,,,,,space,1.1477,NAN,,NAN,0.63,5.37,,0,30,30,30,1,31,Charlie,Acc,Participant_Images/663a7379aca69d9c20130cd1/663a7379aca69d9c20130cd1_Images/663a7379aca69d9c20130cd1_Image_2.jpeg,liked,3.613205605,,,,,,,,,,,,,,,,,,,,,,,
,,663a7379aca69d9c20130cd1,6685aa9113c938e83b4f1ea0,671f94aba3531e1d0dd741a2,2024-10-28_09h52.25.812,WTP_SM_Choice,2022.2.1,MacIntel,59.88023952,,,,,space,21.9265,NAN,,NAN,0.63,5.37,,0,31,31,31,1,32,Charlie,Acc,Participant_Images/663a7379aca69d9c20130cd1/663a7379aca69d9c20130cd1_Images/663a7379aca69d9c20130cd1_Image_22.jpeg,did not like,4.988446431,,,,,,,,,,,,,,,,,,,,,,,
,,663a7379aca69d9c20130cd1,6685aa9113c938e83b4f1ea0,671f94aba3531e1d0dd741a2,2024-10-28_09h52.25.812,WTP_SM_Choice,2022.2.1,MacIntel,59.88023952,,,,,space,4.7893,NAN,,NAN,0.63,5.37,,0,32,32,32,1,33,Charlie,Acc,Participant_Images/663a7379aca69d9c20130cd1/663a7379aca69d9c20130cd1_Images/663a7379aca69d9c20130cd1_Image_7.jpeg,liked,3.470791822,,,,,,,,,,,,,,,,,,,,,,,
,,663a7379aca69d9c20130cd1,6685aa9113c938e83b4f1ea0,671f94aba3531e1d0dd741a2,2024-10-28_09h52.25.812,WTP_SM_Choice,2022.2.1,MacIntel,59.88023952,,,,,space,1.3388,NAN,,NAN,0.63,5.37,,0,33,33,33,1,34,Charlie,Acc,Participant_Images/663a7379aca69d9c20130cd1/663a7379aca69d9c20130cd1_Images/663a7379aca69d9c20130cd1_Image_3.jpeg,liked,3.820572462,,,,,,,,,,,,,,,,,,,,,,,
,,663a7379aca69d9c20130cd1,6685aa9113c938e83b4f1ea0,671f94aba3531e1d0dd741a2,2024-10-28_09h52.25.812,WTP_SM_Choice,2022.2.1,MacIntel,59.88023952,,,,,,,,,,,,,,,,,,31,,,,,,space,1.0395,space,2.3042,0.01,1,1.5122,0,0,0,0,1,Go through old photos at night when to process my feelings and remember my experiences,Eat new foods at a local spot in the city with my partner,0.01,0.02,8.8,1,,,,,
,,663a7379aca69d9c20130cd1,6685aa9113c938e83b4f1ea0,671f94aba3531e1d0dd741a2,2024-10-28_09h52.25.812,WTP_SM_Choice,2022.2.1,MacIntel,59.88023952,,,,,,,,,,,,,,,,,,32,,,,,,,,,,0.02,2,4.9224,0,1,1,1,1,Hike somewhere new with a friend,Take the subway to manhattan to go to the farmers market and be around all of the diverse people in the city,0.02,0.02,1.1,0,,,,,
,,663a7379aca69d9c20130cd1,6685aa9113c938e83b4f1ea0,671f94aba3531e1d0dd741a2,2024-10-28_09h52.25.812,WTP_SM_Choice,2022.2.1,MacIntel,59.88023952,,,,,,,,,,,,,,,,,,33,,,,,,,,,,0.02,2,3.0261,0,2,2,2,1,Walk to a local coffee shop and buying my favorite baked treat,Hike somewhere new with a friend,0.03,0.02,4.4,1,,,,,
,,663a7379aca69d9c20130cd1,6685aa9113c938e83b4f1ea0,671f94aba3531e1d0dd741a2,2024-10-28_09h52.25.812,WTP_SM_Choice,2022.2.1,MacIntel,59.88023952,,,,,,,,,,,,,,,,,,34,,,,,,,,,,0.02,2,2.2587,0,3,3,3,1,Cook nutritious and seasonal foods based on how I am feeling and how the weather is outside,Play fetch with my partner and his dog  ,0.04,0.02,3.3,1,,,,,
,,663a7379aca69d9c20130cd1,6685aa9113c938e83b4f1ea0,671f94aba3531e1d0dd741a2,2024-10-28_09h52.25.812,WTP_SM_Choice,2022.2.1,MacIntel,59.88023952,,,,,,,,,,,,,,,,,,35,,,,,,,,,,0.02,2,1.3857,0,4,4,4,1,Smoke my medical cannabis on a sunny temperate day on my balcony with the sea breeze,Sing karaoke with my partner,0.05,0.02,1.1,1,,,,,
,,663a7379aca69d9c20130cd1,6685aa9113c938e83b4f1ea0,671f94aba3531e1d0dd741a2,2024-10-28_09h52.25.812,WTP_SM_Choice,2022.2.1,MacIntel,59.88023952,,,,,,,NAN,,NAN,0.72,5.28,,0,34,34,34,1,35,Charlie,Acc,Participant_Images/663a7379aca69d9c20130cd1/663a7379aca69d9c20130cd1_Images/663a7379aca69d9c20130cd1_Image_11.jpeg,liked,2.455989137,,,,,,,,,,,,,,,,,,,,,,,
,,663a7379aca69d9c20130cd1,6685aa9113c938e83b4f1ea0,671f94aba3531e1d0dd741a2,2024-10-28_09h52.25.812,WTP_SM_Choice,2022.2.1,MacIntel,59.88023952,,,,,space,1.1168,NAN,,NAN,0.72,5.28,,0,35,35,35,1,36,Charlie,Acc,Participant_Images/663a7379aca69d9c20130cd1/663a7379aca69d9c20130cd1_Images/663a7379aca69d9c20130cd1_Image_17.jpeg,did not like,3.79605092,,,,,,,,,,,,,,,,,,,,,,,
,,663a7379aca69d9c20130cd1,6685aa9113c938e83b4f1ea0,671f94aba3531e1d0dd741a2,2024-10-28_09h52.25.812,WTP_SM_Choice,2022.2.1,MacIntel,59.88023952,,,,,space,1.122,NAN,,NAN,0.72,5.28,,0,36,36,36,1,37,Charlie,Acc,Participant_Images/663a7379aca69d9c20130cd1/663a7379aca69d9c20130cd1_Images/663a7379aca69d9c20130cd1_Image_24.jpeg,liked,3.562416326,,,,,,,,,,,,,,,,,,,,,,,
,,663a7379aca69d9c20130cd1,6685aa9113c938e83b4f1ea0,671f94aba3531e1d0dd741a2,2024-10-28_09h52.25.812,WTP_SM_Choice,2022.2.1,MacIntel,59.88023952,,,,,space,3.4364,NAN,,NAN,0.72,5.28,,0,37,37,37,1,38,Charlie,Acc,Participant_Images/663a7379aca69d9c20130cd1/663a7379aca69d9c20130cd1_Images/663a7379aca69d9c20130cd1_Image_23.jpeg,liked,2.843822497,,,,,,,,,,,,,,,,,,,,,,,
,,663a7379aca69d9c20130cd1,6685aa9113c938e83b4f1ea0,671f94aba3531e1d0dd741a2,2024-10-28_09h52.25.812,WTP_SM_Choice,2022.2.1,MacIntel,59.88023952,,,,,space,1.2381,NAN,,NAN,0.72,5.28,,0,38,38,38,1,39,Charlie,Acc,Participant_Images/663a7379aca69d9c20130cd1/663a7379aca69d9c20130cd1_Images/663a7379aca69d9c20130cd1_Image_12.jpeg,liked,3.546495948,,,,,,,,,,,,,,,,,,,,,,,
,,663a7379aca69d9c20130cd1,6685aa9113c938e83b4f1ea0,671f94aba3531e1d0dd741a2,2024-10-28_09h52.25.812,WTP_SM_Choice,2022.2.1,MacIntel,59.88023952,,,,,,,,,,,,,,,,,,36,,,,,,space,1.2394,space,0.8345,0.01,1,1.1393,0,0,0,0,1,Stretch in my apartment when I first get up to help my shoulder and my joint issues,Sing karaoke with my partner,0.01,0.03,3.3,1,,,,,
,,663a7379aca69d9c20130cd1,6685aa9113c938e83b4f1ea0,671f94aba3531e1d0dd741a2,2024-10-28_09h52.25.812,WTP_SM_Choice,2022.2.1,MacIntel,59.88023952,,,,,,,,,,,,,,,,,,37,,,,,,,,,,0.02,1,1.7736,0,1,1,1,1,Bike on a crisp fall or spring day to get out energy and discover something new in the neighborhood,Prep a meal as with my partner ,0.02,0.03,1.1,1,,,,,
,,663a7379aca69d9c20130cd1,6685aa9113c938e83b4f1ea0,671f94aba3531e1d0dd741a2,2024-10-28_09h52.25.812,WTP_SM_Choice,2022.2.1,MacIntel,59.88023952,,,,,,,,,,,,,,,,,,38,,,,,,,,,,0.03,1,3.5035,0,2,2,2,1,Go to the park to write in my journal about my dreams and current goals,Sing karaoke with my partner,0.03,0.03,1.1,1,,,,,
,,663a7379aca69d9c20130cd1,6685aa9113c938e83b4f1ea0,671f94aba3531e1d0dd741a2,2024-10-28_09h52.25.812,WTP_SM_Choice,2022.2.1,MacIntel,59.88023952,,,,,,,,,,,,,,,,,,39,,,,,,,,,,0.03,2,2.3946,0,3,3,3,1,Go to the park to write in my journal about my dreams and current goals,Sit at the beach with my friend and enjoy the sun and the water ,0.04,0.03,3.3,1,,,,,
,,663a7379aca69d9c20130cd1,6685aa9113c938e83b4f1ea0,671f94aba3531e1d0dd741a2,2024-10-28_09h52.25.812,WTP_SM_Choice,2022.2.1,MacIntel,59.88023952,,,,,,,,,,,,,,,,,,40,,,,,,,,,,0.03,2,1.326,0,4,4,4,1,Organize my closet by rearranging my belongings or getting rid of items I no longer use,Browse items at an antique shop with my family,0.05,0.03,4.4,1,,,,,
,,663a7379aca69d9c20130cd1,6685aa9113c938e83b4f1ea0,671f94aba3531e1d0dd741a2,2024-10-28_09h52.25.812,WTP_SM_Choice,2022.2.1,MacIntel,59.88023952,,,,,,,NAN,,NAN,0.84,5.16,,0,39,39,39,1,40,Charlie,Acc,Participant_Images/663a7379aca69d9c20130cd1/663a7379aca69d9c20130cd1_Images/663a7379aca69d9c20130cd1_Image_18.jpeg,liked,1.672012706,,,,,,,,,,,,,,,,,,,,,,,
,,663a7379aca69d9c20130cd1,6685aa9113c938e83b4f1ea0,671f94aba3531e1d0dd741a2,2024-10-28_09h52.25.812,WTP_SM_Choice,2022.2.1,MacIntel,59.88023952,,,,,space,8.0221,NAN,,NAN,0.84,5.16,,0,40,40,40,1,41,Charlie,Acc,Participant_Images/663a7379aca69d9c20130cd1/663a7379aca69d9c20130cd1_Images/663a7379aca69d9c20130cd1_Image_1.jpeg,liked,4.942172136,,,,,,,,,,,,,,,,,,,,,,,
,,663a7379aca69d9c20130cd1,6685aa9113c938e83b4f1ea0,671f94aba3531e1d0dd741a2,2024-10-28_09h52.25.812,WTP_SM_Choice,2022.2.1,MacIntel,59.88023952,,,,,space,3.519,NAN,,NAN,0.84,5.16,,0,41,41,41,1,42,Charlie,Acc,Participant_Images/663a7379aca69d9c20130cd1/663a7379aca69d9c20130cd1_Images/663a7379aca69d9c20130cd1_Image_16.jpeg,liked,2.50187214,,,,,,,,,,,,,,,,,,,,,,,
,,663a7379aca69d9c20130cd1,6685aa9113c938e83b4f1ea0,671f94aba3531e1d0dd741a2,2024-10-28_09h52.25.812,WTP_SM_Choice,2022.2.1,MacIntel,59.88023952,,,,,space,1.5885,NAN,,NAN,0.84,5.16,,0,42,42,42,1,43,Charlie,Acc,Participant_Images/663a7379aca69d9c20130cd1/663a7379aca69d9c20130cd1_Images/663a7379aca69d9c20130cd1_Image_9.jpeg,liked,2.071164779,,,,,,,,,,,,,,,,,,,,,,,
,,663a7379aca69d9c20130cd1,6685aa9113c938e83b4f1ea0,671f94aba3531e1d0dd741a2,2024-10-28_09h52.25.812,WTP_SM_Choice,2022.2.1,MacIntel,59.88023952,,,,,space,1.6517,NAN,,NAN,0.84,5.16,,0,43,43,43,1,44,Charlie,Acc,Participant_Images/663a7379aca69d9c20130cd1/663a7379aca69d9c20130cd1_Images/663a7379aca69d9c20130cd1_Image_10.jpeg,liked,5.336503566,,,,,,,,,,,,,,,,,,,,,,,
,,663a7379aca69d9c20130cd1,6685aa9113c938e83b4f1ea0,671f94aba3531e1d0dd741a2,2024-10-28_09h52.25.812,WTP_SM_Choice,2022.2.1,MacIntel,59.88023952,,,,,,,,,,,,,,,,,,41,,,,,,space,1.83,space,0.4396,0.01,1,0.7999,0,0,0,0,1,Sing and dance to music throughout the apartment without any restraint,Drive out of the city to experience nature and get fresh air with friends,0.01,0.04,1.1,1,,,,,
,,663a7379aca69d9c20130cd1,6685aa9113c938e83b4f1ea0,671f94aba3531e1d0dd741a2,2024-10-28_09h52.25.812,WTP_SM_Choice,2022.2.1,MacIntel,59.88023952,,,,,,,,,,,,,,,,,,42,,,,,,,,,,0.02,1,1.5025,0,1,1,1,1,Walk in the park with my best friend to share what has been going on in our lives,Take the subway to manhattan to go to the farmers market and be around all of the diverse people in the city,0.02,0.04,3.3,0,,,,,
,,663a7379aca69d9c20130cd1,6685aa9113c938e83b4f1ea0,671f94aba3531e1d0dd741a2,2024-10-28_09h52.25.812,WTP_SM_Choice,2022.2.1,MacIntel,59.88023952,,,,,,,,,,,,,,,,,,43,,,,,,,,,,0.03,1,0.9075,0,2,2,2,1,Organize my closet by rearranging my belongings or getting rid of items I no longer use,Prep a meal as with my partner ,0.03,0.04,1.1,1,,,,,
,,663a7379aca69d9c20130cd1,6685aa9113c938e83b4f1ea0,671f94aba3531e1d0dd741a2,2024-10-28_09h52.25.812,WTP_SM_Choice,2022.2.1,MacIntel,59.88023952,,,,,,,,,,,,,,,,,,44,,,,,,,,,,0.04,1,2.293,0,3,3,3,1,Browse items at an antique shop with my family,Cook nutritious and seasonal foods based on how I am feeling and how the weather is outside,0.04,0.04,1.1,0,,,,,
,,663a7379aca69d9c20130cd1,6685aa9113c938e83b4f1ea0,671f94aba3531e1d0dd741a2,2024-10-28_09h52.25.812,WTP_SM_Choice,2022.2.1,MacIntel,59.88023952,,,,,,,,,,,,,,,,,,45,,,,,,,,,,0.04,2,0.9578,0,4,4,4,1,Walk to a local coffee shop and buying my favorite baked treat,Cuddle on the couch  with my partner and watch a movie,0.05,0.04,4.4,1,,,,,
,,663a7379aca69d9c20130cd1,6685aa9113c938e83b4f1ea0,671f94aba3531e1d0dd741a2,2024-10-28_09h52.25.812,WTP_SM_Choice,2022.2.1,MacIntel,59.88023952,,,,,,,NAN,,NAN,0.98,5.02,,0,44,44,44,1,45,Charlie,Acc,Participant_Images/663a7379aca69d9c20130cd1/663a7379aca69d9c20130cd1_Images/663a7379aca69d9c20130cd1_Image_8.jpeg,liked,2.642157193,,,,,,,,,,,,,,,,,,,,,,,
,,663a7379aca69d9c20130cd1,6685aa9113c938e83b4f1ea0,671f94aba3531e1d0dd741a2,2024-10-28_09h52.25.812,WTP_SM_Choice,2022.2.1,MacIntel,59.88023952,,,,,space,4.842,NAN,,NAN,0.98,5.02,,0,45,45,45,1,46,Charlie,Acc,Participant_Images/663a7379aca69d9c20130cd1/663a7379aca69d9c20130cd1_Images/663a7379aca69d9c20130cd1_Image_25.jpeg,did not like,4.456234322,,,,,,,,,,,,,,,,,,,,,,,
,,663a7379aca69d9c20130cd1,6685aa9113c938e83b4f1ea0,671f94aba3531e1d0dd741a2,2024-10-28_09h52.25.812,WTP_SM_Choice,2022.2.1,MacIntel,59.88023952,,,,,space,0.8185,NAN,,NAN,0.98,5.02,,0,46,46,46,1,47,Charlie,Acc,Participant_Images/663a7379aca69d9c20130cd1/663a7379aca69d9c20130cd1_Images/663a7379aca69d9c20130cd1_Image_4.jpeg,liked,4.438512181,,,,,,,,,,,,,,,,,,,,,,,
,,663a7379aca69d9c20130cd1,6685aa9113c938e83b4f1ea0,671f94aba3531e1d0dd741a2,2024-10-28_09h52.25.812,WTP_SM_Choice,2022.2.1,MacIntel,59.88023952,,,,,space,0.7503,NAN,,NAN,0.98,5.02,,0,47,47,47,1,48,Charlie,Acc,Participant_Images/663a7379aca69d9c20130cd1/663a7379aca69d9c20130cd1_Images/663a7379aca69d9c20130cd1_Image_5.jpeg,liked,2.682944783,,,,,,,,,,,,,,,,,,,,,,,
,,663a7379aca69d9c20130cd1,6685aa9113c938e83b4f1ea0,671f94aba3531e1d0dd741a2,2024-10-28_09h52.25.812,WTP_SM_Choice,2022.2.1,MacIntel,59.88023952,,,,,space,1.3021,NAN,,NAN,0.98,5.02,,0,48,48,48,1,49,Charlie,Acc,Participant_Images/663a7379aca69d9c20130cd1/663a7379aca69d9c20130cd1_Images/663a7379aca69d9c20130cd1_Image_6.jpeg,did not like,4.51984296,,,,,,,,,,,,,,,,,,,,,,,
,,663a7379aca69d9c20130cd1,6685aa9113c938e83b4f1ea0,671f94aba3531e1d0dd741a2,2024-10-28_09h52.25.812,WTP_SM_Choice,2022.2.1,MacIntel,59.88023952,,,,,,,,,,,,,,,,,,46,,,,,,space,2.8194,space,0.5397,0.01,1,1.3737,0,0,0,0,1,Go through old photos at night when to process my feelings and remember my experiences,Sing karaoke with my partner,0.01,0.05,8.8,1,,,,,
,,663a7379aca69d9c20130cd1,6685aa9113c938e83b4f1ea0,671f94aba3531e1d0dd741a2,2024-10-28_09h52.25.812,WTP_SM_Choice,2022.2.1,MacIntel,59.88023952,,,,,,,,,,,,,,,,,,47,,,,,,,,,,0.02,1,0.8099,0,1,1,1,1,Sing and dance to music throughout the apartment without any restraint,Play fetch with my partner and his dog  ,0.02,0.05,1.1,1,,,,,
,,663a7379aca69d9c20130cd1,6685aa9113c938e83b4f1ea0,671f94aba3531e1d0dd741a2,2024-10-28_09h52.25.812,WTP_SM_Choice,2022.2.1,MacIntel,59.88023952,,,,,,,,,,,,,,,,,,48,,,,,,,,,,0.03,1,1.1125,0,2,2,2,1,Sit at the beach with my friend and enjoy the sun and the water ,Organize my closet by rearranging my belongings or getting rid of items I no longer use,0.03,0.05,4.4,0,,,,,
,,663a7379aca69d9c20130cd1,6685aa9113c938e83b4f1ea0,671f94aba3531e1d0dd741a2,2024-10-28_09h52.25.812,WTP_SM_Choice,2022.2.1,MacIntel,59.88023952,,,,,,,,,,,,,,,,,,49,,,,,,,,,,0.04,1,0.8407,0,3,3,3,1,Sit at the beach with my friend and enjoy the sun and the water ,Go through old photos at night when to process my feelings and remember my experiences,0.04,0.05,3.3,0,,,,,
,,663a7379aca69d9c20130cd1,6685aa9113c938e83b4f1ea0,671f94aba3531e1d0dd741a2,2024-10-28_09h52.25.812,WTP_SM_Choice,2022.2.1,MacIntel,59.88023952,,,,,,,,,,,,,,,,,,50,,,,,,,,,,0.05,1,3.4759,0,4,4,4,1,Drive out of the city to experience nature and get fresh air with friends,Smoke my medical cannabis on a sunny temperate day on my balcony with the sea breeze,0.05,0.05,1.1,0,,,,,
,,663a7379aca69d9c20130cd1,6685aa9113c938e83b4f1ea0,671f94aba3531e1d0dd741a2,2024-10-28_09h52.25.812,WTP_SM_Choice,2022.2.1,MacIntel,59.88023952,,,,,,,3,,5,1.13,4.87,,0,49,49,49,1,50,Charlie,Acc,Participant_Images/663a7379aca69d9c20130cd1/663a7379aca69d9c20130cd1_Images/663a7379aca69d9c20130cd1_Image_21.jpeg,liked,3.195382774,,,,,,,,,,,,,,,,,,,space,1.9401,,,
,,663a7379aca69d9c20130cd1,6685aa9113c938e83b4f1ea0,671f94aba3531e1d0dd741a2,2024-10-28_09h52.25.812,WTP_SM_Choice,2022.2.1,MacIntel,59.88023952,,,space,1.887,space,0.7373,NAN,,NAN,1.13,4.87,,0,50,50,50,1,51,Riley,Rej,Participant_Images/663a7379aca69d9c20130cd1/663a7379aca69d9c20130cd1_Images/663a7379aca69d9c20130cd1_Image_1.jpeg,liked,1.779333479,,,,,,,,,,,,,,,,,,,,,,,
,,663a7379aca69d9c20130cd1,6685aa9113c938e83b4f1ea0,671f94aba3531e1d0dd741a2,2024-10-28_09h52.25.812,WTP_SM_Choice,2022.2.1,MacIntel,59.88023952,,,,,space,0.6177,NAN,,NAN,1.13,4.87,,0,51,51,51,1,52,Riley,Rej,Participant_Images/663a7379aca69d9c20130cd1/663a7379aca69d9c20130cd1_Images/663a7379aca69d9c20130cd1_Image_3.jpeg,liked,4.312468682,,,,,,,,,,,,,,,,,,,,,,,
,,663a7379aca69d9c20130cd1,6685aa9113c938e83b4f1ea0,671f94aba3531e1d0dd741a2,2024-10-28_09h52.25.812,WTP_SM_Choice,2022.2.1,MacIntel,59.88023952,,,,,space,3.2596,NAN,,NAN,1.13,4.87,,0,52,52,52,1,53,Riley,Rej,Participant_Images/663a7379aca69d9c20130cd1/663a7379aca69d9c20130cd1_Images/663a7379aca69d9c20130cd1_Image_9.jpeg,did not like,4.940433059,,,,,,,,,,,,,,,,,,,,,,,
,,663a7379aca69d9c20130cd1,6685aa9113c938e83b4f1ea0,671f94aba3531e1d0dd741a2,2024-10-28_09h52.25.812,WTP_SM_Choice,2022.2.1,MacIntel,59.88023952,,,,,space,3.587,NAN,,NAN,1.13,4.87,,0,53,53,53,1,54,Riley,Rej,Participant_Images/663a7379aca69d9c20130cd1/663a7379aca69d9c20130cd1_Images/663a7379aca69d9c20130cd1_Image_17.jpeg,did not like,2.7105123,,,,,,,,,,,,,,,,,,,,,,,
,,663a7379aca69d9c20130cd1,6685aa9113c938e83b4f1ea0,671f94aba3531e1d0dd741a2,2024-10-28_09h52.25.812,WTP_SM_Choice,2022.2.1,MacIntel,59.88023952,,,,,,,,,,,,,,,,,,51,,,,,,space,2.2395,space,1.3029,0.01,1,2.8556,0,0,0,0,1,Hike somewhere new with a friend,Organize my closet by rearranging my belongings or getting rid of items I no longer use,0.01,0.01,1.1,0,,,,,
,,663a7379aca69d9c20130cd1,6685aa9113c938e83b4f1ea0,671f94aba3531e1d0dd741a2,2024-10-28_09h52.25.812,WTP_SM_Choice,2022.2.1,MacIntel,59.88023952,,,,,,,,,,,,,,,,,,52,,,,,,,,,,0.01,2,1.4267,0,1,1,1,1,Hike somewhere new with a friend,Stretch in my apartment when I first get up to help my shoulder and my joint issues,0.02,0.01,3.3,0,,,,,
,,663a7379aca69d9c20130cd1,6685aa9113c938e83b4f1ea0,671f94aba3531e1d0dd741a2,2024-10-28_09h52.25.812,WTP_SM_Choice,2022.2.1,MacIntel,59.88023952,,,,,,,,,,,,,,,,,,53,,,,,,,,,,0.01,2,1.3302,0,2,2,2,1,Browse items at an antique shop with my family,Stretch in my apartment when I first get up to help my shoulder and my joint issues,0.03,0.01,1.1,0,,,,,
,,663a7379aca69d9c20130cd1,6685aa9113c938e83b4f1ea0,671f94aba3531e1d0dd741a2,2024-10-28_09h52.25.812,WTP_SM_Choice,2022.2.1,MacIntel,59.88023952,,,,,,,,,,,,,,,,,,54,,,,,,,,,,0.01,2,1.2796,0,3,3,3,1,Prep a meal as with my partner ,Stretch in my apartment when I first get up to help my shoulder and my joint issues,0.04,0.01,4.4,0,,,,,
,,663a7379aca69d9c20130cd1,6685aa9113c938e83b4f1ea0,671f94aba3531e1d0dd741a2,2024-10-28_09h52.25.812,WTP_SM_Choice,2022.2.1,MacIntel,59.88023952,,,,,,,,,,,,,,,,,,55,,,,,,,,,,0.01,2,1.2395,0,4,4,4,1,Browse items at an antique shop with my family,Smoke my medical cannabis on a sunny temperate day on my balcony with the sea breeze,0.05,0.01,1.1,0,,,,,
,,663a7379aca69d9c20130cd1,6685aa9113c938e83b4f1ea0,671f94aba3531e1d0dd741a2,2024-10-28_09h52.25.812,WTP_SM_Choice,2022.2.1,MacIntel,59.88023952,,,,,,,NAN,,NAN,1.18,4.82,,0,54,54,54,1,55,Riley,Rej,Participant_Images/663a7379aca69d9c20130cd1/663a7379aca69d9c20130cd1_Images/663a7379aca69d9c20130cd1_Image_15.jpeg,liked,3.602308302,,,,,,,,,,,,,,,,,,,,,,,
,,663a7379aca69d9c20130cd1,6685aa9113c938e83b4f1ea0,671f94aba3531e1d0dd741a2,2024-10-28_09h52.25.812,WTP_SM_Choice,2022.2.1,MacIntel,59.88023952,,,,,space,2.973,NAN,,NAN,1.18,4.82,,0,55,55,55,1,56,Riley,Rej,Participant_Images/663a7379aca69d9c20130cd1/663a7379aca69d9c20130cd1_Images/663a7379aca69d9c20130cd1_Image_25.jpeg,did not like,4.106391878,,,,,,,,,,,,,,,,,,,,,,,
,,663a7379aca69d9c20130cd1,6685aa9113c938e83b4f1ea0,671f94aba3531e1d0dd741a2,2024-10-28_09h52.25.812,WTP_SM_Choice,2022.2.1,MacIntel,59.88023952,,,,,space,0.773,NAN,,NAN,1.18,4.82,,0,56,56,56,1,57,Riley,Rej,Participant_Images/663a7379aca69d9c20130cd1/663a7379aca69d9c20130cd1_Images/663a7379aca69d9c20130cd1_Image_24.jpeg,did not like,3.799433026,,,,,,,,,,,,,,,,,,,,,,,
,,663a7379aca69d9c20130cd1,6685aa9113c938e83b4f1ea0,671f94aba3531e1d0dd741a2,2024-10-28_09h52.25.812,WTP_SM_Choice,2022.2.1,MacIntel,59.88023952,,,,,space,1.3356,NAN,,NAN,1.18,4.82,,0,57,57,57,1,58,Riley,Rej,Participant_Images/663a7379aca69d9c20130cd1/663a7379aca69d9c20130cd1_Images/663a7379aca69d9c20130cd1_Image_19.jpeg,did not like,5.246980764,,,,,,,,,,,,,,,,,,,,,,,
,,663a7379aca69d9c20130cd1,6685aa9113c938e83b4f1ea0,671f94aba3531e1d0dd741a2,2024-10-28_09h52.25.812,WTP_SM_Choice,2022.2.1,MacIntel,59.88023952,,,,,space,3.2915,NAN,,NAN,1.18,4.82,,0,58,58,58,1,59,Riley,Rej,Participant_Images/663a7379aca69d9c20130cd1/663a7379aca69d9c20130cd1_Images/663a7379aca69d9c20130cd1_Image_10.jpeg,did not like,3.30081769,,,,,,,,,,,,,,,,,,,,,,,
,,663a7379aca69d9c20130cd1,6685aa9113c938e83b4f1ea0,671f94aba3531e1d0dd741a2,2024-10-28_09h52.25.812,WTP_SM_Choice,2022.2.1,MacIntel,59.88023952,,,,,,,,,,,,,,,,,,56,,,,,,space,2.2707,space,0.4075,0.01,1,1.0012,0,0,0,0,1,Cuddle on the couch  with my partner and watch a movie,Cook nutritious and seasonal foods based on how I am feeling and how the weather is outside,0.01,0.02,8.8,0,,,,,
,,663a7379aca69d9c20130cd1,6685aa9113c938e83b4f1ea0,671f94aba3531e1d0dd741a2,2024-10-28_09h52.25.812,WTP_SM_Choice,2022.2.1,MacIntel,59.88023952,,,,,,,,,,,,,,,,,,57,,,,,,,,,,0.02,2,2.1941,0,1,1,1,1,Walk to a local coffee shop and buying my favorite baked treat,Browse items at an antique shop with my family,0.02,0.02,4.4,1,,,,,
,,663a7379aca69d9c20130cd1,6685aa9113c938e83b4f1ea0,671f94aba3531e1d0dd741a2,2024-10-28_09h52.25.812,WTP_SM_Choice,2022.2.1,MacIntel,59.88023952,,,,,,,,,,,,,,,,,,58,,,,,,,,,,0.02,2,6.1885,0,2,2,2,1,Take the subway to manhattan to go to the farmers market and be around all of the diverse people in the city,Sit at the beach with my friend and enjoy the sun and the water ,0.03,0.02,4.4,1,,,,,
,,663a7379aca69d9c20130cd1,6685aa9113c938e83b4f1ea0,671f94aba3531e1d0dd741a2,2024-10-28_09h52.25.812,WTP_SM_Choice,2022.2.1,MacIntel,59.88023952,,,,,,,,,,,,,,,,,,59,,,,,,,,,,0.02,2,2.7274,0,3,3,3,1,Browse items at an antique shop with my family,Sing and dance to music throughout the apartment without any restraint,0.04,0.02,4.4,0,,,,,
,,663a7379aca69d9c20130cd1,6685aa9113c938e83b4f1ea0,671f94aba3531e1d0dd741a2,2024-10-28_09h52.25.812,WTP_SM_Choice,2022.2.1,MacIntel,59.88023952,,,,,,,,,,,,,,,,,,60,,,,,,,,,,0.02,2,3.377,0,4,4,4,1,Sit at the beach with my friend and enjoy the sun and the water ,Bike on a crisp fall or spring day to get out energy and discover something new in the neighborhood,0.05,0.02,1.1,0,,,,,
,,663a7379aca69d9c20130cd1,6685aa9113c938e83b4f1ea0,671f94aba3531e1d0dd741a2,2024-10-28_09h52.25.812,WTP_SM_Choice,2022.2.1,MacIntel,59.88023952,,,,,,,NAN,,NAN,1.27,4.73,,0,59,59,59,1,60,Riley,Rej,Participant_Images/663a7379aca69d9c20130cd1/663a7379aca69d9c20130cd1_Images/663a7379aca69d9c20130cd1_Image_4.jpeg,did not like,1.661473164,,,,,,,,,,,,,,,,,,,,,,,
,,663a7379aca69d9c20130cd1,6685aa9113c938e83b4f1ea0,671f94aba3531e1d0dd741a2,2024-10-28_09h52.25.812,WTP_SM_Choice,2022.2.1,MacIntel,59.88023952,,,,,space,2.3177,NAN,,NAN,1.27,4.73,,0,60,60,60,1,61,Riley,Rej,Participant_Images/663a7379aca69d9c20130cd1/663a7379aca69d9c20130cd1_Images/663a7379aca69d9c20130cd1_Image_21.jpeg,liked,3.613205605,,,,,,,,,,,,,,,,,,,,,,,
,,663a7379aca69d9c20130cd1,6685aa9113c938e83b4f1ea0,671f94aba3531e1d0dd741a2,2024-10-28_09h52.25.812,WTP_SM_Choice,2022.2.1,MacIntel,59.88023952,,,,,space,1.9239,NAN,,NAN,1.27,4.73,,0,61,61,61,1,62,Riley,Rej,Participant_Images/663a7379aca69d9c20130cd1/663a7379aca69d9c20130cd1_Images/663a7379aca69d9c20130cd1_Image_5.jpeg,did not like,4.988446431,,,,,,,,,,,,,,,,,,,,,,,
,,663a7379aca69d9c20130cd1,6685aa9113c938e83b4f1ea0,671f94aba3531e1d0dd741a2,2024-10-28_09h52.25.812,WTP_SM_Choice,2022.2.1,MacIntel,59.88023952,,,,,space,7.0273,NAN,,NAN,1.27,4.73,,0,62,62,62,1,63,Riley,Rej,Participant_Images/663a7379aca69d9c20130cd1/663a7379aca69d9c20130cd1_Images/663a7379aca69d9c20130cd1_Image_23.jpeg,did not like,3.470791822,,,,,,,,,,,,,,,,,,,,,,,
,,663a7379aca69d9c20130cd1,6685aa9113c938e83b4f1ea0,671f94aba3531e1d0dd741a2,2024-10-28_09h52.25.812,WTP_SM_Choice,2022.2.1,MacIntel,59.88023952,,,,,space,3.7899,NAN,,NAN,1.27,4.73,,0,63,63,63,1,64,Riley,Rej,Participant_Images/663a7379aca69d9c20130cd1/663a7379aca69d9c20130cd1_Images/663a7379aca69d9c20130cd1_Image_18.jpeg,did not like,3.820572462,,,,,,,,,,,,,,,,,,,,,,,
,,663a7379aca69d9c20130cd1,6685aa9113c938e83b4f1ea0,671f94aba3531e1d0dd741a2,2024-10-28_09h52.25.812,WTP_SM_Choice,2022.2.1,MacIntel,59.88023952,,,,,,,,,,,,,,,,,,61,,,,,,space,6.1058,space,0.989,0.01,1,1.2406,0,0,0,0,1,Bike on a crisp fall or spring day to get out energy and discover something new in the neighborhood,Drive out of the city to experience nature and get fresh air with friends,0.01,0.03,3.3,1,,,,,
,,663a7379aca69d9c20130cd1,6685aa9113c938e83b4f1ea0,671f94aba3531e1d0dd741a2,2024-10-28_09h52.25.812,WTP_SM_Choice,2022.2.1,MacIntel,59.88023952,,,,,,,,,,,,,,,,,,62,,,,,,,,,,0.02,1,2.2374,0,1,1,1,1,Stretch in my apartment when I first get up to help my shoulder and my joint issues,Play fetch with my partner and his dog  ,0.02,0.03,3.3,1,,,,,
,,663a7379aca69d9c20130cd1,6685aa9113c938e83b4f1ea0,671f94aba3531e1d0dd741a2,2024-10-28_09h52.25.812,WTP_SM_Choice,2022.2.1,MacIntel,59.88023952,,,,,,,,,,,,,,,,,,63,,,,,,,,,,0.03,1,2.8711,0,2,2,2,1,Go to the park to write in my journal about my dreams and current goals,Drive out of the city to experience nature and get fresh air with friends,0.03,0.03,3.3,1,,,,,
,,663a7379aca69d9c20130cd1,6685aa9113c938e83b4f1ea0,671f94aba3531e1d0dd741a2,2024-10-28_09h52.25.812,WTP_SM_Choice,2022.2.1,MacIntel,59.88023952,,,,,,,,,,,,,,,,,,64,,,,,,,,,,0.03,2,2.2718,0,3,3,3,1,Prep a meal as with my partner ,Smoke my medical cannabis on a sunny temperate day on my balcony with the sea breeze,0.04,0.03,1.1,0,,,,,
,,663a7379aca69d9c20130cd1,6685aa9113c938e83b4f1ea0,671f94aba3531e1d0dd741a2,2024-10-28_09h52.25.812,WTP_SM_Choice,2022.2.1,MacIntel,59.88023952,,,,,,,,,,,,,,,,,,65,,,,,,,,,,0.03,2,4.6751,0,4,4,4,1,Eat new foods at a local spot in the city with my partner,Stretch in my apartment when I first get up to help my shoulder and my joint issues,0.05,0.03,1.1,0,,,,,
,,663a7379aca69d9c20130cd1,6685aa9113c938e83b4f1ea0,671f94aba3531e1d0dd741a2,2024-10-28_09h52.25.812,WTP_SM_Choice,2022.2.1,MacIntel,59.88023952,,,,,,,NAN,,NAN,1.39,4.61,,0,64,64,64,1,65,Riley,Rej,Participant_Images/663a7379aca69d9c20130cd1/663a7379aca69d9c20130cd1_Images/663a7379aca69d9c20130cd1_Image_6.jpeg,liked,2.455989137,,,,,,,,,,,,,,,,,,,,,,,
,,663a7379aca69d9c20130cd1,6685aa9113c938e83b4f1ea0,671f94aba3531e1d0dd741a2,2024-10-28_09h52.25.812,WTP_SM_Choice,2022.2.1,MacIntel,59.88023952,,,,,space,12.3245,NAN,,NAN,1.39,4.61,,0,65,65,65,1,66,Riley,Rej,Participant_Images/663a7379aca69d9c20130cd1/663a7379aca69d9c20130cd1_Images/663a7379aca69d9c20130cd1_Image_22.jpeg,did not like,3.79605092,,,,,,,,,,,,,,,,,,,,,,,
,,663a7379aca69d9c20130cd1,6685aa9113c938e83b4f1ea0,671f94aba3531e1d0dd741a2,2024-10-28_09h52.25.812,WTP_SM_Choice,2022.2.1,MacIntel,59.88023952,,,,,space,7.9873,NAN,,NAN,1.39,4.61,,0,66,66,66,1,67,Riley,Rej,Participant_Images/663a7379aca69d9c20130cd1/663a7379aca69d9c20130cd1_Images/663a7379aca69d9c20130cd1_Image_2.jpeg,did not like,3.562416326,,,,,,,,,,,,,,,,,,,,,,,
,,663a7379aca69d9c20130cd1,6685aa9113c938e83b4f1ea0,671f94aba3531e1d0dd741a2,2024-10-28_09h52.25.812,WTP_SM_Choice,2022.2.1,MacIntel,59.88023952,,,,,space,5.5931,NAN,,NAN,1.39,4.61,,0,67,67,67,1,68,Riley,Rej,Participant_Images/663a7379aca69d9c20130cd1/663a7379aca69d9c20130cd1_Images/663a7379aca69d9c20130cd1_Image_12.jpeg,did not like,2.843822497,,,,,,,,,,,,,,,,,,,,,,,
,,663a7379aca69d9c20130cd1,6685aa9113c938e83b4f1ea0,671f94aba3531e1d0dd741a2,2024-10-28_09h52.25.812,WTP_SM_Choice,2022.2.1,MacIntel,59.88023952,,,,,space,2.1676,NAN,,NAN,1.39,4.61,,0,68,68,68,1,69,Riley,Rej,Participant_Images/663a7379aca69d9c20130cd1/663a7379aca69d9c20130cd1_Images/663a7379aca69d9c20130cd1_Image_20.jpeg,liked,3.546495948,,,,,,,,,,,,,,,,,,,,,,,
,,663a7379aca69d9c20130cd1,6685aa9113c938e83b4f1ea0,671f94aba3531e1d0dd741a2,2024-10-28_09h52.25.812,WTP_SM_Choice,2022.2.1,MacIntel,59.88023952,,,,,,,,,,,,,,,,,,66,,,,,,space,2.3183,space,0.5215,0.01,1,1.1206,0,0,0,0,1,Sing and dance to music throughout the apartment without any restraint,Eat new foods at a local spot in the city with my partner,0.01,0.04,1.1,1,,,,,
,,663a7379aca69d9c20130cd1,6685aa9113c938e83b4f1ea0,671f94aba3531e1d0dd741a2,2024-10-28_09h52.25.812,WTP_SM_Choice,2022.2.1,MacIntel,59.88023952,,,,,,,,,,,,,,,,,,67,,,,,,,,,,0.02,1,2.1386,0,1,1,1,1,Take the subway to manhattan to go to the farmers market and be around all of the diverse people in the city,Sing karaoke with my partner,0.02,0.04,8.8,1,,,,,
,,663a7379aca69d9c20130cd1,6685aa9113c938e83b4f1ea0,671f94aba3531e1d0dd741a2,2024-10-28_09h52.25.812,WTP_SM_Choice,2022.2.1,MacIntel,59.88023952,,,,,,,,,,,,,,,,,,68,,,,,,,,,,0.03,1,6.2281,0,2,2,2,1,Browse items at an antique shop with my family,Bike on a crisp fall or spring day to get out energy and discover something new in the neighborhood,0.03,0.04,4.4,0,,,,,
,,663a7379aca69d9c20130cd1,6685aa9113c938e83b4f1ea0,671f94aba3531e1d0dd741a2,2024-10-28_09h52.25.812,WTP_SM_Choice,2022.2.1,MacIntel,59.88023952,,,,,,,,,,,,,,,,,,69,,,,,,,,,,,,,0,3,3,3,1,Cuddle on the couch  with my partner and watch a movie,Stretch in my apartment when I first get up to help my shoulder and my joint issues,0.04,0.04,1.1,0,,,,,
,,663a7379aca69d9c20130cd1,6685aa9113c938e83b4f1ea0,671f94aba3531e1d0dd741a2,2024-10-28_09h52.25.812,WTP_SM_Choice,2022.2.1,MacIntel,59.88023952,,,,,,,,,,,,,,,,,,70,,,,,,,,,,0.04,2,0.9062,0,4,4,4,1,Play fetch with my partner and his dog  ,Bike on a crisp fall or spring day to get out energy and discover something new in the neighborhood,0.05,0.04,1.1,0,,,,,
,,663a7379aca69d9c20130cd1,6685aa9113c938e83b4f1ea0,671f94aba3531e1d0dd741a2,2024-10-28_09h52.25.812,WTP_SM_Choice,2022.2.1,MacIntel,59.88023952,,,,,,,NAN,,NAN,1.49,4.51,,0,69,69,69,1,70,Riley,Rej,Participant_Images/663a7379aca69d9c20130cd1/663a7379aca69d9c20130cd1_Images/663a7379aca69d9c20130cd1_Image_14.jpeg,did not like,1.672012706,,,,,,,,,,,,,,,,,,,,,,,
,,663a7379aca69d9c20130cd1,6685aa9113c938e83b4f1ea0,671f94aba3531e1d0dd741a2,2024-10-28_09h52.25.812,WTP_SM_Choice,2022.2.1,MacIntel,59.88023952,,,,,space,1.822,NAN,,NAN,1.49,4.51,,0,70,70,70,1,71,Riley,Rej,Participant_Images/663a7379aca69d9c20130cd1/663a7379aca69d9c20130cd1_Images/663a7379aca69d9c20130cd1_Image_13.jpeg,did not like,4.942172136,,,,,,,,,,,,,,,,,,,,,,,
,,663a7379aca69d9c20130cd1,6685aa9113c938e83b4f1ea0,671f94aba3531e1d0dd741a2,2024-10-28_09h52.25.812,WTP_SM_Choice,2022.2.1,MacIntel,59.88023952,,,,,space,3.6993,NAN,,NAN,1.49,4.51,,0,71,71,71,1,72,Riley,Rej,Participant_Images/663a7379aca69d9c20130cd1/663a7379aca69d9c20130cd1_Images/663a7379aca69d9c20130cd1_Image_7.jpeg,did not like,2.50187214,,,,,,,,,,,,,,,,,,,,,,,
,,663a7379aca69d9c20130cd1,6685aa9113c938e83b4f1ea0,671f94aba3531e1d0dd741a2,2024-10-28_09h52.25.812,WTP_SM_Choice,2022.2.1,MacIntel,59.88023952,,,,,space,1.0738,NAN,,NAN,1.49,4.51,,0,72,72,72,1,73,Riley,Rej,Participant_Images/663a7379aca69d9c20130cd1/663a7379aca69d9c20130cd1_Images/663a7379aca69d9c20130cd1_Image_16.jpeg,liked,2.071164779,,,,,,,,,,,,,,,,,,,,,,,
,,663a7379aca69d9c20130cd1,6685aa9113c938e83b4f1ea0,671f94aba3531e1d0dd741a2,2024-10-28_09h52.25.812,WTP_SM_Choice,2022.2.1,MacIntel,59.88023952,,,,,space,1.0407,NAN,,NAN,1.49,4.51,,0,73,73,73,1,74,Riley,Rej,Participant_Images/663a7379aca69d9c20130cd1/663a7379aca69d9c20130cd1_Images/663a7379aca69d9c20130cd1_Image_11.jpeg,did not like,5.336503566,,,,,,,,,,,,,,,,,,,,,,,
,,663a7379aca69d9c20130cd1,6685aa9113c938e83b4f1ea0,671f94aba3531e1d0dd741a2,2024-10-28_09h52.25.812,WTP_SM_Choice,2022.2.1,MacIntel,59.88023952,,,,,,,,,,,,,,,,,,71,,,,,,space,4.7229,space,0.5399,0.01,1,1.0511,0,0,0,0,1,Hike somewhere new with a friend,Bike on a crisp fall or spring day to get out energy and discover something new in the neighborhood,0.01,0.05,3.3,0,,,,,
,,663a7379aca69d9c20130cd1,6685aa9113c938e83b4f1ea0,671f94aba3531e1d0dd741a2,2024-10-28_09h52.25.812,WTP_SM_Choice,2022.2.1,MacIntel,59.88023952,,,,,,,,,,,,,,,,,,72,,,,,,,,,,0.02,1,3.577,0,1,1,1,1,Drive out of the city to experience nature and get fresh air with friends,Take the subway to manhattan to go to the farmers market and be around all of the diverse people in the city,0.02,0.05,8.8,0,,,,,
,,663a7379aca69d9c20130cd1,6685aa9113c938e83b4f1ea0,671f94aba3531e1d0dd741a2,2024-10-28_09h52.25.812,WTP_SM_Choice,2022.2.1,MacIntel,59.88023952,,,,,,,,,,,,,,,,,,73,,,,,,,,,,0.03,1,4.1283,0,2,2,2,1,Walk to a local coffee shop and buying my favorite baked treat,Walk in the park with my best friend to share what has been going on in our lives,0.03,0.05,3.3,1,,,,,
,,663a7379aca69d9c20130cd1,6685aa9113c938e83b4f1ea0,671f94aba3531e1d0dd741a2,2024-10-28_09h52.25.812,WTP_SM_Choice,2022.2.1,MacIntel,59.88023952,,,,,,,,,,,,,,,,,,74,,,,,,,,,,0.04,1,1.3462,0,3,3,3,1,Go through old photos at night when to process my feelings and remember my experiences,Drive out of the city to experience nature and get fresh air with friends,0.04,0.05,4.4,1,,,,,
,,663a7379aca69d9c20130cd1,6685aa9113c938e83b4f1ea0,671f94aba3531e1d0dd741a2,2024-10-28_09h52.25.812,WTP_SM_Choice,2022.2.1,MacIntel,59.88023952,,,,,,,,,,,,,,,,,,75,,,,,,,,,,0.05,2,2.9435,0,4,4,4,1,Bike on a crisp fall or spring day to get out energy and discover something new in the neighborhood,Sing karaoke with my partner,0.05,0.05,3.3,1,,,,,
,,663a7379aca69d9c20130cd1,6685aa9113c938e83b4f1ea0,671f94aba3531e1d0dd741a2,2024-10-28_09h52.25.812,WTP_SM_Choice,2022.2.1,MacIntel,59.88023952,,,,,,,2,,4,1.64,4.36,,0,74,74,74,1,75,Riley,Rej,Participant_Images/663a7379aca69d9c20130cd1/663a7379aca69d9c20130cd1_Images/663a7379aca69d9c20130cd1_Image_8.jpeg,did not like,2.642157193,,,,,,,,,,,,,,,,,,,space,1.2059,,,
,,663a7379aca69d9c20130cd1,6685aa9113c938e83b4f1ea0,671f94aba3531e1d0dd741a2,2024-10-28_09h52.25.812,WTP_SM_Choice,2022.2.1,MacIntel,59.88023952,,,space,2.779,space,6.9062,NAN,,NAN,1.64,4.36,,0,75,75,75,1,76,Sam,Acc,Participant_Images/663a7379aca69d9c20130cd1/663a7379aca69d9c20130cd1_Images/663a7379aca69d9c20130cd1_Image_13.jpeg,liked,4.456234322,,,,,,,,,,,,,,,,,,,,,,,
,,663a7379aca69d9c20130cd1,6685aa9113c938e83b4f1ea0,671f94aba3531e1d0dd741a2,2024-10-28_09h52.25.812,WTP_SM_Choice,2022.2.1,MacIntel,59.88023952,,,,,space,3.7726,NAN,,NAN,1.64,4.36,,0,76,76,76,1,77,Sam,Acc,Participant_Images/663a7379aca69d9c20130cd1/663a7379aca69d9c20130cd1_Images/663a7379aca69d9c20130cd1_Image_25.jpeg,did not like,4.438512181,,,,,,,,,,,,,,,,,,,,,,,
,,663a7379aca69d9c20130cd1,6685aa9113c938e83b4f1ea0,671f94aba3531e1d0dd741a2,2024-10-28_09h52.25.812,WTP_SM_Choice,2022.2.1,MacIntel,59.88023952,,,,,space,3.6405,NAN,,NAN,1.64,4.36,,0,77,77,77,1,78,Sam,Acc,Participant_Images/663a7379aca69d9c20130cd1/663a7379aca69d9c20130cd1_Images/663a7379aca69d9c20130cd1_Image_14.jpeg,liked,2.682944783,,,,,,,,,,,,,,,,,,,,,,,
,,663a7379aca69d9c20130cd1,6685aa9113c938e83b4f1ea0,671f94aba3531e1d0dd741a2,2024-10-28_09h52.25.812,WTP_SM_Choice,2022.2.1,MacIntel,59.88023952,,,,,space,13.7387,NAN,,NAN,1.64,4.36,,0,78,78,78,1,79,Sam,Acc,Participant_Images/663a7379aca69d9c20130cd1/663a7379aca69d9c20130cd1_Images/663a7379aca69d9c20130cd1_Image_2.jpeg,liked,4.51984296,,,,,,,,,,,,,,,,,,,,,,,
,,663a7379aca69d9c20130cd1,6685aa9113c938e83b4f1ea0,671f94aba3531e1d0dd741a2,2024-10-28_09h52.25.812,WTP_SM_Choice,2022.2.1,MacIntel,59.88023952,,,,,,,,,,,,,,,,,,76,,,,,,space,3.0353,space,0.572,0.01,1,1.0218,0,0,0,0,1,Walk to a local coffee shop and buying my favorite baked treat,Prep a meal as with my partner ,0.01,0.01,1.1,1,,,,,
,,663a7379aca69d9c20130cd1,6685aa9113c938e83b4f1ea0,671f94aba3531e1d0dd741a2,2024-10-28_09h52.25.812,WTP_SM_Choice,2022.2.1,MacIntel,59.88023952,,,,,,,,,,,,,,,,,,77,,,,,,,,,,0.01,2,1.0754,0,1,1,1,1,Organize my closet by rearranging my belongings or getting rid of items I no longer use,Cuddle on the couch  with my partner and watch a movie,0.02,0.01,8.8,1,,,,,
,,663a7379aca69d9c20130cd1,6685aa9113c938e83b4f1ea0,671f94aba3531e1d0dd741a2,2024-10-28_09h52.25.812,WTP_SM_Choice,2022.2.1,MacIntel,59.88023952,,,,,,,,,,,,,,,,,,78,,,,,,,,,,0.01,2,0.9773,0,2,2,2,1,Sit at the beach with my friend and enjoy the sun and the water ,Sing and dance to music throughout the apartment without any restraint,0.03,0.01,1.1,0,,,,,
,,663a7379aca69d9c20130cd1,6685aa9113c938e83b4f1ea0,671f94aba3531e1d0dd741a2,2024-10-28_09h52.25.812,WTP_SM_Choice,2022.2.1,MacIntel,59.88023952,,,,,,,,,,,,,,,,,,79,,,,,,,,,,0.01,2,1.6927,0,3,3,3,1,Walk in the park with my best friend to share what has been going on in our lives,Go to the park to write in my journal about my dreams and current goals,0.04,0.01,1.1,0,,,,,
,,663a7379aca69d9c20130cd1,6685aa9113c938e83b4f1ea0,671f94aba3531e1d0dd741a2,2024-10-28_09h52.25.812,WTP_SM_Choice,2022.2.1,MacIntel,59.88023952,,,,,,,,,,,,,,,,,,80,,,,,,,,,,0.01,2,2.6697,0,4,4,4,1,Organize my closet by rearranging my belongings or getting rid of items I no longer use,Eat new foods at a local spot in the city with my partner,0.05,0.01,4.4,1,,,,,
,,663a7379aca69d9c20130cd1,6685aa9113c938e83b4f1ea0,671f94aba3531e1d0dd741a2,2024-10-28_09h52.25.812,WTP_SM_Choice,2022.2.1,MacIntel,59.88023952,,,,,,,NAN,,NAN,1.69,4.31,,0,79,79,79,1,80,Sam,Acc,Participant_Images/663a7379aca69d9c20130cd1/663a7379aca69d9c20130cd1_Images/663a7379aca69d9c20130cd1_Image_21.jpeg,liked,3.195382774,,,,,,,,,,,,,,,,,,,,,,,
,,663a7379aca69d9c20130cd1,6685aa9113c938e83b4f1ea0,671f94aba3531e1d0dd741a2,2024-10-28_09h52.25.812,WTP_SM_Choice,2022.2.1,MacIntel,59.88023952,,,,,space,4.074,NAN,,NAN,1.69,4.31,,0,80,80,80,1,81,Sam,Acc,Participant_Images/663a7379aca69d9c20130cd1/663a7379aca69d9c20130cd1_Images/663a7379aca69d9c20130cd1_Image_11.jpeg,did not like,1.779333479,,,,,,,,,,,,,,,,,,,,,,,
,,663a7379aca69d9c20130cd1,6685aa9113c938e83b4f1ea0,671f94aba3531e1d0dd741a2,2024-10-28_09h52.25.812,WTP_SM_Choice,2022.2.1,MacIntel,59.88023952,,,,,space,4.0028,NAN,,NAN,1.69,4.31,,0,81,81,81,1,82,Sam,Acc,Participant_Images/663a7379aca69d9c20130cd1/663a7379aca69d9c20130cd1_Images/663a7379aca69d9c20130cd1_Image_3.jpeg,did not like,4.312468682,,,,,,,,,,,,,,,,,,,,,,,
,,663a7379aca69d9c20130cd1,6685aa9113c938e83b4f1ea0,671f94aba3531e1d0dd741a2,2024-10-28_09h52.25.812,WTP_SM_Choice,2022.2.1,MacIntel,59.88023952,,,,,space,1.3193,NAN,,NAN,1.69,4.31,,0,82,82,82,1,83,Sam,Acc,Participant_Images/663a7379aca69d9c20130cd1/663a7379aca69d9c20130cd1_Images/663a7379aca69d9c20130cd1_Image_24.jpeg,liked,4.940433059,,,,,,,,,,,,,,,,,,,,,,,
,,663a7379aca69d9c20130cd1,6685aa9113c938e83b4f1ea0,671f94aba3531e1d0dd741a2,2024-10-28_09h52.25.812,WTP_SM_Choice,2022.2.1,MacIntel,59.88023952,,,,,space,6.2098,NAN,,NAN,1.69,4.31,,0,83,83,83,1,84,Sam,Acc,Participant_Images/663a7379aca69d9c20130cd1/663a7379aca69d9c20130cd1_Images/663a7379aca69d9c20130cd1_Image_7.jpeg,liked,2.7105123,,,,,,,,,,,,,,,,,,,,,,,
,,663a7379aca69d9c20130cd1,6685aa9113c938e83b4f1ea0,671f94aba3531e1d0dd741a2,2024-10-28_09h52.25.812,WTP_SM_Choice,2022.2.1,MacIntel,59.88023952,,,,,,,,,,,,,,,,,,81,,,,,,space,1.5533,space,0.6729,0.01,1,2.3015,0,0,0,0,1,Stretch in my apartment when I first get up to help my shoulder and my joint issues,Walk in the park with my best friend to share what has been going on in our lives,0.01,0.02,3.3,1,,,,,
,,663a7379aca69d9c20130cd1,6685aa9113c938e83b4f1ea0,671f94aba3531e1d0dd741a2,2024-10-28_09h52.25.812,WTP_SM_Choice,2022.2.1,MacIntel,59.88023952,,,,,,,,,,,,,,,,,,82,,,,,,,,,,0.02,1,4.8545,0,1,1,1,1,Walk in the park with my best friend to share what has been going on in our lives,Bike on a crisp fall or spring day to get out energy and discover something new in the neighborhood,0.02,0.02,4.4,0,,,,,
,,663a7379aca69d9c20130cd1,6685aa9113c938e83b4f1ea0,671f94aba3531e1d0dd741a2,2024-10-28_09h52.25.812,WTP_SM_Choice,2022.2.1,MacIntel,59.88023952,,,,,,,,,,,,,,,,,,83,,,,,,,,,,0.02,2,2.4932,0,2,2,2,1,Sing and dance to music throughout the apartment without any restraint,Sing karaoke with my partner,0.03,0.02,1.1,1,,,,,
,,663a7379aca69d9c20130cd1,6685aa9113c938e83b4f1ea0,671f94aba3531e1d0dd741a2,2024-10-28_09h52.25.812,WTP_SM_Choice,2022.2.1,MacIntel,59.88023952,,,,,,,,,,,,,,,,,,84,,,,,,,,,,0.02,2,0.9603,0,3,3,3,1,Cook nutritious and seasonal foods based on how I am feeling and how the weather is outside,Hike somewhere new with a friend,0.04,0.02,3.3,1,,,,,
,,663a7379aca69d9c20130cd1,6685aa9113c938e83b4f1ea0,671f94aba3531e1d0dd741a2,2024-10-28_09h52.25.812,WTP_SM_Choice,2022.2.1,MacIntel,59.88023952,,,,,,,,,,,,,,,,,,85,,,,,,,,,,0.02,2,0.6708,0,4,4,4,1,Walk to a local coffee shop and buying my favorite baked treat,Sit at the beach with my friend and enjoy the sun and the water ,0.05,0.02,3.3,1,,,,,
,,663a7379aca69d9c20130cd1,6685aa9113c938e83b4f1ea0,671f94aba3531e1d0dd741a2,2024-10-28_09h52.25.812,WTP_SM_Choice,2022.2.1,MacIntel,59.88023952,,,,,,,NAN,,NAN,1.78,4.22,,0,84,84,84,1,85,Sam,Acc,Participant_Images/663a7379aca69d9c20130cd1/663a7379aca69d9c20130cd1_Images/663a7379aca69d9c20130cd1_Image_12.jpeg,liked,3.602308302,,,,,,,,,,,,,,,,,,,,,,,
,,663a7379aca69d9c20130cd1,6685aa9113c938e83b4f1ea0,671f94aba3531e1d0dd741a2,2024-10-28_09h52.25.812,WTP_SM_Choice,2022.2.1,MacIntel,59.88023952,,,,,space,6.6595,NAN,,NAN,1.78,4.22,,0,85,85,85,1,86,Sam,Acc,Participant_Images/663a7379aca69d9c20130cd1/663a7379aca69d9c20130cd1_Images/663a7379aca69d9c20130cd1_Image_9.jpeg,liked,4.106391878,,,,,,,,,,,,,,,,,,,,,,,
,,663a7379aca69d9c20130cd1,6685aa9113c938e83b4f1ea0,671f94aba3531e1d0dd741a2,2024-10-28_09h52.25.812,WTP_SM_Choice,2022.2.1,MacIntel,59.88023952,,,,,space,6.9545,NAN,,NAN,1.78,4.22,,0,86,86,86,1,87,Sam,Acc,Participant_Images/663a7379aca69d9c20130cd1/663a7379aca69d9c20130cd1_Images/663a7379aca69d9c20130cd1_Image_5.jpeg,liked,3.799433026,,,,,,,,,,,,,,,,,,,,,,,
,,663a7379aca69d9c20130cd1,6685aa9113c938e83b4f1ea0,671f94aba3531e1d0dd741a2,2024-10-28_09h52.25.812,WTP_SM_Choice,2022.2.1,MacIntel,59.88023952,,,,,space,3.9046,NAN,,NAN,1.78,4.22,,0,87,87,87,1,88,Sam,Acc,Participant_Images/663a7379aca69d9c20130cd1/663a7379aca69d9c20130cd1_Images/663a7379aca69d9c20130cd1_Image_20.jpeg,liked,5.246980764,,,,,,,,,,,,,,,,,,,,,,,
,,663a7379aca69d9c20130cd1,6685aa9113c938e83b4f1ea0,671f94aba3531e1d0dd741a2,2024-10-28_09h52.25.812,WTP_SM_Choice,2022.2.1,MacIntel,59.88023952,,,,,space,0.4874,NAN,,NAN,1.78,4.22,,0,88,88,88,1,89,Sam,Acc,Participant_Images/663a7379aca69d9c20130cd1/663a7379aca69d9c20130cd1_Images/663a7379aca69d9c20130cd1_Image_23.jpeg,liked,3.30081769,,,,,,,,,,,,,,,,,,,,,,,
,,663a7379aca69d9c20130cd1,6685aa9113c938e83b4f1ea0,671f94aba3531e1d0dd741a2,2024-10-28_09h52.25.812,WTP_SM_Choice,2022.2.1,MacIntel,59.88023952,,,,,,,,,,,,,,,,,,86,,,,,,space,1.6193,space,5.155,0.01,1,1.1606,0,0,0,0,1,Cuddle on the couch  with my partner and watch a movie,Go through old photos at night when to process my feelings and remember my experiences,0.01,0.03,1.1,0,,,,,
,,663a7379aca69d9c20130cd1,6685aa9113c938e83b4f1ea0,671f94aba3531e1d0dd741a2,2024-10-28_09h52.25.812,WTP_SM_Choice,2022.2.1,MacIntel,59.88023952,,,,,,,,,,,,,,,,,,87,,,,,,,,,,0.02,1,1.0035,0,1,1,1,1,Go through old photos at night when to process my feelings and remember my experiences,Prep a meal as with my partner ,0.02,0.03,4.4,1,,,,,
,,663a7379aca69d9c20130cd1,6685aa9113c938e83b4f1ea0,671f94aba3531e1d0dd741a2,2024-10-28_09h52.25.812,WTP_SM_Choice,2022.2.1,MacIntel,59.88023952,,,,,,,,,,,,,,,,,,88,,,,,,,,,,0.03,2,2.995,0,2,2,2,1,Sing karaoke with my partner,Walk to a local coffee shop and buying my favorite baked treat,0.03,0.03,1.1,0,,,,,
,,663a7379aca69d9c20130cd1,6685aa9113c938e83b4f1ea0,671f94aba3531e1d0dd741a2,2024-10-28_09h52.25.812,WTP_SM_Choice,2022.2.1,MacIntel,59.88023952,,,,,,,,,,,,,,,,,,89,,,,,,,,,,0.03,2,0.876,0,3,3,3,1,Smoke my medical cannabis on a sunny temperate day on my balcony with the sea breeze,Hike somewhere new with a friend,0.04,0.03,3.3,1,,,,,
,,663a7379aca69d9c20130cd1,6685aa9113c938e83b4f1ea0,671f94aba3531e1d0dd741a2,2024-10-28_09h52.25.812,WTP_SM_Choice,2022.2.1,MacIntel,59.88023952,,,,,,,,,,,,,,,,,,90,,,,,,,,,,0.03,2,1.3224,0,4,4,4,1,Go to the park to write in my journal about my dreams and current goals,Play fetch with my partner and his dog  ,0.05,0.03,8.8,1,,,,,
,,663a7379aca69d9c20130cd1,6685aa9113c938e83b4f1ea0,671f94aba3531e1d0dd741a2,2024-10-28_09h52.25.812,WTP_SM_Choice,2022.2.1,MacIntel,59.88023952,,,,,,,NAN,,NAN,1.9,4.1,,0,89,89,89,1,90,Sam,Acc,Participant_Images/663a7379aca69d9c20130cd1/663a7379aca69d9c20130cd1_Images/663a7379aca69d9c20130cd1_Image_4.jpeg,liked,1.661473164,,,,,,,,,,,,,,,,,,,,,,,
,,663a7379aca69d9c20130cd1,6685aa9113c938e83b4f1ea0,671f94aba3531e1d0dd741a2,2024-10-28_09h52.25.812,WTP_SM_Choice,2022.2.1,MacIntel,59.88023952,,,,,space,6.1606,NAN,,NAN,1.9,4.1,,0,90,90,90,1,91,Sam,Acc,Participant_Images/663a7379aca69d9c20130cd1/663a7379aca69d9c20130cd1_Images/663a7379aca69d9c20130cd1_Image_18.jpeg,liked,3.613205605,,,,,,,,,,,,,,,,,,,,,,,
,,663a7379aca69d9c20130cd1,6685aa9113c938e83b4f1ea0,671f94aba3531e1d0dd741a2,2024-10-28_09h52.25.812,WTP_SM_Choice,2022.2.1,MacIntel,59.88023952,,,,,space,1.6393,NAN,,NAN,1.9,4.1,,0,91,91,91,1,92,Sam,Acc,Participant_Images/663a7379aca69d9c20130cd1/663a7379aca69d9c20130cd1_Images/663a7379aca69d9c20130cd1_Image_10.jpeg,did not like,4.988446431,,,,,,,,,,,,,,,,,,,,,,,
,,663a7379aca69d9c20130cd1,6685aa9113c938e83b4f1ea0,671f94aba3531e1d0dd741a2,2024-10-28_09h52.25.812,WTP_SM_Choice,2022.2.1,MacIntel,59.88023952,,,,,space,5.9863,NAN,,NAN,1.9,4.1,,0,92,92,92,1,93,Sam,Acc,Participant_Images/663a7379aca69d9c20130cd1/663a7379aca69d9c20130cd1_Images/663a7379aca69d9c20130cd1_Image_22.jpeg,liked,3.470791822,,,,,,,,,,,,,,,,,,,,,,,
,,663a7379aca69d9c20130cd1,6685aa9113c938e83b4f1ea0,671f94aba3531e1d0dd741a2,2024-10-28_09h52.25.812,WTP_SM_Choice,2022.2.1,MacIntel,59.88023952,,,,,space,8.7263,NAN,,NAN,1.9,4.1,,0,93,93,93,1,94,Sam,Acc,Participant_Images/663a7379aca69d9c20130cd1/663a7379aca69d9c20130cd1_Images/663a7379aca69d9c20130cd1_Image_17.jpeg,did not like,3.820572462,,,,,,,,,,,,,,,,,,,,,,,
,,663a7379aca69d9c20130cd1,6685aa9113c938e83b4f1ea0,671f94aba3531e1d0dd741a2,2024-10-28_09h52.25.812,WTP_SM_Choice,2022.2.1,MacIntel,59.88023952,,,,,,,,,,,,,,,,,,91,,,,,,space,5.4339,space,3.5417,0.01,1,1.0552,0,0,0,0,1,Stretch in my apartment when I first get up to help my shoulder and my joint issues,Drive out of the city to experience nature and get fresh air with friends,0.01,0.04,3.3,1,,,,,
,,663a7379aca69d9c20130cd1,6685aa9113c938e83b4f1ea0,671f94aba3531e1d0dd741a2,2024-10-28_09h52.25.812,WTP_SM_Choice,2022.2.1,MacIntel,59.88023952,,,,,,,,,,,,,,,,,,92,,,,,,,,,,0.02,1,1.7736,0,1,1,1,1,Stretch in my apartment when I first get up to help my shoulder and my joint issues,Sit at the beach with my friend and enjoy the sun and the water ,0.02,0.04,8.8,1,,,,,
,,663a7379aca69d9c20130cd1,6685aa9113c938e83b4f1ea0,671f94aba3531e1d0dd741a2,2024-10-28_09h52.25.812,WTP_SM_Choice,2022.2.1,MacIntel,59.88023952,,,,,,,,,,,,,,,,,,93,,,,,,,,,,0.03,1,1.3108,0,2,2,2,1,Cuddle on the couch  with my partner and watch a movie,Smoke my medical cannabis on a sunny temperate day on my balcony with the sea breeze,0.03,0.04,1.1,0,,,,,
,,663a7379aca69d9c20130cd1,6685aa9113c938e83b4f1ea0,671f94aba3531e1d0dd741a2,2024-10-28_09h52.25.812,WTP_SM_Choice,2022.2.1,MacIntel,59.88023952,,,,,,,,,,,,,,,,,,94,,,,,,,,,,0.04,2,3.7788,0,3,3,3,1,Eat new foods at a local spot in the city with my partner,Walk to a local coffee shop and buying my favorite baked treat,0.04,0.04,4.4,0,,,,,
,,663a7379aca69d9c20130cd1,6685aa9113c938e83b4f1ea0,671f94aba3531e1d0dd741a2,2024-10-28_09h52.25.812,WTP_SM_Choice,2022.2.1,MacIntel,59.88023952,,,,,,,,,,,,,,,,,,95,,,,,,,,,,0.04,2,1.7423,0,4,4,4,1,Cook nutritious and seasonal foods based on how I am feeling and how the weather is outside,Drive out of the city to experience nature and get fresh air with friends,0.05,0.04,4.4,1,,,,,
,,663a7379aca69d9c20130cd1,6685aa9113c938e83b4f1ea0,671f94aba3531e1d0dd741a2,2024-10-28_09h52.25.812,WTP_SM_Choice,2022.2.1,MacIntel,59.88023952,,,,,,,NAN,,NAN,2.04,3.96,,0,94,94,94,1,95,Sam,Acc,Participant_Images/663a7379aca69d9c20130cd1/663a7379aca69d9c20130cd1_Images/663a7379aca69d9c20130cd1_Image_6.jpeg,liked,2.455989137,,,,,,,,,,,,,,,,,,,,,,,
,,663a7379aca69d9c20130cd1,6685aa9113c938e83b4f1ea0,671f94aba3531e1d0dd741a2,2024-10-28_09h52.25.812,WTP_SM_Choice,2022.2.1,MacIntel,59.88023952,,,,,space,7.7927,NAN,,NAN,2.04,3.96,,0,95,95,95,1,96,Sam,Acc,Participant_Images/663a7379aca69d9c20130cd1/663a7379aca69d9c20130cd1_Images/663a7379aca69d9c20130cd1_Image_8.jpeg,did not like,3.79605092,,,,,,,,,,,,,,,,,,,,,,,
,,663a7379aca69d9c20130cd1,6685aa9113c938e83b4f1ea0,671f94aba3531e1d0dd741a2,2024-10-28_09h52.25.812,WTP_SM_Choice,2022.2.1,MacIntel,59.88023952,,,,,space,1.3218,NAN,,NAN,2.04,3.96,,0,96,96,96,1,97,Sam,Acc,Participant_Images/663a7379aca69d9c20130cd1/663a7379aca69d9c20130cd1_Images/663a7379aca69d9c20130cd1_Image_16.jpeg,did not like,3.562416326,,,,,,,,,,,,,,,,,,,,,,,
,,663a7379aca69d9c20130cd1,6685aa9113c938e83b4f1ea0,671f94aba3531e1d0dd741a2,2024-10-28_09h52.25.812,WTP_SM_Choice,2022.2.1,MacIntel,59.88023952,,,,,space,1.4742,NAN,,NAN,2.04,3.96,,0,97,97,97,1,98,Sam,Acc,Participant_Images/663a7379aca69d9c20130cd1/663a7379aca69d9c20130cd1_Images/663a7379aca69d9c20130cd1_Image_15.jpeg,liked,2.843822497,,,,,,,,,,,,,,,,,,,,,,,
,,663a7379aca69d9c20130cd1,6685aa9113c938e83b4f1ea0,671f94aba3531e1d0dd741a2,2024-10-28_09h52.25.812,WTP_SM_Choice,2022.2.1,MacIntel,59.88023952,,,,,space,2.8351,NAN,,NAN,2.04,3.96,,0,98,98,98,1,99,Sam,Acc,Participant_Images/663a7379aca69d9c20130cd1/663a7379aca69d9c20130cd1_Images/663a7379aca69d9c20130cd1_Image_1.jpeg,liked,3.546495948,,,,,,,,,,,,,,,,,,,,,,,
,,663a7379aca69d9c20130cd1,6685aa9113c938e83b4f1ea0,671f94aba3531e1d0dd741a2,2024-10-28_09h52.25.812,WTP_SM_Choice,2022.2.1,MacIntel,59.88023952,,,,,,,,,,,,,,,,,,96,,,,,,space,7.7697,space,1.472,0.01,1,1.4549,0,0,0,0,1,Walk in the park with my best friend to share what has been going on in our lives,Go through old photos at night when to process my feelings and remember my experiences,0.01,0.05,3.3,0,,,,,
,,663a7379aca69d9c20130cd1,6685aa9113c938e83b4f1ea0,671f94aba3531e1d0dd741a2,2024-10-28_09h52.25.812,WTP_SM_Choice,2022.2.1,MacIntel,59.88023952,,,,,,,,,,,,,,,,,,97,,,,,,,,,,0.02,1,0.8372,0,1,1,1,1,Hike somewhere new with a friend,Sing and dance to music throughout the apartment without any restraint,0.02,0.05,1.1,0,,,,,
,,663a7379aca69d9c20130cd1,6685aa9113c938e83b4f1ea0,671f94aba3531e1d0dd741a2,2024-10-28_09h52.25.812,WTP_SM_Choice,2022.2.1,MacIntel,59.88023952,,,,,,,,,,,,,,,,,,98,,,,,,,,,,0.03,1,1.6404,0,2,2,2,1,Eat new foods at a local spot in the city with my partner,Smoke my medical cannabis on a sunny temperate day on my balcony with the sea breeze,0.03,0.05,1.1,0,,,,,
,,663a7379aca69d9c20130cd1,6685aa9113c938e83b4f1ea0,671f94aba3531e1d0dd741a2,2024-10-28_09h52.25.812,WTP_SM_Choice,2022.2.1,MacIntel,59.88023952,,,,,,,,,,,,,,,,,,99,,,,,,,,,,0.04,1,1.109,0,3,3,3,1,Walk in the park with my best friend to share what has been going on in our lives,Cook nutritious and seasonal foods based on how I am feeling and how the weather is outside,0.04,0.05,3.3,0,,,,,
,,663a7379aca69d9c20130cd1,6685aa9113c938e83b4f1ea0,671f94aba3531e1d0dd741a2,2024-10-28_09h52.25.812,WTP_SM_Choice,2022.2.1,MacIntel,59.88023952,,,,,,,,,,,,,,,,,,100,,,,,,,,,,0.05,2,4.8954,0,4,4,4,1,Go through old photos at night when to process my feelings and remember my experiences,Play fetch with my partner and his dog  ,0.05,0.05,4.4,1,,,,,
,,663a7379aca69d9c20130cd1,6685aa9113c938e83b4f1ea0,671f94aba3531e1d0dd741a2,2024-10-28_09h52.25.812,WTP_SM_Choice,2022.2.1,MacIntel,59.88023952,,,,,,,3,,5,2.19,3.81,,0,99,99,99,1,100,Sam,Acc,Participant_Images/663a7379aca69d9c20130cd1/663a7379aca69d9c20130cd1_Images/663a7379aca69d9c20130cd1_Image_19.jpeg,liked,1.672012706,,,,,,,,,,,,,,,,,,,space,0.9485,,,
,,663a7379aca69d9c20130cd1,6685aa9113c938e83b4f1ea0,671f94aba3531e1d0dd741a2,2024-10-28_09h52.25.812,WTP_SM_Choice,2022.2.1,MacIntel,59.88023952,,,,,,,,,,,,,,,,,,,,,,,,,,,,,,,,,,,,,,,,,,,,,space,1.4685
