endwelcomescreen_keys.keys,endwelcomescreen_keys.rt,participant,date,expName,psychopyVersion,OS,frameRate,endinstructionscreen_keys.keys,endinstructionscreen_keys.rt,endpartnermatch_keys.keys,endpartnermatch_keys.rt,sharenextphoto_key.keys,sharenextphoto_key.rt,salience_rating,key_resp.keys,stress_level,subtract_bonus,TOTAL_TASK_BONUS,stresslevel_keypress.keys,entiretaskloop.thisRepN,entiretaskloop.thisTrialN,entiretaskloop.thisN,entiretaskloop.thisIndex,entiretaskloop.ran,TrialNumber,Partner,Condition,Photos,Feedback,FeedbackWait,WTP_ins_keys1.keys,WTP_ins_keys1.rt,WTP_ins_keys2.keys,WTP_ins_keys2.rt,decision_price,responses.keys,responses.rt,WTPTaskLoop.thisRepN,WTPTaskLoop.thisTrialN,WTPTaskLoop.thisN,WTPTaskLoop.thisIndex,WTPTaskLoop.ran,right,left,leftmoney,rightmoney,WTP_ITI,Resume_keys.keys,Resume_keys.rt,end_screen_keys.keys,end_screen_keys.rt
space,4.1305,663e5cf112f5d047cf5c9fad,2024-07-03_00h45.29.275,WTP_SM_Choice,2022.2.1,Win32,60.60606061,,,,,,,,,,,,,,,,,,,,,,,,,,,,,,,,,,,,,,,,,,,,
,,663e5cf112f5d047cf5c9fad,2024-07-03_00h45.29.275,WTP_SM_Choice,2022.2.1,Win32,60.60606061,space,9.9028,,,,,,,,,,,,,,,,,,,,,,,,,,,,,,,,,,,,,,,,,,
,,663e5cf112f5d047cf5c9fad,2024-07-03_00h45.29.275,WTP_SM_Choice,2022.2.1,Win32,60.60606061,,,space,1.4422,space,0.9309,NAN,,NAN,0,6,,0,0,0,0,1,1,Alex,Rej,Participant_Images/663e5cf112f5d047cf5c9fad/663e5cf112f5d047cf5c9fad_Images/663e5cf112f5d047cf5c9fad_Image_13.jpeg,did not like,3.613205605,,,,,,,,,,,,,,,,,,,,,
,,663e5cf112f5d047cf5c9fad,2024-07-03_00h45.29.275,WTP_SM_Choice,2022.2.1,Win32,60.60606061,,,,,space,1.0746,NAN,,NAN,0,6,,0,1,1,1,1,2,Alex,Rej,Participant_Images/663e5cf112f5d047cf5c9fad/663e5cf112f5d047cf5c9fad_Images/663e5cf112f5d047cf5c9fad_Image_2.jpeg,liked,4.988446431,,,,,,,,,,,,,,,,,,,,,
,,663e5cf112f5d047cf5c9fad,2024-07-03_00h45.29.275,WTP_SM_Choice,2022.2.1,Win32,60.60606061,,,,,space,0.7753,NAN,,NAN,0,6,,0,2,2,2,1,3,Alex,Rej,Participant_Images/663e5cf112f5d047cf5c9fad/663e5cf112f5d047cf5c9fad_Images/663e5cf112f5d047cf5c9fad_Image_24.jpeg,did not like,3.470791822,,,,,,,,,,,,,,,,,,,,,
,,663e5cf112f5d047cf5c9fad,2024-07-03_00h45.29.275,WTP_SM_Choice,2022.2.1,Win32,60.60606061,,,,,space,0.621,NAN,,NAN,0,6,,0,3,3,3,1,4,Alex,Rej,Participant_Images/663e5cf112f5d047cf5c9fad/663e5cf112f5d047cf5c9fad_Images/663e5cf112f5d047cf5c9fad_Image_4.jpeg,liked,3.820572462,,,,,,,,,,,,,,,,,,,,,
,,663e5cf112f5d047cf5c9fad,2024-07-03_00h45.29.275,WTP_SM_Choice,2022.2.1,Win32,60.60606061,,,,,,,,,,,,,,,,,,1,,,,,,space,13.8578,space,4.1481,0.01,2,1.611,0,0,0,0,1,play video games,work on college group projects,0.01,0.01,4.4,,,,
,,663e5cf112f5d047cf5c9fad,2024-07-03_00h45.29.275,WTP_SM_Choice,2022.2.1,Win32,60.60606061,,,,,,,,,,,,,,,,,,2,,,,,,,,,,0.02,1,2.1316,0,1,1,1,1,learn french,talk with my friends online,0.02,0.01,8.8,,,,
,,663e5cf112f5d047cf5c9fad,2024-07-03_00h45.29.275,WTP_SM_Choice,2022.2.1,Win32,60.60606061,,,,,,,,,,,,,,,,,,3,,,,,,,,,,0.01,2,1.5031,0,2,2,2,1,exercise,spend time with my partner,0.03,0.01,3.3,,,,
,,663e5cf112f5d047cf5c9fad,2024-07-03_00h45.29.275,WTP_SM_Choice,2022.2.1,Win32,60.60606061,,,,,,,,,,,,,,,,,,4,,,,,,,,,,0.04,1,1.4697,0,3,3,3,1,learn french,spent time with my family,0.04,0.01,1.1,,,,
,,663e5cf112f5d047cf5c9fad,2024-07-03_00h45.29.275,WTP_SM_Choice,2022.2.1,Win32,60.60606061,,,,,,,,,,,,,,,,,,5,,,,,,,,,,0.01,2,1.5768,0,4,4,4,1,learn french,work on college group projects,0.05,0.01,1.1,,,,
,,663e5cf112f5d047cf5c9fad,2024-07-03_00h45.29.275,WTP_SM_Choice,2022.2.1,Win32,60.60606061,,,,,,,NAN,,NAN,0.09,5.91,,0,4,4,4,1,5,Alex,Rej,Participant_Images/663e5cf112f5d047cf5c9fad/663e5cf112f5d047cf5c9fad_Images/663e5cf112f5d047cf5c9fad_Image_15.jpeg,did not like,2.455989137,,,,,,,,,,,,,,,,,,,,,
,,663e5cf112f5d047cf5c9fad,2024-07-03_00h45.29.275,WTP_SM_Choice,2022.2.1,Win32,60.60606061,,,,,space,0.8185,NAN,,NAN,0.09,5.91,,0,5,5,5,1,6,Alex,Rej,Participant_Images/663e5cf112f5d047cf5c9fad/663e5cf112f5d047cf5c9fad_Images/663e5cf112f5d047cf5c9fad_Image_8.jpeg,did not like,3.79605092,,,,,,,,,,,,,,,,,,,,,
,,663e5cf112f5d047cf5c9fad,2024-07-03_00h45.29.275,WTP_SM_Choice,2022.2.1,Win32,60.60606061,,,,,space,0.7512,NAN,,NAN,0.09,5.91,,0,6,6,6,1,7,Alex,Rej,Participant_Images/663e5cf112f5d047cf5c9fad/663e5cf112f5d047cf5c9fad_Images/663e5cf112f5d047cf5c9fad_Image_18.jpeg,liked,3.562416326,,,,,,,,,,,,,,,,,,,,,
,,663e5cf112f5d047cf5c9fad,2024-07-03_00h45.29.275,WTP_SM_Choice,2022.2.1,Win32,60.60606061,,,,,space,0.6697,NAN,,NAN,0.09,5.91,,0,7,7,7,1,8,Alex,Rej,Participant_Images/663e5cf112f5d047cf5c9fad/663e5cf112f5d047cf5c9fad_Images/663e5cf112f5d047cf5c9fad_Image_14.jpeg,liked,2.843822497,,,,,,,,,,,,,,,,,,,,,
,,663e5cf112f5d047cf5c9fad,2024-07-03_00h45.29.275,WTP_SM_Choice,2022.2.1,Win32,60.60606061,,,,,space,0.5687,NAN,,NAN,0.09,5.91,,0,8,8,8,1,9,Alex,Rej,Participant_Images/663e5cf112f5d047cf5c9fad/663e5cf112f5d047cf5c9fad_Images/663e5cf112f5d047cf5c9fad_Image_17.jpeg,did not like,3.546495948,,,,,,,,,,,,,,,,,,,,,
,,663e5cf112f5d047cf5c9fad,2024-07-03_00h45.29.275,WTP_SM_Choice,2022.2.1,Win32,60.60606061,,,,,,,,,,,,,,,,,,6,,,,,,space,6.5741,space,1.6724,0.01,1,1.053,0,0,0,0,1,go for a walk,go to festivals like pride,0.01,0.02,3.3,,,,
,,663e5cf112f5d047cf5c9fad,2024-07-03_00h45.29.275,WTP_SM_Choice,2022.2.1,Win32,60.60606061,,,,,,,,,,,,,,,,,,7,,,,,,,,,,0.02,1,1.2114,0,1,1,1,1,listen to music,go to the movies,0.02,0.02,1.1,,,,
,,663e5cf112f5d047cf5c9fad,2024-07-03_00h45.29.275,WTP_SM_Choice,2022.2.1,Win32,60.60606061,,,,,,,,,,,,,,,,,,8,,,,,,,,,,0.02,2,1.1298,0,2,2,2,1,browse the internet,spent time with my family,0.03,0.02,1.1,,,,
,,663e5cf112f5d047cf5c9fad,2024-07-03_00h45.29.275,WTP_SM_Choice,2022.2.1,Win32,60.60606061,,,,,,,,,,,,,,,,,,9,,,,,,,,,,0.02,2,1.5995,0,3,3,3,1,go for a walk,go visit my extended family,0.04,0.02,4.4,,,,
,,663e5cf112f5d047cf5c9fad,2024-07-03_00h45.29.275,WTP_SM_Choice,2022.2.1,Win32,60.60606061,,,,,,,,,,,,,,,,,,10,,,,,,,,,,0.02,2,1.6713,0,4,4,4,1,read,spend time with my partner,0.05,0.02,1.1,,,,
,,663e5cf112f5d047cf5c9fad,2024-07-03_00h45.29.275,WTP_SM_Choice,2022.2.1,Win32,60.60606061,,,,,,,NAN,,NAN,0.18,5.82,,0,9,9,9,1,10,Alex,Rej,Participant_Images/663e5cf112f5d047cf5c9fad/663e5cf112f5d047cf5c9fad_Images/663e5cf112f5d047cf5c9fad_Image_25.jpeg,did not like,1.672012706,,,,,,,,,,,,,,,,,,,,,
,,663e5cf112f5d047cf5c9fad,2024-07-03_00h45.29.275,WTP_SM_Choice,2022.2.1,Win32,60.60606061,,,,,space,0.6177,NAN,,NAN,0.18,5.82,,0,10,10,10,1,11,Alex,Rej,Participant_Images/663e5cf112f5d047cf5c9fad/663e5cf112f5d047cf5c9fad_Images/663e5cf112f5d047cf5c9fad_Image_5.jpeg,did not like,4.942172136,,,,,,,,,,,,,,,,,,,,,
,,663e5cf112f5d047cf5c9fad,2024-07-03_00h45.29.275,WTP_SM_Choice,2022.2.1,Win32,60.60606061,,,,,space,0.6431,NAN,,NAN,0.18,5.82,,0,11,11,11,1,12,Alex,Rej,Participant_Images/663e5cf112f5d047cf5c9fad/663e5cf112f5d047cf5c9fad_Images/663e5cf112f5d047cf5c9fad_Image_12.jpeg,did not like,2.50187214,,,,,,,,,,,,,,,,,,,,,
,,663e5cf112f5d047cf5c9fad,2024-07-03_00h45.29.275,WTP_SM_Choice,2022.2.1,Win32,60.60606061,,,,,space,0.5132,NAN,,NAN,0.18,5.82,,0,12,12,12,1,13,Alex,Rej,Participant_Images/663e5cf112f5d047cf5c9fad/663e5cf112f5d047cf5c9fad_Images/663e5cf112f5d047cf5c9fad_Image_3.jpeg,did not like,2.071164779,,,,,,,,,,,,,,,,,,,,,
,,663e5cf112f5d047cf5c9fad,2024-07-03_00h45.29.275,WTP_SM_Choice,2022.2.1,Win32,60.60606061,,,,,space,0.9018,NAN,,NAN,0.18,5.82,,0,13,13,13,1,14,Alex,Rej,Participant_Images/663e5cf112f5d047cf5c9fad/663e5cf112f5d047cf5c9fad_Images/663e5cf112f5d047cf5c9fad_Image_9.jpeg,did not like,5.336503566,,,,,,,,,,,,,,,,,,,,,
,,663e5cf112f5d047cf5c9fad,2024-07-03_00h45.29.275,WTP_SM_Choice,2022.2.1,Win32,60.60606061,,,,,,,,,,,,,,,,,,11,,,,,,space,4.2787,space,1.2021,0.01,1,1.0421,0,0,0,0,1,exercise,go visit my extended family,0.01,0.03,3.3,,,,
,,663e5cf112f5d047cf5c9fad,2024-07-03_00h45.29.275,WTP_SM_Choice,2022.2.1,Win32,60.60606061,,,,,,,,,,,,,,,,,,12,,,,,,,,,,0.02,1,1.1291,0,1,1,1,1,read,create art and get live feedback from my partner,0.02,0.03,4.4,,,,
,,663e5cf112f5d047cf5c9fad,2024-07-03_00h45.29.275,WTP_SM_Choice,2022.2.1,Win32,60.60606061,,,,,,,,,,,,,,,,,,13,,,,,,,,,,0.03,1,0.8014,0,2,2,2,1,do bead art,create art and get live feedback from my partner,0.03,0.03,1.1,,,,
,,663e5cf112f5d047cf5c9fad,2024-07-03_00h45.29.275,WTP_SM_Choice,2022.2.1,Win32,60.60606061,,,,,,,,,,,,,,,,,,14,,,,,,,,,,0.03,2,1.3747,0,3,3,3,1,play video games,go to the movies,0.04,0.03,3.3,,,,
,,663e5cf112f5d047cf5c9fad,2024-07-03_00h45.29.275,WTP_SM_Choice,2022.2.1,Win32,60.60606061,,,,,,,,,,,,,,,,,,15,,,,,,,,,,0.03,2,0.9879,0,4,4,4,1,listen to music,go out to eat with family,0.05,0.03,4.4,,,,
,,663e5cf112f5d047cf5c9fad,2024-07-03_00h45.29.275,WTP_SM_Choice,2022.2.1,Win32,60.60606061,,,,,,,NAN,,NAN,0.3,5.7,,0,14,14,14,1,15,Alex,Rej,Participant_Images/663e5cf112f5d047cf5c9fad/663e5cf112f5d047cf5c9fad_Images/663e5cf112f5d047cf5c9fad_Image_6.jpeg,liked,2.642157193,,,,,,,,,,,,,,,,,,,,,
,,663e5cf112f5d047cf5c9fad,2024-07-03_00h45.29.275,WTP_SM_Choice,2022.2.1,Win32,60.60606061,,,,,space,0.7179,NAN,,NAN,0.3,5.7,,0,15,15,15,1,16,Alex,Rej,Participant_Images/663e5cf112f5d047cf5c9fad/663e5cf112f5d047cf5c9fad_Images/663e5cf112f5d047cf5c9fad_Image_16.jpeg,did not like,4.456234322,,,,,,,,,,,,,,,,,,,,,
,,663e5cf112f5d047cf5c9fad,2024-07-03_00h45.29.275,WTP_SM_Choice,2022.2.1,Win32,60.60606061,,,,,space,0.86,NAN,,NAN,0.3,5.7,,0,16,16,16,1,17,Alex,Rej,Participant_Images/663e5cf112f5d047cf5c9fad/663e5cf112f5d047cf5c9fad_Images/663e5cf112f5d047cf5c9fad_Image_11.jpeg,did not like,4.438512181,,,,,,,,,,,,,,,,,,,,,
,,663e5cf112f5d047cf5c9fad,2024-07-03_00h45.29.275,WTP_SM_Choice,2022.2.1,Win32,60.60606061,,,,,space,1.1353,NAN,,NAN,0.3,5.7,,0,17,17,17,1,18,Alex,Rej,Participant_Images/663e5cf112f5d047cf5c9fad/663e5cf112f5d047cf5c9fad_Images/663e5cf112f5d047cf5c9fad_Image_22.jpeg,did not like,2.682944783,,,,,,,,,,,,,,,,,,,,,
,,663e5cf112f5d047cf5c9fad,2024-07-03_00h45.29.275,WTP_SM_Choice,2022.2.1,Win32,60.60606061,,,,,space,0.667,NAN,,NAN,0.3,5.7,,0,18,18,18,1,19,Alex,Rej,Participant_Images/663e5cf112f5d047cf5c9fad/663e5cf112f5d047cf5c9fad_Images/663e5cf112f5d047cf5c9fad_Image_1.jpeg,did not like,4.51984296,,,,,,,,,,,,,,,,,,,,,
,,663e5cf112f5d047cf5c9fad,2024-07-03_00h45.29.275,WTP_SM_Choice,2022.2.1,Win32,60.60606061,,,,,,,,,,,,,,,,,,16,,,,,,space,2.3421,space,1.0347,0.01,1,0.9492,0,0,0,0,1,do bead art,work on college group projects,0.01,0.04,1.1,,,,
,,663e5cf112f5d047cf5c9fad,2024-07-03_00h45.29.275,WTP_SM_Choice,2022.2.1,Win32,60.60606061,,,,,,,,,,,,,,,,,,17,,,,,,,,,,0.02,1,0.8297,0,1,1,1,1,browse the internet,go to the movies,0.02,0.04,8.8,,,,
,,663e5cf112f5d047cf5c9fad,2024-07-03_00h45.29.275,WTP_SM_Choice,2022.2.1,Win32,60.60606061,,,,,,,,,,,,,,,,,,18,,,,,,,,,,0.03,1,1.2624,0,2,2,2,1,play video games,play video games online with my partner and friends,0.03,0.04,3.3,,,,
,,663e5cf112f5d047cf5c9fad,2024-07-03_00h45.29.275,WTP_SM_Choice,2022.2.1,Win32,60.60606061,,,,,,,,,,,,,,,,,,19,,,,,,,,,,0.04,2,1.4324,0,3,3,3,1,cook,create art and get live feedback from my partner,0.04,0.04,3.3,,,,
,,663e5cf112f5d047cf5c9fad,2024-07-03_00h45.29.275,WTP_SM_Choice,2022.2.1,Win32,60.60606061,,,,,,,,,,,,,,,,,,20,,,,,,,,,,0.04,2,1.2204,0,4,4,4,1,read,go visit my extended family,0.05,0.04,1.1,,,,
,,663e5cf112f5d047cf5c9fad,2024-07-03_00h45.29.275,WTP_SM_Choice,2022.2.1,Win32,60.60606061,,,,,,,NAN,,NAN,0.44,5.56,,0,19,19,19,1,20,Alex,Rej,Participant_Images/663e5cf112f5d047cf5c9fad/663e5cf112f5d047cf5c9fad_Images/663e5cf112f5d047cf5c9fad_Image_7.jpeg,did not like,3.195382774,,,,,,,,,,,,,,,,,,,,,
,,663e5cf112f5d047cf5c9fad,2024-07-03_00h45.29.275,WTP_SM_Choice,2022.2.1,Win32,60.60606061,,,,,space,0.6232,NAN,,NAN,0.44,5.56,,0,20,20,20,1,21,Alex,Rej,Participant_Images/663e5cf112f5d047cf5c9fad/663e5cf112f5d047cf5c9fad_Images/663e5cf112f5d047cf5c9fad_Image_19.jpeg,liked,1.779333479,,,,,,,,,,,,,,,,,,,,,
,,663e5cf112f5d047cf5c9fad,2024-07-03_00h45.29.275,WTP_SM_Choice,2022.2.1,Win32,60.60606061,,,,,space,0.6655,NAN,,NAN,0.44,5.56,,0,21,21,21,1,22,Alex,Rej,Participant_Images/663e5cf112f5d047cf5c9fad/663e5cf112f5d047cf5c9fad_Images/663e5cf112f5d047cf5c9fad_Image_10.jpeg,did not like,4.312468682,,,,,,,,,,,,,,,,,,,,,
,,663e5cf112f5d047cf5c9fad,2024-07-03_00h45.29.275,WTP_SM_Choice,2022.2.1,Win32,60.60606061,,,,,space,0.6601,NAN,,NAN,0.44,5.56,,0,22,22,22,1,23,Alex,Rej,Participant_Images/663e5cf112f5d047cf5c9fad/663e5cf112f5d047cf5c9fad_Images/663e5cf112f5d047cf5c9fad_Image_20.jpeg,did not like,4.940433059,,,,,,,,,,,,,,,,,,,,,
,,663e5cf112f5d047cf5c9fad,2024-07-03_00h45.29.275,WTP_SM_Choice,2022.2.1,Win32,60.60606061,,,,,space,0.5212,NAN,,NAN,0.44,5.56,,0,23,23,23,1,24,Alex,Rej,Participant_Images/663e5cf112f5d047cf5c9fad/663e5cf112f5d047cf5c9fad_Images/663e5cf112f5d047cf5c9fad_Image_21.jpeg,did not like,2.7105123,,,,,,,,,,,,,,,,,,,,,
,,663e5cf112f5d047cf5c9fad,2024-07-03_00h45.29.275,WTP_SM_Choice,2022.2.1,Win32,60.60606061,,,,,,,,,,,,,,,,,,21,,,,,,space,3.3355,space,0.9847,0.01,1,1.0762,0,0,0,0,1,cook,talk with my friends online,0.01,0.05,8.8,,,,
,,663e5cf112f5d047cf5c9fad,2024-07-03_00h45.29.275,WTP_SM_Choice,2022.2.1,Win32,60.60606061,,,,,,,,,,,,,,,,,,22,,,,,,,,,,0.02,1,1.153,0,1,1,1,1,listen to music,create art and get live feedback from my partner,0.02,0.05,4.4,,,,
,,663e5cf112f5d047cf5c9fad,2024-07-03_00h45.29.275,WTP_SM_Choice,2022.2.1,Win32,60.60606061,,,,,,,,,,,,,,,,,,23,,,,,,,,,,0.03,1,1.8222,0,2,2,2,1,play video games,spend time with my partner,0.03,0.05,1.1,,,,
,,663e5cf112f5d047cf5c9fad,2024-07-03_00h45.29.275,WTP_SM_Choice,2022.2.1,Win32,60.60606061,,,,,,,,,,,,,,,,,,24,,,,,,,,,,0.04,1,1.3889,0,3,3,3,1,learn french,go to festivals like pride,0.04,0.05,4.4,,,,
,,663e5cf112f5d047cf5c9fad,2024-07-03_00h45.29.275,WTP_SM_Choice,2022.2.1,Win32,60.60606061,,,,,,,,,,,,,,,,,,25,,,,,,,,,,0.05,2,1.7724,0,4,4,4,1,watch movies or TV,go to the movies,0.05,0.05,3.3,,,,
,,663e5cf112f5d047cf5c9fad,2024-07-03_00h45.29.275,WTP_SM_Choice,2022.2.1,Win32,60.60606061,,,,,,,1,,7,0.59,5.41,,0,24,24,24,1,25,Alex,Rej,Participant_Images/663e5cf112f5d047cf5c9fad/663e5cf112f5d047cf5c9fad_Images/663e5cf112f5d047cf5c9fad_Image_23.jpeg,liked,3.602308302,,,,,,,,,,,,,,,,,,space,1.0853,,
,,663e5cf112f5d047cf5c9fad,2024-07-03_00h45.29.275,WTP_SM_Choice,2022.2.1,Win32,60.60606061,,,space,2.1587,space,0.6851,NAN,,NAN,0.59,5.41,,0,25,25,25,1,26,Sam,Acc,Participant_Images/663e5cf112f5d047cf5c9fad/663e5cf112f5d047cf5c9fad_Images/663e5cf112f5d047cf5c9fad_Image_8.jpeg,liked,4.106391878,,,,,,,,,,,,,,,,,,,,,
,,663e5cf112f5d047cf5c9fad,2024-07-03_00h45.29.275,WTP_SM_Choice,2022.2.1,Win32,60.60606061,,,,,space,1.0039,NAN,,NAN,0.59,5.41,,0,26,26,26,1,27,Sam,Acc,Participant_Images/663e5cf112f5d047cf5c9fad/663e5cf112f5d047cf5c9fad_Images/663e5cf112f5d047cf5c9fad_Image_12.jpeg,liked,3.799433026,,,,,,,,,,,,,,,,,,,,,
,,663e5cf112f5d047cf5c9fad,2024-07-03_00h45.29.275,WTP_SM_Choice,2022.2.1,Win32,60.60606061,,,,,space,0.5324,NAN,,NAN,0.59,5.41,,0,27,27,27,1,28,Sam,Acc,Participant_Images/663e5cf112f5d047cf5c9fad/663e5cf112f5d047cf5c9fad_Images/663e5cf112f5d047cf5c9fad_Image_19.jpeg,liked,5.246980764,,,,,,,,,,,,,,,,,,,,,
,,663e5cf112f5d047cf5c9fad,2024-07-03_00h45.29.275,WTP_SM_Choice,2022.2.1,Win32,60.60606061,,,,,space,1.2686,NAN,,NAN,0.59,5.41,,0,28,28,28,1,29,Sam,Acc,Participant_Images/663e5cf112f5d047cf5c9fad/663e5cf112f5d047cf5c9fad_Images/663e5cf112f5d047cf5c9fad_Image_22.jpeg,liked,3.30081769,,,,,,,,,,,,,,,,,,,,,
,,663e5cf112f5d047cf5c9fad,2024-07-03_00h45.29.275,WTP_SM_Choice,2022.2.1,Win32,60.60606061,,,,,,,,,,,,,,,,,,26,,,,,,space,2.2303,space,0.9216,0.01,1,1.0467,0,0,0,0,1,read,work on college group projects,0.01,0.01,4.4,,,,
,,663e5cf112f5d047cf5c9fad,2024-07-03_00h45.29.275,WTP_SM_Choice,2022.2.1,Win32,60.60606061,,,,,,,,,,,,,,,,,,27,,,,,,,,,,0.01,2,1.0468,0,1,1,1,1,browse the internet,go out to eat with family,0.02,0.01,3.3,,,,
,,663e5cf112f5d047cf5c9fad,2024-07-03_00h45.29.275,WTP_SM_Choice,2022.2.1,Win32,60.60606061,,,,,,,,,,,,,,,,,,28,,,,,,,,,,0.01,2,1.0949,0,2,2,2,1,watch movies or TV,play video games online with my partner and friends,0.03,0.01,3.3,,,,
,,663e5cf112f5d047cf5c9fad,2024-07-03_00h45.29.275,WTP_SM_Choice,2022.2.1,Win32,60.60606061,,,,,,,,,,,,,,,,,,29,,,,,,,,,,0.01,2,0.9503,0,3,3,3,1,watch movies or TV,go visit my extended family,0.04,0.01,4.4,,,,
,,663e5cf112f5d047cf5c9fad,2024-07-03_00h45.29.275,WTP_SM_Choice,2022.2.1,Win32,60.60606061,,,,,,,,,,,,,,,,,,30,,,,,,,,,,0.01,2,0.8254,0,4,4,4,1,read,spent time with my family,0.05,0.01,8.8,,,,
,,663e5cf112f5d047cf5c9fad,2024-07-03_00h45.29.275,WTP_SM_Choice,2022.2.1,Win32,60.60606061,,,,,,,NAN,,NAN,0.64,5.36,,0,29,29,29,1,30,Sam,Acc,Participant_Images/663e5cf112f5d047cf5c9fad/663e5cf112f5d047cf5c9fad_Images/663e5cf112f5d047cf5c9fad_Image_18.jpeg,liked,1.661473164,,,,,,,,,,,,,,,,,,,,,
,,663e5cf112f5d047cf5c9fad,2024-07-03_00h45.29.275,WTP_SM_Choice,2022.2.1,Win32,60.60606061,,,,,space,1.0695,NAN,,NAN,0.64,5.36,,0,30,30,30,1,31,Sam,Acc,Participant_Images/663e5cf112f5d047cf5c9fad/663e5cf112f5d047cf5c9fad_Images/663e5cf112f5d047cf5c9fad_Image_17.jpeg,did not like,3.613205605,,,,,,,,,,,,,,,,,,,,,
,,663e5cf112f5d047cf5c9fad,2024-07-03_00h45.29.275,WTP_SM_Choice,2022.2.1,Win32,60.60606061,,,,,space,0.6801,NAN,,NAN,0.64,5.36,,0,31,31,31,1,32,Sam,Acc,Participant_Images/663e5cf112f5d047cf5c9fad/663e5cf112f5d047cf5c9fad_Images/663e5cf112f5d047cf5c9fad_Image_9.jpeg,liked,4.988446431,,,,,,,,,,,,,,,,,,,,,
,,663e5cf112f5d047cf5c9fad,2024-07-03_00h45.29.275,WTP_SM_Choice,2022.2.1,Win32,60.60606061,,,,,space,0.7356,NAN,,NAN,0.64,5.36,,0,32,32,32,1,33,Sam,Acc,Participant_Images/663e5cf112f5d047cf5c9fad/663e5cf112f5d047cf5c9fad_Images/663e5cf112f5d047cf5c9fad_Image_23.jpeg,liked,3.470791822,,,,,,,,,,,,,,,,,,,,,
,,663e5cf112f5d047cf5c9fad,2024-07-03_00h45.29.275,WTP_SM_Choice,2022.2.1,Win32,60.60606061,,,,,space,1.0775,NAN,,NAN,0.64,5.36,,0,33,33,33,1,34,Sam,Acc,Participant_Images/663e5cf112f5d047cf5c9fad/663e5cf112f5d047cf5c9fad_Images/663e5cf112f5d047cf5c9fad_Image_10.jpeg,liked,3.820572462,,,,,,,,,,,,,,,,,,,,,
,,663e5cf112f5d047cf5c9fad,2024-07-03_00h45.29.275,WTP_SM_Choice,2022.2.1,Win32,60.60606061,,,,,,,,,,,,,,,,,,31,,,,,,space,1.1009,space,0.7729,0.01,1,0.8136,0,0,0,0,1,cook,go out to eat with family,0.01,0.02,8.8,,,,
,,663e5cf112f5d047cf5c9fad,2024-07-03_00h45.29.275,WTP_SM_Choice,2022.2.1,Win32,60.60606061,,,,,,,,,,,,,,,,,,32,,,,,,,,,,0.02,2,1.2398,0,1,1,1,1,browse the internet,talk with my friends online,0.02,0.02,1.1,,,,
,,663e5cf112f5d047cf5c9fad,2024-07-03_00h45.29.275,WTP_SM_Choice,2022.2.1,Win32,60.60606061,,,,,,,,,,,,,,,,,,33,,,,,,,,,,0.02,2,1.5624,0,2,2,2,1,cook,go visit my extended family,0.03,0.02,4.4,,,,
,,663e5cf112f5d047cf5c9fad,2024-07-03_00h45.29.275,WTP_SM_Choice,2022.2.1,Win32,60.60606061,,,,,,,,,,,,,,,,,,34,,,,,,,,,,0.02,2,1.0374,0,3,3,3,1,browse the internet,go to festivals like pride,0.04,0.02,3.3,,,,
,,663e5cf112f5d047cf5c9fad,2024-07-03_00h45.29.275,WTP_SM_Choice,2022.2.1,Win32,60.60606061,,,,,,,,,,,,,,,,,,35,,,,,,,,,,0.02,2,1.1032,0,4,4,4,1,listen to music,work on college group projects,0.05,0.02,1.1,,,,
,,663e5cf112f5d047cf5c9fad,2024-07-03_00h45.29.275,WTP_SM_Choice,2022.2.1,Win32,60.60606061,,,,,,,NAN,,NAN,0.73,5.27,,0,34,34,34,1,35,Sam,Acc,Participant_Images/663e5cf112f5d047cf5c9fad/663e5cf112f5d047cf5c9fad_Images/663e5cf112f5d047cf5c9fad_Image_6.jpeg,liked,2.455989137,,,,,,,,,,,,,,,,,,,,,
,,663e5cf112f5d047cf5c9fad,2024-07-03_00h45.29.275,WTP_SM_Choice,2022.2.1,Win32,60.60606061,,,,,space,0.6513,NAN,,NAN,0.73,5.27,,0,35,35,35,1,36,Sam,Acc,Participant_Images/663e5cf112f5d047cf5c9fad/663e5cf112f5d047cf5c9fad_Images/663e5cf112f5d047cf5c9fad_Image_13.jpeg,did not like,3.79605092,,,,,,,,,,,,,,,,,,,,,
,,663e5cf112f5d047cf5c9fad,2024-07-03_00h45.29.275,WTP_SM_Choice,2022.2.1,Win32,60.60606061,,,,,space,0.4189,NAN,,NAN,0.73,5.27,,0,36,36,36,1,37,Sam,Acc,Participant_Images/663e5cf112f5d047cf5c9fad/663e5cf112f5d047cf5c9fad_Images/663e5cf112f5d047cf5c9fad_Image_21.jpeg,liked,3.562416326,,,,,,,,,,,,,,,,,,,,,
,,663e5cf112f5d047cf5c9fad,2024-07-03_00h45.29.275,WTP_SM_Choice,2022.2.1,Win32,60.60606061,,,,,space,0.5139,NAN,,NAN,0.73,5.27,,0,37,37,37,1,38,Sam,Acc,Participant_Images/663e5cf112f5d047cf5c9fad/663e5cf112f5d047cf5c9fad_Images/663e5cf112f5d047cf5c9fad_Image_14.jpeg,liked,2.843822497,,,,,,,,,,,,,,,,,,,,,
,,663e5cf112f5d047cf5c9fad,2024-07-03_00h45.29.275,WTP_SM_Choice,2022.2.1,Win32,60.60606061,,,,,space,0.768,NAN,,NAN,0.73,5.27,,0,38,38,38,1,39,Sam,Acc,Participant_Images/663e5cf112f5d047cf5c9fad/663e5cf112f5d047cf5c9fad_Images/663e5cf112f5d047cf5c9fad_Image_15.jpeg,liked,3.546495948,,,,,,,,,,,,,,,,,,,,,
,,663e5cf112f5d047cf5c9fad,2024-07-03_00h45.29.275,WTP_SM_Choice,2022.2.1,Win32,60.60606061,,,,,,,,,,,,,,,,,,36,,,,,,space,1.3202,space,0.8098,0.01,1,0.9257,0,0,0,0,1,exercise,play video games online with my partner and friends,0.01,0.03,3.3,,,,
,,663e5cf112f5d047cf5c9fad,2024-07-03_00h45.29.275,WTP_SM_Choice,2022.2.1,Win32,60.60606061,,,,,,,,,,,,,,,,,,37,,,,,,,,,,0.02,1,0.9443,0,1,1,1,1,read,talk with my friends online,0.02,0.03,1.1,,,,
,,663e5cf112f5d047cf5c9fad,2024-07-03_00h45.29.275,WTP_SM_Choice,2022.2.1,Win32,60.60606061,,,,,,,,,,,,,,,,,,38,,,,,,,,,,0.03,1,1.2244,0,2,2,2,1,play video games,talk with my friends online,0.03,0.03,1.1,,,,
,,663e5cf112f5d047cf5c9fad,2024-07-03_00h45.29.275,WTP_SM_Choice,2022.2.1,Win32,60.60606061,,,,,,,,,,,,,,,,,,39,,,,,,,,,,0.03,2,1.1788,0,3,3,3,1,watch movies or TV,work on college group projects,0.04,0.03,3.3,,,,
,,663e5cf112f5d047cf5c9fad,2024-07-03_00h45.29.275,WTP_SM_Choice,2022.2.1,Win32,60.60606061,,,,,,,,,,,,,,,,,,40,,,,,,,,,,0.03,2,1.0319,0,4,4,4,1,exercise,go to festivals like pride,0.05,0.03,4.4,,,,
,,663e5cf112f5d047cf5c9fad,2024-07-03_00h45.29.275,WTP_SM_Choice,2022.2.1,Win32,60.60606061,,,,,,,NAN,,NAN,0.85,5.15,,0,39,39,39,1,40,Sam,Acc,Participant_Images/663e5cf112f5d047cf5c9fad/663e5cf112f5d047cf5c9fad_Images/663e5cf112f5d047cf5c9fad_Image_7.jpeg,liked,1.672012706,,,,,,,,,,,,,,,,,,,,,
,,663e5cf112f5d047cf5c9fad,2024-07-03_00h45.29.275,WTP_SM_Choice,2022.2.1,Win32,60.60606061,,,,,space,1.024,NAN,,NAN,0.85,5.15,,0,40,40,40,1,41,Sam,Acc,Participant_Images/663e5cf112f5d047cf5c9fad/663e5cf112f5d047cf5c9fad_Images/663e5cf112f5d047cf5c9fad_Image_5.jpeg,liked,4.942172136,,,,,,,,,,,,,,,,,,,,,
,,663e5cf112f5d047cf5c9fad,2024-07-03_00h45.29.275,WTP_SM_Choice,2022.2.1,Win32,60.60606061,,,,,space,0.9356,NAN,,NAN,0.85,5.15,,0,41,41,41,1,42,Sam,Acc,Participant_Images/663e5cf112f5d047cf5c9fad/663e5cf112f5d047cf5c9fad_Images/663e5cf112f5d047cf5c9fad_Image_4.jpeg,liked,2.50187214,,,,,,,,,,,,,,,,,,,,,
,,663e5cf112f5d047cf5c9fad,2024-07-03_00h45.29.275,WTP_SM_Choice,2022.2.1,Win32,60.60606061,,,,,space,0.5348,NAN,,NAN,0.85,5.15,,0,42,42,42,1,43,Sam,Acc,Participant_Images/663e5cf112f5d047cf5c9fad/663e5cf112f5d047cf5c9fad_Images/663e5cf112f5d047cf5c9fad_Image_24.jpeg,liked,2.071164779,,,,,,,,,,,,,,,,,,,,,
,,663e5cf112f5d047cf5c9fad,2024-07-03_00h45.29.275,WTP_SM_Choice,2022.2.1,Win32,60.60606061,,,,,space,0.5847,NAN,,NAN,0.85,5.15,,0,43,43,43,1,44,Sam,Acc,Participant_Images/663e5cf112f5d047cf5c9fad/663e5cf112f5d047cf5c9fad_Images/663e5cf112f5d047cf5c9fad_Image_25.jpeg,did not like,5.336503566,,,,,,,,,,,,,,,,,,,,,
,,663e5cf112f5d047cf5c9fad,2024-07-03_00h45.29.275,WTP_SM_Choice,2022.2.1,Win32,60.60606061,,,,,,,,,,,,,,,,,,41,,,,,,space,1.5957,space,0.7687,0.01,1,0.8532,0,0,0,0,1,cook,go to the movies,0.01,0.04,1.1,,,,
,,663e5cf112f5d047cf5c9fad,2024-07-03_00h45.29.275,WTP_SM_Choice,2022.2.1,Win32,60.60606061,,,,,,,,,,,,,,,,,,42,,,,,,,,,,0.02,1,0.9311,0,1,1,1,1,learn french,spend time with my partner,0.02,0.04,3.3,,,,
,,663e5cf112f5d047cf5c9fad,2024-07-03_00h45.29.275,WTP_SM_Choice,2022.2.1,Win32,60.60606061,,,,,,,,,,,,,,,,,,43,,,,,,,,,,0.03,1,0.851,0,2,2,2,1,exercise,go to the movies,0.03,0.04,1.1,,,,
,,663e5cf112f5d047cf5c9fad,2024-07-03_00h45.29.275,WTP_SM_Choice,2022.2.1,Win32,60.60606061,,,,,,,,,,,,,,,,,,44,,,,,,,,,,0.04,2,1.265,0,3,3,3,1,learn french,go to the movies,0.04,0.04,1.1,,,,
,,663e5cf112f5d047cf5c9fad,2024-07-03_00h45.29.275,WTP_SM_Choice,2022.2.1,Win32,60.60606061,,,,,,,,,,,,,,,,,,45,,,,,,,,,,0.04,2,1.0489,0,4,4,4,1,exercise,spent time with my family,0.05,0.04,4.4,,,,
,,663e5cf112f5d047cf5c9fad,2024-07-03_00h45.29.275,WTP_SM_Choice,2022.2.1,Win32,60.60606061,,,,,,,NAN,,NAN,0.99,5.01,,0,44,44,44,1,45,Sam,Acc,Participant_Images/663e5cf112f5d047cf5c9fad/663e5cf112f5d047cf5c9fad_Images/663e5cf112f5d047cf5c9fad_Image_11.jpeg,did not like,2.642157193,,,,,,,,,,,,,,,,,,,,,
,,663e5cf112f5d047cf5c9fad,2024-07-03_00h45.29.275,WTP_SM_Choice,2022.2.1,Win32,60.60606061,,,,,space,0.5197,NAN,,NAN,0.99,5.01,,0,45,45,45,1,46,Sam,Acc,Participant_Images/663e5cf112f5d047cf5c9fad/663e5cf112f5d047cf5c9fad_Images/663e5cf112f5d047cf5c9fad_Image_2.jpeg,liked,4.456234322,,,,,,,,,,,,,,,,,,,,,
,,663e5cf112f5d047cf5c9fad,2024-07-03_00h45.29.275,WTP_SM_Choice,2022.2.1,Win32,60.60606061,,,,,space,0.3944,NAN,,NAN,0.99,5.01,,0,46,46,46,1,47,Sam,Acc,Participant_Images/663e5cf112f5d047cf5c9fad/663e5cf112f5d047cf5c9fad_Images/663e5cf112f5d047cf5c9fad_Image_16.jpeg,did not like,4.438512181,,,,,,,,,,,,,,,,,,,,,
,,663e5cf112f5d047cf5c9fad,2024-07-03_00h45.29.275,WTP_SM_Choice,2022.2.1,Win32,60.60606061,,,,,space,0.6377,NAN,,NAN,0.99,5.01,,0,47,47,47,1,48,Sam,Acc,Participant_Images/663e5cf112f5d047cf5c9fad/663e5cf112f5d047cf5c9fad_Images/663e5cf112f5d047cf5c9fad_Image_1.jpeg,did not like,2.682944783,,,,,,,,,,,,,,,,,,,,,
,,663e5cf112f5d047cf5c9fad,2024-07-03_00h45.29.275,WTP_SM_Choice,2022.2.1,Win32,60.60606061,,,,,space,0.4685,NAN,,NAN,0.99,5.01,,0,48,48,48,1,49,Sam,Acc,Participant_Images/663e5cf112f5d047cf5c9fad/663e5cf112f5d047cf5c9fad_Images/663e5cf112f5d047cf5c9fad_Image_3.jpeg,did not like,4.51984296,,,,,,,,,,,,,,,,,,,,,
,,663e5cf112f5d047cf5c9fad,2024-07-03_00h45.29.275,WTP_SM_Choice,2022.2.1,Win32,60.60606061,,,,,,,,,,,,,,,,,,46,,,,,,space,1.9154,space,0.6574,0.01,1,1.0487,0,0,0,0,1,play video games,go out to eat with family,0.01,0.05,8.8,,,,
,,663e5cf112f5d047cf5c9fad,2024-07-03_00h45.29.275,WTP_SM_Choice,2022.2.1,Win32,60.60606061,,,,,,,,,,,,,,,,,,47,,,,,,,,,,0.02,1,0.858,0,1,1,1,1,do bead art,go to the movies,0.02,0.05,1.1,,,,
,,663e5cf112f5d047cf5c9fad,2024-07-03_00h45.29.275,WTP_SM_Choice,2022.2.1,Win32,60.60606061,,,,,,,,,,,,,,,,,,48,,,,,,,,,,0.03,1,0.9596,0,2,2,2,1,read,go out to eat with family,0.03,0.05,4.4,,,,
,,663e5cf112f5d047cf5c9fad,2024-07-03_00h45.29.275,WTP_SM_Choice,2022.2.1,Win32,60.60606061,,,,,,,,,,,,,,,,,,49,,,,,,,,,,0.04,1,0.9317,0,3,3,3,1,go for a walk,go to the movies,0.04,0.05,3.3,,,,
,,663e5cf112f5d047cf5c9fad,2024-07-03_00h45.29.275,WTP_SM_Choice,2022.2.1,Win32,60.60606061,,,,,,,,,,,,,,,,,,50,,,,,,,,,,0.05,2,1.0686,0,4,4,4,1,go for a walk,spend time with my partner,0.05,0.05,1.1,,,,
,,663e5cf112f5d047cf5c9fad,2024-07-03_00h45.29.275,WTP_SM_Choice,2022.2.1,Win32,60.60606061,,,,,,,4,,8,1.14,4.86,,0,49,49,49,1,50,Sam,Acc,Participant_Images/663e5cf112f5d047cf5c9fad/663e5cf112f5d047cf5c9fad_Images/663e5cf112f5d047cf5c9fad_Image_20.jpeg,liked,3.195382774,,,,,,,,,,,,,,,,,,space,1.1525,,
,,663e5cf112f5d047cf5c9fad,2024-07-03_00h45.29.275,WTP_SM_Choice,2022.2.1,Win32,60.60606061,,,space,1.8781,space,0.4034,NAN,,NAN,1.14,4.86,,0,50,50,50,1,51,Charlie,Rej,Participant_Images/663e5cf112f5d047cf5c9fad/663e5cf112f5d047cf5c9fad_Images/663e5cf112f5d047cf5c9fad_Image_3.jpeg,did not like,1.779333479,,,,,,,,,,,,,,,,,,,,,
,,663e5cf112f5d047cf5c9fad,2024-07-03_00h45.29.275,WTP_SM_Choice,2022.2.1,Win32,60.60606061,,,,,space,0.5532,NAN,,NAN,1.14,4.86,,0,51,51,51,1,52,Charlie,Rej,Participant_Images/663e5cf112f5d047cf5c9fad/663e5cf112f5d047cf5c9fad_Images/663e5cf112f5d047cf5c9fad_Image_6.jpeg,liked,4.312468682,,,,,,,,,,,,,,,,,,,,,
,,663e5cf112f5d047cf5c9fad,2024-07-03_00h45.29.275,WTP_SM_Choice,2022.2.1,Win32,60.60606061,,,,,space,0.5582,NAN,,NAN,1.14,4.86,,0,52,52,52,1,53,Charlie,Rej,Participant_Images/663e5cf112f5d047cf5c9fad/663e5cf112f5d047cf5c9fad_Images/663e5cf112f5d047cf5c9fad_Image_2.jpeg,did not like,4.940433059,,,,,,,,,,,,,,,,,,,,,
,,663e5cf112f5d047cf5c9fad,2024-07-03_00h45.29.275,WTP_SM_Choice,2022.2.1,Win32,60.60606061,,,,,space,0.5827,NAN,,NAN,1.14,4.86,,0,53,53,53,1,54,Charlie,Rej,Participant_Images/663e5cf112f5d047cf5c9fad/663e5cf112f5d047cf5c9fad_Images/663e5cf112f5d047cf5c9fad_Image_22.jpeg,did not like,2.7105123,,,,,,,,,,,,,,,,,,,,,
,,663e5cf112f5d047cf5c9fad,2024-07-03_00h45.29.275,WTP_SM_Choice,2022.2.1,Win32,60.60606061,,,,,,,,,,,,,,,,,,51,,,,,,space,1.1785,space,0.5858,0.01,1,0.9638,0,0,0,0,1,browse the internet,create art and get live feedback from my partner,0.01,0.01,1.1,,,,
,,663e5cf112f5d047cf5c9fad,2024-07-03_00h45.29.275,WTP_SM_Choice,2022.2.1,Win32,60.60606061,,,,,,,,,,,,,,,,,,52,,,,,,,,,,0.02,1,0.9895,0,1,1,1,1,browse the internet,work on college group projects,0.02,0.01,3.3,,,,
,,663e5cf112f5d047cf5c9fad,2024-07-03_00h45.29.275,WTP_SM_Choice,2022.2.1,Win32,60.60606061,,,,,,,,,,,,,,,,,,53,,,,,,,,,,0.01,2,0.7448,0,2,2,2,1,browse the internet,spend time with my partner,0.03,0.01,1.1,,,,
,,663e5cf112f5d047cf5c9fad,2024-07-03_00h45.29.275,WTP_SM_Choice,2022.2.1,Win32,60.60606061,,,,,,,,,,,,,,,,,,54,,,,,,,,,,0.01,2,1.4643,0,3,3,3,1,learn french,create art and get live feedback from my partner,0.04,0.01,4.4,,,,
,,663e5cf112f5d047cf5c9fad,2024-07-03_00h45.29.275,WTP_SM_Choice,2022.2.1,Win32,60.60606061,,,,,,,,,,,,,,,,,,55,,,,,,,,,,0.01,2,0.9132,0,4,4,4,1,exercise,go out to eat with family,0.05,0.01,1.1,,,,
,,663e5cf112f5d047cf5c9fad,2024-07-03_00h45.29.275,WTP_SM_Choice,2022.2.1,Win32,60.60606061,,,,,,,NAN,,NAN,1.2,4.8,,0,54,54,54,1,55,Charlie,Rej,Participant_Images/663e5cf112f5d047cf5c9fad/663e5cf112f5d047cf5c9fad_Images/663e5cf112f5d047cf5c9fad_Image_9.jpeg,did not like,3.602308302,,,,,,,,,,,,,,,,,,,,,
,,663e5cf112f5d047cf5c9fad,2024-07-03_00h45.29.275,WTP_SM_Choice,2022.2.1,Win32,60.60606061,,,,,space,0.3848,NAN,,NAN,1.2,4.8,,0,55,55,55,1,56,Charlie,Rej,Participant_Images/663e5cf112f5d047cf5c9fad/663e5cf112f5d047cf5c9fad_Images/663e5cf112f5d047cf5c9fad_Image_14.jpeg,did not like,4.106391878,,,,,,,,,,,,,,,,,,,,,
,,663e5cf112f5d047cf5c9fad,2024-07-03_00h45.29.275,WTP_SM_Choice,2022.2.1,Win32,60.60606061,,,,,space,0.6539,NAN,,NAN,1.2,4.8,,0,56,56,56,1,57,Charlie,Rej,Participant_Images/663e5cf112f5d047cf5c9fad/663e5cf112f5d047cf5c9fad_Images/663e5cf112f5d047cf5c9fad_Image_1.jpeg,did not like,3.799433026,,,,,,,,,,,,,,,,,,,,,
,,663e5cf112f5d047cf5c9fad,2024-07-03_00h45.29.275,WTP_SM_Choice,2022.2.1,Win32,60.60606061,,,,,space,0.4519,NAN,,NAN,1.2,4.8,,0,57,57,57,1,58,Charlie,Rej,Participant_Images/663e5cf112f5d047cf5c9fad/663e5cf112f5d047cf5c9fad_Images/663e5cf112f5d047cf5c9fad_Image_10.jpeg,did not like,5.246980764,,,,,,,,,,,,,,,,,,,,,
,,663e5cf112f5d047cf5c9fad,2024-07-03_00h45.29.275,WTP_SM_Choice,2022.2.1,Win32,60.60606061,,,,,space,0.5518,NAN,,NAN,1.2,4.8,,0,58,58,58,1,59,Charlie,Rej,Participant_Images/663e5cf112f5d047cf5c9fad/663e5cf112f5d047cf5c9fad_Images/663e5cf112f5d047cf5c9fad_Image_25.jpeg,did not like,3.30081769,,,,,,,,,,,,,,,,,,,,,
,,663e5cf112f5d047cf5c9fad,2024-07-03_00h45.29.275,WTP_SM_Choice,2022.2.1,Win32,60.60606061,,,,,,,,,,,,,,,,,,56,,,,,,space,0.9714,space,0.5886,0.01,1,0.8676,0,0,0,0,1,listen to music,spend time with my partner,0.01,0.02,8.8,,,,
,,663e5cf112f5d047cf5c9fad,2024-07-03_00h45.29.275,WTP_SM_Choice,2022.2.1,Win32,60.60606061,,,,,,,,,,,,,,,,,,57,,,,,,,,,,0.02,2,1.0306,0,1,1,1,1,listen to music,play video games online with my partner and friends,0.02,0.02,4.4,,,,
,,663e5cf112f5d047cf5c9fad,2024-07-03_00h45.29.275,WTP_SM_Choice,2022.2.1,Win32,60.60606061,,,,,,,,,,,,,,,,,,58,,,,,,,,,,0.02,2,1.0644,0,2,2,2,1,do bead art,play video games online with my partner and friends,0.03,0.02,4.4,,,,
,,663e5cf112f5d047cf5c9fad,2024-07-03_00h45.29.275,WTP_SM_Choice,2022.2.1,Win32,60.60606061,,,,,,,,,,,,,,,,,,59,,,,,,,,,,0.02,2,1.0812,0,3,3,3,1,watch movies or TV,go out to eat with family,0.04,0.02,4.4,,,,
,,663e5cf112f5d047cf5c9fad,2024-07-03_00h45.29.275,WTP_SM_Choice,2022.2.1,Win32,60.60606061,,,,,,,,,,,,,,,,,,60,,,,,,,,,,0.02,2,0.8757,0,4,4,4,1,watch movies or TV,create art and get live feedback from my partner,0.05,0.02,1.1,,,,
,,663e5cf112f5d047cf5c9fad,2024-07-03_00h45.29.275,WTP_SM_Choice,2022.2.1,Win32,60.60606061,,,,,,,NAN,,NAN,1.29,4.71,,0,59,59,59,1,60,Charlie,Rej,Participant_Images/663e5cf112f5d047cf5c9fad/663e5cf112f5d047cf5c9fad_Images/663e5cf112f5d047cf5c9fad_Image_24.jpeg,did not like,1.661473164,,,,,,,,,,,,,,,,,,,,,
,,663e5cf112f5d047cf5c9fad,2024-07-03_00h45.29.275,WTP_SM_Choice,2022.2.1,Win32,60.60606061,,,,,space,1.0962,NAN,,NAN,1.29,4.71,,0,60,60,60,1,61,Charlie,Rej,Participant_Images/663e5cf112f5d047cf5c9fad/663e5cf112f5d047cf5c9fad_Images/663e5cf112f5d047cf5c9fad_Image_17.jpeg,did not like,3.613205605,,,,,,,,,,,,,,,,,,,,,
,,663e5cf112f5d047cf5c9fad,2024-07-03_00h45.29.275,WTP_SM_Choice,2022.2.1,Win32,60.60606061,,,,,space,0.9523,NAN,,NAN,1.29,4.71,,0,61,61,61,1,62,Charlie,Rej,Participant_Images/663e5cf112f5d047cf5c9fad/663e5cf112f5d047cf5c9fad_Images/663e5cf112f5d047cf5c9fad_Image_11.jpeg,did not like,4.988446431,,,,,,,,,,,,,,,,,,,,,
,,663e5cf112f5d047cf5c9fad,2024-07-03_00h45.29.275,WTP_SM_Choice,2022.2.1,Win32,60.60606061,,,,,space,1.3024,NAN,,NAN,1.29,4.71,,0,62,62,62,1,63,Charlie,Rej,Participant_Images/663e5cf112f5d047cf5c9fad/663e5cf112f5d047cf5c9fad_Images/663e5cf112f5d047cf5c9fad_Image_13.jpeg,liked,3.470791822,,,,,,,,,,,,,,,,,,,,,
,,663e5cf112f5d047cf5c9fad,2024-07-03_00h45.29.275,WTP_SM_Choice,2022.2.1,Win32,60.60606061,,,,,space,2.8392,NAN,,NAN,1.29,4.71,,0,63,63,63,1,64,Charlie,Rej,Participant_Images/663e5cf112f5d047cf5c9fad/663e5cf112f5d047cf5c9fad_Images/663e5cf112f5d047cf5c9fad_Image_7.jpeg,did not like,3.820572462,,,,,,,,,,,,,,,,,,,,,
,,663e5cf112f5d047cf5c9fad,2024-07-03_00h45.29.275,WTP_SM_Choice,2022.2.1,Win32,60.60606061,,,,,,,,,,,,,,,,,,61,,,,,,space,0.7828,space,0.9522,0.01,1,1.0719,0,0,0,0,1,watch movies or TV,go to festivals like pride,0.01,0.03,3.3,,,,
,,663e5cf112f5d047cf5c9fad,2024-07-03_00h45.29.275,WTP_SM_Choice,2022.2.1,Win32,60.60606061,,,,,,,,,,,,,,,,,,62,,,,,,,,,,0.02,1,1.0147,0,1,1,1,1,learn french,go visit my extended family,0.02,0.03,3.3,,,,
,,663e5cf112f5d047cf5c9fad,2024-07-03_00h45.29.275,WTP_SM_Choice,2022.2.1,Win32,60.60606061,,,,,,,,,,,,,,,,,,63,,,,,,,,,,0.03,2,1.4858,0,2,2,2,1,cook,work on college group projects,0.03,0.03,3.3,,,,
,,663e5cf112f5d047cf5c9fad,2024-07-03_00h45.29.275,WTP_SM_Choice,2022.2.1,Win32,60.60606061,,,,,,,,,,,,,,,,,,64,,,,,,,,,,0.03,2,0.9511,0,3,3,3,1,go for a walk,spent time with my family,0.04,0.03,1.1,,,,
,,663e5cf112f5d047cf5c9fad,2024-07-03_00h45.29.275,WTP_SM_Choice,2022.2.1,Win32,60.60606061,,,,,,,,,,,,,,,,,,65,,,,,,,,,,0.03,2,1.0222,0,4,4,4,1,listen to music,go to festivals like pride,0.05,0.03,1.1,,,,
,,663e5cf112f5d047cf5c9fad,2024-07-03_00h45.29.275,WTP_SM_Choice,2022.2.1,Win32,60.60606061,,,,,,,NAN,,NAN,1.41,4.59,,0,64,64,64,1,65,Charlie,Rej,Participant_Images/663e5cf112f5d047cf5c9fad/663e5cf112f5d047cf5c9fad_Images/663e5cf112f5d047cf5c9fad_Image_5.jpeg,liked,2.455989137,,,,,,,,,,,,,,,,,,,,,
,,663e5cf112f5d047cf5c9fad,2024-07-03_00h45.29.275,WTP_SM_Choice,2022.2.1,Win32,60.60606061,,,,,space,0.741,NAN,,NAN,1.41,4.59,,0,65,65,65,1,66,Charlie,Rej,Participant_Images/663e5cf112f5d047cf5c9fad/663e5cf112f5d047cf5c9fad_Images/663e5cf112f5d047cf5c9fad_Image_18.jpeg,did not like,3.79605092,,,,,,,,,,,,,,,,,,,,,
,,663e5cf112f5d047cf5c9fad,2024-07-03_00h45.29.275,WTP_SM_Choice,2022.2.1,Win32,60.60606061,,,,,space,0.5514,NAN,,NAN,1.41,4.59,,0,66,66,66,1,67,Charlie,Rej,Participant_Images/663e5cf112f5d047cf5c9fad/663e5cf112f5d047cf5c9fad_Images/663e5cf112f5d047cf5c9fad_Image_4.jpeg,liked,3.562416326,,,,,,,,,,,,,,,,,,,,,
,,663e5cf112f5d047cf5c9fad,2024-07-03_00h45.29.275,WTP_SM_Choice,2022.2.1,Win32,60.60606061,,,,,space,0.9905,NAN,,NAN,1.41,4.59,,0,67,67,67,1,68,Charlie,Rej,Participant_Images/663e5cf112f5d047cf5c9fad/663e5cf112f5d047cf5c9fad_Images/663e5cf112f5d047cf5c9fad_Image_23.jpeg,did not like,2.843822497,,,,,,,,,,,,,,,,,,,,,
,,663e5cf112f5d047cf5c9fad,2024-07-03_00h45.29.275,WTP_SM_Choice,2022.2.1,Win32,60.60606061,,,,,space,0.6844,NAN,,NAN,1.41,4.59,,0,68,68,68,1,69,Charlie,Rej,Participant_Images/663e5cf112f5d047cf5c9fad/663e5cf112f5d047cf5c9fad_Images/663e5cf112f5d047cf5c9fad_Image_19.jpeg,did not like,3.546495948,,,,,,,,,,,,,,,,,,,,,
,,663e5cf112f5d047cf5c9fad,2024-07-03_00h45.29.275,WTP_SM_Choice,2022.2.1,Win32,60.60606061,,,,,,,,,,,,,,,,,,66,,,,,,space,0.6728,space,0.5127,0.01,1,0.9011,0,0,0,0,1,do bead art,go visit my extended family,0.01,0.04,1.1,,,,
,,663e5cf112f5d047cf5c9fad,2024-07-03_00h45.29.275,WTP_SM_Choice,2022.2.1,Win32,60.60606061,,,,,,,,,,,,,,,,,,67,,,,,,,,,,0.02,1,0.9661,0,1,1,1,1,read,go to the movies,0.02,0.04,8.8,,,,
,,663e5cf112f5d047cf5c9fad,2024-07-03_00h45.29.275,WTP_SM_Choice,2022.2.1,Win32,60.60606061,,,,,,,,,,,,,,,,,,68,,,,,,,,,,0.03,1,1.248,0,2,2,2,1,listen to music,go visit my extended family,0.03,0.04,4.4,,,,
,,663e5cf112f5d047cf5c9fad,2024-07-03_00h45.29.275,WTP_SM_Choice,2022.2.1,Win32,60.60606061,,,,,,,,,,,,,,,,,,69,,,,,,,,,,0.04,1,1.3358,0,3,3,3,1,go for a walk,create art and get live feedback from my partner,0.04,0.04,1.1,,,,
,,663e5cf112f5d047cf5c9fad,2024-07-03_00h45.29.275,WTP_SM_Choice,2022.2.1,Win32,60.60606061,,,,,,,,,,,,,,,,,,70,,,,,,,,,,0.04,2,1.4704,0,4,4,4,1,do bead art,spend time with my partner,0.05,0.04,1.1,,,,
,,663e5cf112f5d047cf5c9fad,2024-07-03_00h45.29.275,WTP_SM_Choice,2022.2.1,Win32,60.60606061,,,,,,,NAN,,NAN,1.55,4.45,,0,69,69,69,1,70,Charlie,Rej,Participant_Images/663e5cf112f5d047cf5c9fad/663e5cf112f5d047cf5c9fad_Images/663e5cf112f5d047cf5c9fad_Image_16.jpeg,did not like,1.672012706,,,,,,,,,,,,,,,,,,,,,
,,663e5cf112f5d047cf5c9fad,2024-07-03_00h45.29.275,WTP_SM_Choice,2022.2.1,Win32,60.60606061,,,,,space,1.2101,NAN,,NAN,1.55,4.45,,0,70,70,70,1,71,Charlie,Rej,Participant_Images/663e5cf112f5d047cf5c9fad/663e5cf112f5d047cf5c9fad_Images/663e5cf112f5d047cf5c9fad_Image_12.jpeg,liked,4.942172136,,,,,,,,,,,,,,,,,,,,,
,,663e5cf112f5d047cf5c9fad,2024-07-03_00h45.29.275,WTP_SM_Choice,2022.2.1,Win32,60.60606061,,,,,space,1.0007,NAN,,NAN,1.55,4.45,,0,71,71,71,1,72,Charlie,Rej,Participant_Images/663e5cf112f5d047cf5c9fad/663e5cf112f5d047cf5c9fad_Images/663e5cf112f5d047cf5c9fad_Image_20.jpeg,did not like,2.50187214,,,,,,,,,,,,,,,,,,,,,
,,663e5cf112f5d047cf5c9fad,2024-07-03_00h45.29.275,WTP_SM_Choice,2022.2.1,Win32,60.60606061,,,,,space,0.8768,NAN,,NAN,1.55,4.45,,0,72,72,72,1,73,Charlie,Rej,Participant_Images/663e5cf112f5d047cf5c9fad/663e5cf112f5d047cf5c9fad_Images/663e5cf112f5d047cf5c9fad_Image_15.jpeg,did not like,2.071164779,,,,,,,,,,,,,,,,,,,,,
,,663e5cf112f5d047cf5c9fad,2024-07-03_00h45.29.275,WTP_SM_Choice,2022.2.1,Win32,60.60606061,,,,,space,1.1366,NAN,,NAN,1.55,4.45,,0,73,73,73,1,74,Charlie,Rej,Participant_Images/663e5cf112f5d047cf5c9fad/663e5cf112f5d047cf5c9fad_Images/663e5cf112f5d047cf5c9fad_Image_21.jpeg,liked,5.336503566,,,,,,,,,,,,,,,,,,,,,
,,663e5cf112f5d047cf5c9fad,2024-07-03_00h45.29.275,WTP_SM_Choice,2022.2.1,Win32,60.60606061,,,,,,,,,,,,,,,,,,71,,,,,,space,0.8823,space,0.5247,0.01,1,0.7449,0,0,0,0,1,listen to music,talk with my friends online,0.01,0.05,3.3,,,,
,,663e5cf112f5d047cf5c9fad,2024-07-03_00h45.29.275,WTP_SM_Choice,2022.2.1,Win32,60.60606061,,,,,,,,,,,,,,,,,,72,,,,,,,,,,0.02,1,1.0966,0,1,1,1,1,learn french,play video games online with my partner and friends,0.02,0.05,8.8,,,,
,,663e5cf112f5d047cf5c9fad,2024-07-03_00h45.29.275,WTP_SM_Choice,2022.2.1,Win32,60.60606061,,,,,,,,,,,,,,,,,,73,,,,,,,,,,0.03,1,1.4709,0,2,2,2,1,cook,spent time with my family,0.03,0.05,3.3,,,,
,,663e5cf112f5d047cf5c9fad,2024-07-03_00h45.29.275,WTP_SM_Choice,2022.2.1,Win32,60.60606061,,,,,,,,,,,,,,,,,,74,,,,,,,,,,0.04,1,1.1176,0,3,3,3,1,do bead art,go to festivals like pride,0.04,0.05,4.4,,,,
,,663e5cf112f5d047cf5c9fad,2024-07-03_00h45.29.275,WTP_SM_Choice,2022.2.1,Win32,60.60606061,,,,,,,,,,,,,,,,,,75,,,,,,,,,,0.05,1,1.6252,0,4,4,4,1,watch movies or TV,spend time with my partner,0.05,0.05,3.3,,,,
,,663e5cf112f5d047cf5c9fad,2024-07-03_00h45.29.275,WTP_SM_Choice,2022.2.1,Win32,60.60606061,,,,,,,1,,4,1.7,4.3,,0,74,74,74,1,75,Charlie,Rej,Participant_Images/663e5cf112f5d047cf5c9fad/663e5cf112f5d047cf5c9fad_Images/663e5cf112f5d047cf5c9fad_Image_8.jpeg,liked,2.642157193,,,,,,,,,,,,,,,,,,space,1.3357,,
,,663e5cf112f5d047cf5c9fad,2024-07-03_00h45.29.275,WTP_SM_Choice,2022.2.1,Win32,60.60606061,,,space,0.9123,space,0.6853,NAN,,NAN,1.7,4.3,,0,75,75,75,1,76,Riley,Acc,Participant_Images/663e5cf112f5d047cf5c9fad/663e5cf112f5d047cf5c9fad_Images/663e5cf112f5d047cf5c9fad_Image_19.jpeg,liked,4.456234322,,,,,,,,,,,,,,,,,,,,,
,,663e5cf112f5d047cf5c9fad,2024-07-03_00h45.29.275,WTP_SM_Choice,2022.2.1,Win32,60.60606061,,,,,space,0.9084,NAN,,NAN,1.7,4.3,,0,76,76,76,1,77,Riley,Acc,Participant_Images/663e5cf112f5d047cf5c9fad/663e5cf112f5d047cf5c9fad_Images/663e5cf112f5d047cf5c9fad_Image_4.jpeg,liked,4.438512181,,,,,,,,,,,,,,,,,,,,,
,,663e5cf112f5d047cf5c9fad,2024-07-03_00h45.29.275,WTP_SM_Choice,2022.2.1,Win32,60.60606061,,,,,space,1.0118,NAN,,NAN,1.7,4.3,,0,77,77,77,1,78,Riley,Acc,Participant_Images/663e5cf112f5d047cf5c9fad/663e5cf112f5d047cf5c9fad_Images/663e5cf112f5d047cf5c9fad_Image_7.jpeg,liked,2.682944783,,,,,,,,,,,,,,,,,,,,,
,,663e5cf112f5d047cf5c9fad,2024-07-03_00h45.29.275,WTP_SM_Choice,2022.2.1,Win32,60.60606061,,,,,space,2.1317,NAN,,NAN,1.7,4.3,,0,78,78,78,1,79,Riley,Acc,Participant_Images/663e5cf112f5d047cf5c9fad/663e5cf112f5d047cf5c9fad_Images/663e5cf112f5d047cf5c9fad_Image_18.jpeg,liked,4.51984296,,,,,,,,,,,,,,,,,,,,,
,,663e5cf112f5d047cf5c9fad,2024-07-03_00h45.29.275,WTP_SM_Choice,2022.2.1,Win32,60.60606061,,,,,,,,,,,,,,,,,,76,,,,,,space,1.2102,space,0.835,0.01,1,0.8389,0,0,0,0,1,cook,play video games online with my partner and friends,0.01,0.01,1.1,,,,
,,663e5cf112f5d047cf5c9fad,2024-07-03_00h45.29.275,WTP_SM_Choice,2022.2.1,Win32,60.60606061,,,,,,,,,,,,,,,,,,77,,,,,,,,,,0.01,2,1.1552,0,1,1,1,1,play video games,spent time with my family,0.02,0.01,8.8,,,,
,,663e5cf112f5d047cf5c9fad,2024-07-03_00h45.29.275,WTP_SM_Choice,2022.2.1,Win32,60.60606061,,,,,,,,,,,,,,,,,,78,,,,,,,,,,0.01,2,0.9823,0,2,2,2,1,cook,go to festivals like pride,0.03,0.01,1.1,,,,
,,663e5cf112f5d047cf5c9fad,2024-07-03_00h45.29.275,WTP_SM_Choice,2022.2.1,Win32,60.60606061,,,,,,,,,,,,,,,,,,79,,,,,,,,,,0.01,2,0.9685,0,3,3,3,1,exercise,create art and get live feedback from my partner,0.04,0.01,1.1,,,,
,,663e5cf112f5d047cf5c9fad,2024-07-03_00h45.29.275,WTP_SM_Choice,2022.2.1,Win32,60.60606061,,,,,,,,,,,,,,,,,,80,,,,,,,,,,0.01,2,0.9778,0,4,4,4,1,do bead art,talk with my friends online,0.05,0.01,4.4,,,,
,,663e5cf112f5d047cf5c9fad,2024-07-03_00h45.29.275,WTP_SM_Choice,2022.2.1,Win32,60.60606061,,,,,,,NAN,,NAN,1.75,4.25,,0,79,79,79,1,80,Riley,Acc,Participant_Images/663e5cf112f5d047cf5c9fad/663e5cf112f5d047cf5c9fad_Images/663e5cf112f5d047cf5c9fad_Image_25.jpeg,liked,3.195382774,,,,,,,,,,,,,,,,,,,,,
,,663e5cf112f5d047cf5c9fad,2024-07-03_00h45.29.275,WTP_SM_Choice,2022.2.1,Win32,60.60606061,,,,,space,0.4023,NAN,,NAN,1.75,4.25,,0,80,80,80,1,81,Riley,Acc,Participant_Images/663e5cf112f5d047cf5c9fad/663e5cf112f5d047cf5c9fad_Images/663e5cf112f5d047cf5c9fad_Image_2.jpeg,did not like,1.779333479,,,,,,,,,,,,,,,,,,,,,
,,663e5cf112f5d047cf5c9fad,2024-07-03_00h45.29.275,WTP_SM_Choice,2022.2.1,Win32,60.60606061,,,,,space,0.5528,NAN,,NAN,1.75,4.25,,0,81,81,81,1,82,Riley,Acc,Participant_Images/663e5cf112f5d047cf5c9fad/663e5cf112f5d047cf5c9fad_Images/663e5cf112f5d047cf5c9fad_Image_3.jpeg,liked,4.312468682,,,,,,,,,,,,,,,,,,,,,
,,663e5cf112f5d047cf5c9fad,2024-07-03_00h45.29.275,WTP_SM_Choice,2022.2.1,Win32,60.60606061,,,,,space,1.4417,NAN,,NAN,1.75,4.25,,0,82,82,82,1,83,Riley,Acc,Participant_Images/663e5cf112f5d047cf5c9fad/663e5cf112f5d047cf5c9fad_Images/663e5cf112f5d047cf5c9fad_Image_15.jpeg,liked,4.940433059,,,,,,,,,,,,,,,,,,,,,
,,663e5cf112f5d047cf5c9fad,2024-07-03_00h45.29.275,WTP_SM_Choice,2022.2.1,Win32,60.60606061,,,,,space,2.1779,NAN,,NAN,1.75,4.25,,0,83,83,83,1,84,Riley,Acc,Participant_Images/663e5cf112f5d047cf5c9fad/663e5cf112f5d047cf5c9fad_Images/663e5cf112f5d047cf5c9fad_Image_22.jpeg,liked,2.7105123,,,,,,,,,,,,,,,,,,,,,
,,663e5cf112f5d047cf5c9fad,2024-07-03_00h45.29.275,WTP_SM_Choice,2022.2.1,Win32,60.60606061,,,,,,,,,,,,,,,,,,81,,,,,,space,1.9143,space,0.7354,0.01,1,0.8074,0,0,0,0,1,play video games,create art and get live feedback from my partner,0.01,0.02,3.3,,,,
,,663e5cf112f5d047cf5c9fad,2024-07-03_00h45.29.275,WTP_SM_Choice,2022.2.1,Win32,60.60606061,,,,,,,,,,,,,,,,,,82,,,,,,,,,,0.02,1,1.2633,0,1,1,1,1,exercise,work on college group projects,0.02,0.02,4.4,,,,
,,663e5cf112f5d047cf5c9fad,2024-07-03_00h45.29.275,WTP_SM_Choice,2022.2.1,Win32,60.60606061,,,,,,,,,,,,,,,,,,83,,,,,,,,,,0.02,2,1.4816,0,2,2,2,1,listen to music,spent time with my family,0.03,0.02,1.1,,,,
,,663e5cf112f5d047cf5c9fad,2024-07-03_00h45.29.275,WTP_SM_Choice,2022.2.1,Win32,60.60606061,,,,,,,,,,,,,,,,,,84,,,,,,,,,,0.02,2,1.4499,0,3,3,3,1,browse the internet,play video games online with my partner and friends,0.04,0.02,3.3,,,,
,,663e5cf112f5d047cf5c9fad,2024-07-03_00h45.29.275,WTP_SM_Choice,2022.2.1,Win32,60.60606061,,,,,,,,,,,,,,,,,,85,,,,,,,,,,0.02,2,1.0774,0,4,4,4,1,read,play video games online with my partner and friends,0.05,0.02,3.3,,,,
,,663e5cf112f5d047cf5c9fad,2024-07-03_00h45.29.275,WTP_SM_Choice,2022.2.1,Win32,60.60606061,,,,,,,NAN,,NAN,1.84,4.16,,0,84,84,84,1,85,Riley,Acc,Participant_Images/663e5cf112f5d047cf5c9fad/663e5cf112f5d047cf5c9fad_Images/663e5cf112f5d047cf5c9fad_Image_13.jpeg,liked,3.602308302,,,,,,,,,,,,,,,,,,,,,
,,663e5cf112f5d047cf5c9fad,2024-07-03_00h45.29.275,WTP_SM_Choice,2022.2.1,Win32,60.60606061,,,,,space,0.3529,NAN,,NAN,1.84,4.16,,0,85,85,85,1,86,Riley,Acc,Participant_Images/663e5cf112f5d047cf5c9fad/663e5cf112f5d047cf5c9fad_Images/663e5cf112f5d047cf5c9fad_Image_8.jpeg,liked,4.106391878,,,,,,,,,,,,,,,,,,,,,
,,663e5cf112f5d047cf5c9fad,2024-07-03_00h45.29.275,WTP_SM_Choice,2022.2.1,Win32,60.60606061,,,,,space,0.4325,NAN,,NAN,1.84,4.16,,0,86,86,86,1,87,Riley,Acc,Participant_Images/663e5cf112f5d047cf5c9fad/663e5cf112f5d047cf5c9fad_Images/663e5cf112f5d047cf5c9fad_Image_9.jpeg,liked,3.799433026,,,,,,,,,,,,,,,,,,,,,
,,663e5cf112f5d047cf5c9fad,2024-07-03_00h45.29.275,WTP_SM_Choice,2022.2.1,Win32,60.60606061,,,,,space,1.3797,NAN,,NAN,1.84,4.16,,0,87,87,87,1,88,Riley,Acc,Participant_Images/663e5cf112f5d047cf5c9fad/663e5cf112f5d047cf5c9fad_Images/663e5cf112f5d047cf5c9fad_Image_1.jpeg,liked,5.246980764,,,,,,,,,,,,,,,,,,,,,
,,663e5cf112f5d047cf5c9fad,2024-07-03_00h45.29.275,WTP_SM_Choice,2022.2.1,Win32,60.60606061,,,,,space,0.8528,NAN,,NAN,1.84,4.16,,0,88,88,88,1,89,Riley,Acc,Participant_Images/663e5cf112f5d047cf5c9fad/663e5cf112f5d047cf5c9fad_Images/663e5cf112f5d047cf5c9fad_Image_20.jpeg,did not like,3.30081769,,,,,,,,,,,,,,,,,,,,,
,,663e5cf112f5d047cf5c9fad,2024-07-03_00h45.29.275,WTP_SM_Choice,2022.2.1,Win32,60.60606061,,,,,,,,,,,,,,,,,,86,,,,,,space,0.9315,space,0.5683,0.01,1,0.9413,0,0,0,0,1,learn french,go out to eat with family,0.01,0.03,1.1,,,,
,,663e5cf112f5d047cf5c9fad,2024-07-03_00h45.29.275,WTP_SM_Choice,2022.2.1,Win32,60.60606061,,,,,,,,,,,,,,,,,,87,,,,,,,,,,0.02,1,1.3031,0,1,1,1,1,cook,spend time with my partner,0.02,0.03,4.4,,,,
,,663e5cf112f5d047cf5c9fad,2024-07-03_00h45.29.275,WTP_SM_Choice,2022.2.1,Win32,60.60606061,,,,,,,,,,,,,,,,,,88,,,,,,,,,,0.03,1,1.0454,0,2,2,2,1,play video games,go visit my extended family,0.03,0.03,1.1,,,,
,,663e5cf112f5d047cf5c9fad,2024-07-03_00h45.29.275,WTP_SM_Choice,2022.2.1,Win32,60.60606061,,,,,,,,,,,,,,,,,,89,,,,,,,,,,0.03,2,1.5525,0,3,3,3,1,browse the internet,go visit my extended family,0.04,0.03,3.3,,,,
,,663e5cf112f5d047cf5c9fad,2024-07-03_00h45.29.275,WTP_SM_Choice,2022.2.1,Win32,60.60606061,,,,,,,,,,,,,,,,,,90,,,,,,,,,,0.03,2,2.2696,0,4,4,4,1,watch movies or TV,talk with my friends online,0.05,0.03,8.8,,,,
,,663e5cf112f5d047cf5c9fad,2024-07-03_00h45.29.275,WTP_SM_Choice,2022.2.1,Win32,60.60606061,,,,,,,NAN,,NAN,1.96,4.04,,0,89,89,89,1,90,Riley,Acc,Participant_Images/663e5cf112f5d047cf5c9fad/663e5cf112f5d047cf5c9fad_Images/663e5cf112f5d047cf5c9fad_Image_23.jpeg,liked,1.661473164,,,,,,,,,,,,,,,,,,,,,
,,663e5cf112f5d047cf5c9fad,2024-07-03_00h45.29.275,WTP_SM_Choice,2022.2.1,Win32,60.60606061,,,,,space,0.9814,NAN,,NAN,1.96,4.04,,0,90,90,90,1,91,Riley,Acc,Participant_Images/663e5cf112f5d047cf5c9fad/663e5cf112f5d047cf5c9fad_Images/663e5cf112f5d047cf5c9fad_Image_11.jpeg,did not like,3.613205605,,,,,,,,,,,,,,,,,,,,,
,,663e5cf112f5d047cf5c9fad,2024-07-03_00h45.29.275,WTP_SM_Choice,2022.2.1,Win32,60.60606061,,,,,space,0.4917,NAN,,NAN,1.96,4.04,,0,91,91,91,1,92,Riley,Acc,Participant_Images/663e5cf112f5d047cf5c9fad/663e5cf112f5d047cf5c9fad_Images/663e5cf112f5d047cf5c9fad_Image_10.jpeg,did not like,4.988446431,,,,,,,,,,,,,,,,,,,,,
,,663e5cf112f5d047cf5c9fad,2024-07-03_00h45.29.275,WTP_SM_Choice,2022.2.1,Win32,60.60606061,,,,,space,2.0195,NAN,,NAN,1.96,4.04,,0,92,92,92,1,93,Riley,Acc,Participant_Images/663e5cf112f5d047cf5c9fad/663e5cf112f5d047cf5c9fad_Images/663e5cf112f5d047cf5c9fad_Image_21.jpeg,liked,3.470791822,,,,,,,,,,,,,,,,,,,,,
,,663e5cf112f5d047cf5c9fad,2024-07-03_00h45.29.275,WTP_SM_Choice,2022.2.1,Win32,60.60606061,,,,,space,0.5854,NAN,,NAN,1.96,4.04,,0,93,93,93,1,94,Riley,Acc,Participant_Images/663e5cf112f5d047cf5c9fad/663e5cf112f5d047cf5c9fad_Images/663e5cf112f5d047cf5c9fad_Image_5.jpeg,did not like,3.820572462,,,,,,,,,,,,,,,,,,,,,
,,663e5cf112f5d047cf5c9fad,2024-07-03_00h45.29.275,WTP_SM_Choice,2022.2.1,Win32,60.60606061,,,,,,,,,,,,,,,,,,91,,,,,,space,0.5584,space,0.4809,0.01,1,1.1293,0,0,0,0,1,go for a walk,talk with my friends online,0.01,0.04,3.3,,,,
,,663e5cf112f5d047cf5c9fad,2024-07-03_00h45.29.275,WTP_SM_Choice,2022.2.1,Win32,60.60606061,,,,,,,,,,,,,,,,,,92,,,,,,,,,,0.02,1,1.0533,0,1,1,1,1,go for a walk,work on college group projects,0.02,0.04,8.8,,,,
,,663e5cf112f5d047cf5c9fad,2024-07-03_00h45.29.275,WTP_SM_Choice,2022.2.1,Win32,60.60606061,,,,,,,,,,,,,,,,,,93,,,,,,,,,,0.03,1,1.2812,0,2,2,2,1,do bead art,go out to eat with family,0.03,0.04,1.1,,,,
,,663e5cf112f5d047cf5c9fad,2024-07-03_00h45.29.275,WTP_SM_Choice,2022.2.1,Win32,60.60606061,,,,,,,,,,,,,,,,,,94,,,,,,,,,,0.04,1,1.8659,0,3,3,3,1,read,go to festivals like pride,0.04,0.04,4.4,,,,
,,663e5cf112f5d047cf5c9fad,2024-07-03_00h45.29.275,WTP_SM_Choice,2022.2.1,Win32,60.60606061,,,,,,,,,,,,,,,,,,95,,,,,,,,,,0.04,2,1.2819,0,4,4,4,1,play video games,go to festivals like pride,0.05,0.04,4.4,,,,
,,663e5cf112f5d047cf5c9fad,2024-07-03_00h45.29.275,WTP_SM_Choice,2022.2.1,Win32,60.60606061,,,,,,,NAN,,NAN,2.1,3.9,,0,94,94,94,1,95,Riley,Acc,Participant_Images/663e5cf112f5d047cf5c9fad/663e5cf112f5d047cf5c9fad_Images/663e5cf112f5d047cf5c9fad_Image_17.jpeg,liked,2.455989137,,,,,,,,,,,,,,,,,,,,,
,,663e5cf112f5d047cf5c9fad,2024-07-03_00h45.29.275,WTP_SM_Choice,2022.2.1,Win32,60.60606061,,,,,space,1.2674,NAN,,NAN,2.1,3.9,,0,95,95,95,1,96,Riley,Acc,Participant_Images/663e5cf112f5d047cf5c9fad/663e5cf112f5d047cf5c9fad_Images/663e5cf112f5d047cf5c9fad_Image_16.jpeg,did not like,3.79605092,,,,,,,,,,,,,,,,,,,,,
,,663e5cf112f5d047cf5c9fad,2024-07-03_00h45.29.275,WTP_SM_Choice,2022.2.1,Win32,60.60606061,,,,,space,0.4853,NAN,,NAN,2.1,3.9,,0,96,96,96,1,97,Riley,Acc,Participant_Images/663e5cf112f5d047cf5c9fad/663e5cf112f5d047cf5c9fad_Images/663e5cf112f5d047cf5c9fad_Image_14.jpeg,did not like,3.562416326,,,,,,,,,,,,,,,,,,,,,
,,663e5cf112f5d047cf5c9fad,2024-07-03_00h45.29.275,WTP_SM_Choice,2022.2.1,Win32,60.60606061,,,,,space,0.5522,NAN,,NAN,2.1,3.9,,0,97,97,97,1,98,Riley,Acc,Participant_Images/663e5cf112f5d047cf5c9fad/663e5cf112f5d047cf5c9fad_Images/663e5cf112f5d047cf5c9fad_Image_24.jpeg,liked,2.843822497,,,,,,,,,,,,,,,,,,,,,
,,663e5cf112f5d047cf5c9fad,2024-07-03_00h45.29.275,WTP_SM_Choice,2022.2.1,Win32,60.60606061,,,,,space,1.0409,NAN,,NAN,2.1,3.9,,0,98,98,98,1,99,Riley,Acc,Participant_Images/663e5cf112f5d047cf5c9fad/663e5cf112f5d047cf5c9fad_Images/663e5cf112f5d047cf5c9fad_Image_6.jpeg,liked,3.546495948,,,,,,,,,,,,,,,,,,,,,
,,663e5cf112f5d047cf5c9fad,2024-07-03_00h45.29.275,WTP_SM_Choice,2022.2.1,Win32,60.60606061,,,,,,,,,,,,,,,,,,96,,,,,,space,1.2268,space,0.4587,0.01,1,1.1228,0,0,0,0,1,go for a walk,play video games online with my partner and friends,0.01,0.05,3.3,,,,
,,663e5cf112f5d047cf5c9fad,2024-07-03_00h45.29.275,WTP_SM_Choice,2022.2.1,Win32,60.60606061,,,,,,,,,,,,,,,,,,97,,,,,,,,,,0.02,1,0.9221,0,1,1,1,1,exercise,talk with my friends online,0.02,0.05,1.1,,,,
,,663e5cf112f5d047cf5c9fad,2024-07-03_00h45.29.275,WTP_SM_Choice,2022.2.1,Win32,60.60606061,,,,,,,,,,,,,,,,,,98,,,,,,,,,,0.03,1,1.0471,0,2,2,2,1,do bead art,spent time with my family,0.03,0.05,1.1,,,,
,,663e5cf112f5d047cf5c9fad,2024-07-03_00h45.29.275,WTP_SM_Choice,2022.2.1,Win32,60.60606061,,,,,,,,,,,,,,,,,,99,,,,,,,,,,0.04,1,1.0665,0,3,3,3,1,watch movies or TV,spent time with my family,0.04,0.05,3.3,,,,
,,663e5cf112f5d047cf5c9fad,2024-07-03_00h45.29.275,WTP_SM_Choice,2022.2.1,Win32,60.60606061,,,,,,,,,,,,,,,,,,100,,,,,,,,,,0.05,1,1.2829,0,4,4,4,1,go for a walk,go out to eat with family,0.05,0.05,4.4,,,,
,,663e5cf112f5d047cf5c9fad,2024-07-03_00h45.29.275,WTP_SM_Choice,2022.2.1,Win32,60.60606061,,,,,,,4,,6,2.25,3.75,,0,99,99,99,1,100,Riley,Acc,Participant_Images/663e5cf112f5d047cf5c9fad/663e5cf112f5d047cf5c9fad_Images/663e5cf112f5d047cf5c9fad_Image_12.jpeg,liked,1.672012706,,,,,,,,,,,,,,,,,,space,1.0421,,
,,663e5cf112f5d047cf5c9fad,2024-07-03_00h45.29.275,WTP_SM_Choice,2022.2.1,Win32,60.60606061,,,,,,,,,,,,,,,,,,,,,,,,,,,,,,,,,,,,,,,,,,,space,2.9985
