endwelcomescreen_keys.keys,endwelcomescreen_keys.rt,participant,date,expName,psychopyVersion,OS,frameRate,endinstructionscreen_keys.keys,endinstructionscreen_keys.rt,endpartnermatch_keys.keys,endpartnermatch_keys.rt,sharenextphoto_key.keys,sharenextphoto_key.rt,salience_rating,key_resp.keys,stress_level,subtract_bonus,TOTAL_TASK_BONUS,stresslevel_keypress.keys,entiretaskloop.thisRepN,entiretaskloop.thisTrialN,entiretaskloop.thisN,entiretaskloop.thisIndex,entiretaskloop.ran,TrialNumber,Partner,Condition,Photos,Feedback,FeedbackWait,WTP_ins_keys1.keys,WTP_ins_keys1.rt,WTP_ins_keys2.keys,WTP_ins_keys2.rt,decision_price,responses.keys,responses.rt,WTPTaskLoop.thisRepN,WTPTaskLoop.thisTrialN,WTPTaskLoop.thisN,WTPTaskLoop.thisIndex,WTPTaskLoop.ran,right,left,leftmoney,rightmoney,WTP_ITI,Resume_keys.keys,Resume_keys.rt,end_screen_keys.keys,end_screen_keys.rt,social_left
space,5.9904,663e40120b553e7aa7f786b4,2024-06-26_16h50.10.710,WTP_SM_Choice,2022.2.1,Win32,60.24096386,,,,,,,,,,,,,,,,,,,,,,,,,,,,,,,,,,,,,,,,,,,,,
,,663e40120b553e7aa7f786b4,2024-06-26_16h50.10.710,WTP_SM_Choice,2022.2.1,Win32,60.24096386,space,21.1666,,,,,,,,,,,,,,,,,,,,,,,,,,,,,,,,,,,,,,,,,,,
,,663e40120b553e7aa7f786b4,2024-06-26_16h50.10.710,WTP_SM_Choice,2022.2.1,Win32,60.24096386,,,space,2.4941,space,1.8964,NAN,,NAN,0,6,,0,0,0,0,1,1,Charlie,Acc,Participant_Images/663e40120b553e7aa7f786b4/663e40120b553e7aa7f786b4_Images/663e40120b553e7aa7f786b4_Image_13.jpeg,did not like,3.613205605,,,,,,,,,,,,,,,,,,,,,,
,,663e40120b553e7aa7f786b4,2024-06-26_16h50.10.710,WTP_SM_Choice,2022.2.1,Win32,60.24096386,,,,,space,1.1764,NAN,,NAN,0,6,,0,1,1,1,1,2,Charlie,Acc,Participant_Images/663e40120b553e7aa7f786b4/663e40120b553e7aa7f786b4_Images/663e40120b553e7aa7f786b4_Image_23.jpeg,did not like,4.988446431,,,,,,,,,,,,,,,,,,,,,,
,,663e40120b553e7aa7f786b4,2024-06-26_16h50.10.710,WTP_SM_Choice,2022.2.1,Win32,60.24096386,,,,,space,0.9261,NAN,,NAN,0,6,,0,2,2,2,1,3,Charlie,Acc,Participant_Images/663e40120b553e7aa7f786b4/663e40120b553e7aa7f786b4_Images/663e40120b553e7aa7f786b4_Image_7.jpeg,liked,3.470791822,,,,,,,,,,,,,,,,,,,,,,
,,663e40120b553e7aa7f786b4,2024-06-26_16h50.10.710,WTP_SM_Choice,2022.2.1,Win32,60.24096386,,,,,space,0.9997,NAN,,NAN,0,6,,0,3,3,3,1,4,Charlie,Acc,Participant_Images/663e40120b553e7aa7f786b4/663e40120b553e7aa7f786b4_Images/663e40120b553e7aa7f786b4_Image_17.jpeg,liked,3.820572462,,,,,,,,,,,,,,,,,,,,,,
,,663e40120b553e7aa7f786b4,2024-06-26_16h50.10.710,WTP_SM_Choice,2022.2.1,Win32,60.24096386,,,,,,,,,,,,,,,,,,1,,,,,,space,0.0671,space,11.1993,0.01,1,5.1477,0,0,0,0,1,Go to bed while there is a thunderstorm happening,Cook up new things with my friend Marlo and talk about the things we are into and recent things we have gotten absorbed in,0.01,0.01,4.4,,,,,1
,,663e40120b553e7aa7f786b4,2024-06-26_16h50.10.710,WTP_SM_Choice,2022.2.1,Win32,60.24096386,,,,,,,,,,,,,,,,,,2,,,,,,,,,,0.01,2,7.2027,0,1,1,1,1,Go to the gym and working out at my hardest,Show my stepdad and mom funny videos  memes or tiktoks and see their reactions,0.02,0.01,8.8,,,,,1
,,663e40120b553e7aa7f786b4,2024-06-26_16h50.10.710,WTP_SM_Choice,2022.2.1,Win32,60.24096386,,,,,,,,,,,,,,,,,,3,,,,,,,,,,0.01,2,3.3197,0,2,2,2,1,Go to bed while there is a thunderstorm happening,call my coworker after work and talk about our days on the way home,0.03,0.01,3.3,,,,,1
,,663e40120b553e7aa7f786b4,2024-06-26_16h50.10.710,WTP_SM_Choice,2022.2.1,Win32,60.24096386,,,,,,,,,,,,,,,,,,4,,,,,,,,,,0.01,2,5.1627,0,3,3,3,1,Bake something that will end up going to my sister and my nephew,Show my stepdad and mom funny videos  memes or tiktoks and see their reactions,0.04,0.01,1.1,,,,,1
,,663e40120b553e7aa7f786b4,2024-06-26_16h50.10.710,WTP_SM_Choice,2022.2.1,Win32,60.24096386,,,,,,,,,,,,,,,,,,5,,,,,,,,,,0.01,2,6.1272,0,4,4,4,1,Go to the gym and working out at my hardest,Play video games online with my friends while we talk on a Voice Chat on discord,0.05,0.01,1.1,,,,,1
,,663e40120b553e7aa7f786b4,2024-06-26_16h50.10.710,WTP_SM_Choice,2022.2.1,Win32,60.24096386,,,,,,,NAN,,NAN,0.05,5.95,,0,4,4,4,1,5,Charlie,Acc,Participant_Images/663e40120b553e7aa7f786b4/663e40120b553e7aa7f786b4_Images/663e40120b553e7aa7f786b4_Image_2.jpeg,liked,2.455989137,,,,,,,,,,,,,,,,,,,,,,
,,663e40120b553e7aa7f786b4,2024-06-26_16h50.10.710,WTP_SM_Choice,2022.2.1,Win32,60.24096386,,,,,space,1.762,NAN,,NAN,0.05,5.95,,0,5,5,5,1,6,Charlie,Acc,Participant_Images/663e40120b553e7aa7f786b4/663e40120b553e7aa7f786b4_Images/663e40120b553e7aa7f786b4_Image_24.jpeg,did not like,3.79605092,,,,,,,,,,,,,,,,,,,,,,
,,663e40120b553e7aa7f786b4,2024-06-26_16h50.10.710,WTP_SM_Choice,2022.2.1,Win32,60.24096386,,,,,space,1.8613,NAN,,NAN,0.05,5.95,,0,6,6,6,1,7,Charlie,Acc,Participant_Images/663e40120b553e7aa7f786b4/663e40120b553e7aa7f786b4_Images/663e40120b553e7aa7f786b4_Image_10.jpeg,liked,3.562416326,,,,,,,,,,,,,,,,,,,,,,
,,663e40120b553e7aa7f786b4,2024-06-26_16h50.10.710,WTP_SM_Choice,2022.2.1,Win32,60.24096386,,,,,space,1.073,NAN,,NAN,0.05,5.95,,0,7,7,7,1,8,Charlie,Acc,Participant_Images/663e40120b553e7aa7f786b4/663e40120b553e7aa7f786b4_Images/663e40120b553e7aa7f786b4_Image_14.jpeg,liked,2.843822497,,,,,,,,,,,,,,,,,,,,,,
,,663e40120b553e7aa7f786b4,2024-06-26_16h50.10.710,WTP_SM_Choice,2022.2.1,Win32,60.24096386,,,,,space,1.2757,NAN,,NAN,0.05,5.95,,0,8,8,8,1,9,Charlie,Acc,Participant_Images/663e40120b553e7aa7f786b4/663e40120b553e7aa7f786b4_Images/663e40120b553e7aa7f786b4_Image_4.jpeg,liked,3.546495948,,,,,,,,,,,,,,,,,,,,,,
,,663e40120b553e7aa7f786b4,2024-06-26_16h50.10.710,WTP_SM_Choice,2022.2.1,Win32,60.24096386,,,,,,,,,,,,,,,,,,6,,,,,,space,7.0524,space,2.3505,0.01,1,3.7578,0,0,0,0,1,Play a videogame late at night when it is dark out and I might get a little scared,Go to Menards with my dad to work on the next project we have together,0.01,0.02,3.3,,,,,1
,,663e40120b553e7aa7f786b4,2024-06-26_16h50.10.710,WTP_SM_Choice,2022.2.1,Win32,60.24096386,,,,,,,,,,,,,,,,,,7,,,,,,,,,,0.02,2,4.9848,0,1,1,1,1,Work on my next cosplay costume with my music on loud,Go on vacations with a close group of friends,0.02,0.02,1.1,,,,,1
,,663e40120b553e7aa7f786b4,2024-06-26_16h50.10.710,WTP_SM_Choice,2022.2.1,Win32,60.24096386,,,,,,,,,,,,,,,,,,8,,,,,,,,,,0.03,1,3.8164,0,2,2,2,1,Play a videogame late at night when it is dark out and I might get a little scared,Cook up new things with my friend Marlo and talk about the things we are into and recent things we have gotten absorbed in,0.03,0.02,1.1,,,,,1
,,663e40120b553e7aa7f786b4,2024-06-26_16h50.10.710,WTP_SM_Choice,2022.2.1,Win32,60.24096386,,,,,,,,,,,,,,,,,,9,,,,,,,,,,0.04,1,2.6807,0,3,3,3,1,teach myself to draw so,Go to Menards with my dad to work on the next project we have together,0.04,0.02,4.4,,,,,1
,,663e40120b553e7aa7f786b4,2024-06-26_16h50.10.710,WTP_SM_Choice,2022.2.1,Win32,60.24096386,,,,,,,,,,,,,,,,,,10,,,,,,,,,,0.02,2,3.5323,0,4,4,4,1,Work on my next cosplay costume with my music on loud,Show my stepdad and mom funny videos  memes or tiktoks and see their reactions,0.05,0.02,1.1,,,,,1
,,663e40120b553e7aa7f786b4,2024-06-26_16h50.10.710,WTP_SM_Choice,2022.2.1,Win32,60.24096386,,,,,,,NAN,,NAN,0.17,5.83,,0,9,9,9,1,10,Charlie,Acc,Participant_Images/663e40120b553e7aa7f786b4/663e40120b553e7aa7f786b4_Images/663e40120b553e7aa7f786b4_Image_6.jpeg,liked,1.672012706,,,,,,,,,,,,,,,,,,,,,,
,,663e40120b553e7aa7f786b4,2024-06-26_16h50.10.710,WTP_SM_Choice,2022.2.1,Win32,60.24096386,,,,,space,1.6955,NAN,,NAN,0.17,5.83,,0,10,10,10,1,11,Charlie,Acc,Participant_Images/663e40120b553e7aa7f786b4/663e40120b553e7aa7f786b4_Images/663e40120b553e7aa7f786b4_Image_11.jpeg,liked,4.942172136,,,,,,,,,,,,,,,,,,,,,,
,,663e40120b553e7aa7f786b4,2024-06-26_16h50.10.710,WTP_SM_Choice,2022.2.1,Win32,60.24096386,,,,,space,1.6331,NAN,,NAN,0.17,5.83,,0,11,11,11,1,12,Charlie,Acc,Participant_Images/663e40120b553e7aa7f786b4/663e40120b553e7aa7f786b4_Images/663e40120b553e7aa7f786b4_Image_25.jpeg,did not like,2.50187214,,,,,,,,,,,,,,,,,,,,,,
,,663e40120b553e7aa7f786b4,2024-06-26_16h50.10.710,WTP_SM_Choice,2022.2.1,Win32,60.24096386,,,,,space,2.8326,NAN,,NAN,0.17,5.83,,0,12,12,12,1,13,Charlie,Acc,Participant_Images/663e40120b553e7aa7f786b4/663e40120b553e7aa7f786b4_Images/663e40120b553e7aa7f786b4_Image_8.jpeg,liked,2.071164779,,,,,,,,,,,,,,,,,,,,,,
,,663e40120b553e7aa7f786b4,2024-06-26_16h50.10.710,WTP_SM_Choice,2022.2.1,Win32,60.24096386,,,,,space,4.7598,NAN,,NAN,0.17,5.83,,0,13,13,13,1,14,Charlie,Acc,Participant_Images/663e40120b553e7aa7f786b4/663e40120b553e7aa7f786b4_Images/663e40120b553e7aa7f786b4_Image_22.jpeg,liked,5.336503566,,,,,,,,,,,,,,,,,,,,,,
,,663e40120b553e7aa7f786b4,2024-06-26_16h50.10.710,WTP_SM_Choice,2022.2.1,Win32,60.24096386,,,,,,,,,,,,,,,,,,11,,,,,,space,3.2003,space,2.4559,0.01,1,2.5269,0,0,0,0,1,teach myself to draw so,Go to an anime convention and meeting up with my international friends,0.01,0.03,3.3,,,,,1
,,663e40120b553e7aa7f786b4,2024-06-26_16h50.10.710,WTP_SM_Choice,2022.2.1,Win32,60.24096386,,,,,,,,,,,,,,,,,,12,,,,,,,,,,0.03,2,1.9157,0,1,1,1,1,Go to the gym and working out at my hardest,Go on vacations with a close group of friends,0.02,0.03,4.4,,,,,1
,,663e40120b553e7aa7f786b4,2024-06-26_16h50.10.710,WTP_SM_Choice,2022.2.1,Win32,60.24096386,,,,,,,,,,,,,,,,,,13,,,,,,,,,,0.03,1,3.0625,0,2,2,2,1,Go to bed while there is a thunderstorm happening,Go to Menards with my dad to work on the next project we have together,0.03,0.03,1.1,,,,,1
,,663e40120b553e7aa7f786b4,2024-06-26_16h50.10.710,WTP_SM_Choice,2022.2.1,Win32,60.24096386,,,,,,,,,,,,,,,,,,14,,,,,,,,,,0.04,1,2.1433,0,3,3,3,1,teach myself to draw so,Play video games online with my friends while we talk on a Voice Chat on discord,0.04,0.03,3.3,,,,,1
,,663e40120b553e7aa7f786b4,2024-06-26_16h50.10.710,WTP_SM_Choice,2022.2.1,Win32,60.24096386,,,,,,,,,,,,,,,,,,15,,,,,,,,,,0.03,2,4.6374,0,4,4,4,1,write and be able to get really into a scene,Go to Menards with my dad to work on the next project we have together,0.05,0.03,4.4,,,,,1
,,663e40120b553e7aa7f786b4,2024-06-26_16h50.10.710,WTP_SM_Choice,2022.2.1,Win32,60.24096386,,,,,,,NAN,,NAN,0.31,5.69,,0,14,14,14,1,15,Charlie,Acc,Participant_Images/663e40120b553e7aa7f786b4/663e40120b553e7aa7f786b4_Images/663e40120b553e7aa7f786b4_Image_3.jpeg,liked,2.642157193,,,,,,,,,,,,,,,,,,,,,,
,,663e40120b553e7aa7f786b4,2024-06-26_16h50.10.710,WTP_SM_Choice,2022.2.1,Win32,60.24096386,,,,,space,1.4701,NAN,,NAN,0.31,5.69,,0,15,15,15,1,16,Charlie,Acc,Participant_Images/663e40120b553e7aa7f786b4/663e40120b553e7aa7f786b4_Images/663e40120b553e7aa7f786b4_Image_12.jpeg,liked,4.456234322,,,,,,,,,,,,,,,,,,,,,,
,,663e40120b553e7aa7f786b4,2024-06-26_16h50.10.710,WTP_SM_Choice,2022.2.1,Win32,60.24096386,,,,,space,1.9497,NAN,,NAN,0.31,5.69,,0,16,16,16,1,17,Charlie,Acc,Participant_Images/663e40120b553e7aa7f786b4/663e40120b553e7aa7f786b4_Images/663e40120b553e7aa7f786b4_Image_21.jpeg,did not like,4.438512181,,,,,,,,,,,,,,,,,,,,,,
,,663e40120b553e7aa7f786b4,2024-06-26_16h50.10.710,WTP_SM_Choice,2022.2.1,Win32,60.24096386,,,,,space,1.6666,NAN,,NAN,0.31,5.69,,0,17,17,17,1,18,Charlie,Acc,Participant_Images/663e40120b553e7aa7f786b4/663e40120b553e7aa7f786b4_Images/663e40120b553e7aa7f786b4_Image_15.jpeg,liked,2.682944783,,,,,,,,,,,,,,,,,,,,,,
,,663e40120b553e7aa7f786b4,2024-06-26_16h50.10.710,WTP_SM_Choice,2022.2.1,Win32,60.24096386,,,,,space,0.7343,NAN,,NAN,0.31,5.69,,0,18,18,18,1,19,Charlie,Acc,Participant_Images/663e40120b553e7aa7f786b4/663e40120b553e7aa7f786b4_Images/663e40120b553e7aa7f786b4_Image_16.jpeg,liked,4.51984296,,,,,,,,,,,,,,,,,,,,,,
,,663e40120b553e7aa7f786b4,2024-06-26_16h50.10.710,WTP_SM_Choice,2022.2.1,Win32,60.24096386,,,,,,,,,,,,,,,,,,16,,,,,,space,2.2082,space,1.0322,0.04,2,2.7765,0,0,0,0,1,Go to bed while there is a thunderstorm happening,Go to an anime convention and meeting up with my international friends,0.01,0.04,1.1,,,,,1
,,663e40120b553e7aa7f786b4,2024-06-26_16h50.10.710,WTP_SM_Choice,2022.2.1,Win32,60.24096386,,,,,,,,,,,,,,,,,,17,,,,,,,,,,0.02,1,4.4039,0,1,1,1,1,Work on my next cosplay costume with my music on loud,Go to an anime convention and meeting up with my international friends,0.02,0.04,8.8,,,,,1
,,663e40120b553e7aa7f786b4,2024-06-26_16h50.10.710,WTP_SM_Choice,2022.2.1,Win32,60.24096386,,,,,,,,,,,,,,,,,,18,,,,,,,,,,0.03,1,4.9402,0,2,2,2,1,Bake something that will end up going to my sister and my nephew,Voice Call with my Friend Katie or Logan,0.03,0.04,3.3,,,,,1
,,663e40120b553e7aa7f786b4,2024-06-26_16h50.10.710,WTP_SM_Choice,2022.2.1,Win32,60.24096386,,,,,,,,,,,,,,,,,,19,,,,,,,,,,0.04,2,3.6996,0,3,3,3,1,Bake something that will end up going to my sister and my nephew,Cook up new things with my friend Marlo and talk about the things we are into and recent things we have gotten absorbed in,0.04,0.04,3.3,,,,,1
,,663e40120b553e7aa7f786b4,2024-06-26_16h50.10.710,WTP_SM_Choice,2022.2.1,Win32,60.24096386,,,,,,,,,,,,,,,,,,20,,,,,,,,,,0.05,1,4.555,0,4,4,4,1,Go to the gym and working out at my hardest,Watch anime with my partner in our cool downstairs with all of our cats getting along around us,0.05,0.04,1.1,,,,,1
,,663e40120b553e7aa7f786b4,2024-06-26_16h50.10.710,WTP_SM_Choice,2022.2.1,Win32,60.24096386,,,,,,,NAN,,NAN,0.49,5.51,,0,19,19,19,1,20,Charlie,Acc,Participant_Images/663e40120b553e7aa7f786b4/663e40120b553e7aa7f786b4_Images/663e40120b553e7aa7f786b4_Image_5.jpeg,liked,3.195382774,,,,,,,,,,,,,,,,,,,,,,
,,663e40120b553e7aa7f786b4,2024-06-26_16h50.10.710,WTP_SM_Choice,2022.2.1,Win32,60.24096386,,,,,space,3.5578,NAN,,NAN,0.49,5.51,,0,20,20,20,1,21,Charlie,Acc,Participant_Images/663e40120b553e7aa7f786b4/663e40120b553e7aa7f786b4_Images/663e40120b553e7aa7f786b4_Image_20.jpeg,did not like,1.779333479,,,,,,,,,,,,,,,,,,,,,,
,,663e40120b553e7aa7f786b4,2024-06-26_16h50.10.710,WTP_SM_Choice,2022.2.1,Win32,60.24096386,,,,,space,1.0002,NAN,,NAN,0.49,5.51,,0,21,21,21,1,22,Charlie,Acc,Participant_Images/663e40120b553e7aa7f786b4/663e40120b553e7aa7f786b4_Images/663e40120b553e7aa7f786b4_Image_9.jpeg,liked,4.312468682,,,,,,,,,,,,,,,,,,,,,,
,,663e40120b553e7aa7f786b4,2024-06-26_16h50.10.710,WTP_SM_Choice,2022.2.1,Win32,60.24096386,,,,,space,0.897,NAN,,NAN,0.49,5.51,,0,22,22,22,1,23,Charlie,Acc,Participant_Images/663e40120b553e7aa7f786b4/663e40120b553e7aa7f786b4_Images/663e40120b553e7aa7f786b4_Image_19.jpeg,liked,4.940433059,,,,,,,,,,,,,,,,,,,,,,
,,663e40120b553e7aa7f786b4,2024-06-26_16h50.10.710,WTP_SM_Choice,2022.2.1,Win32,60.24096386,,,,,space,0.9791,NAN,,NAN,0.49,5.51,,0,23,23,23,1,24,Charlie,Acc,Participant_Images/663e40120b553e7aa7f786b4/663e40120b553e7aa7f786b4_Images/663e40120b553e7aa7f786b4_Image_1.jpeg,liked,2.7105123,,,,,,,,,,,,,,,,,,,,,,
,,663e40120b553e7aa7f786b4,2024-06-26_16h50.10.710,WTP_SM_Choice,2022.2.1,Win32,60.24096386,,,,,,,,,,,,,,,,,,21,,,,,,space,3.0815,space,1.0983,0.01,1,2.3361,0,0,0,0,1,Bake something that will end up going to my sister and my nephew,cosplay with my friends and partner,0.01,0.05,8.8,,,,,1
,,663e40120b553e7aa7f786b4,2024-06-26_16h50.10.710,WTP_SM_Choice,2022.2.1,Win32,60.24096386,,,,,,,,,,,,,,,,,,22,,,,,,,,,,0.02,1,2.7294,0,1,1,1,1,Look at my mineral specimens in the light and catalogue them,Watch anime with my partner in our cool downstairs with all of our cats getting along around us,0.02,0.05,4.4,,,,,1
,,663e40120b553e7aa7f786b4,2024-06-26_16h50.10.710,WTP_SM_Choice,2022.2.1,Win32,60.24096386,,,,,,,,,,,,,,,,,,23,,,,,,,,,,0.03,1,2.1525,0,2,2,2,1,Check on my garden,Show my stepdad and mom funny videos  memes or tiktoks and see their reactions,0.03,0.05,1.1,,,,,1
,,663e40120b553e7aa7f786b4,2024-06-26_16h50.10.710,WTP_SM_Choice,2022.2.1,Win32,60.24096386,,,,,,,,,,,,,,,,,,24,,,,,,,,,,0.05,2,1.8936,0,3,3,3,1,Go to the gym and working out at my hardest,call my coworker after work and talk about our days on the way home,0.04,0.05,4.4,,,,,1
,,663e40120b553e7aa7f786b4,2024-06-26_16h50.10.710,WTP_SM_Choice,2022.2.1,Win32,60.24096386,,,,,,,,,,,,,,,,,,25,,,,,,,,,,0.05,1,2.4903,0,4,4,4,1,write and be able to get really into a scene,Cook up new things with my friend Marlo and talk about the things we are into and recent things we have gotten absorbed in,0.05,0.05,3.3,,,,,1
,,663e40120b553e7aa7f786b4,2024-06-26_16h50.10.710,WTP_SM_Choice,2022.2.1,Win32,60.24096386,,,,,,,3,,7,0.65,5.35,,0,24,24,24,1,25,Charlie,Acc,Participant_Images/663e40120b553e7aa7f786b4/663e40120b553e7aa7f786b4_Images/663e40120b553e7aa7f786b4_Image_18.jpeg,did not like,3.602308302,,,,,,,,,,,,,,,,,,space,1.3185,,,
,,663e40120b553e7aa7f786b4,2024-06-26_16h50.10.710,WTP_SM_Choice,2022.2.1,Win32,60.24096386,,,space,1.9536,space,4.0669,NAN,,NAN,0.65,5.35,,0,25,25,25,1,26,Sam,Rej,Participant_Images/663e40120b553e7aa7f786b4/663e40120b553e7aa7f786b4_Images/663e40120b553e7aa7f786b4_Image_15.jpeg,did not like,4.106391878,,,,,,,,,,,,,,,,,,,,,,
,,663e40120b553e7aa7f786b4,2024-06-26_16h50.10.710,WTP_SM_Choice,2022.2.1,Win32,60.24096386,,,,,space,1.355,NAN,,NAN,0.65,5.35,,0,26,26,26,1,27,Sam,Rej,Participant_Images/663e40120b553e7aa7f786b4/663e40120b553e7aa7f786b4_Images/663e40120b553e7aa7f786b4_Image_12.jpeg,liked,3.799433026,,,,,,,,,,,,,,,,,,,,,,
,,663e40120b553e7aa7f786b4,2024-06-26_16h50.10.710,WTP_SM_Choice,2022.2.1,Win32,60.24096386,,,,,space,0.5545,NAN,,NAN,0.65,5.35,,0,27,27,27,1,28,Sam,Rej,Participant_Images/663e40120b553e7aa7f786b4/663e40120b553e7aa7f786b4_Images/663e40120b553e7aa7f786b4_Image_11.jpeg,did not like,5.246980764,,,,,,,,,,,,,,,,,,,,,,
,,663e40120b553e7aa7f786b4,2024-06-26_16h50.10.710,WTP_SM_Choice,2022.2.1,Win32,60.24096386,,,,,space,0.6468,NAN,,NAN,0.65,5.35,,0,28,28,28,1,29,Sam,Rej,Participant_Images/663e40120b553e7aa7f786b4/663e40120b553e7aa7f786b4_Images/663e40120b553e7aa7f786b4_Image_23.jpeg,liked,3.30081769,,,,,,,,,,,,,,,,,,,,,,
,,663e40120b553e7aa7f786b4,2024-06-26_16h50.10.710,WTP_SM_Choice,2022.2.1,Win32,60.24096386,,,,,,,,,,,,,,,,,,26,,,,,,space,1.4688,space,1.3252,0.01,1,2.2691,0,0,0,0,1,sing along to music even though I know I am not the best,Go to an anime convention and meeting up with my international friends,0.01,0.01,4.4,,,,,1
,,663e40120b553e7aa7f786b4,2024-06-26_16h50.10.710,WTP_SM_Choice,2022.2.1,Win32,60.24096386,,,,,,,,,,,,,,,,,,27,,,,,,,,,,0.02,1,1.7968,0,1,1,1,1,Look at my mineral specimens in the light and catalogue them,Cook up new things with my friend Marlo and talk about the things we are into and recent things we have gotten absorbed in,0.02,0.01,3.3,,,,,1
,,663e40120b553e7aa7f786b4,2024-06-26_16h50.10.710,WTP_SM_Choice,2022.2.1,Win32,60.24096386,,,,,,,,,,,,,,,,,,28,,,,,,,,,,0.03,1,2.6987,0,2,2,2,1,Go to bed while there is a thunderstorm happening,Play video games online with my friends while we talk on a Voice Chat on discord,0.03,0.01,3.3,,,,,1
,,663e40120b553e7aa7f786b4,2024-06-26_16h50.10.710,WTP_SM_Choice,2022.2.1,Win32,60.24096386,,,,,,,,,,,,,,,,,,29,,,,,,,,,,0.04,1,2.0151,0,3,3,3,1,Look at my mineral specimens in the light and catalogue them,cosplay with my friends and partner,0.04,0.01,4.4,,,,,1
,,663e40120b553e7aa7f786b4,2024-06-26_16h50.10.710,WTP_SM_Choice,2022.2.1,Win32,60.24096386,,,,,,,,,,,,,,,,,,30,,,,,,,,,,0.05,1,2.4231,0,4,4,4,1,write and be able to get really into a scene,cosplay with my friends and partner,0.05,0.01,8.8,,,,,1
,,663e40120b553e7aa7f786b4,2024-06-26_16h50.10.710,WTP_SM_Choice,2022.2.1,Win32,60.24096386,,,,,,,NAN,,NAN,0.8,5.2,,0,29,29,29,1,30,Sam,Rej,Participant_Images/663e40120b553e7aa7f786b4/663e40120b553e7aa7f786b4_Images/663e40120b553e7aa7f786b4_Image_10.jpeg,did not like,1.661473164,,,,,,,,,,,,,,,,,,,,,,
,,663e40120b553e7aa7f786b4,2024-06-26_16h50.10.710,WTP_SM_Choice,2022.2.1,Win32,60.24096386,,,,,space,1.0424,NAN,,NAN,0.8,5.2,,0,30,30,30,1,31,Sam,Rej,Participant_Images/663e40120b553e7aa7f786b4/663e40120b553e7aa7f786b4_Images/663e40120b553e7aa7f786b4_Image_5.jpeg,did not like,3.613205605,,,,,,,,,,,,,,,,,,,,,,
,,663e40120b553e7aa7f786b4,2024-06-26_16h50.10.710,WTP_SM_Choice,2022.2.1,Win32,60.24096386,,,,,space,6.085,NAN,,NAN,0.8,5.2,,0,31,31,31,1,32,Sam,Rej,Participant_Images/663e40120b553e7aa7f786b4/663e40120b553e7aa7f786b4_Images/663e40120b553e7aa7f786b4_Image_24.jpeg,did not like,4.988446431,,,,,,,,,,,,,,,,,,,,,,
,,663e40120b553e7aa7f786b4,2024-06-26_16h50.10.710,WTP_SM_Choice,2022.2.1,Win32,60.24096386,,,,,space,2.1442,NAN,,NAN,0.8,5.2,,0,32,32,32,1,33,Sam,Rej,Participant_Images/663e40120b553e7aa7f786b4/663e40120b553e7aa7f786b4_Images/663e40120b553e7aa7f786b4_Image_3.jpeg,did not like,3.470791822,,,,,,,,,,,,,,,,,,,,,,
,,663e40120b553e7aa7f786b4,2024-06-26_16h50.10.710,WTP_SM_Choice,2022.2.1,Win32,60.24096386,,,,,space,2.7906,NAN,,NAN,0.8,5.2,,0,33,33,33,1,34,Sam,Rej,Participant_Images/663e40120b553e7aa7f786b4/663e40120b553e7aa7f786b4_Images/663e40120b553e7aa7f786b4_Image_8.jpeg,did not like,3.820572462,,,,,,,,,,,,,,,,,,,,,,
,,663e40120b553e7aa7f786b4,2024-06-26_16h50.10.710,WTP_SM_Choice,2022.2.1,Win32,60.24096386,,,,,,,,,,,,,,,,,,31,,,,,,space,8.7391,space,1.0169,0.01,1,1.8862,0,0,0,0,1,Go to the gym and working out at my hardest,Cook up new things with my friend Marlo and talk about the things we are into and recent things we have gotten absorbed in,0.01,0.02,8.8,,,,,1
,,663e40120b553e7aa7f786b4,2024-06-26_16h50.10.710,WTP_SM_Choice,2022.2.1,Win32,60.24096386,,,,,,,,,,,,,,,,,,32,,,,,,,,,,0.02,1,4.3628,0,1,1,1,1,Play a videogame late at night when it is dark out and I might get a little scared,Go on vacations with a close group of friends,0.02,0.02,1.1,,,,,1
,,663e40120b553e7aa7f786b4,2024-06-26_16h50.10.710,WTP_SM_Choice,2022.2.1,Win32,60.24096386,,,,,,,,,,,,,,,,,,33,,,,,,,,,,0.03,1,2.4865,0,2,2,2,1,write and be able to get really into a scene,Play video games online with my friends while we talk on a Voice Chat on discord,0.03,0.02,4.4,,,,,1
,,663e40120b553e7aa7f786b4,2024-06-26_16h50.10.710,WTP_SM_Choice,2022.2.1,Win32,60.24096386,,,,,,,,,,,,,,,,,,34,,,,,,,,,,0.02,2,3.999,0,3,3,3,1,Work on my next cosplay costume with my music on loud,call my coworker after work and talk about our days on the way home,0.04,0.02,3.3,,,,,1
,,663e40120b553e7aa7f786b4,2024-06-26_16h50.10.710,WTP_SM_Choice,2022.2.1,Win32,60.24096386,,,,,,,,,,,,,,,,,,35,,,,,,,,,,0.05,1,2.1407,0,4,4,4,1,teach myself to draw so,cosplay with my friends and partner,0.05,0.02,1.1,,,,,1
,,663e40120b553e7aa7f786b4,2024-06-26_16h50.10.710,WTP_SM_Choice,2022.2.1,Win32,60.24096386,,,,,,,NAN,,NAN,0.93,5.07,,0,34,34,34,1,35,Sam,Rej,Participant_Images/663e40120b553e7aa7f786b4/663e40120b553e7aa7f786b4_Images/663e40120b553e7aa7f786b4_Image_19.jpeg,did not like,2.455989137,,,,,,,,,,,,,,,,,,,,,,
,,663e40120b553e7aa7f786b4,2024-06-26_16h50.10.710,WTP_SM_Choice,2022.2.1,Win32,60.24096386,,,,,space,5.6717,NAN,,NAN,0.93,5.07,,0,35,35,35,1,36,Sam,Rej,Participant_Images/663e40120b553e7aa7f786b4/663e40120b553e7aa7f786b4_Images/663e40120b553e7aa7f786b4_Image_2.jpeg,did not like,3.79605092,,,,,,,,,,,,,,,,,,,,,,
,,663e40120b553e7aa7f786b4,2024-06-26_16h50.10.710,WTP_SM_Choice,2022.2.1,Win32,60.24096386,,,,,space,3.3347,NAN,,NAN,0.93,5.07,,0,36,36,36,1,37,Sam,Rej,Participant_Images/663e40120b553e7aa7f786b4/663e40120b553e7aa7f786b4_Images/663e40120b553e7aa7f786b4_Image_21.jpeg,liked,3.562416326,,,,,,,,,,,,,,,,,,,,,,
,,663e40120b553e7aa7f786b4,2024-06-26_16h50.10.710,WTP_SM_Choice,2022.2.1,Win32,60.24096386,,,,,space,3.3565,NAN,,NAN,0.93,5.07,,0,37,37,37,1,38,Sam,Rej,Participant_Images/663e40120b553e7aa7f786b4/663e40120b553e7aa7f786b4_Images/663e40120b553e7aa7f786b4_Image_9.jpeg,liked,2.843822497,,,,,,,,,,,,,,,,,,,,,,
,,663e40120b553e7aa7f786b4,2024-06-26_16h50.10.710,WTP_SM_Choice,2022.2.1,Win32,60.24096386,,,,,space,8.7067,NAN,,NAN,0.93,5.07,,0,38,38,38,1,39,Sam,Rej,Participant_Images/663e40120b553e7aa7f786b4/663e40120b553e7aa7f786b4_Images/663e40120b553e7aa7f786b4_Image_17.jpeg,did not like,3.546495948,,,,,,,,,,,,,,,,,,,,,,
,,663e40120b553e7aa7f786b4,2024-06-26_16h50.10.710,WTP_SM_Choice,2022.2.1,Win32,60.24096386,,,,,,,,,,,,,,,,,,36,,,,,,space,2.2215,space,0.6924,0.01,1,2.1892,0,0,0,0,1,Play a videogame late at night when it is dark out and I might get a little scared,cosplay with my friends and partner,0.01,0.03,3.3,,,,,1
,,663e40120b553e7aa7f786b4,2024-06-26_16h50.10.710,WTP_SM_Choice,2022.2.1,Win32,60.24096386,,,,,,,,,,,,,,,,,,37,,,,,,,,,,0.02,1,2.5968,0,1,1,1,1,Work on my next cosplay costume with my music on loud,Voice Call with my Friend Katie or Logan,0.02,0.03,1.1,,,,,1
,,663e40120b553e7aa7f786b4,2024-06-26_16h50.10.710,WTP_SM_Choice,2022.2.1,Win32,60.24096386,,,,,,,,,,,,,,,,,,38,,,,,,,,,,0.03,1,2.3933,0,2,2,2,1,sing along to music even though I know I am not the best,Go on vacations with a close group of friends,0.03,0.03,1.1,,,,,1
,,663e40120b553e7aa7f786b4,2024-06-26_16h50.10.710,WTP_SM_Choice,2022.2.1,Win32,60.24096386,,,,,,,,,,,,,,,,,,39,,,,,,,,,,0.03,2,2.0447,0,3,3,3,1,Check on my garden,call my coworker after work and talk about our days on the way home,0.04,0.03,3.3,,,,,1
,,663e40120b553e7aa7f786b4,2024-06-26_16h50.10.710,WTP_SM_Choice,2022.2.1,Win32,60.24096386,,,,,,,,,,,,,,,,,,40,,,,,,,,,,0.03,2,2.0833,0,4,4,4,1,write and be able to get really into a scene,Voice Call with my Friend Katie or Logan,0.05,0.03,4.4,,,,,1
,,663e40120b553e7aa7f786b4,2024-06-26_16h50.10.710,WTP_SM_Choice,2022.2.1,Win32,60.24096386,,,,,,,NAN,,NAN,1.05,4.95,,0,39,39,39,1,40,Sam,Rej,Participant_Images/663e40120b553e7aa7f786b4/663e40120b553e7aa7f786b4_Images/663e40120b553e7aa7f786b4_Image_22.jpeg,did not like,1.672012706,,,,,,,,,,,,,,,,,,,,,,
,,663e40120b553e7aa7f786b4,2024-06-26_16h50.10.710,WTP_SM_Choice,2022.2.1,Win32,60.24096386,,,,,space,1.6243,NAN,,NAN,1.05,4.95,,0,40,40,40,1,41,Sam,Rej,Participant_Images/663e40120b553e7aa7f786b4/663e40120b553e7aa7f786b4_Images/663e40120b553e7aa7f786b4_Image_18.jpeg,did not like,4.942172136,,,,,,,,,,,,,,,,,,,,,,
,,663e40120b553e7aa7f786b4,2024-06-26_16h50.10.710,WTP_SM_Choice,2022.2.1,Win32,60.24096386,,,,,space,1.0536,NAN,,NAN,1.05,4.95,,0,41,41,41,1,42,Sam,Rej,Participant_Images/663e40120b553e7aa7f786b4/663e40120b553e7aa7f786b4_Images/663e40120b553e7aa7f786b4_Image_1.jpeg,did not like,2.50187214,,,,,,,,,,,,,,,,,,,,,,
,,663e40120b553e7aa7f786b4,2024-06-26_16h50.10.710,WTP_SM_Choice,2022.2.1,Win32,60.24096386,,,,,space,1.01,NAN,,NAN,1.05,4.95,,0,42,42,42,1,43,Sam,Rej,Participant_Images/663e40120b553e7aa7f786b4/663e40120b553e7aa7f786b4_Images/663e40120b553e7aa7f786b4_Image_7.jpeg,did not like,2.071164779,,,,,,,,,,,,,,,,,,,,,,
,,663e40120b553e7aa7f786b4,2024-06-26_16h50.10.710,WTP_SM_Choice,2022.2.1,Win32,60.24096386,,,,,space,4.9406,NAN,,NAN,1.05,4.95,,0,43,43,43,1,44,Sam,Rej,Participant_Images/663e40120b553e7aa7f786b4/663e40120b553e7aa7f786b4_Images/663e40120b553e7aa7f786b4_Image_4.jpeg,liked,5.336503566,,,,,,,,,,,,,,,,,,,,,,
,,663e40120b553e7aa7f786b4,2024-06-26_16h50.10.710,WTP_SM_Choice,2022.2.1,Win32,60.24096386,,,,,,,,,,,,,,,,,,41,,,,,,space,0.9402,space,0.9381,0.01,1,1.8682,0,0,0,0,1,Bake something that will end up going to my sister and my nephew,Watch anime with my partner in our cool downstairs with all of our cats getting along around us,0.01,0.04,1.1,,,,,1
,,663e40120b553e7aa7f786b4,2024-06-26_16h50.10.710,WTP_SM_Choice,2022.2.1,Win32,60.24096386,,,,,,,,,,,,,,,,,,42,,,,,,,,,,0.02,1,2.0838,0,1,1,1,1,Play a videogame late at night when it is dark out and I might get a little scared,Play video games online with my friends while we talk on a Voice Chat on discord,0.02,0.04,3.3,,,,,1
,,663e40120b553e7aa7f786b4,2024-06-26_16h50.10.710,WTP_SM_Choice,2022.2.1,Win32,60.24096386,,,,,,,,,,,,,,,,,,43,,,,,,,,,,0.03,1,2.872,0,2,2,2,1,Go to the gym and working out at my hardest,Go to Menards with my dad to work on the next project we have together,0.03,0.04,1.1,,,,,1
,,663e40120b553e7aa7f786b4,2024-06-26_16h50.10.710,WTP_SM_Choice,2022.2.1,Win32,60.24096386,,,,,,,,,,,,,,,,,,44,,,,,,,,,,0.04,1,1.7216,0,3,3,3,1,Look at my mineral specimens in the light and catalogue them,Go on vacations with a close group of friends,0.04,0.04,1.1,,,,,1
,,663e40120b553e7aa7f786b4,2024-06-26_16h50.10.710,WTP_SM_Choice,2022.2.1,Win32,60.24096386,,,,,,,,,,,,,,,,,,45,,,,,,,,,,0.04,2,2.1107,0,4,4,4,1,Play a videogame late at night when it is dark out and I might get a little scared,call my coworker after work and talk about our days on the way home,0.05,0.04,4.4,,,,,1
,,663e40120b553e7aa7f786b4,2024-06-26_16h50.10.710,WTP_SM_Choice,2022.2.1,Win32,60.24096386,,,,,,,NAN,,NAN,1.19,4.81,,0,44,44,44,1,45,Sam,Rej,Participant_Images/663e40120b553e7aa7f786b4/663e40120b553e7aa7f786b4_Images/663e40120b553e7aa7f786b4_Image_20.jpeg,liked,2.642157193,,,,,,,,,,,,,,,,,,,,,,
,,663e40120b553e7aa7f786b4,2024-06-26_16h50.10.710,WTP_SM_Choice,2022.2.1,Win32,60.24096386,,,,,space,2.3555,NAN,,NAN,1.19,4.81,,0,45,45,45,1,46,Sam,Rej,Participant_Images/663e40120b553e7aa7f786b4/663e40120b553e7aa7f786b4_Images/663e40120b553e7aa7f786b4_Image_16.jpeg,did not like,4.456234322,,,,,,,,,,,,,,,,,,,,,,
,,663e40120b553e7aa7f786b4,2024-06-26_16h50.10.710,WTP_SM_Choice,2022.2.1,Win32,60.24096386,,,,,space,0.8077,NAN,,NAN,1.19,4.81,,0,46,46,46,1,47,Sam,Rej,Participant_Images/663e40120b553e7aa7f786b4/663e40120b553e7aa7f786b4_Images/663e40120b553e7aa7f786b4_Image_14.jpeg,did not like,4.438512181,,,,,,,,,,,,,,,,,,,,,,
,,663e40120b553e7aa7f786b4,2024-06-26_16h50.10.710,WTP_SM_Choice,2022.2.1,Win32,60.24096386,,,,,space,0.7022,NAN,,NAN,1.19,4.81,,0,47,47,47,1,48,Sam,Rej,Participant_Images/663e40120b553e7aa7f786b4/663e40120b553e7aa7f786b4_Images/663e40120b553e7aa7f786b4_Image_25.jpeg,did not like,2.682944783,,,,,,,,,,,,,,,,,,,,,,
,,663e40120b553e7aa7f786b4,2024-06-26_16h50.10.710,WTP_SM_Choice,2022.2.1,Win32,60.24096386,,,,,space,0.9794,NAN,,NAN,1.19,4.81,,0,48,48,48,1,49,Sam,Rej,Participant_Images/663e40120b553e7aa7f786b4/663e40120b553e7aa7f786b4_Images/663e40120b553e7aa7f786b4_Image_13.jpeg,did not like,4.51984296,,,,,,,,,,,,,,,,,,,,,,
,,663e40120b553e7aa7f786b4,2024-06-26_16h50.10.710,WTP_SM_Choice,2022.2.1,Win32,60.24096386,,,,,,,,,,,,,,,,,,46,,,,,,space,2.4589,space,1.2841,0.01,1,1.889,0,0,0,0,1,Look at my mineral specimens in the light and catalogue them,Go to an anime convention and meeting up with my international friends,0.01,0.05,8.8,,,,,1
,,663e40120b553e7aa7f786b4,2024-06-26_16h50.10.710,WTP_SM_Choice,2022.2.1,Win32,60.24096386,,,,,,,,,,,,,,,,,,47,,,,,,,,,,0.02,1,3.0882,0,1,1,1,1,Go to bed while there is a thunderstorm happening,Show my stepdad and mom funny videos  memes or tiktoks and see their reactions,0.02,0.05,1.1,,,,,1
,,663e40120b553e7aa7f786b4,2024-06-26_16h50.10.710,WTP_SM_Choice,2022.2.1,Win32,60.24096386,,,,,,,,,,,,,,,,,,48,,,,,,,,,,0.03,1,2.389,0,2,2,2,1,Look at my mineral specimens in the light and catalogue them,call my coworker after work and talk about our days on the way home,0.03,0.05,4.4,,,,,1
,,663e40120b553e7aa7f786b4,2024-06-26_16h50.10.710,WTP_SM_Choice,2022.2.1,Win32,60.24096386,,,,,,,,,,,,,,,,,,49,,,,,,,,,,0.04,1,1.7632,0,3,3,3,1,teach myself to draw so,Go on vacations with a close group of friends,0.04,0.05,3.3,,,,,1
,,663e40120b553e7aa7f786b4,2024-06-26_16h50.10.710,WTP_SM_Choice,2022.2.1,Win32,60.24096386,,,,,,,,,,,,,,,,,,50,,,,,,,,,,0.05,1,3.3673,0,4,4,4,1,Work on my next cosplay costume with my music on loud,Watch anime with my partner in our cool downstairs with all of our cats getting along around us,0.05,0.05,1.1,,,,,1
,,663e40120b553e7aa7f786b4,2024-06-26_16h50.10.710,WTP_SM_Choice,2022.2.1,Win32,60.24096386,,,,,,,1,,4,1.34,4.66,,0,49,49,49,1,50,Sam,Rej,Participant_Images/663e40120b553e7aa7f786b4/663e40120b553e7aa7f786b4_Images/663e40120b553e7aa7f786b4_Image_6.jpeg,liked,3.195382774,,,,,,,,,,,,,,,,,,space,0.8739,,,
,,663e40120b553e7aa7f786b4,2024-06-26_16h50.10.710,WTP_SM_Choice,2022.2.1,Win32,60.24096386,,,space,1.2163,space,0.5862,NAN,,NAN,1.34,4.66,,0,50,50,50,1,51,Riley,Rej,Participant_Images/663e40120b553e7aa7f786b4/663e40120b553e7aa7f786b4_Images/663e40120b553e7aa7f786b4_Image_19.jpeg,did not like,1.779333479,,,,,,,,,,,,,,,,,,,,,,
,,663e40120b553e7aa7f786b4,2024-06-26_16h50.10.710,WTP_SM_Choice,2022.2.1,Win32,60.24096386,,,,,space,0.4512,NAN,,NAN,1.34,4.66,,0,51,51,51,1,52,Riley,Rej,Participant_Images/663e40120b553e7aa7f786b4/663e40120b553e7aa7f786b4_Images/663e40120b553e7aa7f786b4_Image_8.jpeg,did not like,4.312468682,,,,,,,,,,,,,,,,,,,,,,
,,663e40120b553e7aa7f786b4,2024-06-26_16h50.10.710,WTP_SM_Choice,2022.2.1,Win32,60.24096386,,,,,space,1.0518,NAN,,NAN,1.34,4.66,,0,52,52,52,1,53,Riley,Rej,Participant_Images/663e40120b553e7aa7f786b4/663e40120b553e7aa7f786b4_Images/663e40120b553e7aa7f786b4_Image_15.jpeg,did not like,4.940433059,,,,,,,,,,,,,,,,,,,,,,
,,663e40120b553e7aa7f786b4,2024-06-26_16h50.10.710,WTP_SM_Choice,2022.2.1,Win32,60.24096386,,,,,space,0.8266,NAN,,NAN,1.34,4.66,,0,53,53,53,1,54,Riley,Rej,Participant_Images/663e40120b553e7aa7f786b4/663e40120b553e7aa7f786b4_Images/663e40120b553e7aa7f786b4_Image_20.jpeg,did not like,2.7105123,,,,,,,,,,,,,,,,,,,,,,
,,663e40120b553e7aa7f786b4,2024-06-26_16h50.10.710,WTP_SM_Choice,2022.2.1,Win32,60.24096386,,,,,,,,,,,,,,,,,,51,,,,,,space,7.3425,space,0.9165,0.01,1,1.9892,0,0,0,0,1,Bake something that will end up going to my sister and my nephew,Go to an anime convention and meeting up with my international friends,0.01,0.01,1.1,,,,,1
,,663e40120b553e7aa7f786b4,2024-06-26_16h50.10.710,WTP_SM_Choice,2022.2.1,Win32,60.24096386,,,,,,,,,,,,,,,,,,52,,,,,,,,,,0.01,2,2.5571,0,1,1,1,1,teach myself to draw so,Show my stepdad and mom funny videos  memes or tiktoks and see their reactions,0.02,0.01,3.3,,,,,1
,,663e40120b553e7aa7f786b4,2024-06-26_16h50.10.710,WTP_SM_Choice,2022.2.1,Win32,60.24096386,,,,,,,,,,,,,,,,,,53,,,,,,,,,,0.03,1,1.5093,0,2,2,2,1,Work on my next cosplay costume with my music on loud,Go to Menards with my dad to work on the next project we have together,0.03,0.01,1.1,,,,,1
,,663e40120b553e7aa7f786b4,2024-06-26_16h50.10.710,WTP_SM_Choice,2022.2.1,Win32,60.24096386,,,,,,,,,,,,,,,,,,54,,,,,,,,,,0.04,1,1.6884,0,3,3,3,1,teach myself to draw so,Voice Call with my Friend Katie or Logan,0.04,0.01,4.4,,,,,1
,,663e40120b553e7aa7f786b4,2024-06-26_16h50.10.710,WTP_SM_Choice,2022.2.1,Win32,60.24096386,,,,,,,,,,,,,,,,,,55,,,,,,,,,,0.05,1,2.0933,0,4,4,4,1,Go to bed while there is a thunderstorm happening,Voice Call with my Friend Katie or Logan,0.05,0.01,1.1,,,,,1
,,663e40120b553e7aa7f786b4,2024-06-26_16h50.10.710,WTP_SM_Choice,2022.2.1,Win32,60.24096386,,,,,,,NAN,,NAN,1.48,4.52,,0,54,54,54,1,55,Riley,Rej,Participant_Images/663e40120b553e7aa7f786b4/663e40120b553e7aa7f786b4_Images/663e40120b553e7aa7f786b4_Image_17.jpeg,did not like,3.602308302,,,,,,,,,,,,,,,,,,,,,,
,,663e40120b553e7aa7f786b4,2024-06-26_16h50.10.710,WTP_SM_Choice,2022.2.1,Win32,60.24096386,,,,,space,0.6683,NAN,,NAN,1.48,4.52,,0,55,55,55,1,56,Riley,Rej,Participant_Images/663e40120b553e7aa7f786b4/663e40120b553e7aa7f786b4_Images/663e40120b553e7aa7f786b4_Image_2.jpeg,did not like,4.106391878,,,,,,,,,,,,,,,,,,,,,,
,,663e40120b553e7aa7f786b4,2024-06-26_16h50.10.710,WTP_SM_Choice,2022.2.1,Win32,60.24096386,,,,,space,0.6173,NAN,,NAN,1.48,4.52,,0,56,56,56,1,57,Riley,Rej,Participant_Images/663e40120b553e7aa7f786b4/663e40120b553e7aa7f786b4_Images/663e40120b553e7aa7f786b4_Image_18.jpeg,liked,3.799433026,,,,,,,,,,,,,,,,,,,,,,
,,663e40120b553e7aa7f786b4,2024-06-26_16h50.10.710,WTP_SM_Choice,2022.2.1,Win32,60.24096386,,,,,space,0.7254,NAN,,NAN,1.48,4.52,,0,57,57,57,1,58,Riley,Rej,Participant_Images/663e40120b553e7aa7f786b4/663e40120b553e7aa7f786b4_Images/663e40120b553e7aa7f786b4_Image_7.jpeg,liked,5.246980764,,,,,,,,,,,,,,,,,,,,,,
,,663e40120b553e7aa7f786b4,2024-06-26_16h50.10.710,WTP_SM_Choice,2022.2.1,Win32,60.24096386,,,,,space,0.6893,NAN,,NAN,1.48,4.52,,0,58,58,58,1,59,Riley,Rej,Participant_Images/663e40120b553e7aa7f786b4/663e40120b553e7aa7f786b4_Images/663e40120b553e7aa7f786b4_Image_12.jpeg,did not like,3.30081769,,,,,,,,,,,,,,,,,,,,,,
,,663e40120b553e7aa7f786b4,2024-06-26_16h50.10.710,WTP_SM_Choice,2022.2.1,Win32,60.24096386,,,,,,,,,,,,,,,,,,56,,,,,,space,1.2463,space,0.9475,0.01,1,1.8284,0,0,0,0,1,Play a videogame late at night when it is dark out and I might get a little scared,Voice Call with my Friend Katie or Logan,0.01,0.02,8.8,,,,,1
,,663e40120b553e7aa7f786b4,2024-06-26_16h50.10.710,WTP_SM_Choice,2022.2.1,Win32,60.24096386,,,,,,,,,,,,,,,,,,57,,,,,,,,,,0.02,1,1.6325,0,1,1,1,1,Bake something that will end up going to my sister and my nephew,Go to Menards with my dad to work on the next project we have together,0.02,0.02,4.4,,,,,1
,,663e40120b553e7aa7f786b4,2024-06-26_16h50.10.710,WTP_SM_Choice,2022.2.1,Win32,60.24096386,,,,,,,,,,,,,,,,,,58,,,,,,,,,,0.03,1,2.0264,0,2,2,2,1,Play a videogame late at night when it is dark out and I might get a little scared,Watch anime with my partner in our cool downstairs with all of our cats getting along around us,0.03,0.02,4.4,,,,,1
,,663e40120b553e7aa7f786b4,2024-06-26_16h50.10.710,WTP_SM_Choice,2022.2.1,Win32,60.24096386,,,,,,,,,,,,,,,,,,59,,,,,,,,,,0.04,1,2.2179,0,3,3,3,1,Check on my garden,Go to an anime convention and meeting up with my international friends,0.04,0.02,4.4,,,,,1
,,663e40120b553e7aa7f786b4,2024-06-26_16h50.10.710,WTP_SM_Choice,2022.2.1,Win32,60.24096386,,,,,,,,,,,,,,,,,,60,,,,,,,,,,0.05,1,2.3201,0,4,4,4,1,Check on my garden,cosplay with my friends and partner,0.05,0.02,1.1,,,,,1
,,663e40120b553e7aa7f786b4,2024-06-26_16h50.10.710,WTP_SM_Choice,2022.2.1,Win32,60.24096386,,,,,,,NAN,,NAN,1.63,4.37,,0,59,59,59,1,60,Riley,Rej,Participant_Images/663e40120b553e7aa7f786b4/663e40120b553e7aa7f786b4_Images/663e40120b553e7aa7f786b4_Image_22.jpeg,did not like,1.661473164,,,,,,,,,,,,,,,,,,,,,,
,,663e40120b553e7aa7f786b4,2024-06-26_16h50.10.710,WTP_SM_Choice,2022.2.1,Win32,60.24096386,,,,,space,3.4771,NAN,,NAN,1.63,4.37,,0,60,60,60,1,61,Riley,Rej,Participant_Images/663e40120b553e7aa7f786b4/663e40120b553e7aa7f786b4_Images/663e40120b553e7aa7f786b4_Image_6.jpeg,did not like,3.613205605,,,,,,,,,,,,,,,,,,,,,,
,,663e40120b553e7aa7f786b4,2024-06-26_16h50.10.710,WTP_SM_Choice,2022.2.1,Win32,60.24096386,,,,,space,6.4548,NAN,,NAN,1.63,4.37,,0,61,61,61,1,62,Riley,Rej,Participant_Images/663e40120b553e7aa7f786b4/663e40120b553e7aa7f786b4_Images/663e40120b553e7aa7f786b4_Image_1.jpeg,did not like,4.988446431,,,,,,,,,,,,,,,,,,,,,,
,,663e40120b553e7aa7f786b4,2024-06-26_16h50.10.710,WTP_SM_Choice,2022.2.1,Win32,60.24096386,,,,,space,3.5019,NAN,,NAN,1.63,4.37,,0,62,62,62,1,63,Riley,Rej,Participant_Images/663e40120b553e7aa7f786b4/663e40120b553e7aa7f786b4_Images/663e40120b553e7aa7f786b4_Image_5.jpeg,liked,3.470791822,,,,,,,,,,,,,,,,,,,,,,
,,663e40120b553e7aa7f786b4,2024-06-26_16h50.10.710,WTP_SM_Choice,2022.2.1,Win32,60.24096386,,,,,space,0.0032,NAN,,NAN,1.63,4.37,,0,63,63,63,1,64,Riley,Rej,Participant_Images/663e40120b553e7aa7f786b4/663e40120b553e7aa7f786b4_Images/663e40120b553e7aa7f786b4_Image_16.jpeg,did not like,3.820572462,,,,,,,,,,,,,,,,,,,,,,
,,663e40120b553e7aa7f786b4,2024-06-26_16h50.10.710,WTP_SM_Choice,2022.2.1,Win32,60.24096386,,,,,,,,,,,,,,,,,,61,,,,,,space,1.7302,space,0.5745,0.03,2,2.332,0,0,0,0,1,teach myself to draw so,call my coworker after work and talk about our days on the way home,0.01,0.03,3.3,,,,,1
,,663e40120b553e7aa7f786b4,2024-06-26_16h50.10.710,WTP_SM_Choice,2022.2.1,Win32,60.24096386,,,,,,,,,,,,,,,,,,62,,,,,,,,,,0.02,1,1.5268,0,1,1,1,1,teach myself to draw so,Cook up new things with my friend Marlo and talk about the things we are into and recent things we have gotten absorbed in,0.02,0.03,3.3,,,,,1
,,663e40120b553e7aa7f786b4,2024-06-26_16h50.10.710,WTP_SM_Choice,2022.2.1,Win32,60.24096386,,,,,,,,,,,,,,,,,,63,,,,,,,,,,0.03,1,2.4894,0,2,2,2,1,Go to bed while there is a thunderstorm happening,Go on vacations with a close group of friends,0.03,0.03,3.3,,,,,1
,,663e40120b553e7aa7f786b4,2024-06-26_16h50.10.710,WTP_SM_Choice,2022.2.1,Win32,60.24096386,,,,,,,,,,,,,,,,,,64,,,,,,,,,,0.04,1,3.2347,0,3,3,3,1,sing along to music even though I know I am not the best,cosplay with my friends and partner,0.04,0.03,1.1,,,,,1
,,663e40120b553e7aa7f786b4,2024-06-26_16h50.10.710,WTP_SM_Choice,2022.2.1,Win32,60.24096386,,,,,,,,,,,,,,,,,,65,,,,,,,,,,0.05,1,3.2106,0,4,4,4,1,Play a videogame late at night when it is dark out and I might get a little scared,Show my stepdad and mom funny videos  memes or tiktoks and see their reactions,0.05,0.03,1.1,,,,,1
,,663e40120b553e7aa7f786b4,2024-06-26_16h50.10.710,WTP_SM_Choice,2022.2.1,Win32,60.24096386,,,,,,,NAN,,NAN,1.8,4.2,,0,64,64,64,1,65,Riley,Rej,Participant_Images/663e40120b553e7aa7f786b4/663e40120b553e7aa7f786b4_Images/663e40120b553e7aa7f786b4_Image_23.jpeg,liked,2.455989137,,,,,,,,,,,,,,,,,,,,,,
,,663e40120b553e7aa7f786b4,2024-06-26_16h50.10.710,WTP_SM_Choice,2022.2.1,Win32,60.24096386,,,,,space,0.584,NAN,,NAN,1.8,4.2,,0,65,65,65,1,66,Riley,Rej,Participant_Images/663e40120b553e7aa7f786b4/663e40120b553e7aa7f786b4_Images/663e40120b553e7aa7f786b4_Image_14.jpeg,liked,3.79605092,,,,,,,,,,,,,,,,,,,,,,
,,663e40120b553e7aa7f786b4,2024-06-26_16h50.10.710,WTP_SM_Choice,2022.2.1,Win32,60.24096386,,,,,space,0.5532,NAN,,NAN,1.8,4.2,,0,66,66,66,1,67,Riley,Rej,Participant_Images/663e40120b553e7aa7f786b4/663e40120b553e7aa7f786b4_Images/663e40120b553e7aa7f786b4_Image_3.jpeg,did not like,3.562416326,,,,,,,,,,,,,,,,,,,,,,
,,663e40120b553e7aa7f786b4,2024-06-26_16h50.10.710,WTP_SM_Choice,2022.2.1,Win32,60.24096386,,,,,space,0.6742,NAN,,NAN,1.8,4.2,,0,67,67,67,1,68,Riley,Rej,Participant_Images/663e40120b553e7aa7f786b4/663e40120b553e7aa7f786b4_Images/663e40120b553e7aa7f786b4_Image_9.jpeg,liked,2.843822497,,,,,,,,,,,,,,,,,,,,,,
,,663e40120b553e7aa7f786b4,2024-06-26_16h50.10.710,WTP_SM_Choice,2022.2.1,Win32,60.24096386,,,,,space,4.5906,NAN,,NAN,1.8,4.2,,0,68,68,68,1,69,Riley,Rej,Participant_Images/663e40120b553e7aa7f786b4/663e40120b553e7aa7f786b4_Images/663e40120b553e7aa7f786b4_Image_13.jpeg,did not like,3.546495948,,,,,,,,,,,,,,,,,,,,,,
,,663e40120b553e7aa7f786b4,2024-06-26_16h50.10.710,WTP_SM_Choice,2022.2.1,Win32,60.24096386,,,,,,,,,,,,,,,,,,66,,,,,,space,1.7138,space,0.7856,0.01,1,2.0378,0,0,0,0,1,Bake something that will end up going to my sister and my nephew,Play video games online with my friends while we talk on a Voice Chat on discord,0.01,0.04,1.1,,,,,1
,,663e40120b553e7aa7f786b4,2024-06-26_16h50.10.710,WTP_SM_Choice,2022.2.1,Win32,60.24096386,,,,,,,,,,,,,,,,,,67,,,,,,,,,,0.04,2,1.8564,0,1,1,1,1,Go to the gym and working out at my hardest,Voice Call with my Friend Katie or Logan,0.02,0.04,8.8,,,,,1
,,663e40120b553e7aa7f786b4,2024-06-26_16h50.10.710,WTP_SM_Choice,2022.2.1,Win32,60.24096386,,,,,,,,,,,,,,,,,,68,,,,,,,,,,0.04,2,2.7472,0,2,2,2,1,write and be able to get really into a scene,Show my stepdad and mom funny videos  memes or tiktoks and see their reactions,0.03,0.04,4.4,,,,,1
,,663e40120b553e7aa7f786b4,2024-06-26_16h50.10.710,WTP_SM_Choice,2022.2.1,Win32,60.24096386,,,,,,,,,,,,,,,,,,69,,,,,,,,,,0.04,2,1.8473,0,3,3,3,1,sing along to music even though I know I am not the best,Watch anime with my partner in our cool downstairs with all of our cats getting along around us,0.04,0.04,1.1,,,,,1
,,663e40120b553e7aa7f786b4,2024-06-26_16h50.10.710,WTP_SM_Choice,2022.2.1,Win32,60.24096386,,,,,,,,,,,,,,,,,,70,,,,,,,,,,0.04,2,3.8903,0,4,4,4,1,Look at my mineral specimens in the light and catalogue them,Play video games online with my friends while we talk on a Voice Chat on discord,0.05,0.04,1.1,,,,,1
,,663e40120b553e7aa7f786b4,2024-06-26_16h50.10.710,WTP_SM_Choice,2022.2.1,Win32,60.24096386,,,,,,,NAN,,NAN,1.97,4.03,,0,69,69,69,1,70,Riley,Rej,Participant_Images/663e40120b553e7aa7f786b4/663e40120b553e7aa7f786b4_Images/663e40120b553e7aa7f786b4_Image_4.jpeg,did not like,1.672012706,,,,,,,,,,,,,,,,,,,,,,
,,663e40120b553e7aa7f786b4,2024-06-26_16h50.10.710,WTP_SM_Choice,2022.2.1,Win32,60.24096386,,,,,space,0.8118,NAN,,NAN,1.97,4.03,,0,70,70,70,1,71,Riley,Rej,Participant_Images/663e40120b553e7aa7f786b4/663e40120b553e7aa7f786b4_Images/663e40120b553e7aa7f786b4_Image_21.jpeg,did not like,4.942172136,,,,,,,,,,,,,,,,,,,,,,
,,663e40120b553e7aa7f786b4,2024-06-26_16h50.10.710,WTP_SM_Choice,2022.2.1,Win32,60.24096386,,,,,space,0.7008,NAN,,NAN,1.97,4.03,,0,71,71,71,1,72,Riley,Rej,Participant_Images/663e40120b553e7aa7f786b4/663e40120b553e7aa7f786b4_Images/663e40120b553e7aa7f786b4_Image_25.jpeg,liked,2.50187214,,,,,,,,,,,,,,,,,,,,,,
,,663e40120b553e7aa7f786b4,2024-06-26_16h50.10.710,WTP_SM_Choice,2022.2.1,Win32,60.24096386,,,,,space,0.5455,NAN,,NAN,1.97,4.03,,0,72,72,72,1,73,Riley,Rej,Participant_Images/663e40120b553e7aa7f786b4/663e40120b553e7aa7f786b4_Images/663e40120b553e7aa7f786b4_Image_11.jpeg,did not like,2.071164779,,,,,,,,,,,,,,,,,,,,,,
,,663e40120b553e7aa7f786b4,2024-06-26_16h50.10.710,WTP_SM_Choice,2022.2.1,Win32,60.24096386,,,,,space,0.7583,NAN,,NAN,1.97,4.03,,0,73,73,73,1,74,Riley,Rej,Participant_Images/663e40120b553e7aa7f786b4/663e40120b553e7aa7f786b4_Images/663e40120b553e7aa7f786b4_Image_10.jpeg,did not like,5.336503566,,,,,,,,,,,,,,,,,,,,,,
,,663e40120b553e7aa7f786b4,2024-06-26_16h50.10.710,WTP_SM_Choice,2022.2.1,Win32,60.24096386,,,,,,,,,,,,,,,,,,71,,,,,,space,1.0739,space,0.6098,0.05,2,1.545,0,0,0,0,1,Check on my garden,Go on vacations with a close group of friends,0.01,0.05,3.3,,,,,1
,,663e40120b553e7aa7f786b4,2024-06-26_16h50.10.710,WTP_SM_Choice,2022.2.1,Win32,60.24096386,,,,,,,,,,,,,,,,,,72,,,,,,,,,,0.05,2,3.3549,0,1,1,1,1,Bake something that will end up going to my sister and my nephew,Go on vacations with a close group of friends,0.02,0.05,8.8,,,,,1
,,663e40120b553e7aa7f786b4,2024-06-26_16h50.10.710,WTP_SM_Choice,2022.2.1,Win32,60.24096386,,,,,,,,,,,,,,,,,,73,,,,,,,,,,0.03,1,1.422,0,2,2,2,1,Look at my mineral specimens in the light and catalogue them,Voice Call with my Friend Katie or Logan,0.03,0.05,3.3,,,,,1
,,663e40120b553e7aa7f786b4,2024-06-26_16h50.10.710,WTP_SM_Choice,2022.2.1,Win32,60.24096386,,,,,,,,,,,,,,,,,,74,,,,,,,,,,0.05,2,3.5179,0,3,3,3,1,write and be able to get really into a scene,Go to an anime convention and meeting up with my international friends,0.04,0.05,4.4,,,,,1
,,663e40120b553e7aa7f786b4,2024-06-26_16h50.10.710,WTP_SM_Choice,2022.2.1,Win32,60.24096386,,,,,,,,,,,,,,,,,,75,,,,,,,,,,0.05,2,3.1025,0,4,4,4,1,write and be able to get really into a scene,Go on vacations with a close group of friends,0.05,0.05,3.3,,,,,1
,,663e40120b553e7aa7f786b4,2024-06-26_16h50.10.710,WTP_SM_Choice,2022.2.1,Win32,60.24096386,,,,,,,1,,4,2.2,3.8,,0,74,74,74,1,75,Riley,Rej,Participant_Images/663e40120b553e7aa7f786b4/663e40120b553e7aa7f786b4_Images/663e40120b553e7aa7f786b4_Image_24.jpeg,did not like,2.642157193,,,,,,,,,,,,,,,,,,space,0.9848,,,
,,663e40120b553e7aa7f786b4,2024-06-26_16h50.10.710,WTP_SM_Choice,2022.2.1,Win32,60.24096386,,,space,1.1782,space,0.5578,NAN,,NAN,2.2,3.8,,0,75,75,75,1,76,Alex,Acc,Participant_Images/663e40120b553e7aa7f786b4/663e40120b553e7aa7f786b4_Images/663e40120b553e7aa7f786b4_Image_11.jpeg,liked,4.456234322,,,,,,,,,,,,,,,,,,,,,,
,,663e40120b553e7aa7f786b4,2024-06-26_16h50.10.710,WTP_SM_Choice,2022.2.1,Win32,60.24096386,,,,,space,1.0537,NAN,,NAN,2.2,3.8,,0,76,76,76,1,77,Alex,Acc,Participant_Images/663e40120b553e7aa7f786b4/663e40120b553e7aa7f786b4_Images/663e40120b553e7aa7f786b4_Image_13.jpeg,liked,4.438512181,,,,,,,,,,,,,,,,,,,,,,
,,663e40120b553e7aa7f786b4,2024-06-26_16h50.10.710,WTP_SM_Choice,2022.2.1,Win32,60.24096386,,,,,space,0.5753,NAN,,NAN,2.2,3.8,,0,77,77,77,1,78,Alex,Acc,Participant_Images/663e40120b553e7aa7f786b4/663e40120b553e7aa7f786b4_Images/663e40120b553e7aa7f786b4_Image_2.jpeg,liked,2.682944783,,,,,,,,,,,,,,,,,,,,,,
,,663e40120b553e7aa7f786b4,2024-06-26_16h50.10.710,WTP_SM_Choice,2022.2.1,Win32,60.24096386,,,,,space,0.624,NAN,,NAN,2.2,3.8,,0,78,78,78,1,79,Alex,Acc,Participant_Images/663e40120b553e7aa7f786b4/663e40120b553e7aa7f786b4_Images/663e40120b553e7aa7f786b4_Image_14.jpeg,liked,4.51984296,,,,,,,,,,,,,,,,,,,,,,
,,663e40120b553e7aa7f786b4,2024-06-26_16h50.10.710,WTP_SM_Choice,2022.2.1,Win32,60.24096386,,,,,,,,,,,,,,,,,,76,,,,,,space,1.052,space,0.69,0.01,1,1.5492,0,0,0,0,1,Check on my garden,Go to Menards with my dad to work on the next project we have together,0.01,0.01,1.1,,,,,1
,,663e40120b553e7aa7f786b4,2024-06-26_16h50.10.710,WTP_SM_Choice,2022.2.1,Win32,60.24096386,,,,,,,,,,,,,,,,,,77,,,,,,,,,,0.02,1,2.1517,0,1,1,1,1,Play a videogame late at night when it is dark out and I might get a little scared,Go to an anime convention and meeting up with my international friends,0.02,0.01,8.8,,,,,1
,,663e40120b553e7aa7f786b4,2024-06-26_16h50.10.710,WTP_SM_Choice,2022.2.1,Win32,60.24096386,,,,,,,,,,,,,,,,,,78,,,,,,,,,,0.03,1,2.4572,0,2,2,2,1,Work on my next cosplay costume with my music on loud,Play video games online with my friends while we talk on a Voice Chat on discord,0.03,0.01,1.1,,,,,1
,,663e40120b553e7aa7f786b4,2024-06-26_16h50.10.710,WTP_SM_Choice,2022.2.1,Win32,60.24096386,,,,,,,,,,,,,,,,,,79,,,,,,,,,,0.04,1,1.3934,0,3,3,3,1,Check on my garden,Watch anime with my partner in our cool downstairs with all of our cats getting along around us,0.04,0.01,1.1,,,,,1
,,663e40120b553e7aa7f786b4,2024-06-26_16h50.10.710,WTP_SM_Choice,2022.2.1,Win32,60.24096386,,,,,,,,,,,,,,,,,,80,,,,,,,,,,0.05,1,2.2923,0,4,4,4,1,Go to the gym and working out at my hardest,Go to an anime convention and meeting up with my international friends,0.05,0.01,4.4,,,,,1
,,663e40120b553e7aa7f786b4,2024-06-26_16h50.10.710,WTP_SM_Choice,2022.2.1,Win32,60.24096386,,,,,,,NAN,,NAN,2.35,3.65,,0,79,79,79,1,80,Alex,Acc,Participant_Images/663e40120b553e7aa7f786b4/663e40120b553e7aa7f786b4_Images/663e40120b553e7aa7f786b4_Image_3.jpeg,liked,3.195382774,,,,,,,,,,,,,,,,,,,,,,
,,663e40120b553e7aa7f786b4,2024-06-26_16h50.10.710,WTP_SM_Choice,2022.2.1,Win32,60.24096386,,,,,space,1.1357,NAN,,NAN,2.35,3.65,,0,80,80,80,1,81,Alex,Acc,Participant_Images/663e40120b553e7aa7f786b4/663e40120b553e7aa7f786b4_Images/663e40120b553e7aa7f786b4_Image_25.jpeg,did not like,1.779333479,,,,,,,,,,,,,,,,,,,,,,
,,663e40120b553e7aa7f786b4,2024-06-26_16h50.10.710,WTP_SM_Choice,2022.2.1,Win32,60.24096386,,,,,space,1.1582,NAN,,NAN,2.35,3.65,,0,81,81,81,1,82,Alex,Acc,Participant_Images/663e40120b553e7aa7f786b4/663e40120b553e7aa7f786b4_Images/663e40120b553e7aa7f786b4_Image_4.jpeg,liked,4.312468682,,,,,,,,,,,,,,,,,,,,,,
,,663e40120b553e7aa7f786b4,2024-06-26_16h50.10.710,WTP_SM_Choice,2022.2.1,Win32,60.24096386,,,,,space,0.8036,NAN,,NAN,2.35,3.65,,0,82,82,82,1,83,Alex,Acc,Participant_Images/663e40120b553e7aa7f786b4/663e40120b553e7aa7f786b4_Images/663e40120b553e7aa7f786b4_Image_9.jpeg,did not like,4.940433059,,,,,,,,,,,,,,,,,,,,,,
,,663e40120b553e7aa7f786b4,2024-06-26_16h50.10.710,WTP_SM_Choice,2022.2.1,Win32,60.24096386,,,,,space,0.889,NAN,,NAN,2.35,3.65,,0,83,83,83,1,84,Alex,Acc,Participant_Images/663e40120b553e7aa7f786b4/663e40120b553e7aa7f786b4_Images/663e40120b553e7aa7f786b4_Image_21.jpeg,did not like,2.7105123,,,,,,,,,,,,,,,,,,,,,,
,,663e40120b553e7aa7f786b4,2024-06-26_16h50.10.710,WTP_SM_Choice,2022.2.1,Win32,60.24096386,,,,,,,,,,,,,,,,,,81,,,,,,space,0.9869,space,0.9346,0.01,1,1.5167,0,0,0,0,1,Work on my next cosplay costume with my music on loud,Cook up new things with my friend Marlo and talk about the things we are into and recent things we have gotten absorbed in,0.01,0.02,3.3,,,,,1
,,663e40120b553e7aa7f786b4,2024-06-26_16h50.10.710,WTP_SM_Choice,2022.2.1,Win32,60.24096386,,,,,,,,,,,,,,,,,,82,,,,,,,,,,0.02,1,1.8882,0,1,1,1,1,teach myself to draw so,Watch anime with my partner in our cool downstairs with all of our cats getting along around us,0.02,0.02,4.4,,,,,1
,,663e40120b553e7aa7f786b4,2024-06-26_16h50.10.710,WTP_SM_Choice,2022.2.1,Win32,60.24096386,,,,,,,,,,,,,,,,,,83,,,,,,,,,,0.03,1,2.7359,0,2,2,2,1,Check on my garden,Voice Call with my Friend Katie or Logan,0.03,0.02,1.1,,,,,1
,,663e40120b553e7aa7f786b4,2024-06-26_16h50.10.710,WTP_SM_Choice,2022.2.1,Win32,60.24096386,,,,,,,,,,,,,,,,,,84,,,,,,,,,,0.02,2,1.9507,0,3,3,3,1,Look at my mineral specimens in the light and catalogue them,Show my stepdad and mom funny videos  memes or tiktoks and see their reactions,0.04,0.02,3.3,,,,,1
,,663e40120b553e7aa7f786b4,2024-06-26_16h50.10.710,WTP_SM_Choice,2022.2.1,Win32,60.24096386,,,,,,,,,,,,,,,,,,85,,,,,,,,,,0.02,2,1.5369,0,4,4,4,1,Bake something that will end up going to my sister and my nephew,call my coworker after work and talk about our days on the way home,0.05,0.02,3.3,,,,,1
,,663e40120b553e7aa7f786b4,2024-06-26_16h50.10.710,WTP_SM_Choice,2022.2.1,Win32,60.24096386,,,,,,,NAN,,NAN,2.45,3.55,,0,84,84,84,1,85,Alex,Acc,Participant_Images/663e40120b553e7aa7f786b4/663e40120b553e7aa7f786b4_Images/663e40120b553e7aa7f786b4_Image_19.jpeg,liked,3.602308302,,,,,,,,,,,,,,,,,,,,,,
,,663e40120b553e7aa7f786b4,2024-06-26_16h50.10.710,WTP_SM_Choice,2022.2.1,Win32,60.24096386,,,,,space,0.9739,NAN,,NAN,2.45,3.55,,0,85,85,85,1,86,Alex,Acc,Participant_Images/663e40120b553e7aa7f786b4/663e40120b553e7aa7f786b4_Images/663e40120b553e7aa7f786b4_Image_16.jpeg,liked,4.106391878,,,,,,,,,,,,,,,,,,,,,,
,,663e40120b553e7aa7f786b4,2024-06-26_16h50.10.710,WTP_SM_Choice,2022.2.1,Win32,60.24096386,,,,,space,0.9543,NAN,,NAN,2.45,3.55,,0,86,86,86,1,87,Alex,Acc,Participant_Images/663e40120b553e7aa7f786b4/663e40120b553e7aa7f786b4_Images/663e40120b553e7aa7f786b4_Image_24.jpeg,liked,3.799433026,,,,,,,,,,,,,,,,,,,,,,
,,663e40120b553e7aa7f786b4,2024-06-26_16h50.10.710,WTP_SM_Choice,2022.2.1,Win32,60.24096386,,,,,space,1.2529,NAN,,NAN,2.45,3.55,,0,87,87,87,1,88,Alex,Acc,Participant_Images/663e40120b553e7aa7f786b4/663e40120b553e7aa7f786b4_Images/663e40120b553e7aa7f786b4_Image_22.jpeg,did not like,5.246980764,,,,,,,,,,,,,,,,,,,,,,
,,663e40120b553e7aa7f786b4,2024-06-26_16h50.10.710,WTP_SM_Choice,2022.2.1,Win32,60.24096386,,,,,space,0.6852,NAN,,NAN,2.45,3.55,,0,88,88,88,1,89,Alex,Acc,Participant_Images/663e40120b553e7aa7f786b4/663e40120b553e7aa7f786b4_Images/663e40120b553e7aa7f786b4_Image_10.jpeg,liked,3.30081769,,,,,,,,,,,,,,,,,,,,,,
,,663e40120b553e7aa7f786b4,2024-06-26_16h50.10.710,WTP_SM_Choice,2022.2.1,Win32,60.24096386,,,,,,,,,,,,,,,,,,86,,,,,,space,0.7287,space,0.7912,0.01,1,1.8416,0,0,0,0,1,Look at my mineral specimens in the light and catalogue them,Go to Menards with my dad to work on the next project we have together,0.01,0.03,1.1,,,,,1
,,663e40120b553e7aa7f786b4,2024-06-26_16h50.10.710,WTP_SM_Choice,2022.2.1,Win32,60.24096386,,,,,,,,,,,,,,,,,,87,,,,,,,,,,0.03,2,1.5488,0,1,1,1,1,write and be able to get really into a scene,call my coworker after work and talk about our days on the way home,0.02,0.03,4.4,,,,,1
,,663e40120b553e7aa7f786b4,2024-06-26_16h50.10.710,WTP_SM_Choice,2022.2.1,Win32,60.24096386,,,,,,,,,,,,,,,,,,88,,,,,,,,,,0.03,1,1.7738,0,2,2,2,1,Check on my garden,Cook up new things with my friend Marlo and talk about the things we are into and recent things we have gotten absorbed in,0.03,0.03,1.1,,,,,1
,,663e40120b553e7aa7f786b4,2024-06-26_16h50.10.710,WTP_SM_Choice,2022.2.1,Win32,60.24096386,,,,,,,,,,,,,,,,,,89,,,,,,,,,,0.03,2,2.3223,0,3,3,3,1,sing along to music even though I know I am not the best,call my coworker after work and talk about our days on the way home,0.04,0.03,3.3,,,,,1
,,663e40120b553e7aa7f786b4,2024-06-26_16h50.10.710,WTP_SM_Choice,2022.2.1,Win32,60.24096386,,,,,,,,,,,,,,,,,,90,,,,,,,,,,0.05,1,2.3077,0,4,4,4,1,Go to the gym and working out at my hardest,cosplay with my friends and partner,0.05,0.03,8.8,,,,,1
,,663e40120b553e7aa7f786b4,2024-06-26_16h50.10.710,WTP_SM_Choice,2022.2.1,Win32,60.24096386,,,,,,,NAN,,NAN,2.6,3.4,,0,89,89,89,1,90,Alex,Acc,Participant_Images/663e40120b553e7aa7f786b4/663e40120b553e7aa7f786b4_Images/663e40120b553e7aa7f786b4_Image_5.jpeg,did not like,1.661473164,,,,,,,,,,,,,,,,,,,,,,
,,663e40120b553e7aa7f786b4,2024-06-26_16h50.10.710,WTP_SM_Choice,2022.2.1,Win32,60.24096386,,,,,space,0.6369,NAN,,NAN,2.6,3.4,,0,90,90,90,1,91,Alex,Acc,Participant_Images/663e40120b553e7aa7f786b4/663e40120b553e7aa7f786b4_Images/663e40120b553e7aa7f786b4_Image_7.jpeg,liked,3.613205605,,,,,,,,,,,,,,,,,,,,,,
,,663e40120b553e7aa7f786b4,2024-06-26_16h50.10.710,WTP_SM_Choice,2022.2.1,Win32,60.24096386,,,,,space,0.6839,NAN,,NAN,2.6,3.4,,0,91,91,91,1,92,Alex,Acc,Participant_Images/663e40120b553e7aa7f786b4/663e40120b553e7aa7f786b4_Images/663e40120b553e7aa7f786b4_Image_1.jpeg,liked,4.988446431,,,,,,,,,,,,,,,,,,,,,,
,,663e40120b553e7aa7f786b4,2024-06-26_16h50.10.710,WTP_SM_Choice,2022.2.1,Win32,60.24096386,,,,,space,0.7454,NAN,,NAN,2.6,3.4,,0,92,92,92,1,93,Alex,Acc,Participant_Images/663e40120b553e7aa7f786b4/663e40120b553e7aa7f786b4_Images/663e40120b553e7aa7f786b4_Image_12.jpeg,liked,3.470791822,,,,,,,,,,,,,,,,,,,,,,
,,663e40120b553e7aa7f786b4,2024-06-26_16h50.10.710,WTP_SM_Choice,2022.2.1,Win32,60.24096386,,,,,space,0.7242,NAN,,NAN,2.6,3.4,,0,93,93,93,1,94,Alex,Acc,Participant_Images/663e40120b553e7aa7f786b4/663e40120b553e7aa7f786b4_Images/663e40120b553e7aa7f786b4_Image_15.jpeg,liked,3.820572462,,,,,,,,,,,,,,,,,,,,,,
,,663e40120b553e7aa7f786b4,2024-06-26_16h50.10.710,WTP_SM_Choice,2022.2.1,Win32,60.24096386,,,,,,,,,,,,,,,,,,91,,,,,,space,0.8649,space,0.8853,0.01,1,2.3492,0,0,0,0,1,Check on my garden,Play video games online with my friends while we talk on a Voice Chat on discord,0.01,0.04,3.3,,,,,1
,,663e40120b553e7aa7f786b4,2024-06-26_16h50.10.710,WTP_SM_Choice,2022.2.1,Win32,60.24096386,,,,,,,,,,,,,,,,,,92,,,,,,,,,,0.04,2,2.4149,0,1,1,1,1,Go to bed while there is a thunderstorm happening,Watch anime with my partner in our cool downstairs with all of our cats getting along around us,0.02,0.04,8.8,,,,,1
,,663e40120b553e7aa7f786b4,2024-06-26_16h50.10.710,WTP_SM_Choice,2022.2.1,Win32,60.24096386,,,,,,,,,,,,,,,,,,93,,,,,,,,,,0.03,1,2.6754,0,2,2,2,1,sing along to music even though I know I am not the best,Play video games online with my friends while we talk on a Voice Chat on discord,0.03,0.04,1.1,,,,,1
,,663e40120b553e7aa7f786b4,2024-06-26_16h50.10.710,WTP_SM_Choice,2022.2.1,Win32,60.24096386,,,,,,,,,,,,,,,,,,94,,,,,,,,,,0.04,1,1.5654,0,3,3,3,1,sing along to music even though I know I am not the best,Cook up new things with my friend Marlo and talk about the things we are into and recent things we have gotten absorbed in,0.04,0.04,4.4,,,,,1
,,663e40120b553e7aa7f786b4,2024-06-26_16h50.10.710,WTP_SM_Choice,2022.2.1,Win32,60.24096386,,,,,,,,,,,,,,,,,,95,,,,,,,,,,0.05,1,1.3631,0,4,4,4,1,sing along to music even though I know I am not the best,Go to Menards with my dad to work on the next project we have together,0.05,0.04,4.4,,,,,1
,,663e40120b553e7aa7f786b4,2024-06-26_16h50.10.710,WTP_SM_Choice,2022.2.1,Win32,60.24096386,,,,,,,NAN,,NAN,2.77,3.23,,0,94,94,94,1,95,Alex,Acc,Participant_Images/663e40120b553e7aa7f786b4/663e40120b553e7aa7f786b4_Images/663e40120b553e7aa7f786b4_Image_18.jpeg,did not like,2.455989137,,,,,,,,,,,,,,,,,,,,,,
,,663e40120b553e7aa7f786b4,2024-06-26_16h50.10.710,WTP_SM_Choice,2022.2.1,Win32,60.24096386,,,,,space,0.8257,NAN,,NAN,2.77,3.23,,0,95,95,95,1,96,Alex,Acc,Participant_Images/663e40120b553e7aa7f786b4/663e40120b553e7aa7f786b4_Images/663e40120b553e7aa7f786b4_Image_8.jpeg,liked,3.79605092,,,,,,,,,,,,,,,,,,,,,,
,,663e40120b553e7aa7f786b4,2024-06-26_16h50.10.710,WTP_SM_Choice,2022.2.1,Win32,60.24096386,,,,,space,0.901,NAN,,NAN,2.77,3.23,,0,96,96,96,1,97,Alex,Acc,Participant_Images/663e40120b553e7aa7f786b4/663e40120b553e7aa7f786b4_Images/663e40120b553e7aa7f786b4_Image_20.jpeg,liked,3.562416326,,,,,,,,,,,,,,,,,,,,,,
,,663e40120b553e7aa7f786b4,2024-06-26_16h50.10.710,WTP_SM_Choice,2022.2.1,Win32,60.24096386,,,,,space,0.5386,NAN,,NAN,2.77,3.23,,0,97,97,97,1,98,Alex,Acc,Participant_Images/663e40120b553e7aa7f786b4/663e40120b553e7aa7f786b4_Images/663e40120b553e7aa7f786b4_Image_6.jpeg,did not like,2.843822497,,,,,,,,,,,,,,,,,,,,,,
,,663e40120b553e7aa7f786b4,2024-06-26_16h50.10.710,WTP_SM_Choice,2022.2.1,Win32,60.24096386,,,,,space,0.6872,NAN,,NAN,2.77,3.23,,0,98,98,98,1,99,Alex,Acc,Participant_Images/663e40120b553e7aa7f786b4/663e40120b553e7aa7f786b4_Images/663e40120b553e7aa7f786b4_Image_23.jpeg,liked,3.546495948,,,,,,,,,,,,,,,,,,,,,,
,,663e40120b553e7aa7f786b4,2024-06-26_16h50.10.710,WTP_SM_Choice,2022.2.1,Win32,60.24096386,,,,,,,,,,,,,,,,,,96,,,,,,space,1.149,space,0.6908,0.05,2,2.0079,0,0,0,0,1,write and be able to get really into a scene,Watch anime with my partner in our cool downstairs with all of our cats getting along around us,0.01,0.05,3.3,,,,,1
,,663e40120b553e7aa7f786b4,2024-06-26_16h50.10.710,WTP_SM_Choice,2022.2.1,Win32,60.24096386,,,,,,,,,,,,,,,,,,97,,,,,,,,,,0.02,1,2.3675,0,1,1,1,1,sing along to music even though I know I am not the best,Voice Call with my Friend Katie or Logan,0.02,0.05,1.1,,,,,1
,,663e40120b553e7aa7f786b4,2024-06-26_16h50.10.710,WTP_SM_Choice,2022.2.1,Win32,60.24096386,,,,,,,,,,,,,,,,,,98,,,,,,,,,,0.03,1,2.4263,0,2,2,2,1,Work on my next cosplay costume with my music on loud,cosplay with my friends and partner,0.03,0.05,1.1,,,,,1
,,663e40120b553e7aa7f786b4,2024-06-26_16h50.10.710,WTP_SM_Choice,2022.2.1,Win32,60.24096386,,,,,,,,,,,,,,,,,,99,,,,,,,,,,0.04,1,3.0013,0,3,3,3,1,sing along to music even though I know I am not the best,Show my stepdad and mom funny videos  memes or tiktoks and see their reactions,0.04,0.05,3.3,,,,,1
,,663e40120b553e7aa7f786b4,2024-06-26_16h50.10.710,WTP_SM_Choice,2022.2.1,Win32,60.24096386,,,,,,,,,,,,,,,,,,100,,,,,,,,,,0.05,2,2.1621,0,4,4,4,1,Go to bed while there is a thunderstorm happening,cosplay with my friends and partner,0.05,0.05,4.4,,,,,1
,,663e40120b553e7aa7f786b4,2024-06-26_16h50.10.710,WTP_SM_Choice,2022.2.1,Win32,60.24096386,,,,,,,4,,7,2.96,3.04,,0,99,99,99,1,100,Alex,Acc,Participant_Images/663e40120b553e7aa7f786b4/663e40120b553e7aa7f786b4_Images/663e40120b553e7aa7f786b4_Image_17.jpeg,liked,1.672012706,,,,,,,,,,,,,,,,,,space,0.8036,,,
,,663e40120b553e7aa7f786b4,2024-06-26_16h50.10.710,WTP_SM_Choice,2022.2.1,Win32,60.24096386,,,,,,,,,,,,,,,,,,,,,,,,,,,,,,,,,,,,,,,,,,,space,2.1851,