endwelcomescreen_keys.keys,endwelcomescreen_keys.rt,participant,STUDY_ID,SESSION_ID,date,expName,psychopyVersion,OS,frameRate,endinstructionscreen_keys.keys,endinstructionscreen_keys.rt,endpartnermatch_keys.keys,endpartnermatch_keys.rt,sharenextphoto_key.keys,sharenextphoto_key.rt,salience_rating,key_resp.keys,stress_level,subtract_bonus,TOTAL_TASK_BONUS,stresslevel_keypress.keys,entiretaskloop.thisRepN,entiretaskloop.thisTrialN,entiretaskloop.thisN,entiretaskloop.thisIndex,entiretaskloop.ran,TrialNumber,Partner,Condition,Photos,Feedback,FeedbackWait,WTP_ins_keys1.keys,WTP_ins_keys1.rt,WTP_ins_keys2.keys,WTP_ins_keys2.rt,decision_price,responses.keys,responses.rt,WTPTaskLoop.thisRepN,WTPTaskLoop.thisTrialN,WTPTaskLoop.thisN,WTPTaskLoop.thisIndex,WTPTaskLoop.ran,right,left,leftmoney,rightmoney,WTP_ITI,social_left,Resume_keys.keys,Resume_keys.rt,end_screen_keys.keys,end_screen_keys.rt
space,6.9338,6643c34315b04d498e71017e,6685aa9113c938e83b4f1ea0,66be4bb87e4798a656325aff,2024-08-15_14h41.55.144,WTP_SM_Choice,2022.2.1,Win32,58.82352941,,,,,,,,,,,,,,,,,,,,,,,,,,,,,,,,,,,,,,,,,,,,,
,,6643c34315b04d498e71017e,6685aa9113c938e83b4f1ea0,66be4bb87e4798a656325aff,2024-08-15_14h41.55.144,WTP_SM_Choice,2022.2.1,Win32,58.82352941,space,18.9245,,,,,,,,,,,,,,,,,,,,,,,,,,,,,,,,,,,,,,,,,,,
,,6643c34315b04d498e71017e,6685aa9113c938e83b4f1ea0,66be4bb87e4798a656325aff,2024-08-15_14h41.55.144,WTP_SM_Choice,2022.2.1,Win32,58.82352941,,,space,2.2068,space,1.9611,NAN,,NAN,0,6,,0,0,0,0,1,1,Alex,Rej,Participant_Images/6643c34315b04d498e71017e/6643c34315b04d498e71017e_Images/6643c34315b04d498e71017e_Image_3.jpeg,did not like,3.613205605,,,,,,,,,,,,,,,,,,,,,,
,,6643c34315b04d498e71017e,6685aa9113c938e83b4f1ea0,66be4bb87e4798a656325aff,2024-08-15_14h41.55.144,WTP_SM_Choice,2022.2.1,Win32,58.82352941,,,,,space,3.9485,NAN,,NAN,0,6,,0,1,1,1,1,2,Alex,Rej,Participant_Images/6643c34315b04d498e71017e/6643c34315b04d498e71017e_Images/6643c34315b04d498e71017e_Image_15.jpeg,did not like,4.988446431,,,,,,,,,,,,,,,,,,,,,,
,,6643c34315b04d498e71017e,6685aa9113c938e83b4f1ea0,66be4bb87e4798a656325aff,2024-08-15_14h41.55.144,WTP_SM_Choice,2022.2.1,Win32,58.82352941,,,,,space,2.5883,NAN,,NAN,0,6,,0,2,2,2,1,3,Alex,Rej,Participant_Images/6643c34315b04d498e71017e/6643c34315b04d498e71017e_Images/6643c34315b04d498e71017e_Image_8.jpeg,liked,3.470791822,,,,,,,,,,,,,,,,,,,,,,
,,6643c34315b04d498e71017e,6685aa9113c938e83b4f1ea0,66be4bb87e4798a656325aff,2024-08-15_14h41.55.144,WTP_SM_Choice,2022.2.1,Win32,58.82352941,,,,,space,2.8532,NAN,,NAN,0,6,,0,3,3,3,1,4,Alex,Rej,Participant_Images/6643c34315b04d498e71017e/6643c34315b04d498e71017e_Images/6643c34315b04d498e71017e_Image_19.jpeg,did not like,3.820572462,,,,,,,,,,,,,,,,,,,,,,
,,6643c34315b04d498e71017e,6685aa9113c938e83b4f1ea0,66be4bb87e4798a656325aff,2024-08-15_14h41.55.144,WTP_SM_Choice,2022.2.1,Win32,58.82352941,,,,,,,,,,,,,,,,,,1,,,,,,space,15.9363,space,12.6709,0.01,1,6.4171,0,0,0,0,1,sitting on the couch with a cozy blanket and a good book,going for a walk with my family,0.01,0.01,4.4,1,,,,
,,6643c34315b04d498e71017e,6685aa9113c938e83b4f1ea0,66be4bb87e4798a656325aff,2024-08-15_14h41.55.144,WTP_SM_Choice,2022.2.1,Win32,58.82352941,,,,,,,,,,,,,,,,,,2,,,,,,,,,,0.01,2,7.1258,0,1,1,1,1,going to the movies with my family,Redecorating my living room,0.02,0.01,8.8,0,,,,
,,6643c34315b04d498e71017e,6685aa9113c938e83b4f1ea0,66be4bb87e4798a656325aff,2024-08-15_14h41.55.144,WTP_SM_Choice,2022.2.1,Win32,58.82352941,,,,,,,,,,,,,,,,,,3,,,,,,,,,,0.01,2,5.981,0,2,2,2,1,going bowling with my family ,sitting on the couch with a cozy blanket and a good book,0.03,0.01,3.3,0,,,,
,,6643c34315b04d498e71017e,6685aa9113c938e83b4f1ea0,66be4bb87e4798a656325aff,2024-08-15_14h41.55.144,WTP_SM_Choice,2022.2.1,Win32,58.82352941,,,,,,,,,,,,,,,,,,4,,,,,,,,,,0.04,1,2.2452,0,3,3,3,1,giving myself a facial ,going out to eat with my partner and kids ,0.04,0.01,1.1,1,,,,
,,6643c34315b04d498e71017e,6685aa9113c938e83b4f1ea0,66be4bb87e4798a656325aff,2024-08-15_14h41.55.144,WTP_SM_Choice,2022.2.1,Win32,58.82352941,,,,,,,,,,,,,,,,,,5,,,,,,,,,,0.01,2,5.7207,0,4,4,4,1,going to the park with my family,giving myself a facial ,0.05,0.01,1.1,0,,,,
,,6643c34315b04d498e71017e,6685aa9113c938e83b4f1ea0,66be4bb87e4798a656325aff,2024-08-15_14h41.55.144,WTP_SM_Choice,2022.2.1,Win32,58.82352941,,,,,,,NAN,,NAN,0.08,5.92,,0,4,4,4,1,5,Alex,Rej,Participant_Images/6643c34315b04d498e71017e/6643c34315b04d498e71017e_Images/6643c34315b04d498e71017e_Image_17.jpeg,did not like,2.455989137,,,,,,,,,,,,,,,,,,,,,,
,,6643c34315b04d498e71017e,6685aa9113c938e83b4f1ea0,66be4bb87e4798a656325aff,2024-08-15_14h41.55.144,WTP_SM_Choice,2022.2.1,Win32,58.82352941,,,,,space,6.2895,NAN,,NAN,0.08,5.92,,0,5,5,5,1,6,Alex,Rej,Participant_Images/6643c34315b04d498e71017e/6643c34315b04d498e71017e_Images/6643c34315b04d498e71017e_Image_2.jpeg,did not like,3.79605092,,,,,,,,,,,,,,,,,,,,,,
,,6643c34315b04d498e71017e,6685aa9113c938e83b4f1ea0,66be4bb87e4798a656325aff,2024-08-15_14h41.55.144,WTP_SM_Choice,2022.2.1,Win32,58.82352941,,,,,space,1.5872,NAN,,NAN,0.08,5.92,,0,6,6,6,1,7,Alex,Rej,Participant_Images/6643c34315b04d498e71017e/6643c34315b04d498e71017e_Images/6643c34315b04d498e71017e_Image_16.jpeg,did not like,3.562416326,,,,,,,,,,,,,,,,,,,,,,
,,6643c34315b04d498e71017e,6685aa9113c938e83b4f1ea0,66be4bb87e4798a656325aff,2024-08-15_14h41.55.144,WTP_SM_Choice,2022.2.1,Win32,58.82352941,,,,,space,1.4187,NAN,,NAN,0.08,5.92,,0,7,7,7,1,8,Alex,Rej,Participant_Images/6643c34315b04d498e71017e/6643c34315b04d498e71017e_Images/6643c34315b04d498e71017e_Image_1.jpeg,did not like,2.843822497,,,,,,,,,,,,,,,,,,,,,,
,,6643c34315b04d498e71017e,6685aa9113c938e83b4f1ea0,66be4bb87e4798a656325aff,2024-08-15_14h41.55.144,WTP_SM_Choice,2022.2.1,Win32,58.82352941,,,,,space,1.4858,NAN,,NAN,0.08,5.92,,0,8,8,8,1,9,Alex,Rej,Participant_Images/6643c34315b04d498e71017e/6643c34315b04d498e71017e_Images/6643c34315b04d498e71017e_Image_11.jpeg,did not like,3.546495948,,,,,,,,,,,,,,,,,,,,,,
,,6643c34315b04d498e71017e,6685aa9113c938e83b4f1ea0,66be4bb87e4798a656325aff,2024-08-15_14h41.55.144,WTP_SM_Choice,2022.2.1,Win32,58.82352941,,,,,,,,,,,,,,,,,,6,,,,,,space,10.5562,space,5.0505,0.01,1,2.3684,0,0,0,0,1,taking a nap,going bowling with my family ,0.01,0.02,3.3,1,,,,
,,6643c34315b04d498e71017e,6685aa9113c938e83b4f1ea0,66be4bb87e4798a656325aff,2024-08-15_14h41.55.144,WTP_SM_Choice,2022.2.1,Win32,58.82352941,,,,,,,,,,,,,,,,,,7,,,,,,,,,,0.02,1,1.5713,0,1,1,1,1,doing my nails,going out to eat with my partner and kids ,0.02,0.02,1.1,1,,,,
,,6643c34315b04d498e71017e,6685aa9113c938e83b4f1ea0,66be4bb87e4798a656325aff,2024-08-15_14h41.55.144,WTP_SM_Choice,2022.2.1,Win32,58.82352941,,,,,,,,,,,,,,,,,,8,,,,,,,,,,0.02,2,2.6098,0,2,2,2,1,planting flowers in the garden,going to explore a new city with my kids and my partner,0.03,0.02,1.1,1,,,,
,,6643c34315b04d498e71017e,6685aa9113c938e83b4f1ea0,66be4bb87e4798a656325aff,2024-08-15_14h41.55.144,WTP_SM_Choice,2022.2.1,Win32,58.82352941,,,,,,,,,,,,,,,,,,9,,,,,,,,,,0.04,1,3.4896,0,3,3,3,1,planting flowers in the garden,going to the park with my family,0.04,0.02,4.4,1,,,,
,,6643c34315b04d498e71017e,6685aa9113c938e83b4f1ea0,66be4bb87e4798a656325aff,2024-08-15_14h41.55.144,WTP_SM_Choice,2022.2.1,Win32,58.82352941,,,,,,,,,,,,,,,,,,10,,,,,,,,,,0.02,2,6.2794,0,4,4,4,1,Painting with acrylic paints,going out to eat with my partner and kids ,0.05,0.02,1.1,1,,,,
,,6643c34315b04d498e71017e,6685aa9113c938e83b4f1ea0,66be4bb87e4798a656325aff,2024-08-15_14h41.55.144,WTP_SM_Choice,2022.2.1,Win32,58.82352941,,,,,,,NAN,,NAN,0.19,5.81,,0,9,9,9,1,10,Alex,Rej,Participant_Images/6643c34315b04d498e71017e/6643c34315b04d498e71017e_Images/6643c34315b04d498e71017e_Image_22.jpeg,did not like,1.672012706,,,,,,,,,,,,,,,,,,,,,,
,,6643c34315b04d498e71017e,6685aa9113c938e83b4f1ea0,66be4bb87e4798a656325aff,2024-08-15_14h41.55.144,WTP_SM_Choice,2022.2.1,Win32,58.82352941,,,,,space,1.5701,NAN,,NAN,0.19,5.81,,0,10,10,10,1,11,Alex,Rej,Participant_Images/6643c34315b04d498e71017e/6643c34315b04d498e71017e_Images/6643c34315b04d498e71017e_Image_10.jpeg,did not like,4.942172136,,,,,,,,,,,,,,,,,,,,,,
,,6643c34315b04d498e71017e,6685aa9113c938e83b4f1ea0,66be4bb87e4798a656325aff,2024-08-15_14h41.55.144,WTP_SM_Choice,2022.2.1,Win32,58.82352941,,,,,space,1.8866,NAN,,NAN,0.19,5.81,,0,11,11,11,1,12,Alex,Rej,Participant_Images/6643c34315b04d498e71017e/6643c34315b04d498e71017e_Images/6643c34315b04d498e71017e_Image_13.jpeg,liked,2.50187214,,,,,,,,,,,,,,,,,,,,,,
,,6643c34315b04d498e71017e,6685aa9113c938e83b4f1ea0,66be4bb87e4798a656325aff,2024-08-15_14h41.55.144,WTP_SM_Choice,2022.2.1,Win32,58.82352941,,,,,space,0.8528,NAN,,NAN,0.19,5.81,,0,12,12,12,1,13,Alex,Rej,Participant_Images/6643c34315b04d498e71017e/6643c34315b04d498e71017e_Images/6643c34315b04d498e71017e_Image_24.jpeg,liked,2.071164779,,,,,,,,,,,,,,,,,,,,,,
,,6643c34315b04d498e71017e,6685aa9113c938e83b4f1ea0,66be4bb87e4798a656325aff,2024-08-15_14h41.55.144,WTP_SM_Choice,2022.2.1,Win32,58.82352941,,,,,space,0.5106,NAN,,NAN,0.19,5.81,,0,13,13,13,1,14,Alex,Rej,Participant_Images/6643c34315b04d498e71017e/6643c34315b04d498e71017e_Images/6643c34315b04d498e71017e_Image_6.jpeg,did not like,5.336503566,,,,,,,,,,,,,,,,,,,,,,
,,6643c34315b04d498e71017e,6685aa9113c938e83b4f1ea0,66be4bb87e4798a656325aff,2024-08-15_14h41.55.144,WTP_SM_Choice,2022.2.1,Win32,58.82352941,,,,,,,,,,,,,,,,,,11,,,,,,space,2.136,space,1.7052,0.01,1,3.3051,0,0,0,0,1,going for a walk with my family,giving myself a facial ,0.01,0.03,3.3,0,,,,
,,6643c34315b04d498e71017e,6685aa9113c938e83b4f1ea0,66be4bb87e4798a656325aff,2024-08-15_14h41.55.144,WTP_SM_Choice,2022.2.1,Win32,58.82352941,,,,,,,,,,,,,,,,,,12,,,,,,,,,,0.02,1,2.2553,0,1,1,1,1,sitting on the couch with a cozy blanket and a good book,going to the lake to go swimming with my family,0.02,0.03,4.4,1,,,,
,,6643c34315b04d498e71017e,6685aa9113c938e83b4f1ea0,66be4bb87e4798a656325aff,2024-08-15_14h41.55.144,WTP_SM_Choice,2022.2.1,Win32,58.82352941,,,,,,,,,,,,,,,,,,13,,,,,,,,,,0.03,2,2.3558,0,2,2,2,1,going for a walk with my family,planting flowers in the garden,0.03,0.03,1.1,0,,,,
,,6643c34315b04d498e71017e,6685aa9113c938e83b4f1ea0,66be4bb87e4798a656325aff,2024-08-15_14h41.55.144,WTP_SM_Choice,2022.2.1,Win32,58.82352941,,,,,,,,,,,,,,,,,,14,,,,,,,,,,0.03,2,2.4533,0,3,3,3,1,Redecorating my living room,having a movie night with my family,0.04,0.03,3.3,1,,,,
,,6643c34315b04d498e71017e,6685aa9113c938e83b4f1ea0,66be4bb87e4798a656325aff,2024-08-15_14h41.55.144,WTP_SM_Choice,2022.2.1,Win32,58.82352941,,,,,,,,,,,,,,,,,,15,,,,,,,,,,0.05,1,3.0052,0,4,4,4,1,going to the movies with my family,messing around with tarot cards,0.05,0.03,4.4,0,,,,
,,6643c34315b04d498e71017e,6685aa9113c938e83b4f1ea0,66be4bb87e4798a656325aff,2024-08-15_14h41.55.144,WTP_SM_Choice,2022.2.1,Win32,58.82352941,,,,,,,NAN,,NAN,0.33,5.67,,0,14,14,14,1,15,Alex,Rej,Participant_Images/6643c34315b04d498e71017e/6643c34315b04d498e71017e_Images/6643c34315b04d498e71017e_Image_18.jpeg,did not like,2.642157193,,,,,,,,,,,,,,,,,,,,,,
,,6643c34315b04d498e71017e,6685aa9113c938e83b4f1ea0,66be4bb87e4798a656325aff,2024-08-15_14h41.55.144,WTP_SM_Choice,2022.2.1,Win32,58.82352941,,,,,space,0.6683,NAN,,NAN,0.33,5.67,,0,15,15,15,1,16,Alex,Rej,Participant_Images/6643c34315b04d498e71017e/6643c34315b04d498e71017e_Images/6643c34315b04d498e71017e_Image_25.jpeg,did not like,4.456234322,,,,,,,,,,,,,,,,,,,,,,
,,6643c34315b04d498e71017e,6685aa9113c938e83b4f1ea0,66be4bb87e4798a656325aff,2024-08-15_14h41.55.144,WTP_SM_Choice,2022.2.1,Win32,58.82352941,,,,,space,2.2412,NAN,,NAN,0.33,5.67,,0,16,16,16,1,17,Alex,Rej,Participant_Images/6643c34315b04d498e71017e/6643c34315b04d498e71017e_Images/6643c34315b04d498e71017e_Image_5.jpeg,did not like,4.438512181,,,,,,,,,,,,,,,,,,,,,,
,,6643c34315b04d498e71017e,6685aa9113c938e83b4f1ea0,66be4bb87e4798a656325aff,2024-08-15_14h41.55.144,WTP_SM_Choice,2022.2.1,Win32,58.82352941,,,,,space,1.8248,NAN,,NAN,0.33,5.67,,0,17,17,17,1,18,Alex,Rej,Participant_Images/6643c34315b04d498e71017e/6643c34315b04d498e71017e_Images/6643c34315b04d498e71017e_Image_12.jpeg,liked,2.682944783,,,,,,,,,,,,,,,,,,,,,,
,,6643c34315b04d498e71017e,6685aa9113c938e83b4f1ea0,66be4bb87e4798a656325aff,2024-08-15_14h41.55.144,WTP_SM_Choice,2022.2.1,Win32,58.82352941,,,,,space,1.1018,NAN,,NAN,0.33,5.67,,0,18,18,18,1,19,Alex,Rej,Participant_Images/6643c34315b04d498e71017e/6643c34315b04d498e71017e_Images/6643c34315b04d498e71017e_Image_9.jpeg,did not like,4.51984296,,,,,,,,,,,,,,,,,,,,,,
,,6643c34315b04d498e71017e,6685aa9113c938e83b4f1ea0,66be4bb87e4798a656325aff,2024-08-15_14h41.55.144,WTP_SM_Choice,2022.2.1,Win32,58.82352941,,,,,,,,,,,,,,,,,,16,,,,,,space,1.6215,space,1.1598,0.01,1,1.5048,0,0,0,0,1,going bowling with my family ,giving myself a facial ,0.01,0.04,1.1,0,,,,
,,6643c34315b04d498e71017e,6685aa9113c938e83b4f1ea0,66be4bb87e4798a656325aff,2024-08-15_14h41.55.144,WTP_SM_Choice,2022.2.1,Win32,58.82352941,,,,,,,,,,,,,,,,,,17,,,,,,,,,,0.02,1,2.1373,0,1,1,1,1,scrolling on tiktok,going for a walk with my family,0.02,0.04,8.8,1,,,,
,,6643c34315b04d498e71017e,6685aa9113c938e83b4f1ea0,66be4bb87e4798a656325aff,2024-08-15_14h41.55.144,WTP_SM_Choice,2022.2.1,Win32,58.82352941,,,,,,,,,,,,,,,,,,18,,,,,,,,,,0.03,1,1.7829,0,2,2,2,1,going hiking with my family ,doing my nails,0.03,0.04,3.3,0,,,,
,,6643c34315b04d498e71017e,6685aa9113c938e83b4f1ea0,66be4bb87e4798a656325aff,2024-08-15_14h41.55.144,WTP_SM_Choice,2022.2.1,Win32,58.82352941,,,,,,,,,,,,,,,,,,19,,,,,,,,,,0.04,2,4.0556,0,3,3,3,1,going hiking with my family ,messing around with tarot cards,0.04,0.04,3.3,0,,,,
,,6643c34315b04d498e71017e,6685aa9113c938e83b4f1ea0,66be4bb87e4798a656325aff,2024-08-15_14h41.55.144,WTP_SM_Choice,2022.2.1,Win32,58.82352941,,,,,,,,,,,,,,,,,,20,,,,,,,,,,0.04,2,1.5665,0,4,4,4,1,going to the park with my family,scrolling on tiktok,0.05,0.04,1.1,0,,,,
,,6643c34315b04d498e71017e,6685aa9113c938e83b4f1ea0,66be4bb87e4798a656325aff,2024-08-15_14h41.55.144,WTP_SM_Choice,2022.2.1,Win32,58.82352941,,,,,,,NAN,,NAN,0.47,5.53,,0,19,19,19,1,20,Alex,Rej,Participant_Images/6643c34315b04d498e71017e/6643c34315b04d498e71017e_Images/6643c34315b04d498e71017e_Image_23.jpeg,liked,3.195382774,,,,,,,,,,,,,,,,,,,,,,
,,6643c34315b04d498e71017e,6685aa9113c938e83b4f1ea0,66be4bb87e4798a656325aff,2024-08-15_14h41.55.144,WTP_SM_Choice,2022.2.1,Win32,58.82352941,,,,,space,3.9554,NAN,,NAN,0.47,5.53,,0,20,20,20,1,21,Alex,Rej,Participant_Images/6643c34315b04d498e71017e/6643c34315b04d498e71017e_Images/6643c34315b04d498e71017e_Image_7.jpeg,did not like,1.779333479,,,,,,,,,,,,,,,,,,,,,,
,,6643c34315b04d498e71017e,6685aa9113c938e83b4f1ea0,66be4bb87e4798a656325aff,2024-08-15_14h41.55.144,WTP_SM_Choice,2022.2.1,Win32,58.82352941,,,,,space,2.6516,NAN,,NAN,0.47,5.53,,0,21,21,21,1,22,Alex,Rej,Participant_Images/6643c34315b04d498e71017e/6643c34315b04d498e71017e_Images/6643c34315b04d498e71017e_Image_20.jpeg,liked,4.312468682,,,,,,,,,,,,,,,,,,,,,,
,,6643c34315b04d498e71017e,6685aa9113c938e83b4f1ea0,66be4bb87e4798a656325aff,2024-08-15_14h41.55.144,WTP_SM_Choice,2022.2.1,Win32,58.82352941,,,,,space,0.7855,NAN,,NAN,0.47,5.53,,0,22,22,22,1,23,Alex,Rej,Participant_Images/6643c34315b04d498e71017e/6643c34315b04d498e71017e_Images/6643c34315b04d498e71017e_Image_4.jpeg,did not like,4.940433059,,,,,,,,,,,,,,,,,,,,,,
,,6643c34315b04d498e71017e,6685aa9113c938e83b4f1ea0,66be4bb87e4798a656325aff,2024-08-15_14h41.55.144,WTP_SM_Choice,2022.2.1,Win32,58.82352941,,,,,space,0.7921,NAN,,NAN,0.47,5.53,,0,23,23,23,1,24,Alex,Rej,Participant_Images/6643c34315b04d498e71017e/6643c34315b04d498e71017e_Images/6643c34315b04d498e71017e_Image_14.jpeg,did not like,2.7105123,,,,,,,,,,,,,,,,,,,,,,
,,6643c34315b04d498e71017e,6685aa9113c938e83b4f1ea0,66be4bb87e4798a656325aff,2024-08-15_14h41.55.144,WTP_SM_Choice,2022.2.1,Win32,58.82352941,,,,,,,,,,,,,,,,,,21,,,,,,space,3.6746,space,3.0876,0.01,1,1.3957,0,0,0,0,1,going for a walk with my family,doing my nails,0.01,0.05,8.8,0,,,,
,,6643c34315b04d498e71017e,6685aa9113c938e83b4f1ea0,66be4bb87e4798a656325aff,2024-08-15_14h41.55.144,WTP_SM_Choice,2022.2.1,Win32,58.82352941,,,,,,,,,,,,,,,,,,22,,,,,,,,,,0.05,2,2.8794,0,1,1,1,1,going to the park with my family,messing around with tarot cards,0.02,0.05,4.4,0,,,,
,,6643c34315b04d498e71017e,6685aa9113c938e83b4f1ea0,66be4bb87e4798a656325aff,2024-08-15_14h41.55.144,WTP_SM_Choice,2022.2.1,Win32,58.82352941,,,,,,,,,,,,,,,,,,23,,,,,,,,,,0.03,1,1.7805,0,2,2,2,1,going out to eat with my partner and kids ,taking a nap,0.03,0.05,1.1,0,,,,
,,6643c34315b04d498e71017e,6685aa9113c938e83b4f1ea0,66be4bb87e4798a656325aff,2024-08-15_14h41.55.144,WTP_SM_Choice,2022.2.1,Win32,58.82352941,,,,,,,,,,,,,,,,,,24,,,,,,,,,,0.04,1,2.7155,0,3,3,3,1,Binging a good tv show ,going to the lake to go swimming with my family,0.04,0.05,4.4,1,,,,
,,6643c34315b04d498e71017e,6685aa9113c938e83b4f1ea0,66be4bb87e4798a656325aff,2024-08-15_14h41.55.144,WTP_SM_Choice,2022.2.1,Win32,58.82352941,,,,,,,,,,,,,,,,,,25,,,,,,,,,,0.05,1,2.6938,0,4,4,4,1,messing around with tarot cards,going golfing with my family ,0.05,0.05,3.3,1,,,,
,,6643c34315b04d498e71017e,6685aa9113c938e83b4f1ea0,66be4bb87e4798a656325aff,2024-08-15_14h41.55.144,WTP_SM_Choice,2022.2.1,Win32,58.82352941,,,,,,,1,,2,0.65,5.35,,0,24,24,24,1,25,Alex,Rej,Participant_Images/6643c34315b04d498e71017e/6643c34315b04d498e71017e_Images/6643c34315b04d498e71017e_Image_21.jpeg,liked,3.602308302,,,,,,,,,,,,,,,,,,,space,2.2906,,
,,6643c34315b04d498e71017e,6685aa9113c938e83b4f1ea0,66be4bb87e4798a656325aff,2024-08-15_14h41.55.144,WTP_SM_Choice,2022.2.1,Win32,58.82352941,,,space,1.6113,space,0.7432,NAN,,NAN,0.65,5.35,,0,25,25,25,1,26,Sam,Acc,Participant_Images/6643c34315b04d498e71017e/6643c34315b04d498e71017e_Images/6643c34315b04d498e71017e_Image_4.jpeg,liked,4.106391878,,,,,,,,,,,,,,,,,,,,,,
,,6643c34315b04d498e71017e,6685aa9113c938e83b4f1ea0,66be4bb87e4798a656325aff,2024-08-15_14h41.55.144,WTP_SM_Choice,2022.2.1,Win32,58.82352941,,,,,space,1.2205,NAN,,NAN,0.65,5.35,,0,26,26,26,1,27,Sam,Acc,Participant_Images/6643c34315b04d498e71017e/6643c34315b04d498e71017e_Images/6643c34315b04d498e71017e_Image_9.jpeg,liked,3.799433026,,,,,,,,,,,,,,,,,,,,,,
,,6643c34315b04d498e71017e,6685aa9113c938e83b4f1ea0,66be4bb87e4798a656325aff,2024-08-15_14h41.55.144,WTP_SM_Choice,2022.2.1,Win32,58.82352941,,,,,space,1.0351,NAN,,NAN,0.65,5.35,,0,27,27,27,1,28,Sam,Acc,Participant_Images/6643c34315b04d498e71017e/6643c34315b04d498e71017e_Images/6643c34315b04d498e71017e_Image_14.jpeg,liked,5.246980764,,,,,,,,,,,,,,,,,,,,,,
,,6643c34315b04d498e71017e,6685aa9113c938e83b4f1ea0,66be4bb87e4798a656325aff,2024-08-15_14h41.55.144,WTP_SM_Choice,2022.2.1,Win32,58.82352941,,,,,space,0.5993,NAN,,NAN,0.65,5.35,,0,28,28,28,1,29,Sam,Acc,Participant_Images/6643c34315b04d498e71017e/6643c34315b04d498e71017e_Images/6643c34315b04d498e71017e_Image_18.jpeg,liked,3.30081769,,,,,,,,,,,,,,,,,,,,,,
,,6643c34315b04d498e71017e,6685aa9113c938e83b4f1ea0,66be4bb87e4798a656325aff,2024-08-15_14h41.55.144,WTP_SM_Choice,2022.2.1,Win32,58.82352941,,,,,,,,,,,,,,,,,,26,,,,,,space,1.1532,space,1.4038,0.01,2,6.7626,0,0,0,0,1,going to the lake to go swimming with my family,doing my nails,0.01,0.01,4.4,0,,,,
,,6643c34315b04d498e71017e,6685aa9113c938e83b4f1ea0,66be4bb87e4798a656325aff,2024-08-15_14h41.55.144,WTP_SM_Choice,2022.2.1,Win32,58.82352941,,,,,,,,,,,,,,,,,,27,,,,,,,,,,0.01,2,1.2259,0,1,1,1,1,going hiking with my family ,planting flowers in the garden,0.02,0.01,3.3,0,,,,
,,6643c34315b04d498e71017e,6685aa9113c938e83b4f1ea0,66be4bb87e4798a656325aff,2024-08-15_14h41.55.144,WTP_SM_Choice,2022.2.1,Win32,58.82352941,,,,,,,,,,,,,,,,,,28,,,,,,,,,,0.01,2,5.5927,0,2,2,2,1,planting flowers in the garden,going to the movies with my family,0.03,0.01,3.3,1,,,,
,,6643c34315b04d498e71017e,6685aa9113c938e83b4f1ea0,66be4bb87e4798a656325aff,2024-08-15_14h41.55.144,WTP_SM_Choice,2022.2.1,Win32,58.82352941,,,,,,,,,,,,,,,,,,29,,,,,,,,,,0.01,2,0.8071,0,3,3,3,1,going to explore a new city with my kids and my partner,scrolling on tiktok,0.04,0.01,4.4,0,,,,
,,6643c34315b04d498e71017e,6685aa9113c938e83b4f1ea0,66be4bb87e4798a656325aff,2024-08-15_14h41.55.144,WTP_SM_Choice,2022.2.1,Win32,58.82352941,,,,,,,,,,,,,,,,,,30,,,,,,,,,,0.01,2,3.2765,0,4,4,4,1,sitting on the couch with a cozy blanket and a good book,going to the park with my family,0.05,0.01,8.8,1,,,,
,,6643c34315b04d498e71017e,6685aa9113c938e83b4f1ea0,66be4bb87e4798a656325aff,2024-08-15_14h41.55.144,WTP_SM_Choice,2022.2.1,Win32,58.82352941,,,,,,,NAN,,NAN,0.7,5.3,,0,29,29,29,1,30,Sam,Acc,Participant_Images/6643c34315b04d498e71017e/6643c34315b04d498e71017e_Images/6643c34315b04d498e71017e_Image_24.jpeg,liked,1.661473164,,,,,,,,,,,,,,,,,,,,,,
,,6643c34315b04d498e71017e,6685aa9113c938e83b4f1ea0,66be4bb87e4798a656325aff,2024-08-15_14h41.55.144,WTP_SM_Choice,2022.2.1,Win32,58.82352941,,,,,space,7.6334,NAN,,NAN,0.7,5.3,,0,30,30,30,1,31,Sam,Acc,Participant_Images/6643c34315b04d498e71017e/6643c34315b04d498e71017e_Images/6643c34315b04d498e71017e_Image_15.jpeg,did not like,3.613205605,,,,,,,,,,,,,,,,,,,,,,
,,6643c34315b04d498e71017e,6685aa9113c938e83b4f1ea0,66be4bb87e4798a656325aff,2024-08-15_14h41.55.144,WTP_SM_Choice,2022.2.1,Win32,58.82352941,,,,,space,1.8819,NAN,,NAN,0.7,5.3,,0,31,31,31,1,32,Sam,Acc,Participant_Images/6643c34315b04d498e71017e/6643c34315b04d498e71017e_Images/6643c34315b04d498e71017e_Image_16.jpeg,liked,4.988446431,,,,,,,,,,,,,,,,,,,,,,
,,6643c34315b04d498e71017e,6685aa9113c938e83b4f1ea0,66be4bb87e4798a656325aff,2024-08-15_14h41.55.144,WTP_SM_Choice,2022.2.1,Win32,58.82352941,,,,,space,3.5419,NAN,,NAN,0.7,5.3,,0,32,32,32,1,33,Sam,Acc,Participant_Images/6643c34315b04d498e71017e/6643c34315b04d498e71017e_Images/6643c34315b04d498e71017e_Image_6.jpeg,liked,3.470791822,,,,,,,,,,,,,,,,,,,,,,
,,6643c34315b04d498e71017e,6685aa9113c938e83b4f1ea0,66be4bb87e4798a656325aff,2024-08-15_14h41.55.144,WTP_SM_Choice,2022.2.1,Win32,58.82352941,,,,,space,1.8407,NAN,,NAN,0.7,5.3,,0,33,33,33,1,34,Sam,Acc,Participant_Images/6643c34315b04d498e71017e/6643c34315b04d498e71017e_Images/6643c34315b04d498e71017e_Image_7.jpeg,did not like,3.820572462,,,,,,,,,,,,,,,,,,,,,,
,,6643c34315b04d498e71017e,6685aa9113c938e83b4f1ea0,66be4bb87e4798a656325aff,2024-08-15_14h41.55.144,WTP_SM_Choice,2022.2.1,Win32,58.82352941,,,,,,,,,,,,,,,,,,31,,,,,,space,1.3176,space,1.4597,0.01,1,3.0502,0,0,0,0,1,going to the lake to go swimming with my family,Redecorating my living room,0.01,0.02,8.8,0,,,,
,,6643c34315b04d498e71017e,6685aa9113c938e83b4f1ea0,66be4bb87e4798a656325aff,2024-08-15_14h41.55.144,WTP_SM_Choice,2022.2.1,Win32,58.82352941,,,,,,,,,,,,,,,,,,32,,,,,,,,,,,,,0,1,1,1,1,going bowling with my family ,Painting with acrylic paints,0.02,0.02,1.1,0,,,,
,,6643c34315b04d498e71017e,6685aa9113c938e83b4f1ea0,66be4bb87e4798a656325aff,2024-08-15_14h41.55.144,WTP_SM_Choice,2022.2.1,Win32,58.82352941,,,,,,,,,,,,,,,,,,33,,,,,,,,,,0.02,2,1.423,0,2,2,2,1,messing around with tarot cards,going to explore a new city with my kids and my partner,0.03,0.02,4.4,1,,,,
,,6643c34315b04d498e71017e,6685aa9113c938e83b4f1ea0,66be4bb87e4798a656325aff,2024-08-15_14h41.55.144,WTP_SM_Choice,2022.2.1,Win32,58.82352941,,,,,,,,,,,,,,,,,,34,,,,,,,,,,0.02,2,6.4132,0,3,3,3,1,going bowling with my family ,messing around with tarot cards,0.04,0.02,3.3,0,,,,
,,6643c34315b04d498e71017e,6685aa9113c938e83b4f1ea0,66be4bb87e4798a656325aff,2024-08-15_14h41.55.144,WTP_SM_Choice,2022.2.1,Win32,58.82352941,,,,,,,,,,,,,,,,,,35,,,,,,,,,,0.02,2,2.0363,0,4,4,4,1,Redecorating my living room,going hiking with my family ,0.05,0.02,1.1,1,,,,
,,6643c34315b04d498e71017e,6685aa9113c938e83b4f1ea0,66be4bb87e4798a656325aff,2024-08-15_14h41.55.144,WTP_SM_Choice,2022.2.1,Win32,58.82352941,,,,,,,NAN,,NAN,0.77,5.23,,0,34,34,34,1,35,Sam,Acc,Participant_Images/6643c34315b04d498e71017e/6643c34315b04d498e71017e_Images/6643c34315b04d498e71017e_Image_23.jpeg,did not like,2.455989137,,,,,,,,,,,,,,,,,,,,,,
,,6643c34315b04d498e71017e,6685aa9113c938e83b4f1ea0,66be4bb87e4798a656325aff,2024-08-15_14h41.55.144,WTP_SM_Choice,2022.2.1,Win32,58.82352941,,,,,space,5.0219,NAN,,NAN,0.77,5.23,,0,35,35,35,1,36,Sam,Acc,Participant_Images/6643c34315b04d498e71017e/6643c34315b04d498e71017e_Images/6643c34315b04d498e71017e_Image_12.jpeg,did not like,3.79605092,,,,,,,,,,,,,,,,,,,,,,
,,6643c34315b04d498e71017e,6685aa9113c938e83b4f1ea0,66be4bb87e4798a656325aff,2024-08-15_14h41.55.144,WTP_SM_Choice,2022.2.1,Win32,58.82352941,,,,,space,1.6509,NAN,,NAN,0.77,5.23,,0,36,36,36,1,37,Sam,Acc,Participant_Images/6643c34315b04d498e71017e/6643c34315b04d498e71017e_Images/6643c34315b04d498e71017e_Image_3.jpeg,did not like,3.562416326,,,,,,,,,,,,,,,,,,,,,,
,,6643c34315b04d498e71017e,6685aa9113c938e83b4f1ea0,66be4bb87e4798a656325aff,2024-08-15_14h41.55.144,WTP_SM_Choice,2022.2.1,Win32,58.82352941,,,,,space,8.8664,NAN,,NAN,0.77,5.23,,0,37,37,37,1,38,Sam,Acc,Participant_Images/6643c34315b04d498e71017e/6643c34315b04d498e71017e_Images/6643c34315b04d498e71017e_Image_11.jpeg,liked,2.843822497,,,,,,,,,,,,,,,,,,,,,,
,,6643c34315b04d498e71017e,6685aa9113c938e83b4f1ea0,66be4bb87e4798a656325aff,2024-08-15_14h41.55.144,WTP_SM_Choice,2022.2.1,Win32,58.82352941,,,,,space,6.5066,NAN,,NAN,0.77,5.23,,0,38,38,38,1,39,Sam,Acc,Participant_Images/6643c34315b04d498e71017e/6643c34315b04d498e71017e_Images/6643c34315b04d498e71017e_Image_8.jpeg,liked,3.546495948,,,,,,,,,,,,,,,,,,,,,,
,,6643c34315b04d498e71017e,6685aa9113c938e83b4f1ea0,66be4bb87e4798a656325aff,2024-08-15_14h41.55.144,WTP_SM_Choice,2022.2.1,Win32,58.82352941,,,,,,,,,,,,,,,,,,36,,,,,,space,1.2783,space,0.9849,0.01,1,0.8352,0,0,0,0,1,Binging a good tv show ,going for a walk with my family,0.01,0.03,3.3,1,,,,
,,6643c34315b04d498e71017e,6685aa9113c938e83b4f1ea0,66be4bb87e4798a656325aff,2024-08-15_14h41.55.144,WTP_SM_Choice,2022.2.1,Win32,58.82352941,,,,,,,,,,,,,,,,,,37,,,,,,,,,,0.02,1,2.5897,0,1,1,1,1,Painting with acrylic paints,going to the lake to go swimming with my family,0.02,0.03,1.1,1,,,,
,,6643c34315b04d498e71017e,6685aa9113c938e83b4f1ea0,66be4bb87e4798a656325aff,2024-08-15_14h41.55.144,WTP_SM_Choice,2022.2.1,Win32,58.82352941,,,,,,,,,,,,,,,,,,38,,,,,,,,,,0.03,1,2.4845,0,2,2,2,1,messing around with tarot cards,having a movie night with my family,0.03,0.03,1.1,1,,,,
,,6643c34315b04d498e71017e,6685aa9113c938e83b4f1ea0,66be4bb87e4798a656325aff,2024-08-15_14h41.55.144,WTP_SM_Choice,2022.2.1,Win32,58.82352941,,,,,,,,,,,,,,,,,,39,,,,,,,,,,0.03,2,1.494,0,3,3,3,1,Painting with acrylic paints,going to the movies with my family,0.04,0.03,3.3,1,,,,
,,6643c34315b04d498e71017e,6685aa9113c938e83b4f1ea0,66be4bb87e4798a656325aff,2024-08-15_14h41.55.144,WTP_SM_Choice,2022.2.1,Win32,58.82352941,,,,,,,,,,,,,,,,,,40,,,,,,,,,,0.05,1,3.7243,0,4,4,4,1,Redecorating my living room,going golfing with my family ,0.05,0.03,4.4,1,,,,
,,6643c34315b04d498e71017e,6685aa9113c938e83b4f1ea0,66be4bb87e4798a656325aff,2024-08-15_14h41.55.144,WTP_SM_Choice,2022.2.1,Win32,58.82352941,,,,,,,NAN,,NAN,0.91,5.09,,0,39,39,39,1,40,Sam,Acc,Participant_Images/6643c34315b04d498e71017e/6643c34315b04d498e71017e_Images/6643c34315b04d498e71017e_Image_20.jpeg,liked,1.672012706,,,,,,,,,,,,,,,,,,,,,,
,,6643c34315b04d498e71017e,6685aa9113c938e83b4f1ea0,66be4bb87e4798a656325aff,2024-08-15_14h41.55.144,WTP_SM_Choice,2022.2.1,Win32,58.82352941,,,,,space,10.6976,NAN,,NAN,0.91,5.09,,0,40,40,40,1,41,Sam,Acc,Participant_Images/6643c34315b04d498e71017e/6643c34315b04d498e71017e_Images/6643c34315b04d498e71017e_Image_5.jpeg,liked,4.942172136,,,,,,,,,,,,,,,,,,,,,,
,,6643c34315b04d498e71017e,6685aa9113c938e83b4f1ea0,66be4bb87e4798a656325aff,2024-08-15_14h41.55.144,WTP_SM_Choice,2022.2.1,Win32,58.82352941,,,,,space,1.684,NAN,,NAN,0.91,5.09,,0,41,41,41,1,42,Sam,Acc,Participant_Images/6643c34315b04d498e71017e/6643c34315b04d498e71017e_Images/6643c34315b04d498e71017e_Image_2.jpeg,did not like,2.50187214,,,,,,,,,,,,,,,,,,,,,,
,,6643c34315b04d498e71017e,6685aa9113c938e83b4f1ea0,66be4bb87e4798a656325aff,2024-08-15_14h41.55.144,WTP_SM_Choice,2022.2.1,Win32,58.82352941,,,,,space,0.7586,NAN,,NAN,0.91,5.09,,0,42,42,42,1,43,Sam,Acc,Participant_Images/6643c34315b04d498e71017e/6643c34315b04d498e71017e_Images/6643c34315b04d498e71017e_Image_22.jpeg,liked,2.071164779,,,,,,,,,,,,,,,,,,,,,,
,,6643c34315b04d498e71017e,6685aa9113c938e83b4f1ea0,66be4bb87e4798a656325aff,2024-08-15_14h41.55.144,WTP_SM_Choice,2022.2.1,Win32,58.82352941,,,,,space,0.7355,NAN,,NAN,0.91,5.09,,0,43,43,43,1,44,Sam,Acc,Participant_Images/6643c34315b04d498e71017e/6643c34315b04d498e71017e_Images/6643c34315b04d498e71017e_Image_10.jpeg,liked,5.336503566,,,,,,,,,,,,,,,,,,,,,,
,,6643c34315b04d498e71017e,6685aa9113c938e83b4f1ea0,66be4bb87e4798a656325aff,2024-08-15_14h41.55.144,WTP_SM_Choice,2022.2.1,Win32,58.82352941,,,,,,,,,,,,,,,,,,41,,,,,,space,1.2542,space,0.7336,0.01,1,0.6503,0,0,0,0,1,going to the park with my family,doing my nails,0.01,0.04,1.1,0,,,,
,,6643c34315b04d498e71017e,6685aa9113c938e83b4f1ea0,66be4bb87e4798a656325aff,2024-08-15_14h41.55.144,WTP_SM_Choice,2022.2.1,Win32,58.82352941,,,,,,,,,,,,,,,,,,42,,,,,,,,,,0.02,1,1.0188,0,1,1,1,1,going to the park with my family,Painting with acrylic paints,0.02,0.04,3.3,0,,,,
,,6643c34315b04d498e71017e,6685aa9113c938e83b4f1ea0,66be4bb87e4798a656325aff,2024-08-15_14h41.55.144,WTP_SM_Choice,2022.2.1,Win32,58.82352941,,,,,,,,,,,,,,,,,,43,,,,,,,,,,0.03,1,0.8642,0,2,2,2,1,going to the lake to go swimming with my family,scrolling on tiktok,0.03,0.04,1.1,0,,,,
,,6643c34315b04d498e71017e,6685aa9113c938e83b4f1ea0,66be4bb87e4798a656325aff,2024-08-15_14h41.55.144,WTP_SM_Choice,2022.2.1,Win32,58.82352941,,,,,,,,,,,,,,,,,,44,,,,,,,,,,0.04,1,4.1736,0,3,3,3,1,giving myself a facial ,going to the lake to go swimming with my family,0.04,0.04,1.1,1,,,,
,,6643c34315b04d498e71017e,6685aa9113c938e83b4f1ea0,66be4bb87e4798a656325aff,2024-08-15_14h41.55.144,WTP_SM_Choice,2022.2.1,Win32,58.82352941,,,,,,,,,,,,,,,,,,45,,,,,,,,,,0.05,1,3.0713,0,4,4,4,1,planting flowers in the garden,going golfing with my family ,0.05,0.04,4.4,1,,,,
,,6643c34315b04d498e71017e,6685aa9113c938e83b4f1ea0,66be4bb87e4798a656325aff,2024-08-15_14h41.55.144,WTP_SM_Choice,2022.2.1,Win32,58.82352941,,,,,,,NAN,,NAN,1.06,4.94,,0,44,44,44,1,45,Sam,Acc,Participant_Images/6643c34315b04d498e71017e/6643c34315b04d498e71017e_Images/6643c34315b04d498e71017e_Image_19.jpeg,liked,2.642157193,,,,,,,,,,,,,,,,,,,,,,
,,6643c34315b04d498e71017e,6685aa9113c938e83b4f1ea0,66be4bb87e4798a656325aff,2024-08-15_14h41.55.144,WTP_SM_Choice,2022.2.1,Win32,58.82352941,,,,,space,0.7756,NAN,,NAN,1.06,4.94,,0,45,45,45,1,46,Sam,Acc,Participant_Images/6643c34315b04d498e71017e/6643c34315b04d498e71017e_Images/6643c34315b04d498e71017e_Image_17.jpeg,did not like,4.456234322,,,,,,,,,,,,,,,,,,,,,,
,,6643c34315b04d498e71017e,6685aa9113c938e83b4f1ea0,66be4bb87e4798a656325aff,2024-08-15_14h41.55.144,WTP_SM_Choice,2022.2.1,Win32,58.82352941,,,,,space,1.0693,NAN,,NAN,1.06,4.94,,0,46,46,46,1,47,Sam,Acc,Participant_Images/6643c34315b04d498e71017e/6643c34315b04d498e71017e_Images/6643c34315b04d498e71017e_Image_21.jpeg,liked,4.438512181,,,,,,,,,,,,,,,,,,,,,,
,,6643c34315b04d498e71017e,6685aa9113c938e83b4f1ea0,66be4bb87e4798a656325aff,2024-08-15_14h41.55.144,WTP_SM_Choice,2022.2.1,Win32,58.82352941,,,,,space,0.8723,NAN,,NAN,1.06,4.94,,0,47,47,47,1,48,Sam,Acc,Participant_Images/6643c34315b04d498e71017e/6643c34315b04d498e71017e_Images/6643c34315b04d498e71017e_Image_25.jpeg,liked,2.682944783,,,,,,,,,,,,,,,,,,,,,,
,,6643c34315b04d498e71017e,6685aa9113c938e83b4f1ea0,66be4bb87e4798a656325aff,2024-08-15_14h41.55.144,WTP_SM_Choice,2022.2.1,Win32,58.82352941,,,,,space,0.7481,NAN,,NAN,1.06,4.94,,0,48,48,48,1,49,Sam,Acc,Participant_Images/6643c34315b04d498e71017e/6643c34315b04d498e71017e_Images/6643c34315b04d498e71017e_Image_1.jpeg,liked,4.51984296,,,,,,,,,,,,,,,,,,,,,,
,,6643c34315b04d498e71017e,6685aa9113c938e83b4f1ea0,66be4bb87e4798a656325aff,2024-08-15_14h41.55.144,WTP_SM_Choice,2022.2.1,Win32,58.82352941,,,,,,,,,,,,,,,,,,46,,,,,,space,0.3487,space,0.7543,0.01,1,0.6849,0,0,0,0,1,going out to eat with my partner and kids ,planting flowers in the garden,0.01,0.05,8.8,0,,,,
,,6643c34315b04d498e71017e,6685aa9113c938e83b4f1ea0,66be4bb87e4798a656325aff,2024-08-15_14h41.55.144,WTP_SM_Choice,2022.2.1,Win32,58.82352941,,,,,,,,,,,,,,,,,,47,,,,,,,,,,0.02,1,0.642,0,1,1,1,1,messing around with tarot cards,going to the lake to go swimming with my family,0.02,0.05,1.1,1,,,,
,,6643c34315b04d498e71017e,6685aa9113c938e83b4f1ea0,66be4bb87e4798a656325aff,2024-08-15_14h41.55.144,WTP_SM_Choice,2022.2.1,Win32,58.82352941,,,,,,,,,,,,,,,,,,48,,,,,,,,,,0.03,1,0.9394,0,2,2,2,1,Redecorating my living room,going to the park with my family,0.03,0.05,4.4,1,,,,
,,6643c34315b04d498e71017e,6685aa9113c938e83b4f1ea0,66be4bb87e4798a656325aff,2024-08-15_14h41.55.144,WTP_SM_Choice,2022.2.1,Win32,58.82352941,,,,,,,,,,,,,,,,,,49,,,,,,,,,,0.04,1,0.6936,0,3,3,3,1,giving myself a facial ,going hiking with my family ,0.04,0.05,3.3,1,,,,
,,6643c34315b04d498e71017e,6685aa9113c938e83b4f1ea0,66be4bb87e4798a656325aff,2024-08-15_14h41.55.144,WTP_SM_Choice,2022.2.1,Win32,58.82352941,,,,,,,,,,,,,,,,,,50,,,,,,,,,,0.05,1,2.1585,0,4,4,4,1,sitting on the couch with a cozy blanket and a good book,going to the movies with my family,0.05,0.05,1.1,1,,,,
,,6643c34315b04d498e71017e,6685aa9113c938e83b4f1ea0,66be4bb87e4798a656325aff,2024-08-15_14h41.55.144,WTP_SM_Choice,2022.2.1,Win32,58.82352941,,,,,,,3,,9,1.21,4.79,,0,49,49,49,1,50,Sam,Acc,Participant_Images/6643c34315b04d498e71017e/6643c34315b04d498e71017e_Images/6643c34315b04d498e71017e_Image_13.jpeg,liked,3.195382774,,,,,,,,,,,,,,,,,,,space,8.2032,,
,,6643c34315b04d498e71017e,6685aa9113c938e83b4f1ea0,66be4bb87e4798a656325aff,2024-08-15_14h41.55.144,WTP_SM_Choice,2022.2.1,Win32,58.82352941,,,space,2.456,space,1.1874,NAN,,NAN,1.21,4.79,,0,50,50,50,1,51,Riley,Rej,Participant_Images/6643c34315b04d498e71017e/6643c34315b04d498e71017e_Images/6643c34315b04d498e71017e_Image_11.jpeg,did not like,1.779333479,,,,,,,,,,,,,,,,,,,,,,
,,6643c34315b04d498e71017e,6685aa9113c938e83b4f1ea0,66be4bb87e4798a656325aff,2024-08-15_14h41.55.144,WTP_SM_Choice,2022.2.1,Win32,58.82352941,,,,,space,0.919,NAN,,NAN,1.21,4.79,,0,51,51,51,1,52,Riley,Rej,Participant_Images/6643c34315b04d498e71017e/6643c34315b04d498e71017e_Images/6643c34315b04d498e71017e_Image_15.jpeg,did not like,4.312468682,,,,,,,,,,,,,,,,,,,,,,
,,6643c34315b04d498e71017e,6685aa9113c938e83b4f1ea0,66be4bb87e4798a656325aff,2024-08-15_14h41.55.144,WTP_SM_Choice,2022.2.1,Win32,58.82352941,,,,,space,1.7014,NAN,,NAN,1.21,4.79,,0,52,52,52,1,53,Riley,Rej,Participant_Images/6643c34315b04d498e71017e/6643c34315b04d498e71017e_Images/6643c34315b04d498e71017e_Image_23.jpeg,did not like,4.940433059,,,,,,,,,,,,,,,,,,,,,,
,,6643c34315b04d498e71017e,6685aa9113c938e83b4f1ea0,66be4bb87e4798a656325aff,2024-08-15_14h41.55.144,WTP_SM_Choice,2022.2.1,Win32,58.82352941,,,,,space,1.3593,NAN,,NAN,1.21,4.79,,0,53,53,53,1,54,Riley,Rej,Participant_Images/6643c34315b04d498e71017e/6643c34315b04d498e71017e_Images/6643c34315b04d498e71017e_Image_25.jpeg,liked,2.7105123,,,,,,,,,,,,,,,,,,,,,,
,,6643c34315b04d498e71017e,6685aa9113c938e83b4f1ea0,66be4bb87e4798a656325aff,2024-08-15_14h41.55.144,WTP_SM_Choice,2022.2.1,Win32,58.82352941,,,,,,,,,,,,,,,,,,51,,,,,,space,0.7406,space,0.7169,0.01,1,0.6669,0,0,0,0,1,going hiking with my family ,Binging a good tv show ,0.01,0.01,1.1,0,,,,
,,6643c34315b04d498e71017e,6685aa9113c938e83b4f1ea0,66be4bb87e4798a656325aff,2024-08-15_14h41.55.144,WTP_SM_Choice,2022.2.1,Win32,58.82352941,,,,,,,,,,,,,,,,,,52,,,,,,,,,,0.01,2,1.6158,0,1,1,1,1,going bowling with my family ,doing my nails,0.02,0.01,3.3,0,,,,
,,6643c34315b04d498e71017e,6685aa9113c938e83b4f1ea0,66be4bb87e4798a656325aff,2024-08-15_14h41.55.144,WTP_SM_Choice,2022.2.1,Win32,58.82352941,,,,,,,,,,,,,,,,,,53,,,,,,,,,,0.01,2,1.1777,0,2,2,2,1,going out to eat with my partner and kids ,sitting on the couch with a cozy blanket and a good book,0.03,0.01,1.1,0,,,,
,,6643c34315b04d498e71017e,6685aa9113c938e83b4f1ea0,66be4bb87e4798a656325aff,2024-08-15_14h41.55.144,WTP_SM_Choice,2022.2.1,Win32,58.82352941,,,,,,,,,,,,,,,,,,54,,,,,,,,,,0.01,2,0.7576,0,3,3,3,1,going to the lake to go swimming with my family,planting flowers in the garden,0.04,0.01,4.4,0,,,,
,,6643c34315b04d498e71017e,6685aa9113c938e83b4f1ea0,66be4bb87e4798a656325aff,2024-08-15_14h41.55.144,WTP_SM_Choice,2022.2.1,Win32,58.82352941,,,,,,,,,,,,,,,,,,55,,,,,,,,,,0.01,2,0.5618,0,4,4,4,1,taking a nap,going to explore a new city with my kids and my partner,0.05,0.01,1.1,1,,,,
,,6643c34315b04d498e71017e,6685aa9113c938e83b4f1ea0,66be4bb87e4798a656325aff,2024-08-15_14h41.55.144,WTP_SM_Choice,2022.2.1,Win32,58.82352941,,,,,,,NAN,,NAN,1.26,4.74,,0,54,54,54,1,55,Riley,Rej,Participant_Images/6643c34315b04d498e71017e/6643c34315b04d498e71017e_Images/6643c34315b04d498e71017e_Image_8.jpeg,did not like,3.602308302,,,,,,,,,,,,,,,,,,,,,,
,,6643c34315b04d498e71017e,6685aa9113c938e83b4f1ea0,66be4bb87e4798a656325aff,2024-08-15_14h41.55.144,WTP_SM_Choice,2022.2.1,Win32,58.82352941,,,,,space,1.1109,NAN,,NAN,1.26,4.74,,0,55,55,55,1,56,Riley,Rej,Participant_Images/6643c34315b04d498e71017e/6643c34315b04d498e71017e_Images/6643c34315b04d498e71017e_Image_3.jpeg,did not like,4.106391878,,,,,,,,,,,,,,,,,,,,,,
,,6643c34315b04d498e71017e,6685aa9113c938e83b4f1ea0,66be4bb87e4798a656325aff,2024-08-15_14h41.55.144,WTP_SM_Choice,2022.2.1,Win32,58.82352941,,,,,space,0.8129,NAN,,NAN,1.26,4.74,,0,56,56,56,1,57,Riley,Rej,Participant_Images/6643c34315b04d498e71017e/6643c34315b04d498e71017e_Images/6643c34315b04d498e71017e_Image_19.jpeg,liked,3.799433026,,,,,,,,,,,,,,,,,,,,,,
,,6643c34315b04d498e71017e,6685aa9113c938e83b4f1ea0,66be4bb87e4798a656325aff,2024-08-15_14h41.55.144,WTP_SM_Choice,2022.2.1,Win32,58.82352941,,,,,space,0.7848,NAN,,NAN,1.26,4.74,,0,57,57,57,1,58,Riley,Rej,Participant_Images/6643c34315b04d498e71017e/6643c34315b04d498e71017e_Images/6643c34315b04d498e71017e_Image_17.jpeg,did not like,5.246980764,,,,,,,,,,,,,,,,,,,,,,
,,6643c34315b04d498e71017e,6685aa9113c938e83b4f1ea0,66be4bb87e4798a656325aff,2024-08-15_14h41.55.144,WTP_SM_Choice,2022.2.1,Win32,58.82352941,,,,,space,0.6835,NAN,,NAN,1.26,4.74,,0,58,58,58,1,59,Riley,Rej,Participant_Images/6643c34315b04d498e71017e/6643c34315b04d498e71017e_Images/6643c34315b04d498e71017e_Image_7.jpeg,liked,3.30081769,,,,,,,,,,,,,,,,,,,,,,
,,6643c34315b04d498e71017e,6685aa9113c938e83b4f1ea0,66be4bb87e4798a656325aff,2024-08-15_14h41.55.144,WTP_SM_Choice,2022.2.1,Win32,58.82352941,,,,,,,,,,,,,,,,,,56,,,,,,space,0.8068,space,0.8364,0.01,1,0.8342,0,0,0,0,1,going hiking with my family ,sitting on the couch with a cozy blanket and a good book,0.01,0.02,8.8,0,,,,
,,6643c34315b04d498e71017e,6685aa9113c938e83b4f1ea0,66be4bb87e4798a656325aff,2024-08-15_14h41.55.144,WTP_SM_Choice,2022.2.1,Win32,58.82352941,,,,,,,,,,,,,,,,,,57,,,,,,,,,,0.02,1,0.8437,0,1,1,1,1,going for a walk with my family,messing around with tarot cards,0.02,0.02,4.4,0,,,,
,,6643c34315b04d498e71017e,6685aa9113c938e83b4f1ea0,66be4bb87e4798a656325aff,2024-08-15_14h41.55.144,WTP_SM_Choice,2022.2.1,Win32,58.82352941,,,,,,,,,,,,,,,,,,58,,,,,,,,,,0.02,2,1.2476,0,2,2,2,1,taking a nap,going golfing with my family ,0.03,0.02,4.4,1,,,,
,,6643c34315b04d498e71017e,6685aa9113c938e83b4f1ea0,66be4bb87e4798a656325aff,2024-08-15_14h41.55.144,WTP_SM_Choice,2022.2.1,Win32,58.82352941,,,,,,,,,,,,,,,,,,59,,,,,,,,,,0.02,2,1.1326,0,3,3,3,1,going to the park with my family,taking a nap,0.04,0.02,4.4,0,,,,
,,6643c34315b04d498e71017e,6685aa9113c938e83b4f1ea0,66be4bb87e4798a656325aff,2024-08-15_14h41.55.144,WTP_SM_Choice,2022.2.1,Win32,58.82352941,,,,,,,,,,,,,,,,,,60,,,,,,,,,,0.02,2,0.9761,0,4,4,4,1,going golfing with my family ,giving myself a facial ,0.05,0.02,1.1,0,,,,
,,6643c34315b04d498e71017e,6685aa9113c938e83b4f1ea0,66be4bb87e4798a656325aff,2024-08-15_14h41.55.144,WTP_SM_Choice,2022.2.1,Win32,58.82352941,,,,,,,NAN,,NAN,1.35,4.65,,0,59,59,59,1,60,Riley,Rej,Participant_Images/6643c34315b04d498e71017e/6643c34315b04d498e71017e_Images/6643c34315b04d498e71017e_Image_22.jpeg,did not like,1.661473164,,,,,,,,,,,,,,,,,,,,,,
,,6643c34315b04d498e71017e,6685aa9113c938e83b4f1ea0,66be4bb87e4798a656325aff,2024-08-15_14h41.55.144,WTP_SM_Choice,2022.2.1,Win32,58.82352941,,,,,space,1.2001,NAN,,NAN,1.35,4.65,,0,60,60,60,1,61,Riley,Rej,Participant_Images/6643c34315b04d498e71017e/6643c34315b04d498e71017e_Images/6643c34315b04d498e71017e_Image_12.jpeg,liked,3.613205605,,,,,,,,,,,,,,,,,,,,,,
,,6643c34315b04d498e71017e,6685aa9113c938e83b4f1ea0,66be4bb87e4798a656325aff,2024-08-15_14h41.55.144,WTP_SM_Choice,2022.2.1,Win32,58.82352941,,,,,space,0.698,NAN,,NAN,1.35,4.65,,0,61,61,61,1,62,Riley,Rej,Participant_Images/6643c34315b04d498e71017e/6643c34315b04d498e71017e_Images/6643c34315b04d498e71017e_Image_24.jpeg,did not like,4.988446431,,,,,,,,,,,,,,,,,,,,,,
,,6643c34315b04d498e71017e,6685aa9113c938e83b4f1ea0,66be4bb87e4798a656325aff,2024-08-15_14h41.55.144,WTP_SM_Choice,2022.2.1,Win32,58.82352941,,,,,space,0.9673,NAN,,NAN,1.35,4.65,,0,62,62,62,1,63,Riley,Rej,Participant_Images/6643c34315b04d498e71017e/6643c34315b04d498e71017e_Images/6643c34315b04d498e71017e_Image_6.jpeg,did not like,3.470791822,,,,,,,,,,,,,,,,,,,,,,
,,6643c34315b04d498e71017e,6685aa9113c938e83b4f1ea0,66be4bb87e4798a656325aff,2024-08-15_14h41.55.144,WTP_SM_Choice,2022.2.1,Win32,58.82352941,,,,,space,7.0986,NAN,,NAN,1.35,4.65,,0,63,63,63,1,64,Riley,Rej,Participant_Images/6643c34315b04d498e71017e/6643c34315b04d498e71017e_Images/6643c34315b04d498e71017e_Image_9.jpeg,did not like,3.820572462,,,,,,,,,,,,,,,,,,,,,,
,,6643c34315b04d498e71017e,6685aa9113c938e83b4f1ea0,66be4bb87e4798a656325aff,2024-08-15_14h41.55.144,WTP_SM_Choice,2022.2.1,Win32,58.82352941,,,,,,,,,,,,,,,,,,61,,,,,,space,6.9053,space,2.7521,,,,0,0,0,0,1,going out to eat with my partner and kids ,Redecorating my living room,0.01,0.03,3.3,0,,,,
,,6643c34315b04d498e71017e,6685aa9113c938e83b4f1ea0,66be4bb87e4798a656325aff,2024-08-15_14h41.55.144,WTP_SM_Choice,2022.2.1,Win32,58.82352941,,,,,,,,,,,,,,,,,,62,,,,,,,,,,0.02,1,9.1093,0,1,1,1,1,sitting on the couch with a cozy blanket and a good book,going golfing with my family ,0.02,0.03,3.3,1,,,,
,,6643c34315b04d498e71017e,6685aa9113c938e83b4f1ea0,66be4bb87e4798a656325aff,2024-08-15_14h41.55.144,WTP_SM_Choice,2022.2.1,Win32,58.82352941,,,,,,,,,,,,,,,,,,63,,,,,,,,,,0.03,1,4.9041,0,2,2,2,1,scrolling on tiktok,having a movie night with my family,0.03,0.03,3.3,1,,,,
,,6643c34315b04d498e71017e,6685aa9113c938e83b4f1ea0,66be4bb87e4798a656325aff,2024-08-15_14h41.55.144,WTP_SM_Choice,2022.2.1,Win32,58.82352941,,,,,,,,,,,,,,,,,,64,,,,,,,,,,,,,0,3,3,3,1,planting flowers in the garden,having a movie night with my family,0.04,0.03,1.1,1,,,,
,,6643c34315b04d498e71017e,6685aa9113c938e83b4f1ea0,66be4bb87e4798a656325aff,2024-08-15_14h41.55.144,WTP_SM_Choice,2022.2.1,Win32,58.82352941,,,,,,,,,,,,,,,,,,65,,,,,,,,,,0.03,2,2.724,0,4,4,4,1,scrolling on tiktok,going golfing with my family ,0.05,0.03,1.1,1,,,,
,,6643c34315b04d498e71017e,6685aa9113c938e83b4f1ea0,66be4bb87e4798a656325aff,2024-08-15_14h41.55.144,WTP_SM_Choice,2022.2.1,Win32,58.82352941,,,,,,,NAN,,NAN,1.43,4.57,,0,64,64,64,1,65,Riley,Rej,Participant_Images/6643c34315b04d498e71017e/6643c34315b04d498e71017e_Images/6643c34315b04d498e71017e_Image_16.jpeg,did not like,2.455989137,,,,,,,,,,,,,,,,,,,,,,
,,6643c34315b04d498e71017e,6685aa9113c938e83b4f1ea0,66be4bb87e4798a656325aff,2024-08-15_14h41.55.144,WTP_SM_Choice,2022.2.1,Win32,58.82352941,,,,,space,21.5653,NAN,,NAN,1.43,4.57,,0,65,65,65,1,66,Riley,Rej,Participant_Images/6643c34315b04d498e71017e/6643c34315b04d498e71017e_Images/6643c34315b04d498e71017e_Image_18.jpeg,did not like,3.79605092,,,,,,,,,,,,,,,,,,,,,,
,,6643c34315b04d498e71017e,6685aa9113c938e83b4f1ea0,66be4bb87e4798a656325aff,2024-08-15_14h41.55.144,WTP_SM_Choice,2022.2.1,Win32,58.82352941,,,,,space,4.197,NAN,,NAN,1.43,4.57,,0,66,66,66,1,67,Riley,Rej,Participant_Images/6643c34315b04d498e71017e/6643c34315b04d498e71017e_Images/6643c34315b04d498e71017e_Image_4.jpeg,did not like,3.562416326,,,,,,,,,,,,,,,,,,,,,,
,,6643c34315b04d498e71017e,6685aa9113c938e83b4f1ea0,66be4bb87e4798a656325aff,2024-08-15_14h41.55.144,WTP_SM_Choice,2022.2.1,Win32,58.82352941,,,,,space,2.7378,NAN,,NAN,1.43,4.57,,0,67,67,67,1,68,Riley,Rej,Participant_Images/6643c34315b04d498e71017e/6643c34315b04d498e71017e_Images/6643c34315b04d498e71017e_Image_2.jpeg,did not like,2.843822497,,,,,,,,,,,,,,,,,,,,,,
,,6643c34315b04d498e71017e,6685aa9113c938e83b4f1ea0,66be4bb87e4798a656325aff,2024-08-15_14h41.55.144,WTP_SM_Choice,2022.2.1,Win32,58.82352941,,,,,space,0.9552,NAN,,NAN,1.43,4.57,,0,68,68,68,1,69,Riley,Rej,Participant_Images/6643c34315b04d498e71017e/6643c34315b04d498e71017e_Images/6643c34315b04d498e71017e_Image_21.jpeg,liked,3.546495948,,,,,,,,,,,,,,,,,,,,,,
,,6643c34315b04d498e71017e,6685aa9113c938e83b4f1ea0,66be4bb87e4798a656325aff,2024-08-15_14h41.55.144,WTP_SM_Choice,2022.2.1,Win32,58.82352941,,,,,,,,,,,,,,,,,,66,,,,,,space,8.2669,space,0.4531,0.01,1,2.6529,0,0,0,0,1,Painting with acrylic paints,having a movie night with my family,0.01,0.04,1.1,1,,,,
,,6643c34315b04d498e71017e,6685aa9113c938e83b4f1ea0,66be4bb87e4798a656325aff,2024-08-15_14h41.55.144,WTP_SM_Choice,2022.2.1,Win32,58.82352941,,,,,,,,,,,,,,,,,,67,,,,,,,,,,0.02,1,3.1199,0,1,1,1,1,going golfing with my family ,Binging a good tv show ,0.02,0.04,8.8,0,,,,
,,6643c34315b04d498e71017e,6685aa9113c938e83b4f1ea0,66be4bb87e4798a656325aff,2024-08-15_14h41.55.144,WTP_SM_Choice,2022.2.1,Win32,58.82352941,,,,,,,,,,,,,,,,,,68,,,,,,,,,,0.04,2,6.9105,0,2,2,2,1,Painting with acrylic paints,going for a walk with my family,0.03,0.04,4.4,1,,,,
,,6643c34315b04d498e71017e,6685aa9113c938e83b4f1ea0,66be4bb87e4798a656325aff,2024-08-15_14h41.55.144,WTP_SM_Choice,2022.2.1,Win32,58.82352941,,,,,,,,,,,,,,,,,,69,,,,,,,,,,0.04,1,1.5947,0,3,3,3,1,Binging a good tv show ,going to the park with my family,0.04,0.04,1.1,1,,,,
,,6643c34315b04d498e71017e,6685aa9113c938e83b4f1ea0,66be4bb87e4798a656325aff,2024-08-15_14h41.55.144,WTP_SM_Choice,2022.2.1,Win32,58.82352941,,,,,,,,,,,,,,,,,,70,,,,,,,,,,0.04,2,1.9039,0,4,4,4,1,Redecorating my living room,going bowling with my family ,0.05,0.04,1.1,1,,,,
,,6643c34315b04d498e71017e,6685aa9113c938e83b4f1ea0,66be4bb87e4798a656325aff,2024-08-15_14h41.55.144,WTP_SM_Choice,2022.2.1,Win32,58.82352941,,,,,,,NAN,,NAN,1.58,4.42,,0,69,69,69,1,70,Riley,Rej,Participant_Images/6643c34315b04d498e71017e/6643c34315b04d498e71017e_Images/6643c34315b04d498e71017e_Image_5.jpeg,did not like,1.672012706,,,,,,,,,,,,,,,,,,,,,,
,,6643c34315b04d498e71017e,6685aa9113c938e83b4f1ea0,66be4bb87e4798a656325aff,2024-08-15_14h41.55.144,WTP_SM_Choice,2022.2.1,Win32,58.82352941,,,,,space,5.5233,NAN,,NAN,1.58,4.42,,0,70,70,70,1,71,Riley,Rej,Participant_Images/6643c34315b04d498e71017e/6643c34315b04d498e71017e_Images/6643c34315b04d498e71017e_Image_14.jpeg,did not like,4.942172136,,,,,,,,,,,,,,,,,,,,,,
,,6643c34315b04d498e71017e,6685aa9113c938e83b4f1ea0,66be4bb87e4798a656325aff,2024-08-15_14h41.55.144,WTP_SM_Choice,2022.2.1,Win32,58.82352941,,,,,space,14.8747,NAN,,NAN,1.58,4.42,,0,71,71,71,1,72,Riley,Rej,Participant_Images/6643c34315b04d498e71017e/6643c34315b04d498e71017e_Images/6643c34315b04d498e71017e_Image_13.jpeg,did not like,2.50187214,,,,,,,,,,,,,,,,,,,,,,
,,6643c34315b04d498e71017e,6685aa9113c938e83b4f1ea0,66be4bb87e4798a656325aff,2024-08-15_14h41.55.144,WTP_SM_Choice,2022.2.1,Win32,58.82352941,,,,,space,0.6398,NAN,,NAN,1.58,4.42,,0,72,72,72,1,73,Riley,Rej,Participant_Images/6643c34315b04d498e71017e/6643c34315b04d498e71017e_Images/6643c34315b04d498e71017e_Image_1.jpeg,liked,2.071164779,,,,,,,,,,,,,,,,,,,,,,
,,6643c34315b04d498e71017e,6685aa9113c938e83b4f1ea0,66be4bb87e4798a656325aff,2024-08-15_14h41.55.144,WTP_SM_Choice,2022.2.1,Win32,58.82352941,,,,,space,1.2033,NAN,,NAN,1.58,4.42,,0,73,73,73,1,74,Riley,Rej,Participant_Images/6643c34315b04d498e71017e/6643c34315b04d498e71017e_Images/6643c34315b04d498e71017e_Image_10.jpeg,did not like,5.336503566,,,,,,,,,,,,,,,,,,,,,,
,,6643c34315b04d498e71017e,6685aa9113c938e83b4f1ea0,66be4bb87e4798a656325aff,2024-08-15_14h41.55.144,WTP_SM_Choice,2022.2.1,Win32,58.82352941,,,,,,,,,,,,,,,,,,71,,,,,,space,3.4361,space,0.5486,0.01,1,1.0101,0,0,0,0,1,giving myself a facial ,going to the movies with my family,0.01,0.05,3.3,1,,,,
,,6643c34315b04d498e71017e,6685aa9113c938e83b4f1ea0,66be4bb87e4798a656325aff,2024-08-15_14h41.55.144,WTP_SM_Choice,2022.2.1,Win32,58.82352941,,,,,,,,,,,,,,,,,,72,,,,,,,,,,0.02,1,5.6681,0,1,1,1,1,doing my nails,having a movie night with my family,0.02,0.05,8.8,1,,,,
,,6643c34315b04d498e71017e,6685aa9113c938e83b4f1ea0,66be4bb87e4798a656325aff,2024-08-15_14h41.55.144,WTP_SM_Choice,2022.2.1,Win32,58.82352941,,,,,,,,,,,,,,,,,,73,,,,,,,,,,0.03,1,6.5283,0,2,2,2,1,going to the lake to go swimming with my family,taking a nap,0.03,0.05,3.3,0,,,,
,,6643c34315b04d498e71017e,6685aa9113c938e83b4f1ea0,66be4bb87e4798a656325aff,2024-08-15_14h41.55.144,WTP_SM_Choice,2022.2.1,Win32,58.82352941,,,,,,,,,,,,,,,,,,74,,,,,,,,,,0.04,1,4.995,0,3,3,3,1,going out to eat with my partner and kids ,Binging a good tv show ,0.04,0.05,4.4,0,,,,
,,6643c34315b04d498e71017e,6685aa9113c938e83b4f1ea0,66be4bb87e4798a656325aff,2024-08-15_14h41.55.144,WTP_SM_Choice,2022.2.1,Win32,58.82352941,,,,,,,,,,,,,,,,,,75,,,,,,,,,,0.05,2,0.6006,0,4,4,4,1,going to explore a new city with my kids and my partner,doing my nails,0.05,0.05,3.3,0,,,,
,,6643c34315b04d498e71017e,6685aa9113c938e83b4f1ea0,66be4bb87e4798a656325aff,2024-08-15_14h41.55.144,WTP_SM_Choice,2022.2.1,Win32,58.82352941,,,,,,,3,,9,1.73,4.27,,0,74,74,74,1,75,Riley,Rej,Participant_Images/6643c34315b04d498e71017e/6643c34315b04d498e71017e_Images/6643c34315b04d498e71017e_Image_20.jpeg,liked,2.642157193,,,,,,,,,,,,,,,,,,,space,1.416,,
,,6643c34315b04d498e71017e,6685aa9113c938e83b4f1ea0,66be4bb87e4798a656325aff,2024-08-15_14h41.55.144,WTP_SM_Choice,2022.2.1,Win32,58.82352941,,,space,7.7027,space,2.0533,NAN,,NAN,1.73,4.27,,0,75,75,75,1,76,Charlie,Acc,Participant_Images/6643c34315b04d498e71017e/6643c34315b04d498e71017e_Images/6643c34315b04d498e71017e_Image_12.jpeg,liked,4.456234322,,,,,,,,,,,,,,,,,,,,,,
,,6643c34315b04d498e71017e,6685aa9113c938e83b4f1ea0,66be4bb87e4798a656325aff,2024-08-15_14h41.55.144,WTP_SM_Choice,2022.2.1,Win32,58.82352941,,,,,space,0.5396,NAN,,NAN,1.73,4.27,,0,76,76,76,1,77,Charlie,Acc,Participant_Images/6643c34315b04d498e71017e/6643c34315b04d498e71017e_Images/6643c34315b04d498e71017e_Image_14.jpeg,liked,4.438512181,,,,,,,,,,,,,,,,,,,,,,
,,6643c34315b04d498e71017e,6685aa9113c938e83b4f1ea0,66be4bb87e4798a656325aff,2024-08-15_14h41.55.144,WTP_SM_Choice,2022.2.1,Win32,58.82352941,,,,,space,0.7353,NAN,,NAN,1.73,4.27,,0,77,77,77,1,78,Charlie,Acc,Participant_Images/6643c34315b04d498e71017e/6643c34315b04d498e71017e_Images/6643c34315b04d498e71017e_Image_24.jpeg,did not like,2.682944783,,,,,,,,,,,,,,,,,,,,,,
,,6643c34315b04d498e71017e,6685aa9113c938e83b4f1ea0,66be4bb87e4798a656325aff,2024-08-15_14h41.55.144,WTP_SM_Choice,2022.2.1,Win32,58.82352941,,,,,space,0.7152,NAN,,NAN,1.73,4.27,,0,78,78,78,1,79,Charlie,Acc,Participant_Images/6643c34315b04d498e71017e/6643c34315b04d498e71017e_Images/6643c34315b04d498e71017e_Image_11.jpeg,did not like,4.51984296,,,,,,,,,,,,,,,,,,,,,,
,,6643c34315b04d498e71017e,6685aa9113c938e83b4f1ea0,66be4bb87e4798a656325aff,2024-08-15_14h41.55.144,WTP_SM_Choice,2022.2.1,Win32,58.82352941,,,,,,,,,,,,,,,,,,76,,,,,,space,1.7526,space,0.4846,0.01,2,1.0445,0,0,0,0,1,going to explore a new city with my kids and my partner,Binging a good tv show ,0.01,0.01,1.1,0,,,,
,,6643c34315b04d498e71017e,6685aa9113c938e83b4f1ea0,66be4bb87e4798a656325aff,2024-08-15_14h41.55.144,WTP_SM_Choice,2022.2.1,Win32,58.82352941,,,,,,,,,,,,,,,,,,77,,,,,,,,,,0.02,1,1.3052,0,1,1,1,1,going golfing with my family ,doing my nails,0.02,0.01,8.8,0,,,,
,,6643c34315b04d498e71017e,6685aa9113c938e83b4f1ea0,66be4bb87e4798a656325aff,2024-08-15_14h41.55.144,WTP_SM_Choice,2022.2.1,Win32,58.82352941,,,,,,,,,,,,,,,,,,78,,,,,,,,,,0.01,2,1.2467,0,2,2,2,1,going to the movies with my family,doing my nails,0.03,0.01,1.1,0,,,,
,,6643c34315b04d498e71017e,6685aa9113c938e83b4f1ea0,66be4bb87e4798a656325aff,2024-08-15_14h41.55.144,WTP_SM_Choice,2022.2.1,Win32,58.82352941,,,,,,,,,,,,,,,,,,79,,,,,,,,,,0.01,2,0.821,0,3,3,3,1,going out to eat with my partner and kids ,scrolling on tiktok,0.04,0.01,1.1,0,,,,
,,6643c34315b04d498e71017e,6685aa9113c938e83b4f1ea0,66be4bb87e4798a656325aff,2024-08-15_14h41.55.144,WTP_SM_Choice,2022.2.1,Win32,58.82352941,,,,,,,,,,,,,,,,,,80,,,,,,,,,,0.01,2,0.8388,0,4,4,4,1,going to the movies with my family,taking a nap,0.05,0.01,4.4,0,,,,
,,6643c34315b04d498e71017e,6685aa9113c938e83b4f1ea0,66be4bb87e4798a656325aff,2024-08-15_14h41.55.144,WTP_SM_Choice,2022.2.1,Win32,58.82352941,,,,,,,NAN,,NAN,1.79,4.21,,0,79,79,79,1,80,Charlie,Acc,Participant_Images/6643c34315b04d498e71017e/6643c34315b04d498e71017e_Images/6643c34315b04d498e71017e_Image_16.jpeg,did not like,3.195382774,,,,,,,,,,,,,,,,,,,,,,
,,6643c34315b04d498e71017e,6685aa9113c938e83b4f1ea0,66be4bb87e4798a656325aff,2024-08-15_14h41.55.144,WTP_SM_Choice,2022.2.1,Win32,58.82352941,,,,,space,1.0238,NAN,,NAN,1.79,4.21,,0,80,80,80,1,81,Charlie,Acc,Participant_Images/6643c34315b04d498e71017e/6643c34315b04d498e71017e_Images/6643c34315b04d498e71017e_Image_2.jpeg,liked,1.779333479,,,,,,,,,,,,,,,,,,,,,,
,,6643c34315b04d498e71017e,6685aa9113c938e83b4f1ea0,66be4bb87e4798a656325aff,2024-08-15_14h41.55.144,WTP_SM_Choice,2022.2.1,Win32,58.82352941,,,,,space,0.6429,NAN,,NAN,1.79,4.21,,0,81,81,81,1,82,Charlie,Acc,Participant_Images/6643c34315b04d498e71017e/6643c34315b04d498e71017e_Images/6643c34315b04d498e71017e_Image_20.jpeg,liked,4.312468682,,,,,,,,,,,,,,,,,,,,,,
,,6643c34315b04d498e71017e,6685aa9113c938e83b4f1ea0,66be4bb87e4798a656325aff,2024-08-15_14h41.55.144,WTP_SM_Choice,2022.2.1,Win32,58.82352941,,,,,space,0.8965,NAN,,NAN,1.79,4.21,,0,82,82,82,1,83,Charlie,Acc,Participant_Images/6643c34315b04d498e71017e/6643c34315b04d498e71017e_Images/6643c34315b04d498e71017e_Image_23.jpeg,liked,4.940433059,,,,,,,,,,,,,,,,,,,,,,
,,6643c34315b04d498e71017e,6685aa9113c938e83b4f1ea0,66be4bb87e4798a656325aff,2024-08-15_14h41.55.144,WTP_SM_Choice,2022.2.1,Win32,58.82352941,,,,,space,0.6921,NAN,,NAN,1.79,4.21,,0,83,83,83,1,84,Charlie,Acc,Participant_Images/6643c34315b04d498e71017e/6643c34315b04d498e71017e_Images/6643c34315b04d498e71017e_Image_19.jpeg,liked,2.7105123,,,,,,,,,,,,,,,,,,,,,,
,,6643c34315b04d498e71017e,6685aa9113c938e83b4f1ea0,66be4bb87e4798a656325aff,2024-08-15_14h41.55.144,WTP_SM_Choice,2022.2.1,Win32,58.82352941,,,,,,,,,,,,,,,,,,81,,,,,,space,1.0661,space,0.6668,0.02,2,0.8814,0,0,0,0,1,Redecorating my living room,going for a walk with my family,0.01,0.02,3.3,1,,,,
,,6643c34315b04d498e71017e,6685aa9113c938e83b4f1ea0,66be4bb87e4798a656325aff,2024-08-15_14h41.55.144,WTP_SM_Choice,2022.2.1,Win32,58.82352941,,,,,,,,,,,,,,,,,,82,,,,,,,,,,0.02,2,0.6295,0,1,1,1,1,going to explore a new city with my kids and my partner,Painting with acrylic paints,0.02,0.02,4.4,0,,,,
,,6643c34315b04d498e71017e,6685aa9113c938e83b4f1ea0,66be4bb87e4798a656325aff,2024-08-15_14h41.55.144,WTP_SM_Choice,2022.2.1,Win32,58.82352941,,,,,,,,,,,,,,,,,,83,,,,,,,,,,0.02,2,0.8278,0,2,2,2,1,Binging a good tv show ,having a movie night with my family,0.03,0.02,1.1,1,,,,
,,6643c34315b04d498e71017e,6685aa9113c938e83b4f1ea0,66be4bb87e4798a656325aff,2024-08-15_14h41.55.144,WTP_SM_Choice,2022.2.1,Win32,58.82352941,,,,,,,,,,,,,,,,,,84,,,,,,,,,,0.02,2,2.2494,0,3,3,3,1,going hiking with my family ,Painting with acrylic paints,0.04,0.02,3.3,0,,,,
,,6643c34315b04d498e71017e,6685aa9113c938e83b4f1ea0,66be4bb87e4798a656325aff,2024-08-15_14h41.55.144,WTP_SM_Choice,2022.2.1,Win32,58.82352941,,,,,,,,,,,,,,,,,,85,,,,,,,,,,,,,0,4,4,4,1,giving myself a facial ,going to explore a new city with my kids and my partner,0.05,0.02,3.3,1,,,,
,,6643c34315b04d498e71017e,6685aa9113c938e83b4f1ea0,66be4bb87e4798a656325aff,2024-08-15_14h41.55.144,WTP_SM_Choice,2022.2.1,Win32,58.82352941,,,,,,,NAN,,NAN,1.87,4.13,,0,84,84,84,1,85,Charlie,Acc,Participant_Images/6643c34315b04d498e71017e/6643c34315b04d498e71017e_Images/6643c34315b04d498e71017e_Image_7.jpeg,did not like,3.602308302,,,,,,,,,,,,,,,,,,,,,,
,,6643c34315b04d498e71017e,6685aa9113c938e83b4f1ea0,66be4bb87e4798a656325aff,2024-08-15_14h41.55.144,WTP_SM_Choice,2022.2.1,Win32,58.82352941,,,,,space,0.4935,NAN,,NAN,1.87,4.13,,0,85,85,85,1,86,Charlie,Acc,Participant_Images/6643c34315b04d498e71017e/6643c34315b04d498e71017e_Images/6643c34315b04d498e71017e_Image_17.jpeg,liked,4.106391878,,,,,,,,,,,,,,,,,,,,,,
,,6643c34315b04d498e71017e,6685aa9113c938e83b4f1ea0,66be4bb87e4798a656325aff,2024-08-15_14h41.55.144,WTP_SM_Choice,2022.2.1,Win32,58.82352941,,,,,space,2.2011,NAN,,NAN,1.87,4.13,,0,86,86,86,1,87,Charlie,Acc,Participant_Images/6643c34315b04d498e71017e/6643c34315b04d498e71017e_Images/6643c34315b04d498e71017e_Image_10.jpeg,did not like,3.799433026,,,,,,,,,,,,,,,,,,,,,,
,,6643c34315b04d498e71017e,6685aa9113c938e83b4f1ea0,66be4bb87e4798a656325aff,2024-08-15_14h41.55.144,WTP_SM_Choice,2022.2.1,Win32,58.82352941,,,,,space,3.902,NAN,,NAN,1.87,4.13,,0,87,87,87,1,88,Charlie,Acc,Participant_Images/6643c34315b04d498e71017e/6643c34315b04d498e71017e_Images/6643c34315b04d498e71017e_Image_13.jpeg,liked,5.246980764,,,,,,,,,,,,,,,,,,,,,,
,,6643c34315b04d498e71017e,6685aa9113c938e83b4f1ea0,66be4bb87e4798a656325aff,2024-08-15_14h41.55.144,WTP_SM_Choice,2022.2.1,Win32,58.82352941,,,,,space,0.9709,NAN,,NAN,1.87,4.13,,0,88,88,88,1,89,Charlie,Acc,Participant_Images/6643c34315b04d498e71017e/6643c34315b04d498e71017e_Images/6643c34315b04d498e71017e_Image_15.jpeg,liked,3.30081769,,,,,,,,,,,,,,,,,,,,,,
,,6643c34315b04d498e71017e,6685aa9113c938e83b4f1ea0,66be4bb87e4798a656325aff,2024-08-15_14h41.55.144,WTP_SM_Choice,2022.2.1,Win32,58.82352941,,,,,,,,,,,,,,,,,,86,,,,,,space,0.9256,space,0.3257,0.01,1,1.5233,0,0,0,0,1,going golfing with my family ,Painting with acrylic paints,0.01,0.03,1.1,0,,,,
,,6643c34315b04d498e71017e,6685aa9113c938e83b4f1ea0,66be4bb87e4798a656325aff,2024-08-15_14h41.55.144,WTP_SM_Choice,2022.2.1,Win32,58.82352941,,,,,,,,,,,,,,,,,,87,,,,,,,,,,0.03,2,1.4033,0,1,1,1,1,going hiking with my family ,taking a nap,0.02,0.03,4.4,0,,,,
,,6643c34315b04d498e71017e,6685aa9113c938e83b4f1ea0,66be4bb87e4798a656325aff,2024-08-15_14h41.55.144,WTP_SM_Choice,2022.2.1,Win32,58.82352941,,,,,,,,,,,,,,,,,,88,,,,,,,,,,0.03,1,6.7381,0,2,2,2,1,taking a nap,having a movie night with my family,0.03,0.03,1.1,1,,,,
,,6643c34315b04d498e71017e,6685aa9113c938e83b4f1ea0,66be4bb87e4798a656325aff,2024-08-15_14h41.55.144,WTP_SM_Choice,2022.2.1,Win32,58.82352941,,,,,,,,,,,,,,,,,,89,,,,,,,,,,0.03,2,1.2586,0,3,3,3,1,going to explore a new city with my kids and my partner,sitting on the couch with a cozy blanket and a good book,0.04,0.03,3.3,0,,,,
,,6643c34315b04d498e71017e,6685aa9113c938e83b4f1ea0,66be4bb87e4798a656325aff,2024-08-15_14h41.55.144,WTP_SM_Choice,2022.2.1,Win32,58.82352941,,,,,,,,,,,,,,,,,,90,,,,,,,,,,0.03,2,1.5174,0,4,4,4,1,taking a nap,going for a walk with my family,0.05,0.03,8.8,1,,,,
,,6643c34315b04d498e71017e,6685aa9113c938e83b4f1ea0,66be4bb87e4798a656325aff,2024-08-15_14h41.55.144,WTP_SM_Choice,2022.2.1,Win32,58.82352941,,,,,,,NAN,,NAN,2,4,,0,89,89,89,1,90,Charlie,Acc,Participant_Images/6643c34315b04d498e71017e/6643c34315b04d498e71017e_Images/6643c34315b04d498e71017e_Image_4.jpeg,liked,1.661473164,,,,,,,,,,,,,,,,,,,,,,
,,6643c34315b04d498e71017e,6685aa9113c938e83b4f1ea0,66be4bb87e4798a656325aff,2024-08-15_14h41.55.144,WTP_SM_Choice,2022.2.1,Win32,58.82352941,,,,,space,1.5406,NAN,,NAN,2,4,,0,90,90,90,1,91,Charlie,Acc,Participant_Images/6643c34315b04d498e71017e/6643c34315b04d498e71017e_Images/6643c34315b04d498e71017e_Image_22.jpeg,did not like,3.613205605,,,,,,,,,,,,,,,,,,,,,,
,,6643c34315b04d498e71017e,6685aa9113c938e83b4f1ea0,66be4bb87e4798a656325aff,2024-08-15_14h41.55.144,WTP_SM_Choice,2022.2.1,Win32,58.82352941,,,,,space,1.1528,NAN,,NAN,2,4,,0,91,91,91,1,92,Charlie,Acc,Participant_Images/6643c34315b04d498e71017e/6643c34315b04d498e71017e_Images/6643c34315b04d498e71017e_Image_25.jpeg,liked,4.988446431,,,,,,,,,,,,,,,,,,,,,,
,,6643c34315b04d498e71017e,6685aa9113c938e83b4f1ea0,66be4bb87e4798a656325aff,2024-08-15_14h41.55.144,WTP_SM_Choice,2022.2.1,Win32,58.82352941,,,,,space,0.8241,NAN,,NAN,2,4,,0,92,92,92,1,93,Charlie,Acc,Participant_Images/6643c34315b04d498e71017e/6643c34315b04d498e71017e_Images/6643c34315b04d498e71017e_Image_9.jpeg,did not like,3.470791822,,,,,,,,,,,,,,,,,,,,,,
,,6643c34315b04d498e71017e,6685aa9113c938e83b4f1ea0,66be4bb87e4798a656325aff,2024-08-15_14h41.55.144,WTP_SM_Choice,2022.2.1,Win32,58.82352941,,,,,space,1.0846,NAN,,NAN,2,4,,0,93,93,93,1,94,Charlie,Acc,Participant_Images/6643c34315b04d498e71017e/6643c34315b04d498e71017e_Images/6643c34315b04d498e71017e_Image_3.jpeg,liked,3.820572462,,,,,,,,,,,,,,,,,,,,,,
,,6643c34315b04d498e71017e,6685aa9113c938e83b4f1ea0,66be4bb87e4798a656325aff,2024-08-15_14h41.55.144,WTP_SM_Choice,2022.2.1,Win32,58.82352941,,,,,,,,,,,,,,,,,,91,,,,,,space,0.8533,space,0.3036,0.01,1,1.3956,0,0,0,0,1,scrolling on tiktok,going to the movies with my family,0.01,0.04,3.3,1,,,,
,,6643c34315b04d498e71017e,6685aa9113c938e83b4f1ea0,66be4bb87e4798a656325aff,2024-08-15_14h41.55.144,WTP_SM_Choice,2022.2.1,Win32,58.82352941,,,,,,,,,,,,,,,,,,92,,,,,,,,,,0.02,1,4.8575,0,1,1,1,1,sitting on the couch with a cozy blanket and a good book,having a movie night with my family,0.02,0.04,8.8,1,,,,
,,6643c34315b04d498e71017e,6685aa9113c938e83b4f1ea0,66be4bb87e4798a656325aff,2024-08-15_14h41.55.144,WTP_SM_Choice,2022.2.1,Win32,58.82352941,,,,,,,,,,,,,,,,,,93,,,,,,,,,,0.03,1,1.0577,0,2,2,2,1,going bowling with my family ,scrolling on tiktok,0.03,0.04,1.1,0,,,,
,,6643c34315b04d498e71017e,6685aa9113c938e83b4f1ea0,66be4bb87e4798a656325aff,2024-08-15_14h41.55.144,WTP_SM_Choice,2022.2.1,Win32,58.82352941,,,,,,,,,,,,,,,,,,94,,,,,,,,,,0.04,1,4.5422,0,3,3,3,1,Binging a good tv show ,going bowling with my family ,0.04,0.04,4.4,1,,,,
,,6643c34315b04d498e71017e,6685aa9113c938e83b4f1ea0,66be4bb87e4798a656325aff,2024-08-15_14h41.55.144,WTP_SM_Choice,2022.2.1,Win32,58.82352941,,,,,,,,,,,,,,,,,,95,,,,,,,,,,0.04,2,5.1291,0,4,4,4,1,Binging a good tv show ,going to the movies with my family,0.05,0.04,4.4,1,,,,
,,6643c34315b04d498e71017e,6685aa9113c938e83b4f1ea0,66be4bb87e4798a656325aff,2024-08-15_14h41.55.144,WTP_SM_Choice,2022.2.1,Win32,58.82352941,,,,,,,NAN,,NAN,2.14,3.86,,0,94,94,94,1,95,Charlie,Acc,Participant_Images/6643c34315b04d498e71017e/6643c34315b04d498e71017e_Images/6643c34315b04d498e71017e_Image_8.jpeg,liked,2.455989137,,,,,,,,,,,,,,,,,,,,,,
,,6643c34315b04d498e71017e,6685aa9113c938e83b4f1ea0,66be4bb87e4798a656325aff,2024-08-15_14h41.55.144,WTP_SM_Choice,2022.2.1,Win32,58.82352941,,,,,space,13.822,NAN,,NAN,2.14,3.86,,0,95,95,95,1,96,Charlie,Acc,Participant_Images/6643c34315b04d498e71017e/6643c34315b04d498e71017e_Images/6643c34315b04d498e71017e_Image_5.jpeg,liked,3.79605092,,,,,,,,,,,,,,,,,,,,,,
,,6643c34315b04d498e71017e,6685aa9113c938e83b4f1ea0,66be4bb87e4798a656325aff,2024-08-15_14h41.55.144,WTP_SM_Choice,2022.2.1,Win32,58.82352941,,,,,space,1.7582,NAN,,NAN,2.14,3.86,,0,96,96,96,1,97,Charlie,Acc,Participant_Images/6643c34315b04d498e71017e/6643c34315b04d498e71017e_Images/6643c34315b04d498e71017e_Image_1.jpeg,liked,3.562416326,,,,,,,,,,,,,,,,,,,,,,
,,6643c34315b04d498e71017e,6685aa9113c938e83b4f1ea0,66be4bb87e4798a656325aff,2024-08-15_14h41.55.144,WTP_SM_Choice,2022.2.1,Win32,58.82352941,,,,,space,0.9873,NAN,,NAN,2.14,3.86,,0,97,97,97,1,98,Charlie,Acc,Participant_Images/6643c34315b04d498e71017e/6643c34315b04d498e71017e_Images/6643c34315b04d498e71017e_Image_21.jpeg,liked,2.843822497,,,,,,,,,,,,,,,,,,,,,,
,,6643c34315b04d498e71017e,6685aa9113c938e83b4f1ea0,66be4bb87e4798a656325aff,2024-08-15_14h41.55.144,WTP_SM_Choice,2022.2.1,Win32,58.82352941,,,,,space,1.0498,NAN,,NAN,2.14,3.86,,0,98,98,98,1,99,Charlie,Acc,Participant_Images/6643c34315b04d498e71017e/6643c34315b04d498e71017e_Images/6643c34315b04d498e71017e_Image_6.jpeg,liked,3.546495948,,,,,,,,,,,,,,,,,,,,,,
,,6643c34315b04d498e71017e,6685aa9113c938e83b4f1ea0,66be4bb87e4798a656325aff,2024-08-15_14h41.55.144,WTP_SM_Choice,2022.2.1,Win32,58.82352941,,,,,,,,,,,,,,,,,,96,,,,,,space,12.5832,space,0.3896,0.01,1,0.9543,0,0,0,0,1,Redecorating my living room,going to explore a new city with my kids and my partner,0.01,0.05,3.3,1,,,,
,,6643c34315b04d498e71017e,6685aa9113c938e83b4f1ea0,66be4bb87e4798a656325aff,2024-08-15_14h41.55.144,WTP_SM_Choice,2022.2.1,Win32,58.82352941,,,,,,,,,,,,,,,,,,97,,,,,,,,,,0.02,1,2.194,0,1,1,1,1,going out to eat with my partner and kids ,messing around with tarot cards,0.02,0.05,1.1,0,,,,
,,6643c34315b04d498e71017e,6685aa9113c938e83b4f1ea0,66be4bb87e4798a656325aff,2024-08-15_14h41.55.144,WTP_SM_Choice,2022.2.1,Win32,58.82352941,,,,,,,,,,,,,,,,,,98,,,,,,,,,,0.03,1,3.8581,0,2,2,2,1,scrolling on tiktok,going hiking with my family ,0.03,0.05,1.1,1,,,,
,,6643c34315b04d498e71017e,6685aa9113c938e83b4f1ea0,66be4bb87e4798a656325aff,2024-08-15_14h41.55.144,WTP_SM_Choice,2022.2.1,Win32,58.82352941,,,,,,,,,,,,,,,,,,99,,,,,,,,,,0.04,1,1.2743,0,3,3,3,1,having a movie night with my family,giving myself a facial ,0.04,0.05,3.3,0,,,,
,,6643c34315b04d498e71017e,6685aa9113c938e83b4f1ea0,66be4bb87e4798a656325aff,2024-08-15_14h41.55.144,WTP_SM_Choice,2022.2.1,Win32,58.82352941,,,,,,,,,,,,,,,,,,100,,,,,,,,,,0.05,1,2.5245,0,4,4,4,1,going bowling with my family ,planting flowers in the garden,0.05,0.05,4.4,0,,,,
,,6643c34315b04d498e71017e,6685aa9113c938e83b4f1ea0,66be4bb87e4798a656325aff,2024-08-15_14h41.55.144,WTP_SM_Choice,2022.2.1,Win32,58.82352941,,,,,,,4,,9,2.29,3.71,,0,99,99,99,1,100,Charlie,Acc,Participant_Images/6643c34315b04d498e71017e/6643c34315b04d498e71017e_Images/6643c34315b04d498e71017e_Image_18.jpeg,liked,1.672012706,,,,,,,,,,,,,,,,,,,space,4.834,,
,,6643c34315b04d498e71017e,6685aa9113c938e83b4f1ea0,66be4bb87e4798a656325aff,2024-08-15_14h41.55.144,WTP_SM_Choice,2022.2.1,Win32,58.82352941,,,,,,,,,,,,,,,,,,,,,,,,,,,,,,,,,,,,,,,,,,,,space,3.6785
