endwelcomescreen_keys.keys,endwelcomescreen_keys.rt,participant,STUDY_ID,SESSION_ID,date,expName,psychopyVersion,OS,frameRate,endinstructionscreen_keys.keys,endinstructionscreen_keys.rt,endpartnermatch_keys.keys,endpartnermatch_keys.rt,sharenextphoto_key.keys,sharenextphoto_key.rt,salience_rating,key_resp.keys,stress_level,subtract_bonus,TOTAL_TASK_BONUS,stresslevel_keypress.keys,entiretaskloop.thisRepN,entiretaskloop.thisTrialN,entiretaskloop.thisN,entiretaskloop.thisIndex,entiretaskloop.ran,TrialNumber,Partner,Condition,Photos,Feedback,FeedbackWait,WTP_ins_keys1.keys,WTP_ins_keys1.rt,WTP_ins_keys2.keys,WTP_ins_keys2.rt,decision_price,responses.keys,responses.rt,WTPTaskLoop.thisRepN,WTPTaskLoop.thisTrialN,WTPTaskLoop.thisN,WTPTaskLoop.thisIndex,WTPTaskLoop.ran,right,left,leftmoney,rightmoney,WTP_ITI,social_left,Resume_keys.keys,Resume_keys.rt,end_screen_keys.keys,end_screen_keys.rt
space,38.4278,6645a794be029b87060615aa,6685aa9113c938e83b4f1ea0,66b527036bc26104a960737b,2024-08-08_13h26.42.657,WTP_SM_Choice,2022.2.1,Win32,59.52380952,,,,,,,,,,,,,,,,,,,,,,,,,,,,,,,,,,,,,,,,,,,,,
,,6645a794be029b87060615aa,6685aa9113c938e83b4f1ea0,66b527036bc26104a960737b,2024-08-08_13h26.42.657,WTP_SM_Choice,2022.2.1,Win32,59.52380952,space,17.5936,,,,,,,,,,,,,,,,,,,,,,,,,,,,,,,,,,,,,,,,,,,
,,6645a794be029b87060615aa,6685aa9113c938e83b4f1ea0,66b527036bc26104a960737b,2024-08-08_13h26.42.657,WTP_SM_Choice,2022.2.1,Win32,59.52380952,,,space,3.0723,space,1.6535,NAN,,NAN,0,6,,0,0,0,0,1,1,Charlie,Rej,Participant_Images/6645a794be029b87060615aa/6645a794be029b87060615aa_Images/6645a794be029b87060615aa_Image_24.jpeg,did not like,3.613205605,,,,,,,,,,,,,,,,,,,,,,
,,6645a794be029b87060615aa,6685aa9113c938e83b4f1ea0,66b527036bc26104a960737b,2024-08-08_13h26.42.657,WTP_SM_Choice,2022.2.1,Win32,59.52380952,,,,,space,8.43,NAN,,NAN,0,6,,0,1,1,1,1,2,Charlie,Rej,Participant_Images/6645a794be029b87060615aa/6645a794be029b87060615aa_Images/6645a794be029b87060615aa_Image_2.jpeg,did not like,4.988446431,,,,,,,,,,,,,,,,,,,,,,
,,6645a794be029b87060615aa,6685aa9113c938e83b4f1ea0,66b527036bc26104a960737b,2024-08-08_13h26.42.657,WTP_SM_Choice,2022.2.1,Win32,59.52380952,,,,,space,6.4938,NAN,,NAN,0,6,,0,2,2,2,1,3,Charlie,Rej,Participant_Images/6645a794be029b87060615aa/6645a794be029b87060615aa_Images/6645a794be029b87060615aa_Image_7.jpeg,did not like,3.470791822,,,,,,,,,,,,,,,,,,,,,,
,,6645a794be029b87060615aa,6685aa9113c938e83b4f1ea0,66b527036bc26104a960737b,2024-08-08_13h26.42.657,WTP_SM_Choice,2022.2.1,Win32,59.52380952,,,,,space,2.2996,NAN,,NAN,0,6,,0,3,3,3,1,4,Charlie,Rej,Participant_Images/6645a794be029b87060615aa/6645a794be029b87060615aa_Images/6645a794be029b87060615aa_Image_10.jpeg,did not like,3.820572462,,,,,,,,,,,,,,,,,,,,,,
,,6645a794be029b87060615aa,6685aa9113c938e83b4f1ea0,66b527036bc26104a960737b,2024-08-08_13h26.42.657,WTP_SM_Choice,2022.2.1,Win32,59.52380952,,,,,,,,,,,,,,,,,,1,,,,,,space,206.052,space,5.3876,0.01,2,3.58,0,0,0,0,1,Listening to music,Getting food and hanging out,0.01,0.01,4.4,1,,,,
,,6645a794be029b87060615aa,6685aa9113c938e83b4f1ea0,66b527036bc26104a960737b,2024-08-08_13h26.42.657,WTP_SM_Choice,2022.2.1,Win32,59.52380952,,,,,,,,,,,,,,,,,,2,,,,,,,,,,0.01,2,1.9029,0,1,1,1,1,Going on coffee and thrifting dates,Talking on the phone and catching up,0.02,0.01,8.8,1,,,,
,,6645a794be029b87060615aa,6685aa9113c938e83b4f1ea0,66b527036bc26104a960737b,2024-08-08_13h26.42.657,WTP_SM_Choice,2022.2.1,Win32,59.52380952,,,,,,,,,,,,,,,,,,3,,,,,,,,,,0.03,1,2.6552,0,2,2,2,1,Buying makeup to try and experiment with,Planning solo dates for the weekend,0.03,0.01,3.3,0,,,,
,,6645a794be029b87060615aa,6685aa9113c938e83b4f1ea0,66b527036bc26104a960737b,2024-08-08_13h26.42.657,WTP_SM_Choice,2022.2.1,Win32,59.52380952,,,,,,,,,,,,,,,,,,4,,,,,,,,,,0.04,1,3.3989,0,3,3,3,1,Trying out new hobbies like baking and coffee making,Decorating desserts for a weekend event,0.04,0.01,1.1,1,,,,
,,6645a794be029b87060615aa,6685aa9113c938e83b4f1ea0,66b527036bc26104a960737b,2024-08-08_13h26.42.657,WTP_SM_Choice,2022.2.1,Win32,59.52380952,,,,,,,,,,,,,,,,,,5,,,,,,,,,,0.05,1,2.8322,0,4,4,4,1,Thrifting in a nearby town,Moving furniture in my room,0.05,0.01,1.1,0,,,,
,,6645a794be029b87060615aa,6685aa9113c938e83b4f1ea0,66b527036bc26104a960737b,2024-08-08_13h26.42.657,WTP_SM_Choice,2022.2.1,Win32,59.52380952,,,,,,,NAN,,NAN,0.14,5.86,,0,4,4,4,1,5,Charlie,Rej,Participant_Images/6645a794be029b87060615aa/6645a794be029b87060615aa_Images/6645a794be029b87060615aa_Image_12.jpeg,liked,2.455989137,,,,,,,,,,,,,,,,,,,,,,
,,6645a794be029b87060615aa,6685aa9113c938e83b4f1ea0,66b527036bc26104a960737b,2024-08-08_13h26.42.657,WTP_SM_Choice,2022.2.1,Win32,59.52380952,,,,,space,1.6004,NAN,,NAN,0.14,5.86,,0,5,5,5,1,6,Charlie,Rej,Participant_Images/6645a794be029b87060615aa/6645a794be029b87060615aa_Images/6645a794be029b87060615aa_Image_13.jpeg,liked,3.79605092,,,,,,,,,,,,,,,,,,,,,,
,,6645a794be029b87060615aa,6685aa9113c938e83b4f1ea0,66b527036bc26104a960737b,2024-08-08_13h26.42.657,WTP_SM_Choice,2022.2.1,Win32,59.52380952,,,,,space,1.817,NAN,,NAN,0.14,5.86,,0,6,6,6,1,7,Charlie,Rej,Participant_Images/6645a794be029b87060615aa/6645a794be029b87060615aa_Images/6645a794be029b87060615aa_Image_17.jpeg,liked,3.562416326,,,,,,,,,,,,,,,,,,,,,,
,,6645a794be029b87060615aa,6685aa9113c938e83b4f1ea0,66b527036bc26104a960737b,2024-08-08_13h26.42.657,WTP_SM_Choice,2022.2.1,Win32,59.52380952,,,,,space,1.3337,NAN,,NAN,0.14,5.86,,0,7,7,7,1,8,Charlie,Rej,Participant_Images/6645a794be029b87060615aa/6645a794be029b87060615aa_Images/6645a794be029b87060615aa_Image_5.jpeg,did not like,2.843822497,,,,,,,,,,,,,,,,,,,,,,
,,6645a794be029b87060615aa,6685aa9113c938e83b4f1ea0,66b527036bc26104a960737b,2024-08-08_13h26.42.657,WTP_SM_Choice,2022.2.1,Win32,59.52380952,,,,,space,1.7058,NAN,,NAN,0.14,5.86,,0,8,8,8,1,9,Charlie,Rej,Participant_Images/6645a794be029b87060615aa/6645a794be029b87060615aa_Images/6645a794be029b87060615aa_Image_16.jpeg,did not like,3.546495948,,,,,,,,,,,,,,,,,,,,,,
,,6645a794be029b87060615aa,6685aa9113c938e83b4f1ea0,66b527036bc26104a960737b,2024-08-08_13h26.42.657,WTP_SM_Choice,2022.2.1,Win32,59.52380952,,,,,,,,,,,,,,,,,,6,,,,,,space,9.6236,space,4.9262,0.01,1,1.8159,0,0,0,0,1,Trying out new hobbies like baking and coffee making,Talking on the phone and catching up,0.01,0.02,3.3,1,,,,
,,6645a794be029b87060615aa,6685aa9113c938e83b4f1ea0,66b527036bc26104a960737b,2024-08-08_13h26.42.657,WTP_SM_Choice,2022.2.1,Win32,59.52380952,,,,,,,,,,,,,,,,,,7,,,,,,,,,,0.02,2,3.0734,0,1,1,1,1,Listening to music,Buying stuff for our pets,0.02,0.02,1.1,1,,,,
,,6645a794be029b87060615aa,6685aa9113c938e83b4f1ea0,66b527036bc26104a960737b,2024-08-08_13h26.42.657,WTP_SM_Choice,2022.2.1,Win32,59.52380952,,,,,,,,,,,,,,,,,,8,,,,,,,,,,0.03,1,3.4324,0,2,2,2,1,Planning solo dates for the weekend,Talking on the phone and catching up,0.03,0.02,1.1,1,,,,
,,6645a794be029b87060615aa,6685aa9113c938e83b4f1ea0,66b527036bc26104a960737b,2024-08-08_13h26.42.657,WTP_SM_Choice,2022.2.1,Win32,59.52380952,,,,,,,,,,,,,,,,,,9,,,,,,,,,,0.02,2,1.8347,0,3,3,3,1,Baking something in the kitchen,Singing and dancing by myself,0.04,0.02,4.4,0,,,,
,,6645a794be029b87060615aa,6685aa9113c938e83b4f1ea0,66b527036bc26104a960737b,2024-08-08_13h26.42.657,WTP_SM_Choice,2022.2.1,Win32,59.52380952,,,,,,,,,,,,,,,,,,10,,,,,,,,,,0.02,2,2.0145,0,4,4,4,1,Going to the gym and listening to a new podcast episode,Getting food and hanging out,0.05,0.02,1.1,1,,,,
,,6645a794be029b87060615aa,6685aa9113c938e83b4f1ea0,66b527036bc26104a960737b,2024-08-08_13h26.42.657,WTP_SM_Choice,2022.2.1,Win32,59.52380952,,,,,,,NAN,,NAN,0.24,5.76,,0,9,9,9,1,10,Charlie,Rej,Participant_Images/6645a794be029b87060615aa/6645a794be029b87060615aa_Images/6645a794be029b87060615aa_Image_18.jpeg,did not like,1.672012706,,,,,,,,,,,,,,,,,,,,,,
,,6645a794be029b87060615aa,6685aa9113c938e83b4f1ea0,66b527036bc26104a960737b,2024-08-08_13h26.42.657,WTP_SM_Choice,2022.2.1,Win32,59.52380952,,,,,space,1.2317,NAN,,NAN,0.24,5.76,,0,10,10,10,1,11,Charlie,Rej,Participant_Images/6645a794be029b87060615aa/6645a794be029b87060615aa_Images/6645a794be029b87060615aa_Image_3.jpeg,did not like,4.942172136,,,,,,,,,,,,,,,,,,,,,,
,,6645a794be029b87060615aa,6685aa9113c938e83b4f1ea0,66b527036bc26104a960737b,2024-08-08_13h26.42.657,WTP_SM_Choice,2022.2.1,Win32,59.52380952,,,,,space,1.5041,NAN,,NAN,0.24,5.76,,0,11,11,11,1,12,Charlie,Rej,Participant_Images/6645a794be029b87060615aa/6645a794be029b87060615aa_Images/6645a794be029b87060615aa_Image_9.jpeg,liked,2.50187214,,,,,,,,,,,,,,,,,,,,,,
,,6645a794be029b87060615aa,6685aa9113c938e83b4f1ea0,66b527036bc26104a960737b,2024-08-08_13h26.42.657,WTP_SM_Choice,2022.2.1,Win32,59.52380952,,,,,space,1.0063,NAN,,NAN,0.24,5.76,,0,12,12,12,1,13,Charlie,Rej,Participant_Images/6645a794be029b87060615aa/6645a794be029b87060615aa_Images/6645a794be029b87060615aa_Image_25.jpeg,did not like,2.071164779,,,,,,,,,,,,,,,,,,,,,,
,,6645a794be029b87060615aa,6685aa9113c938e83b4f1ea0,66b527036bc26104a960737b,2024-08-08_13h26.42.657,WTP_SM_Choice,2022.2.1,Win32,59.52380952,,,,,space,1.0398,NAN,,NAN,0.24,5.76,,0,13,13,13,1,14,Charlie,Rej,Participant_Images/6645a794be029b87060615aa/6645a794be029b87060615aa_Images/6645a794be029b87060615aa_Image_21.jpeg,did not like,5.336503566,,,,,,,,,,,,,,,,,,,,,,
,,6645a794be029b87060615aa,6685aa9113c938e83b4f1ea0,66b527036bc26104a960737b,2024-08-08_13h26.42.657,WTP_SM_Choice,2022.2.1,Win32,59.52380952,,,,,,,,,,,,,,,,,,11,,,,,,space,5.2171,space,1.2466,0.03,2,2.168,0,0,0,0,1,Buying makeup to try and experiment with,Moving furniture in my room,0.01,0.03,3.3,0,,,,
,,6645a794be029b87060615aa,6685aa9113c938e83b4f1ea0,66b527036bc26104a960737b,2024-08-08_13h26.42.657,WTP_SM_Choice,2022.2.1,Win32,59.52380952,,,,,,,,,,,,,,,,,,12,,,,,,,,,,0.02,1,2.6253,0,1,1,1,1,Listening to music,Buying makeup to try and experiment with,0.02,0.03,4.4,1,,,,
,,6645a794be029b87060615aa,6685aa9113c938e83b4f1ea0,66b527036bc26104a960737b,2024-08-08_13h26.42.657,WTP_SM_Choice,2022.2.1,Win32,59.52380952,,,,,,,,,,,,,,,,,,13,,,,,,,,,,0.03,2,1.2787,0,2,2,2,1,Listening to music that they like,Moving furniture in my room,0.03,0.03,1.1,0,,,,
,,6645a794be029b87060615aa,6685aa9113c938e83b4f1ea0,66b527036bc26104a960737b,2024-08-08_13h26.42.657,WTP_SM_Choice,2022.2.1,Win32,59.52380952,,,,,,,,,,,,,,,,,,14,,,,,,,,,,0.03,2,1.9969,0,3,3,3,1,Getting food and hanging out,Moving furniture in my room,0.04,0.03,3.3,0,,,,
,,6645a794be029b87060615aa,6685aa9113c938e83b4f1ea0,66b527036bc26104a960737b,2024-08-08_13h26.42.657,WTP_SM_Choice,2022.2.1,Win32,59.52380952,,,,,,,,,,,,,,,,,,15,,,,,,,,,,0.03,2,2.1405,0,4,4,4,1,Buying makeup to try and experiment with,Buying stuff online for me and my pets,0.05,0.03,4.4,0,,,,
,,6645a794be029b87060615aa,6685aa9113c938e83b4f1ea0,66b527036bc26104a960737b,2024-08-08_13h26.42.657,WTP_SM_Choice,2022.2.1,Win32,59.52380952,,,,,,,NAN,,NAN,0.38,5.62,,0,14,14,14,1,15,Charlie,Rej,Participant_Images/6645a794be029b87060615aa/6645a794be029b87060615aa_Images/6645a794be029b87060615aa_Image_14.jpeg,liked,2.642157193,,,,,,,,,,,,,,,,,,,,,,
,,6645a794be029b87060615aa,6685aa9113c938e83b4f1ea0,66b527036bc26104a960737b,2024-08-08_13h26.42.657,WTP_SM_Choice,2022.2.1,Win32,59.52380952,,,,,space,2.0258,NAN,,NAN,0.38,5.62,,0,15,15,15,1,16,Charlie,Rej,Participant_Images/6645a794be029b87060615aa/6645a794be029b87060615aa_Images/6645a794be029b87060615aa_Image_19.jpeg,did not like,4.456234322,,,,,,,,,,,,,,,,,,,,,,
,,6645a794be029b87060615aa,6685aa9113c938e83b4f1ea0,66b527036bc26104a960737b,2024-08-08_13h26.42.657,WTP_SM_Choice,2022.2.1,Win32,59.52380952,,,,,space,0.4674,NAN,,NAN,0.38,5.62,,0,16,16,16,1,17,Charlie,Rej,Participant_Images/6645a794be029b87060615aa/6645a794be029b87060615aa_Images/6645a794be029b87060615aa_Image_23.jpeg,did not like,4.438512181,,,,,,,,,,,,,,,,,,,,,,
,,6645a794be029b87060615aa,6685aa9113c938e83b4f1ea0,66b527036bc26104a960737b,2024-08-08_13h26.42.657,WTP_SM_Choice,2022.2.1,Win32,59.52380952,,,,,space,0.9327,NAN,,NAN,0.38,5.62,,0,17,17,17,1,18,Charlie,Rej,Participant_Images/6645a794be029b87060615aa/6645a794be029b87060615aa_Images/6645a794be029b87060615aa_Image_20.jpeg,did not like,2.682944783,,,,,,,,,,,,,,,,,,,,,,
,,6645a794be029b87060615aa,6685aa9113c938e83b4f1ea0,66b527036bc26104a960737b,2024-08-08_13h26.42.657,WTP_SM_Choice,2022.2.1,Win32,59.52380952,,,,,space,1.1868,NAN,,NAN,0.38,5.62,,0,18,18,18,1,19,Charlie,Rej,Participant_Images/6645a794be029b87060615aa/6645a794be029b87060615aa_Images/6645a794be029b87060615aa_Image_22.jpeg,did not like,4.51984296,,,,,,,,,,,,,,,,,,,,,,
,,6645a794be029b87060615aa,6685aa9113c938e83b4f1ea0,66b527036bc26104a960737b,2024-08-08_13h26.42.657,WTP_SM_Choice,2022.2.1,Win32,59.52380952,,,,,,,,,,,,,,,,,,16,,,,,,space,1.6378,space,1.0685,0.01,1,2.8555,0,0,0,0,1,Taking walks in the park,Trying out new hobbies like baking and coffee making,0.01,0.04,1.1,0,,,,
,,6645a794be029b87060615aa,6685aa9113c938e83b4f1ea0,66b527036bc26104a960737b,2024-08-08_13h26.42.657,WTP_SM_Choice,2022.2.1,Win32,59.52380952,,,,,,,,,,,,,,,,,,17,,,,,,,,,,0.02,1,1.333,0,1,1,1,1,Thrifting in a nearby town,Going to the gym and listening to a new podcast episode,0.02,0.04,8.8,0,,,,
,,6645a794be029b87060615aa,6685aa9113c938e83b4f1ea0,66b527036bc26104a960737b,2024-08-08_13h26.42.657,WTP_SM_Choice,2022.2.1,Win32,59.52380952,,,,,,,,,,,,,,,,,,18,,,,,,,,,,0.03,1,1.465,0,2,2,2,1,Taking walks in the park,Singing and dancing by myself,0.03,0.04,3.3,0,,,,
,,6645a794be029b87060615aa,6685aa9113c938e83b4f1ea0,66b527036bc26104a960737b,2024-08-08_13h26.42.657,WTP_SM_Choice,2022.2.1,Win32,59.52380952,,,,,,,,,,,,,,,,,,19,,,,,,,,,,0.04,1,3.2088,0,3,3,3,1,Buying stuff for our pets,Buying stuff online for me and my pets,0.04,0.04,3.3,0,,,,
,,6645a794be029b87060615aa,6685aa9113c938e83b4f1ea0,66b527036bc26104a960737b,2024-08-08_13h26.42.657,WTP_SM_Choice,2022.2.1,Win32,59.52380952,,,,,,,,,,,,,,,,,,20,,,,,,,,,,0.04,2,1.8713,0,4,4,4,1,Planning birthday gifts for my friends and family,Baking something in the kitchen,0.05,0.04,1.1,1,,,,
,,6645a794be029b87060615aa,6685aa9113c938e83b4f1ea0,66b527036bc26104a960737b,2024-08-08_13h26.42.657,WTP_SM_Choice,2022.2.1,Win32,59.52380952,,,,,,,NAN,,NAN,0.52,5.48,,0,19,19,19,1,20,Charlie,Rej,Participant_Images/6645a794be029b87060615aa/6645a794be029b87060615aa_Images/6645a794be029b87060615aa_Image_11.jpeg,liked,3.195382774,,,,,,,,,,,,,,,,,,,,,,
,,6645a794be029b87060615aa,6685aa9113c938e83b4f1ea0,66b527036bc26104a960737b,2024-08-08_13h26.42.657,WTP_SM_Choice,2022.2.1,Win32,59.52380952,,,,,space,1.6163,NAN,,NAN,0.52,5.48,,0,20,20,20,1,21,Charlie,Rej,Participant_Images/6645a794be029b87060615aa/6645a794be029b87060615aa_Images/6645a794be029b87060615aa_Image_1.jpeg,did not like,1.779333479,,,,,,,,,,,,,,,,,,,,,,
,,6645a794be029b87060615aa,6685aa9113c938e83b4f1ea0,66b527036bc26104a960737b,2024-08-08_13h26.42.657,WTP_SM_Choice,2022.2.1,Win32,59.52380952,,,,,space,2.9872,NAN,,NAN,0.52,5.48,,0,21,21,21,1,22,Charlie,Rej,Participant_Images/6645a794be029b87060615aa/6645a794be029b87060615aa_Images/6645a794be029b87060615aa_Image_6.jpeg,did not like,4.312468682,,,,,,,,,,,,,,,,,,,,,,
,,6645a794be029b87060615aa,6685aa9113c938e83b4f1ea0,66b527036bc26104a960737b,2024-08-08_13h26.42.657,WTP_SM_Choice,2022.2.1,Win32,59.52380952,,,,,space,1.3587,NAN,,NAN,0.52,5.48,,0,22,22,22,1,23,Charlie,Rej,Participant_Images/6645a794be029b87060615aa/6645a794be029b87060615aa_Images/6645a794be029b87060615aa_Image_15.jpeg,did not like,4.940433059,,,,,,,,,,,,,,,,,,,,,,
,,6645a794be029b87060615aa,6685aa9113c938e83b4f1ea0,66b527036bc26104a960737b,2024-08-08_13h26.42.657,WTP_SM_Choice,2022.2.1,Win32,59.52380952,,,,,space,0.8845,NAN,,NAN,0.52,5.48,,0,23,23,23,1,24,Charlie,Rej,Participant_Images/6645a794be029b87060615aa/6645a794be029b87060615aa_Images/6645a794be029b87060615aa_Image_4.jpeg,did not like,2.7105123,,,,,,,,,,,,,,,,,,,,,,
,,6645a794be029b87060615aa,6685aa9113c938e83b4f1ea0,66b527036bc26104a960737b,2024-08-08_13h26.42.657,WTP_SM_Choice,2022.2.1,Win32,59.52380952,,,,,,,,,,,,,,,,,,21,,,,,,space,1.1076,space,1.3211,0.01,1,1.7696,0,0,0,0,1,Buying stuff for our pets,Going on coffee and thrifting dates,0.01,0.05,8.8,0,,,,
,,6645a794be029b87060615aa,6685aa9113c938e83b4f1ea0,66b527036bc26104a960737b,2024-08-08_13h26.42.657,WTP_SM_Choice,2022.2.1,Win32,59.52380952,,,,,,,,,,,,,,,,,,22,,,,,,,,,,0.05,2,3.286,0,1,1,1,1,Talking on the phone and catching up,Shopping around town for things for school,0.02,0.05,4.4,0,,,,
,,6645a794be029b87060615aa,6685aa9113c938e83b4f1ea0,66b527036bc26104a960737b,2024-08-08_13h26.42.657,WTP_SM_Choice,2022.2.1,Win32,59.52380952,,,,,,,,,,,,,,,,,,23,,,,,,,,,,0.03,1,2.3,0,2,2,2,1,Decorating desserts for a weekend event,Planning solo dates for the weekend,0.03,0.05,1.1,0,,,,
,,6645a794be029b87060615aa,6685aa9113c938e83b4f1ea0,66b527036bc26104a960737b,2024-08-08_13h26.42.657,WTP_SM_Choice,2022.2.1,Win32,59.52380952,,,,,,,,,,,,,,,,,,24,,,,,,,,,,0.04,1,3.3975,0,3,3,3,1,Planning birthday gifts for my friends and family,Listening to music that they like,0.04,0.05,4.4,1,,,,
,,6645a794be029b87060615aa,6685aa9113c938e83b4f1ea0,66b527036bc26104a960737b,2024-08-08_13h26.42.657,WTP_SM_Choice,2022.2.1,Win32,59.52380952,,,,,,,,,,,,,,,,,,25,,,,,,,,,,0.05,1,3.9199,0,4,4,4,1,Moving furniture in my room,Exercising together after work,0.05,0.05,3.3,1,,,,
,,6645a794be029b87060615aa,6685aa9113c938e83b4f1ea0,66b527036bc26104a960737b,2024-08-08_13h26.42.657,WTP_SM_Choice,2022.2.1,Win32,59.52380952,,,,,,,1,,4,0.7,5.3,,0,24,24,24,1,25,Charlie,Rej,Participant_Images/6645a794be029b87060615aa/6645a794be029b87060615aa_Images/6645a794be029b87060615aa_Image_8.jpeg,liked,3.602308302,,,,,,,,,,,,,,,,,,,space,1.4161,,
,,6645a794be029b87060615aa,6685aa9113c938e83b4f1ea0,66b527036bc26104a960737b,2024-08-08_13h26.42.657,WTP_SM_Choice,2022.2.1,Win32,59.52380952,,,space,4.1131,space,3.7708,NAN,,NAN,0.7,5.3,,0,25,25,25,1,26,Sam,Acc,Participant_Images/6645a794be029b87060615aa/6645a794be029b87060615aa_Images/6645a794be029b87060615aa_Image_1.jpeg,liked,4.106391878,,,,,,,,,,,,,,,,,,,,,,
,,6645a794be029b87060615aa,6685aa9113c938e83b4f1ea0,66b527036bc26104a960737b,2024-08-08_13h26.42.657,WTP_SM_Choice,2022.2.1,Win32,59.52380952,,,,,space,1.2742,NAN,,NAN,0.7,5.3,,0,26,26,26,1,27,Sam,Acc,Participant_Images/6645a794be029b87060615aa/6645a794be029b87060615aa_Images/6645a794be029b87060615aa_Image_7.jpeg,liked,3.799433026,,,,,,,,,,,,,,,,,,,,,,
,,6645a794be029b87060615aa,6685aa9113c938e83b4f1ea0,66b527036bc26104a960737b,2024-08-08_13h26.42.657,WTP_SM_Choice,2022.2.1,Win32,59.52380952,,,,,space,0.8497,NAN,,NAN,0.7,5.3,,0,27,27,27,1,28,Sam,Acc,Participant_Images/6645a794be029b87060615aa/6645a794be029b87060615aa_Images/6645a794be029b87060615aa_Image_19.jpeg,liked,5.246980764,,,,,,,,,,,,,,,,,,,,,,
,,6645a794be029b87060615aa,6685aa9113c938e83b4f1ea0,66b527036bc26104a960737b,2024-08-08_13h26.42.657,WTP_SM_Choice,2022.2.1,Win32,59.52380952,,,,,space,1.5898,NAN,,NAN,0.7,5.3,,0,28,28,28,1,29,Sam,Acc,Participant_Images/6645a794be029b87060615aa/6645a794be029b87060615aa_Images/6645a794be029b87060615aa_Image_22.jpeg,liked,3.30081769,,,,,,,,,,,,,,,,,,,,,,
,,6645a794be029b87060615aa,6685aa9113c938e83b4f1ea0,66b527036bc26104a960737b,2024-08-08_13h26.42.657,WTP_SM_Choice,2022.2.1,Win32,59.52380952,,,,,,,,,,,,,,,,,,26,,,,,,space,167.7072,space,1.0163,0.01,2,2.1992,0,0,0,0,1,Baking something in the kitchen,Shopping around town for things for school,0.01,0.01,4.4,0,,,,
,,6645a794be029b87060615aa,6685aa9113c938e83b4f1ea0,66b527036bc26104a960737b,2024-08-08_13h26.42.657,WTP_SM_Choice,2022.2.1,Win32,59.52380952,,,,,,,,,,,,,,,,,,27,,,,,,,,,,0.01,2,2.1585,0,1,1,1,1,Listening to music,Decorating desserts for a weekend event,0.02,0.01,3.3,1,,,,
,,6645a794be029b87060615aa,6685aa9113c938e83b4f1ea0,66b527036bc26104a960737b,2024-08-08_13h26.42.657,WTP_SM_Choice,2022.2.1,Win32,59.52380952,,,,,,,,,,,,,,,,,,28,,,,,,,,,,0.03,1,1.5653,0,2,2,2,1,Decorating desserts for a weekend event,Going to the gym and listening to a new podcast episode,0.03,0.01,3.3,0,,,,
,,6645a794be029b87060615aa,6685aa9113c938e83b4f1ea0,66b527036bc26104a960737b,2024-08-08_13h26.42.657,WTP_SM_Choice,2022.2.1,Win32,59.52380952,,,,,,,,,,,,,,,,,,29,,,,,,,,,,0.01,2,2.3527,0,3,3,3,1,Getting food and hanging out,Buying stuff online for me and my pets,0.04,0.01,4.4,0,,,,
,,6645a794be029b87060615aa,6685aa9113c938e83b4f1ea0,66b527036bc26104a960737b,2024-08-08_13h26.42.657,WTP_SM_Choice,2022.2.1,Win32,59.52380952,,,,,,,,,,,,,,,,,,30,,,,,,,,,,0.05,1,2.681,0,4,4,4,1,Moving furniture in my room,Taking walks in the park,0.05,0.01,8.8,1,,,,
,,6645a794be029b87060615aa,6685aa9113c938e83b4f1ea0,66b527036bc26104a960737b,2024-08-08_13h26.42.657,WTP_SM_Choice,2022.2.1,Win32,59.52380952,,,,,,,NAN,,NAN,0.81,5.19,,0,29,29,29,1,30,Sam,Acc,Participant_Images/6645a794be029b87060615aa/6645a794be029b87060615aa_Images/6645a794be029b87060615aa_Image_8.jpeg,liked,1.661473164,,,,,,,,,,,,,,,,,,,,,,
,,6645a794be029b87060615aa,6685aa9113c938e83b4f1ea0,66b527036bc26104a960737b,2024-08-08_13h26.42.657,WTP_SM_Choice,2022.2.1,Win32,59.52380952,,,,,space,101.5241,NAN,,NAN,0.81,5.19,,0,30,30,30,1,31,Sam,Acc,Participant_Images/6645a794be029b87060615aa/6645a794be029b87060615aa_Images/6645a794be029b87060615aa_Image_12.jpeg,liked,3.613205605,,,,,,,,,,,,,,,,,,,,,,
,,6645a794be029b87060615aa,6685aa9113c938e83b4f1ea0,66b527036bc26104a960737b,2024-08-08_13h26.42.657,WTP_SM_Choice,2022.2.1,Win32,59.52380952,,,,,space,1.4249,NAN,,NAN,0.81,5.19,,0,31,31,31,1,32,Sam,Acc,Participant_Images/6645a794be029b87060615aa/6645a794be029b87060615aa_Images/6645a794be029b87060615aa_Image_23.jpeg,liked,4.988446431,,,,,,,,,,,,,,,,,,,,,,
,,6645a794be029b87060615aa,6685aa9113c938e83b4f1ea0,66b527036bc26104a960737b,2024-08-08_13h26.42.657,WTP_SM_Choice,2022.2.1,Win32,59.52380952,,,,,space,0.9075,NAN,,NAN,0.81,5.19,,0,32,32,32,1,33,Sam,Acc,Participant_Images/6645a794be029b87060615aa/6645a794be029b87060615aa_Images/6645a794be029b87060615aa_Image_11.jpeg,did not like,3.470791822,,,,,,,,,,,,,,,,,,,,,,
,,6645a794be029b87060615aa,6685aa9113c938e83b4f1ea0,66b527036bc26104a960737b,2024-08-08_13h26.42.657,WTP_SM_Choice,2022.2.1,Win32,59.52380952,,,,,space,2.0168,NAN,,NAN,0.81,5.19,,0,33,33,33,1,34,Sam,Acc,Participant_Images/6645a794be029b87060615aa/6645a794be029b87060615aa_Images/6645a794be029b87060615aa_Image_2.jpeg,liked,3.820572462,,,,,,,,,,,,,,,,,,,,,,
,,6645a794be029b87060615aa,6685aa9113c938e83b4f1ea0,66b527036bc26104a960737b,2024-08-08_13h26.42.657,WTP_SM_Choice,2022.2.1,Win32,59.52380952,,,,,,,,,,,,,,,,,,31,,,,,,space,30.9566,space,0.9102,0.01,1,2.2463,0,0,0,0,1,Planning solo dates for the weekend,Getting food and hanging out,0.01,0.02,8.8,1,,,,
,,6645a794be029b87060615aa,6685aa9113c938e83b4f1ea0,66b527036bc26104a960737b,2024-08-08_13h26.42.657,WTP_SM_Choice,2022.2.1,Win32,59.52380952,,,,,,,,,,,,,,,,,,32,,,,,,,,,,0.02,2,1.7578,0,1,1,1,1,Buying stuff online for me and my pets,Decorating desserts for a weekend event,0.02,0.02,1.1,1,,,,
,,6645a794be029b87060615aa,6685aa9113c938e83b4f1ea0,66b527036bc26104a960737b,2024-08-08_13h26.42.657,WTP_SM_Choice,2022.2.1,Win32,59.52380952,,,,,,,,,,,,,,,,,,33,,,,,,,,,,0.02,2,3.8878,0,2,2,2,1,Exercising together after work,Planning solo dates for the weekend,0.03,0.02,4.4,0,,,,
,,6645a794be029b87060615aa,6685aa9113c938e83b4f1ea0,66b527036bc26104a960737b,2024-08-08_13h26.42.657,WTP_SM_Choice,2022.2.1,Win32,59.52380952,,,,,,,,,,,,,,,,,,34,,,,,,,,,,0.02,2,1.6899,0,3,3,3,1,Singing and dancing by myself,Decorating desserts for a weekend event,0.04,0.02,3.3,1,,,,
,,6645a794be029b87060615aa,6685aa9113c938e83b4f1ea0,66b527036bc26104a960737b,2024-08-08_13h26.42.657,WTP_SM_Choice,2022.2.1,Win32,59.52380952,,,,,,,,,,,,,,,,,,35,,,,,,,,,,0.02,2,3.279,0,4,4,4,1,Thrifting in a nearby town,Listening to music,0.05,0.02,1.1,0,,,,
,,6645a794be029b87060615aa,6685aa9113c938e83b4f1ea0,66b527036bc26104a960737b,2024-08-08_13h26.42.657,WTP_SM_Choice,2022.2.1,Win32,59.52380952,,,,,,,NAN,,NAN,0.9,5.1,,0,34,34,34,1,35,Sam,Acc,Participant_Images/6645a794be029b87060615aa/6645a794be029b87060615aa_Images/6645a794be029b87060615aa_Image_18.jpeg,liked,2.455989137,,,,,,,,,,,,,,,,,,,,,,
,,6645a794be029b87060615aa,6685aa9113c938e83b4f1ea0,66b527036bc26104a960737b,2024-08-08_13h26.42.657,WTP_SM_Choice,2022.2.1,Win32,59.52380952,,,,,space,1.4481,NAN,,NAN,0.9,5.1,,0,35,35,35,1,36,Sam,Acc,Participant_Images/6645a794be029b87060615aa/6645a794be029b87060615aa_Images/6645a794be029b87060615aa_Image_25.jpeg,liked,3.79605092,,,,,,,,,,,,,,,,,,,,,,
,,6645a794be029b87060615aa,6685aa9113c938e83b4f1ea0,66b527036bc26104a960737b,2024-08-08_13h26.42.657,WTP_SM_Choice,2022.2.1,Win32,59.52380952,,,,,space,2.8824,NAN,,NAN,0.9,5.1,,0,36,36,36,1,37,Sam,Acc,Participant_Images/6645a794be029b87060615aa/6645a794be029b87060615aa_Images/6645a794be029b87060615aa_Image_24.jpeg,liked,3.562416326,,,,,,,,,,,,,,,,,,,,,,
,,6645a794be029b87060615aa,6685aa9113c938e83b4f1ea0,66b527036bc26104a960737b,2024-08-08_13h26.42.657,WTP_SM_Choice,2022.2.1,Win32,59.52380952,,,,,space,2.6311,NAN,,NAN,0.9,5.1,,0,37,37,37,1,38,Sam,Acc,Participant_Images/6645a794be029b87060615aa/6645a794be029b87060615aa_Images/6645a794be029b87060615aa_Image_20.jpeg,did not like,2.843822497,,,,,,,,,,,,,,,,,,,,,,
,,6645a794be029b87060615aa,6685aa9113c938e83b4f1ea0,66b527036bc26104a960737b,2024-08-08_13h26.42.657,WTP_SM_Choice,2022.2.1,Win32,59.52380952,,,,,space,1.7172,NAN,,NAN,0.9,5.1,,0,38,38,38,1,39,Sam,Acc,Participant_Images/6645a794be029b87060615aa/6645a794be029b87060615aa_Images/6645a794be029b87060615aa_Image_4.jpeg,liked,3.546495948,,,,,,,,,,,,,,,,,,,,,,
,,6645a794be029b87060615aa,6685aa9113c938e83b4f1ea0,66b527036bc26104a960737b,2024-08-08_13h26.42.657,WTP_SM_Choice,2022.2.1,Win32,59.52380952,,,,,,,,,,,,,,,,,,36,,,,,,space,5.2532,space,0.5743,0.03,2,1.9854,0,0,0,0,1,Planning solo dates for the weekend,Taking walks in the park,0.01,0.03,3.3,1,,,,
,,6645a794be029b87060615aa,6685aa9113c938e83b4f1ea0,66b527036bc26104a960737b,2024-08-08_13h26.42.657,WTP_SM_Choice,2022.2.1,Win32,59.52380952,,,,,,,,,,,,,,,,,,37,,,,,,,,,,0.02,1,1.7264,0,1,1,1,1,Planning birthday gifts for my friends and family,Getting food and hanging out,0.02,0.03,1.1,1,,,,
,,6645a794be029b87060615aa,6685aa9113c938e83b4f1ea0,66b527036bc26104a960737b,2024-08-08_13h26.42.657,WTP_SM_Choice,2022.2.1,Win32,59.52380952,,,,,,,,,,,,,,,,,,38,,,,,,,,,,0.03,1,2.3985,0,2,2,2,1,Listening to music that they like,Going to the gym and listening to a new podcast episode,0.03,0.03,1.1,0,,,,
,,6645a794be029b87060615aa,6685aa9113c938e83b4f1ea0,66b527036bc26104a960737b,2024-08-08_13h26.42.657,WTP_SM_Choice,2022.2.1,Win32,59.52380952,,,,,,,,,,,,,,,,,,39,,,,,,,,,,0.03,2,3.3658,0,3,3,3,1,Going on coffee and thrifting dates,Thrifting in a nearby town,0.04,0.03,3.3,1,,,,
,,6645a794be029b87060615aa,6685aa9113c938e83b4f1ea0,66b527036bc26104a960737b,2024-08-08_13h26.42.657,WTP_SM_Choice,2022.2.1,Win32,59.52380952,,,,,,,,,,,,,,,,,,40,,,,,,,,,,0.03,2,2.6059,0,4,4,4,1,Going to the gym and listening to a new podcast episode,Talking on the phone and catching up,0.05,0.03,4.4,1,,,,
,,6645a794be029b87060615aa,6685aa9113c938e83b4f1ea0,66b527036bc26104a960737b,2024-08-08_13h26.42.657,WTP_SM_Choice,2022.2.1,Win32,59.52380952,,,,,,,NAN,,NAN,1.04,4.96,,0,39,39,39,1,40,Sam,Acc,Participant_Images/6645a794be029b87060615aa/6645a794be029b87060615aa_Images/6645a794be029b87060615aa_Image_13.jpeg,liked,1.672012706,,,,,,,,,,,,,,,,,,,,,,
,,6645a794be029b87060615aa,6685aa9113c938e83b4f1ea0,66b527036bc26104a960737b,2024-08-08_13h26.42.657,WTP_SM_Choice,2022.2.1,Win32,59.52380952,,,,,space,1.5832,NAN,,NAN,1.04,4.96,,0,40,40,40,1,41,Sam,Acc,Participant_Images/6645a794be029b87060615aa/6645a794be029b87060615aa_Images/6645a794be029b87060615aa_Image_16.jpeg,did not like,4.942172136,,,,,,,,,,,,,,,,,,,,,,
,,6645a794be029b87060615aa,6685aa9113c938e83b4f1ea0,66b527036bc26104a960737b,2024-08-08_13h26.42.657,WTP_SM_Choice,2022.2.1,Win32,59.52380952,,,,,space,2.4551,NAN,,NAN,1.04,4.96,,0,41,41,41,1,42,Sam,Acc,Participant_Images/6645a794be029b87060615aa/6645a794be029b87060615aa_Images/6645a794be029b87060615aa_Image_5.jpeg,did not like,2.50187214,,,,,,,,,,,,,,,,,,,,,,
,,6645a794be029b87060615aa,6685aa9113c938e83b4f1ea0,66b527036bc26104a960737b,2024-08-08_13h26.42.657,WTP_SM_Choice,2022.2.1,Win32,59.52380952,,,,,space,1.52,NAN,,NAN,1.04,4.96,,0,42,42,42,1,43,Sam,Acc,Participant_Images/6645a794be029b87060615aa/6645a794be029b87060615aa_Images/6645a794be029b87060615aa_Image_10.jpeg,did not like,2.071164779,,,,,,,,,,,,,,,,,,,,,,
,,6645a794be029b87060615aa,6685aa9113c938e83b4f1ea0,66b527036bc26104a960737b,2024-08-08_13h26.42.657,WTP_SM_Choice,2022.2.1,Win32,59.52380952,,,,,space,3.1136,NAN,,NAN,1.04,4.96,,0,43,43,43,1,44,Sam,Acc,Participant_Images/6645a794be029b87060615aa/6645a794be029b87060615aa_Images/6645a794be029b87060615aa_Image_17.jpeg,liked,5.336503566,,,,,,,,,,,,,,,,,,,,,,
,,6645a794be029b87060615aa,6685aa9113c938e83b4f1ea0,66b527036bc26104a960737b,2024-08-08_13h26.42.657,WTP_SM_Choice,2022.2.1,Win32,59.52380952,,,,,,,,,,,,,,,,,,41,,,,,,space,12.4621,space,2.7749,0.01,1,1.4155,0,0,0,0,1,Exercising together after work,Shopping around town for things for school,0.01,0.04,1.1,0,,,,
,,6645a794be029b87060615aa,6685aa9113c938e83b4f1ea0,66b527036bc26104a960737b,2024-08-08_13h26.42.657,WTP_SM_Choice,2022.2.1,Win32,59.52380952,,,,,,,,,,,,,,,,,,42,,,,,,,,,,0.02,1,2.1626,0,1,1,1,1,Going to the gym and listening to a new podcast episode,Taking walks in the park,0.02,0.04,3.3,1,,,,
,,6645a794be029b87060615aa,6685aa9113c938e83b4f1ea0,66b527036bc26104a960737b,2024-08-08_13h26.42.657,WTP_SM_Choice,2022.2.1,Win32,59.52380952,,,,,,,,,,,,,,,,,,43,,,,,,,,,,0.04,2,2.1111,0,2,2,2,1,Singing and dancing by myself,Buying stuff for our pets,0.03,0.04,1.1,1,,,,
,,6645a794be029b87060615aa,6685aa9113c938e83b4f1ea0,66b527036bc26104a960737b,2024-08-08_13h26.42.657,WTP_SM_Choice,2022.2.1,Win32,59.52380952,,,,,,,,,,,,,,,,,,44,,,,,,,,,,0.04,2,2.0263,0,3,3,3,1,Going to the gym and listening to a new podcast episode,Exercising together after work,0.04,0.04,1.1,1,,,,
,,6645a794be029b87060615aa,6685aa9113c938e83b4f1ea0,66b527036bc26104a960737b,2024-08-08_13h26.42.657,WTP_SM_Choice,2022.2.1,Win32,59.52380952,,,,,,,,,,,,,,,,,,45,,,,,,,,,,0.04,2,2.0146,0,4,4,4,1,Talking on the phone and catching up,Planning birthday gifts for my friends and family,0.05,0.04,4.4,0,,,,
,,6645a794be029b87060615aa,6685aa9113c938e83b4f1ea0,66b527036bc26104a960737b,2024-08-08_13h26.42.657,WTP_SM_Choice,2022.2.1,Win32,59.52380952,,,,,,,NAN,,NAN,1.19,4.81,,0,44,44,44,1,45,Sam,Acc,Participant_Images/6645a794be029b87060615aa/6645a794be029b87060615aa_Images/6645a794be029b87060615aa_Image_15.jpeg,liked,2.642157193,,,,,,,,,,,,,,,,,,,,,,
,,6645a794be029b87060615aa,6685aa9113c938e83b4f1ea0,66b527036bc26104a960737b,2024-08-08_13h26.42.657,WTP_SM_Choice,2022.2.1,Win32,59.52380952,,,,,space,3.7561,NAN,,NAN,1.19,4.81,,0,45,45,45,1,46,Sam,Acc,Participant_Images/6645a794be029b87060615aa/6645a794be029b87060615aa_Images/6645a794be029b87060615aa_Image_9.jpeg,liked,4.456234322,,,,,,,,,,,,,,,,,,,,,,
,,6645a794be029b87060615aa,6685aa9113c938e83b4f1ea0,66b527036bc26104a960737b,2024-08-08_13h26.42.657,WTP_SM_Choice,2022.2.1,Win32,59.52380952,,,,,space,1.339,NAN,,NAN,1.19,4.81,,0,46,46,46,1,47,Sam,Acc,Participant_Images/6645a794be029b87060615aa/6645a794be029b87060615aa_Images/6645a794be029b87060615aa_Image_21.jpeg,did not like,4.438512181,,,,,,,,,,,,,,,,,,,,,,
,,6645a794be029b87060615aa,6685aa9113c938e83b4f1ea0,66b527036bc26104a960737b,2024-08-08_13h26.42.657,WTP_SM_Choice,2022.2.1,Win32,59.52380952,,,,,space,4.6482,NAN,,NAN,1.19,4.81,,0,47,47,47,1,48,Sam,Acc,Participant_Images/6645a794be029b87060615aa/6645a794be029b87060615aa_Images/6645a794be029b87060615aa_Image_3.jpeg,did not like,2.682944783,,,,,,,,,,,,,,,,,,,,,,
,,6645a794be029b87060615aa,6685aa9113c938e83b4f1ea0,66b527036bc26104a960737b,2024-08-08_13h26.42.657,WTP_SM_Choice,2022.2.1,Win32,59.52380952,,,,,space,6.8685,NAN,,NAN,1.19,4.81,,0,48,48,48,1,49,Sam,Acc,Participant_Images/6645a794be029b87060615aa/6645a794be029b87060615aa_Images/6645a794be029b87060615aa_Image_6.jpeg,liked,4.51984296,,,,,,,,,,,,,,,,,,,,,,
,,6645a794be029b87060615aa,6685aa9113c938e83b4f1ea0,66b527036bc26104a960737b,2024-08-08_13h26.42.657,WTP_SM_Choice,2022.2.1,Win32,59.52380952,,,,,,,,,,,,,,,,,,46,,,,,,space,3.4804,space,3.7066,0.01,1,2.3355,0,0,0,0,1,Getting food and hanging out,Singing and dancing by myself,0.01,0.05,8.8,0,,,,
,,6645a794be029b87060615aa,6685aa9113c938e83b4f1ea0,66b527036bc26104a960737b,2024-08-08_13h26.42.657,WTP_SM_Choice,2022.2.1,Win32,59.52380952,,,,,,,,,,,,,,,,,,47,,,,,,,,,,0.05,2,2.2954,0,1,1,1,1,Planning birthday gifts for my friends and family,Taking walks in the park,0.02,0.05,1.1,1,,,,
,,6645a794be029b87060615aa,6685aa9113c938e83b4f1ea0,66b527036bc26104a960737b,2024-08-08_13h26.42.657,WTP_SM_Choice,2022.2.1,Win32,59.52380952,,,,,,,,,,,,,,,,,,48,,,,,,,,,,0.05,2,2.7167,0,2,2,2,1,Listening to music that they like,Shopping around town for things for school,0.03,0.05,4.4,0,,,,
,,6645a794be029b87060615aa,6685aa9113c938e83b4f1ea0,66b527036bc26104a960737b,2024-08-08_13h26.42.657,WTP_SM_Choice,2022.2.1,Win32,59.52380952,,,,,,,,,,,,,,,,,,49,,,,,,,,,,0.04,1,1.7237,0,3,3,3,1,Planning solo dates for the weekend,Thrifting in a nearby town,0.04,0.05,3.3,1,,,,
,,6645a794be029b87060615aa,6685aa9113c938e83b4f1ea0,66b527036bc26104a960737b,2024-08-08_13h26.42.657,WTP_SM_Choice,2022.2.1,Win32,59.52380952,,,,,,,,,,,,,,,,,,50,,,,,,,,,,0.05,2,2.4509,0,4,4,4,1,Decorating desserts for a weekend event,Moving furniture in my room,0.05,0.05,1.1,0,,,,
,,6645a794be029b87060615aa,6685aa9113c938e83b4f1ea0,66b527036bc26104a960737b,2024-08-08_13h26.42.657,WTP_SM_Choice,2022.2.1,Win32,59.52380952,,,,,,,4,,5,1.39,4.61,,0,49,49,49,1,50,Sam,Acc,Participant_Images/6645a794be029b87060615aa/6645a794be029b87060615aa_Images/6645a794be029b87060615aa_Image_14.jpeg,liked,3.195382774,,,,,,,,,,,,,,,,,,,space,1.983,,
,,6645a794be029b87060615aa,6685aa9113c938e83b4f1ea0,66b527036bc26104a960737b,2024-08-08_13h26.42.657,WTP_SM_Choice,2022.2.1,Win32,59.52380952,,,space,1.599,space,1.2875,NAN,,NAN,1.39,4.61,,0,50,50,50,1,51,Riley,Acc,Participant_Images/6645a794be029b87060615aa/6645a794be029b87060615aa_Images/6645a794be029b87060615aa_Image_5.jpeg,liked,1.779333479,,,,,,,,,,,,,,,,,,,,,,
,,6645a794be029b87060615aa,6685aa9113c938e83b4f1ea0,66b527036bc26104a960737b,2024-08-08_13h26.42.657,WTP_SM_Choice,2022.2.1,Win32,59.52380952,,,,,space,0.2925,NAN,,NAN,1.39,4.61,,0,51,51,51,1,52,Riley,Acc,Participant_Images/6645a794be029b87060615aa/6645a794be029b87060615aa_Images/6645a794be029b87060615aa_Image_6.jpeg,liked,4.312468682,,,,,,,,,,,,,,,,,,,,,,
,,6645a794be029b87060615aa,6685aa9113c938e83b4f1ea0,66b527036bc26104a960737b,2024-08-08_13h26.42.657,WTP_SM_Choice,2022.2.1,Win32,59.52380952,,,,,space,0.5835,NAN,,NAN,1.39,4.61,,0,52,52,52,1,53,Riley,Acc,Participant_Images/6645a794be029b87060615aa/6645a794be029b87060615aa_Images/6645a794be029b87060615aa_Image_16.jpeg,liked,4.940433059,,,,,,,,,,,,,,,,,,,,,,
,,6645a794be029b87060615aa,6685aa9113c938e83b4f1ea0,66b527036bc26104a960737b,2024-08-08_13h26.42.657,WTP_SM_Choice,2022.2.1,Win32,59.52380952,,,,,space,0.5608,NAN,,NAN,1.39,4.61,,0,53,53,53,1,54,Riley,Acc,Participant_Images/6645a794be029b87060615aa/6645a794be029b87060615aa_Images/6645a794be029b87060615aa_Image_20.jpeg,liked,2.7105123,,,,,,,,,,,,,,,,,,,,,,
,,6645a794be029b87060615aa,6685aa9113c938e83b4f1ea0,66b527036bc26104a960737b,2024-08-08_13h26.42.657,WTP_SM_Choice,2022.2.1,Win32,59.52380952,,,,,,,,,,,,,,,,,,51,,,,,,space,1.3317,space,0.3616,0.01,2,2.6733,0,0,0,0,1,Thrifting in a nearby town,Planning birthday gifts for my friends and family,0.01,0.01,1.1,0,,,,
,,6645a794be029b87060615aa,6685aa9113c938e83b4f1ea0,66b527036bc26104a960737b,2024-08-08_13h26.42.657,WTP_SM_Choice,2022.2.1,Win32,59.52380952,,,,,,,,,,,,,,,,,,52,,,,,,,,,,0.01,2,4.52,0,1,1,1,1,Going on coffee and thrifting dates,Taking walks in the park,0.02,0.01,3.3,1,,,,
,,6645a794be029b87060615aa,6685aa9113c938e83b4f1ea0,66b527036bc26104a960737b,2024-08-08_13h26.42.657,WTP_SM_Choice,2022.2.1,Win32,59.52380952,,,,,,,,,,,,,,,,,,53,,,,,,,,,,0.01,2,2.8914,0,2,2,2,1,Buying stuff online for me and my pets,Baking something in the kitchen,0.03,0.01,1.1,1,,,,
,,6645a794be029b87060615aa,6685aa9113c938e83b4f1ea0,66b527036bc26104a960737b,2024-08-08_13h26.42.657,WTP_SM_Choice,2022.2.1,Win32,59.52380952,,,,,,,,,,,,,,,,,,54,,,,,,,,,,0.01,2,2.8108,0,3,3,3,1,Buying stuff for our pets,Shopping around town for things for school,0.04,0.01,4.4,0,,,,
,,6645a794be029b87060615aa,6685aa9113c938e83b4f1ea0,66b527036bc26104a960737b,2024-08-08_13h26.42.657,WTP_SM_Choice,2022.2.1,Win32,59.52380952,,,,,,,,,,,,,,,,,,55,,,,,,,,,,0.05,1,2.7143,0,4,4,4,1,Buying stuff for our pets,Planning solo dates for the weekend,0.05,0.01,1.1,0,,,,
,,6645a794be029b87060615aa,6685aa9113c938e83b4f1ea0,66b527036bc26104a960737b,2024-08-08_13h26.42.657,WTP_SM_Choice,2022.2.1,Win32,59.52380952,,,,,,,NAN,,NAN,1.48,4.52,,0,54,54,54,1,55,Riley,Acc,Participant_Images/6645a794be029b87060615aa/6645a794be029b87060615aa_Images/6645a794be029b87060615aa_Image_21.jpeg,liked,3.602308302,,,,,,,,,,,,,,,,,,,,,,
,,6645a794be029b87060615aa,6685aa9113c938e83b4f1ea0,66b527036bc26104a960737b,2024-08-08_13h26.42.657,WTP_SM_Choice,2022.2.1,Win32,59.52380952,,,,,space,0.5729,NAN,,NAN,1.48,4.52,,0,55,55,55,1,56,Riley,Acc,Participant_Images/6645a794be029b87060615aa/6645a794be029b87060615aa_Images/6645a794be029b87060615aa_Image_12.jpeg,liked,4.106391878,,,,,,,,,,,,,,,,,,,,,,
,,6645a794be029b87060615aa,6685aa9113c938e83b4f1ea0,66b527036bc26104a960737b,2024-08-08_13h26.42.657,WTP_SM_Choice,2022.2.1,Win32,59.52380952,,,,,space,0.8338,NAN,,NAN,1.48,4.52,,0,56,56,56,1,57,Riley,Acc,Participant_Images/6645a794be029b87060615aa/6645a794be029b87060615aa_Images/6645a794be029b87060615aa_Image_9.jpeg,did not like,3.799433026,,,,,,,,,,,,,,,,,,,,,,
,,6645a794be029b87060615aa,6685aa9113c938e83b4f1ea0,66b527036bc26104a960737b,2024-08-08_13h26.42.657,WTP_SM_Choice,2022.2.1,Win32,59.52380952,,,,,space,2.9396,NAN,,NAN,1.48,4.52,,0,57,57,57,1,58,Riley,Acc,Participant_Images/6645a794be029b87060615aa/6645a794be029b87060615aa_Images/6645a794be029b87060615aa_Image_24.jpeg,did not like,5.246980764,,,,,,,,,,,,,,,,,,,,,,
,,6645a794be029b87060615aa,6685aa9113c938e83b4f1ea0,66b527036bc26104a960737b,2024-08-08_13h26.42.657,WTP_SM_Choice,2022.2.1,Win32,59.52380952,,,,,space,0.6836,NAN,,NAN,1.48,4.52,,0,58,58,58,1,59,Riley,Acc,Participant_Images/6645a794be029b87060615aa/6645a794be029b87060615aa_Images/6645a794be029b87060615aa_Image_2.jpeg,liked,3.30081769,,,,,,,,,,,,,,,,,,,,,,
,,6645a794be029b87060615aa,6685aa9113c938e83b4f1ea0,66b527036bc26104a960737b,2024-08-08_13h26.42.657,WTP_SM_Choice,2022.2.1,Win32,59.52380952,,,,,,,,,,,,,,,,,,56,,,,,,space,1.0688,space,0.3611,0.01,1,2.5825,0,0,0,0,1,Shopping around town for things for school,Decorating desserts for a weekend event,0.01,0.02,8.8,1,,,,
,,6645a794be029b87060615aa,6685aa9113c938e83b4f1ea0,66b527036bc26104a960737b,2024-08-08_13h26.42.657,WTP_SM_Choice,2022.2.1,Win32,59.52380952,,,,,,,,,,,,,,,,,,57,,,,,,,,,,0.02,2,1.4543,0,1,1,1,1,Planning birthday gifts for my friends and family,Buying stuff for our pets,0.02,0.02,4.4,1,,,,
,,6645a794be029b87060615aa,6685aa9113c938e83b4f1ea0,66b527036bc26104a960737b,2024-08-08_13h26.42.657,WTP_SM_Choice,2022.2.1,Win32,59.52380952,,,,,,,,,,,,,,,,,,58,,,,,,,,,,0.02,2,2.1945,0,2,2,2,1,Exercising together after work,Listening to music,0.03,0.02,4.4,0,,,,
,,6645a794be029b87060615aa,6685aa9113c938e83b4f1ea0,66b527036bc26104a960737b,2024-08-08_13h26.42.657,WTP_SM_Choice,2022.2.1,Win32,59.52380952,,,,,,,,,,,,,,,,,,59,,,,,,,,,,0.02,2,3.1711,0,3,3,3,1,Planning solo dates for the weekend,Listening to music that they like,0.04,0.02,4.4,1,,,,
,,6645a794be029b87060615aa,6685aa9113c938e83b4f1ea0,66b527036bc26104a960737b,2024-08-08_13h26.42.657,WTP_SM_Choice,2022.2.1,Win32,59.52380952,,,,,,,,,,,,,,,,,,60,,,,,,,,,,0.02,2,2.791,0,4,4,4,1,Planning birthday gifts for my friends and family,Exercising together after work,0.05,0.02,1.1,1,,,,
,,6645a794be029b87060615aa,6685aa9113c938e83b4f1ea0,66b527036bc26104a960737b,2024-08-08_13h26.42.657,WTP_SM_Choice,2022.2.1,Win32,59.52380952,,,,,,,NAN,,NAN,1.57,4.43,,0,59,59,59,1,60,Riley,Acc,Participant_Images/6645a794be029b87060615aa/6645a794be029b87060615aa_Images/6645a794be029b87060615aa_Image_14.jpeg,liked,1.661473164,,,,,,,,,,,,,,,,,,,,,,
,,6645a794be029b87060615aa,6685aa9113c938e83b4f1ea0,66b527036bc26104a960737b,2024-08-08_13h26.42.657,WTP_SM_Choice,2022.2.1,Win32,59.52380952,,,,,space,0.3361,NAN,,NAN,1.57,4.43,,0,60,60,60,1,61,Riley,Acc,Participant_Images/6645a794be029b87060615aa/6645a794be029b87060615aa_Images/6645a794be029b87060615aa_Image_11.jpeg,liked,3.613205605,,,,,,,,,,,,,,,,,,,,,,
,,6645a794be029b87060615aa,6685aa9113c938e83b4f1ea0,66b527036bc26104a960737b,2024-08-08_13h26.42.657,WTP_SM_Choice,2022.2.1,Win32,59.52380952,,,,,space,0.8451,NAN,,NAN,1.57,4.43,,0,61,61,61,1,62,Riley,Acc,Participant_Images/6645a794be029b87060615aa/6645a794be029b87060615aa_Images/6645a794be029b87060615aa_Image_1.jpeg,liked,4.988446431,,,,,,,,,,,,,,,,,,,,,,
,,6645a794be029b87060615aa,6685aa9113c938e83b4f1ea0,66b527036bc26104a960737b,2024-08-08_13h26.42.657,WTP_SM_Choice,2022.2.1,Win32,59.52380952,,,,,space,0.6455,NAN,,NAN,1.57,4.43,,0,62,62,62,1,63,Riley,Acc,Participant_Images/6645a794be029b87060615aa/6645a794be029b87060615aa_Images/6645a794be029b87060615aa_Image_10.jpeg,did not like,3.470791822,,,,,,,,,,,,,,,,,,,,,,
,,6645a794be029b87060615aa,6685aa9113c938e83b4f1ea0,66b527036bc26104a960737b,2024-08-08_13h26.42.657,WTP_SM_Choice,2022.2.1,Win32,59.52380952,,,,,space,1.5659,NAN,,NAN,1.57,4.43,,0,63,63,63,1,64,Riley,Acc,Participant_Images/6645a794be029b87060615aa/6645a794be029b87060615aa_Images/6645a794be029b87060615aa_Image_19.jpeg,liked,3.820572462,,,,,,,,,,,,,,,,,,,,,,
,,6645a794be029b87060615aa,6685aa9113c938e83b4f1ea0,66b527036bc26104a960737b,2024-08-08_13h26.42.657,WTP_SM_Choice,2022.2.1,Win32,59.52380952,,,,,,,,,,,,,,,,,,61,,,,,,space,1.0351,space,0.3974,0.03,2,2.09,0,0,0,0,1,Thrifting in a nearby town,Shopping around town for things for school,0.01,0.03,3.3,0,,,,
,,6645a794be029b87060615aa,6685aa9113c938e83b4f1ea0,66b527036bc26104a960737b,2024-08-08_13h26.42.657,WTP_SM_Choice,2022.2.1,Win32,59.52380952,,,,,,,,,,,,,,,,,,62,,,,,,,,,,0.02,1,3.3351,0,1,1,1,1,Decorating desserts for a weekend event,Going on coffee and thrifting dates,0.02,0.03,3.3,0,,,,
,,6645a794be029b87060615aa,6685aa9113c938e83b4f1ea0,66b527036bc26104a960737b,2024-08-08_13h26.42.657,WTP_SM_Choice,2022.2.1,Win32,59.52380952,,,,,,,,,,,,,,,,,,63,,,,,,,,,,0.03,2,2.7963,0,2,2,2,1,Going on coffee and thrifting dates,Exercising together after work,0.03,0.03,3.3,1,,,,
,,6645a794be029b87060615aa,6685aa9113c938e83b4f1ea0,66b527036bc26104a960737b,2024-08-08_13h26.42.657,WTP_SM_Choice,2022.2.1,Win32,59.52380952,,,,,,,,,,,,,,,,,,64,,,,,,,,,,0.03,2,2.3359,0,3,3,3,1,Going on coffee and thrifting dates,Baking something in the kitchen,0.04,0.03,1.1,1,,,,
,,6645a794be029b87060615aa,6685aa9113c938e83b4f1ea0,66b527036bc26104a960737b,2024-08-08_13h26.42.657,WTP_SM_Choice,2022.2.1,Win32,59.52380952,,,,,,,,,,,,,,,,,,65,,,,,,,,,,0.05,1,4.2403,0,4,4,4,1,Buying stuff online for me and my pets,Talking on the phone and catching up,0.05,0.03,1.1,1,,,,
,,6645a794be029b87060615aa,6685aa9113c938e83b4f1ea0,66b527036bc26104a960737b,2024-08-08_13h26.42.657,WTP_SM_Choice,2022.2.1,Win32,59.52380952,,,,,,,NAN,,NAN,1.73,4.27,,0,64,64,64,1,65,Riley,Acc,Participant_Images/6645a794be029b87060615aa/6645a794be029b87060615aa_Images/6645a794be029b87060615aa_Image_7.jpeg,did not like,2.455989137,,,,,,,,,,,,,,,,,,,,,,
,,6645a794be029b87060615aa,6685aa9113c938e83b4f1ea0,66b527036bc26104a960737b,2024-08-08_13h26.42.657,WTP_SM_Choice,2022.2.1,Win32,59.52380952,,,,,space,0.3505,NAN,,NAN,1.73,4.27,,0,65,65,65,1,66,Riley,Acc,Participant_Images/6645a794be029b87060615aa/6645a794be029b87060615aa_Images/6645a794be029b87060615aa_Image_4.jpeg,liked,3.79605092,,,,,,,,,,,,,,,,,,,,,,
,,6645a794be029b87060615aa,6685aa9113c938e83b4f1ea0,66b527036bc26104a960737b,2024-08-08_13h26.42.657,WTP_SM_Choice,2022.2.1,Win32,59.52380952,,,,,space,0.6326,NAN,,NAN,1.73,4.27,,0,66,66,66,1,67,Riley,Acc,Participant_Images/6645a794be029b87060615aa/6645a794be029b87060615aa_Images/6645a794be029b87060615aa_Image_13.jpeg,liked,3.562416326,,,,,,,,,,,,,,,,,,,,,,
,,6645a794be029b87060615aa,6685aa9113c938e83b4f1ea0,66b527036bc26104a960737b,2024-08-08_13h26.42.657,WTP_SM_Choice,2022.2.1,Win32,59.52380952,,,,,space,1.3409,NAN,,NAN,1.73,4.27,,0,67,67,67,1,68,Riley,Acc,Participant_Images/6645a794be029b87060615aa/6645a794be029b87060615aa_Images/6645a794be029b87060615aa_Image_25.jpeg,did not like,2.843822497,,,,,,,,,,,,,,,,,,,,,,
,,6645a794be029b87060615aa,6685aa9113c938e83b4f1ea0,66b527036bc26104a960737b,2024-08-08_13h26.42.657,WTP_SM_Choice,2022.2.1,Win32,59.52380952,,,,,space,0.6166,NAN,,NAN,1.73,4.27,,0,68,68,68,1,69,Riley,Acc,Participant_Images/6645a794be029b87060615aa/6645a794be029b87060615aa_Images/6645a794be029b87060615aa_Image_22.jpeg,liked,3.546495948,,,,,,,,,,,,,,,,,,,,,,
,,6645a794be029b87060615aa,6685aa9113c938e83b4f1ea0,66b527036bc26104a960737b,2024-08-08_13h26.42.657,WTP_SM_Choice,2022.2.1,Win32,59.52380952,,,,,,,,,,,,,,,,,,66,,,,,,space,3.1869,space,0.5894,0.01,1,2.649,0,0,0,0,1,Going on coffee and thrifting dates,Listening to music that they like,0.01,0.04,1.1,1,,,,
,,6645a794be029b87060615aa,6685aa9113c938e83b4f1ea0,66b527036bc26104a960737b,2024-08-08_13h26.42.657,WTP_SM_Choice,2022.2.1,Win32,59.52380952,,,,,,,,,,,,,,,,,,67,,,,,,,,,,0.04,2,2.8204,0,1,1,1,1,Buying makeup to try and experiment with,Singing and dancing by myself,0.02,0.04,8.8,0,,,,
,,6645a794be029b87060615aa,6685aa9113c938e83b4f1ea0,66b527036bc26104a960737b,2024-08-08_13h26.42.657,WTP_SM_Choice,2022.2.1,Win32,59.52380952,,,,,,,,,,,,,,,,,,68,,,,,,,,,,0.03,1,1.5615,0,2,2,2,1,Thrifting in a nearby town,Trying out new hobbies like baking and coffee making,0.03,0.04,4.4,0,,,,
,,6645a794be029b87060615aa,6685aa9113c938e83b4f1ea0,66b527036bc26104a960737b,2024-08-08_13h26.42.657,WTP_SM_Choice,2022.2.1,Win32,59.52380952,,,,,,,,,,,,,,,,,,69,,,,,,,,,,0.04,1,4.4084,0,3,3,3,1,Buying makeup to try and experiment with,Trying out new hobbies like baking and coffee making,0.04,0.04,1.1,0,,,,
,,6645a794be029b87060615aa,6685aa9113c938e83b4f1ea0,66b527036bc26104a960737b,2024-08-08_13h26.42.657,WTP_SM_Choice,2022.2.1,Win32,59.52380952,,,,,,,,,,,,,,,,,,70,,,,,,,,,,0.05,1,2.8149,0,4,4,4,1,Singing and dancing by myself,Talking on the phone and catching up,0.05,0.04,1.1,1,,,,
,,6645a794be029b87060615aa,6685aa9113c938e83b4f1ea0,66b527036bc26104a960737b,2024-08-08_13h26.42.657,WTP_SM_Choice,2022.2.1,Win32,59.52380952,,,,,,,NAN,,NAN,1.9,4.1,,0,69,69,69,1,70,Riley,Acc,Participant_Images/6645a794be029b87060615aa/6645a794be029b87060615aa_Images/6645a794be029b87060615aa_Image_18.jpeg,did not like,1.672012706,,,,,,,,,,,,,,,,,,,,,,
,,6645a794be029b87060615aa,6685aa9113c938e83b4f1ea0,66b527036bc26104a960737b,2024-08-08_13h26.42.657,WTP_SM_Choice,2022.2.1,Win32,59.52380952,,,,,space,0.5365,NAN,,NAN,1.9,4.1,,0,70,70,70,1,71,Riley,Acc,Participant_Images/6645a794be029b87060615aa/6645a794be029b87060615aa_Images/6645a794be029b87060615aa_Image_23.jpeg,liked,4.942172136,,,,,,,,,,,,,,,,,,,,,,
,,6645a794be029b87060615aa,6685aa9113c938e83b4f1ea0,66b527036bc26104a960737b,2024-08-08_13h26.42.657,WTP_SM_Choice,2022.2.1,Win32,59.52380952,,,,,space,0.6553,NAN,,NAN,1.9,4.1,,0,71,71,71,1,72,Riley,Acc,Participant_Images/6645a794be029b87060615aa/6645a794be029b87060615aa_Images/6645a794be029b87060615aa_Image_15.jpeg,liked,2.50187214,,,,,,,,,,,,,,,,,,,,,,
,,6645a794be029b87060615aa,6685aa9113c938e83b4f1ea0,66b527036bc26104a960737b,2024-08-08_13h26.42.657,WTP_SM_Choice,2022.2.1,Win32,59.52380952,,,,,space,0.3946,NAN,,NAN,1.9,4.1,,0,72,72,72,1,73,Riley,Acc,Participant_Images/6645a794be029b87060615aa/6645a794be029b87060615aa_Images/6645a794be029b87060615aa_Image_17.jpeg,liked,2.071164779,,,,,,,,,,,,,,,,,,,,,,
,,6645a794be029b87060615aa,6685aa9113c938e83b4f1ea0,66b527036bc26104a960737b,2024-08-08_13h26.42.657,WTP_SM_Choice,2022.2.1,Win32,59.52380952,,,,,space,1.6347,NAN,,NAN,1.9,4.1,,0,73,73,73,1,74,Riley,Acc,Participant_Images/6645a794be029b87060615aa/6645a794be029b87060615aa_Images/6645a794be029b87060615aa_Image_8.jpeg,liked,5.336503566,,,,,,,,,,,,,,,,,,,,,,
,,6645a794be029b87060615aa,6685aa9113c938e83b4f1ea0,66b527036bc26104a960737b,2024-08-08_13h26.42.657,WTP_SM_Choice,2022.2.1,Win32,59.52380952,,,,,,,,,,,,,,,,,,71,,,,,,space,0.6032,space,0.6753,0.05,2,1.719,0,0,0,0,1,Thrifting in a nearby town,Singing and dancing by myself,0.01,0.05,3.3,0,,,,
,,6645a794be029b87060615aa,6685aa9113c938e83b4f1ea0,66b527036bc26104a960737b,2024-08-08_13h26.42.657,WTP_SM_Choice,2022.2.1,Win32,59.52380952,,,,,,,,,,,,,,,,,,72,,,,,,,,,,0.02,1,1.8095,0,1,1,1,1,Baking something in the kitchen,Planning solo dates for the weekend,0.02,0.05,8.8,0,,,,
,,6645a794be029b87060615aa,6685aa9113c938e83b4f1ea0,66b527036bc26104a960737b,2024-08-08_13h26.42.657,WTP_SM_Choice,2022.2.1,Win32,59.52380952,,,,,,,,,,,,,,,,,,73,,,,,,,,,,0.03,1,1.828,0,2,2,2,1,Exercising together after work,Singing and dancing by myself,0.03,0.05,3.3,0,,,,
,,6645a794be029b87060615aa,6685aa9113c938e83b4f1ea0,66b527036bc26104a960737b,2024-08-08_13h26.42.657,WTP_SM_Choice,2022.2.1,Win32,59.52380952,,,,,,,,,,,,,,,,,,74,,,,,,,,,,0.04,1,3.9685,0,3,3,3,1,Buying stuff online for me and my pets,Taking walks in the park,0.04,0.05,4.4,1,,,,
,,6645a794be029b87060615aa,6685aa9113c938e83b4f1ea0,66b527036bc26104a960737b,2024-08-08_13h26.42.657,WTP_SM_Choice,2022.2.1,Win32,59.52380952,,,,,,,,,,,,,,,,,,75,,,,,,,,,,0.05,1,2.4091,0,4,4,4,1,Baking something in the kitchen,Going to the gym and listening to a new podcast episode,0.05,0.05,3.3,0,,,,
,,6645a794be029b87060615aa,6685aa9113c938e83b4f1ea0,66b527036bc26104a960737b,2024-08-08_13h26.42.657,WTP_SM_Choice,2022.2.1,Win32,59.52380952,,,,,,,5,,7,2.09,3.91,,0,74,74,74,1,75,Riley,Acc,Participant_Images/6645a794be029b87060615aa/6645a794be029b87060615aa_Images/6645a794be029b87060615aa_Image_3.jpeg,did not like,2.642157193,,,,,,,,,,,,,,,,,,,space,1.9274,,
,,6645a794be029b87060615aa,6685aa9113c938e83b4f1ea0,66b527036bc26104a960737b,2024-08-08_13h26.42.657,WTP_SM_Choice,2022.2.1,Win32,59.52380952,,,space,1.5913,space,1.9598,NAN,,NAN,2.09,3.91,,0,75,75,75,1,76,Alex,Rej,Participant_Images/6645a794be029b87060615aa/6645a794be029b87060615aa_Images/6645a794be029b87060615aa_Image_4.jpeg,did not like,4.456234322,,,,,,,,,,,,,,,,,,,,,,
,,6645a794be029b87060615aa,6685aa9113c938e83b4f1ea0,66b527036bc26104a960737b,2024-08-08_13h26.42.657,WTP_SM_Choice,2022.2.1,Win32,59.52380952,,,,,space,0.5248,NAN,,NAN,2.09,3.91,,0,76,76,76,1,77,Alex,Rej,Participant_Images/6645a794be029b87060615aa/6645a794be029b87060615aa_Images/6645a794be029b87060615aa_Image_16.jpeg,liked,4.438512181,,,,,,,,,,,,,,,,,,,,,,
,,6645a794be029b87060615aa,6685aa9113c938e83b4f1ea0,66b527036bc26104a960737b,2024-08-08_13h26.42.657,WTP_SM_Choice,2022.2.1,Win32,59.52380952,,,,,space,0.6984,NAN,,NAN,2.09,3.91,,0,77,77,77,1,78,Alex,Rej,Participant_Images/6645a794be029b87060615aa/6645a794be029b87060615aa_Images/6645a794be029b87060615aa_Image_8.jpeg,did not like,2.682944783,,,,,,,,,,,,,,,,,,,,,,
,,6645a794be029b87060615aa,6685aa9113c938e83b4f1ea0,66b527036bc26104a960737b,2024-08-08_13h26.42.657,WTP_SM_Choice,2022.2.1,Win32,59.52380952,,,,,space,0.6397,NAN,,NAN,2.09,3.91,,0,78,78,78,1,79,Alex,Rej,Participant_Images/6645a794be029b87060615aa/6645a794be029b87060615aa_Images/6645a794be029b87060615aa_Image_1.jpeg,liked,4.51984296,,,,,,,,,,,,,,,,,,,,,,
,,6645a794be029b87060615aa,6685aa9113c938e83b4f1ea0,66b527036bc26104a960737b,2024-08-08_13h26.42.657,WTP_SM_Choice,2022.2.1,Win32,59.52380952,,,,,,,,,,,,,,,,,,76,,,,,,space,0.9924,space,0.3833,0.01,2,2.3421,0,0,0,0,1,Listening to music,Listening to music that they like,0.01,0.01,1.1,1,,,,
,,6645a794be029b87060615aa,6685aa9113c938e83b4f1ea0,66b527036bc26104a960737b,2024-08-08_13h26.42.657,WTP_SM_Choice,2022.2.1,Win32,59.52380952,,,,,,,,,,,,,,,,,,77,,,,,,,,,,0.01,2,2.2877,0,1,1,1,1,Buying makeup to try and experiment with,Going on coffee and thrifting dates,0.02,0.01,8.8,0,,,,
,,6645a794be029b87060615aa,6685aa9113c938e83b4f1ea0,66b527036bc26104a960737b,2024-08-08_13h26.42.657,WTP_SM_Choice,2022.2.1,Win32,59.52380952,,,,,,,,,,,,,,,,,,78,,,,,,,,,,0.01,2,1.9048,0,2,2,2,1,Exercising together after work,Trying out new hobbies like baking and coffee making,0.03,0.01,1.1,0,,,,
,,6645a794be029b87060615aa,6685aa9113c938e83b4f1ea0,66b527036bc26104a960737b,2024-08-08_13h26.42.657,WTP_SM_Choice,2022.2.1,Win32,59.52380952,,,,,,,,,,,,,,,,,,79,,,,,,,,,,0.04,1,3.0039,0,3,3,3,1,Buying makeup to try and experiment with,Going to the gym and listening to a new podcast episode,0.04,0.01,1.1,0,,,,
,,6645a794be029b87060615aa,6685aa9113c938e83b4f1ea0,66b527036bc26104a960737b,2024-08-08_13h26.42.657,WTP_SM_Choice,2022.2.1,Win32,59.52380952,,,,,,,,,,,,,,,,,,80,,,,,,,,,,0.01,2,1.666,0,4,4,4,1,Baking something in the kitchen,Listening to music,0.05,0.01,4.4,0,,,,
,,6645a794be029b87060615aa,6685aa9113c938e83b4f1ea0,66b527036bc26104a960737b,2024-08-08_13h26.42.657,WTP_SM_Choice,2022.2.1,Win32,59.52380952,,,,,,,NAN,,NAN,2.17,3.83,,0,79,79,79,1,80,Alex,Rej,Participant_Images/6645a794be029b87060615aa/6645a794be029b87060615aa_Images/6645a794be029b87060615aa_Image_17.jpeg,did not like,3.195382774,,,,,,,,,,,,,,,,,,,,,,
,,6645a794be029b87060615aa,6685aa9113c938e83b4f1ea0,66b527036bc26104a960737b,2024-08-08_13h26.42.657,WTP_SM_Choice,2022.2.1,Win32,59.52380952,,,,,space,0.9164,NAN,,NAN,2.17,3.83,,0,80,80,80,1,81,Alex,Rej,Participant_Images/6645a794be029b87060615aa/6645a794be029b87060615aa_Images/6645a794be029b87060615aa_Image_3.jpeg,did not like,1.779333479,,,,,,,,,,,,,,,,,,,,,,
,,6645a794be029b87060615aa,6685aa9113c938e83b4f1ea0,66b527036bc26104a960737b,2024-08-08_13h26.42.657,WTP_SM_Choice,2022.2.1,Win32,59.52380952,,,,,space,3.0155,NAN,,NAN,2.17,3.83,,0,81,81,81,1,82,Alex,Rej,Participant_Images/6645a794be029b87060615aa/6645a794be029b87060615aa_Images/6645a794be029b87060615aa_Image_6.jpeg,did not like,4.312468682,,,,,,,,,,,,,,,,,,,,,,
,,6645a794be029b87060615aa,6685aa9113c938e83b4f1ea0,66b527036bc26104a960737b,2024-08-08_13h26.42.657,WTP_SM_Choice,2022.2.1,Win32,59.52380952,,,,,space,13.3544,NAN,,NAN,2.17,3.83,,0,82,82,82,1,83,Alex,Rej,Participant_Images/6645a794be029b87060615aa/6645a794be029b87060615aa_Images/6645a794be029b87060615aa_Image_9.jpeg,did not like,4.940433059,,,,,,,,,,,,,,,,,,,,,,
,,6645a794be029b87060615aa,6685aa9113c938e83b4f1ea0,66b527036bc26104a960737b,2024-08-08_13h26.42.657,WTP_SM_Choice,2022.2.1,Win32,59.52380952,,,,,space,3.5745,NAN,,NAN,2.17,3.83,,0,83,83,83,1,84,Alex,Rej,Participant_Images/6645a794be029b87060615aa/6645a794be029b87060615aa_Images/6645a794be029b87060615aa_Image_20.jpeg,did not like,2.7105123,,,,,,,,,,,,,,,,,,,,,,
,,6645a794be029b87060615aa,6685aa9113c938e83b4f1ea0,66b527036bc26104a960737b,2024-08-08_13h26.42.657,WTP_SM_Choice,2022.2.1,Win32,59.52380952,,,,,,,,,,,,,,,,,,81,,,,,,space,17.4831,space,15.9329,0.01,1,1.5873,0,0,0,0,1,Trying out new hobbies like baking and coffee making,Listening to music that they like,0.01,0.02,3.3,1,,,,
,,6645a794be029b87060615aa,6685aa9113c938e83b4f1ea0,66b527036bc26104a960737b,2024-08-08_13h26.42.657,WTP_SM_Choice,2022.2.1,Win32,59.52380952,,,,,,,,,,,,,,,,,,82,,,,,,,,,,0.02,2,2.8873,0,1,1,1,1,Shopping around town for things for school,Getting food and hanging out,0.02,0.02,4.4,1,,,,
,,6645a794be029b87060615aa,6685aa9113c938e83b4f1ea0,66b527036bc26104a960737b,2024-08-08_13h26.42.657,WTP_SM_Choice,2022.2.1,Win32,59.52380952,,,,,,,,,,,,,,,,,,83,,,,,,,,,,0.02,2,2.7589,0,2,2,2,1,Buying makeup to try and experiment with,Shopping around town for things for school,0.03,0.02,1.1,0,,,,
,,6645a794be029b87060615aa,6685aa9113c938e83b4f1ea0,66b527036bc26104a960737b,2024-08-08_13h26.42.657,WTP_SM_Choice,2022.2.1,Win32,59.52380952,,,,,,,,,,,,,,,,,,84,,,,,,,,,,0.02,2,2.3062,0,3,3,3,1,Decorating desserts for a weekend event,Planning birthday gifts for my friends and family,0.04,0.02,3.3,0,,,,
,,6645a794be029b87060615aa,6685aa9113c938e83b4f1ea0,66b527036bc26104a960737b,2024-08-08_13h26.42.657,WTP_SM_Choice,2022.2.1,Win32,59.52380952,,,,,,,,,,,,,,,,,,85,,,,,,,,,,0.02,2,2.7804,0,4,4,4,1,Going on coffee and thrifting dates,Getting food and hanging out,0.05,0.02,3.3,1,,,,
,,6645a794be029b87060615aa,6685aa9113c938e83b4f1ea0,66b527036bc26104a960737b,2024-08-08_13h26.42.657,WTP_SM_Choice,2022.2.1,Win32,59.52380952,,,,,,,NAN,,NAN,2.26,3.74,,0,84,84,84,1,85,Alex,Rej,Participant_Images/6645a794be029b87060615aa/6645a794be029b87060615aa_Images/6645a794be029b87060615aa_Image_25.jpeg,did not like,3.602308302,,,,,,,,,,,,,,,,,,,,,,
,,6645a794be029b87060615aa,6685aa9113c938e83b4f1ea0,66b527036bc26104a960737b,2024-08-08_13h26.42.657,WTP_SM_Choice,2022.2.1,Win32,59.52380952,,,,,space,0.2815,NAN,,NAN,2.26,3.74,,0,85,85,85,1,86,Alex,Rej,Participant_Images/6645a794be029b87060615aa/6645a794be029b87060615aa_Images/6645a794be029b87060615aa_Image_18.jpeg,liked,4.106391878,,,,,,,,,,,,,,,,,,,,,,
,,6645a794be029b87060615aa,6685aa9113c938e83b4f1ea0,66b527036bc26104a960737b,2024-08-08_13h26.42.657,WTP_SM_Choice,2022.2.1,Win32,59.52380952,,,,,space,1.7367,NAN,,NAN,2.26,3.74,,0,86,86,86,1,87,Alex,Rej,Participant_Images/6645a794be029b87060615aa/6645a794be029b87060615aa_Images/6645a794be029b87060615aa_Image_22.jpeg,did not like,3.799433026,,,,,,,,,,,,,,,,,,,,,,
,,6645a794be029b87060615aa,6685aa9113c938e83b4f1ea0,66b527036bc26104a960737b,2024-08-08_13h26.42.657,WTP_SM_Choice,2022.2.1,Win32,59.52380952,,,,,space,2.2645,NAN,,NAN,2.26,3.74,,0,87,87,87,1,88,Alex,Rej,Participant_Images/6645a794be029b87060615aa/6645a794be029b87060615aa_Images/6645a794be029b87060615aa_Image_19.jpeg,did not like,5.246980764,,,,,,,,,,,,,,,,,,,,,,
,,6645a794be029b87060615aa,6685aa9113c938e83b4f1ea0,66b527036bc26104a960737b,2024-08-08_13h26.42.657,WTP_SM_Choice,2022.2.1,Win32,59.52380952,,,,,space,0.2682,NAN,,NAN,2.26,3.74,,0,88,88,88,1,89,Alex,Rej,Participant_Images/6645a794be029b87060615aa/6645a794be029b87060615aa_Images/6645a794be029b87060615aa_Image_14.jpeg,liked,3.30081769,,,,,,,,,,,,,,,,,,,,,,
,,6645a794be029b87060615aa,6685aa9113c938e83b4f1ea0,66b527036bc26104a960737b,2024-08-08_13h26.42.657,WTP_SM_Choice,2022.2.1,Win32,59.52380952,,,,,,,,,,,,,,,,,,86,,,,,,space,0.3331,space,0.4006,0.03,2,4.4091,0,0,0,0,1,Listening to music,Talking on the phone and catching up,0.01,0.03,1.1,1,,,,
,,6645a794be029b87060615aa,6685aa9113c938e83b4f1ea0,66b527036bc26104a960737b,2024-08-08_13h26.42.657,WTP_SM_Choice,2022.2.1,Win32,59.52380952,,,,,,,,,,,,,,,,,,87,,,,,,,,,,0.02,1,3.9946,0,1,1,1,1,Baking something in the kitchen,Trying out new hobbies like baking and coffee making,0.02,0.03,4.4,0,,,,
,,6645a794be029b87060615aa,6685aa9113c938e83b4f1ea0,66b527036bc26104a960737b,2024-08-08_13h26.42.657,WTP_SM_Choice,2022.2.1,Win32,59.52380952,,,,,,,,,,,,,,,,,,88,,,,,,,,,,0.03,1,1.731,0,2,2,2,1,Buying stuff online for me and my pets,Exercising together after work,0.03,0.03,1.1,1,,,,
,,6645a794be029b87060615aa,6685aa9113c938e83b4f1ea0,66b527036bc26104a960737b,2024-08-08_13h26.42.657,WTP_SM_Choice,2022.2.1,Win32,59.52380952,,,,,,,,,,,,,,,,,,89,,,,,,,,,,0.03,2,2.3843,0,3,3,3,1,Taking walks in the park,Listening to music,0.04,0.03,3.3,0,,,,
,,6645a794be029b87060615aa,6685aa9113c938e83b4f1ea0,66b527036bc26104a960737b,2024-08-08_13h26.42.657,WTP_SM_Choice,2022.2.1,Win32,59.52380952,,,,,,,,,,,,,,,,,,90,,,,,,,,,,0.03,2,2.3981,0,4,4,4,1,Listening to music that they like,Singing and dancing by myself,0.05,0.03,8.8,0,,,,
,,6645a794be029b87060615aa,6685aa9113c938e83b4f1ea0,66b527036bc26104a960737b,2024-08-08_13h26.42.657,WTP_SM_Choice,2022.2.1,Win32,59.52380952,,,,,,,NAN,,NAN,2.4,3.6,,0,89,89,89,1,90,Alex,Rej,Participant_Images/6645a794be029b87060615aa/6645a794be029b87060615aa_Images/6645a794be029b87060615aa_Image_23.jpeg,liked,1.661473164,,,,,,,,,,,,,,,,,,,,,,
,,6645a794be029b87060615aa,6685aa9113c938e83b4f1ea0,66b527036bc26104a960737b,2024-08-08_13h26.42.657,WTP_SM_Choice,2022.2.1,Win32,59.52380952,,,,,space,1.0287,NAN,,NAN,2.4,3.6,,0,90,90,90,1,91,Alex,Rej,Participant_Images/6645a794be029b87060615aa/6645a794be029b87060615aa_Images/6645a794be029b87060615aa_Image_2.jpeg,did not like,3.613205605,,,,,,,,,,,,,,,,,,,,,,
,,6645a794be029b87060615aa,6685aa9113c938e83b4f1ea0,66b527036bc26104a960737b,2024-08-08_13h26.42.657,WTP_SM_Choice,2022.2.1,Win32,59.52380952,,,,,space,1.0036,NAN,,NAN,2.4,3.6,,0,91,91,91,1,92,Alex,Rej,Participant_Images/6645a794be029b87060615aa/6645a794be029b87060615aa_Images/6645a794be029b87060615aa_Image_13.jpeg,did not like,4.988446431,,,,,,,,,,,,,,,,,,,,,,
,,6645a794be029b87060615aa,6685aa9113c938e83b4f1ea0,66b527036bc26104a960737b,2024-08-08_13h26.42.657,WTP_SM_Choice,2022.2.1,Win32,59.52380952,,,,,space,1.2022,NAN,,NAN,2.4,3.6,,0,92,92,92,1,93,Alex,Rej,Participant_Images/6645a794be029b87060615aa/6645a794be029b87060615aa_Images/6645a794be029b87060615aa_Image_10.jpeg,liked,3.470791822,,,,,,,,,,,,,,,,,,,,,,
,,6645a794be029b87060615aa,6685aa9113c938e83b4f1ea0,66b527036bc26104a960737b,2024-08-08_13h26.42.657,WTP_SM_Choice,2022.2.1,Win32,59.52380952,,,,,space,2.3987,NAN,,NAN,2.4,3.6,,0,93,93,93,1,94,Alex,Rej,Participant_Images/6645a794be029b87060615aa/6645a794be029b87060615aa_Images/6645a794be029b87060615aa_Image_15.jpeg,liked,3.820572462,,,,,,,,,,,,,,,,,,,,,,
,,6645a794be029b87060615aa,6685aa9113c938e83b4f1ea0,66b527036bc26104a960737b,2024-08-08_13h26.42.657,WTP_SM_Choice,2022.2.1,Win32,59.52380952,,,,,,,,,,,,,,,,,,91,,,,,,space,1.9922,space,0.3331,0.01,1,1.4832,0,0,0,0,1,Taking walks in the park,Shopping around town for things for school,0.01,0.04,3.3,0,,,,
,,6645a794be029b87060615aa,6685aa9113c938e83b4f1ea0,66b527036bc26104a960737b,2024-08-08_13h26.42.657,WTP_SM_Choice,2022.2.1,Win32,59.52380952,,,,,,,,,,,,,,,,,,92,,,,,,,,,,0.02,1,1.8788,0,1,1,1,1,Trying out new hobbies like baking and coffee making,Getting food and hanging out,0.02,0.04,8.8,1,,,,
,,6645a794be029b87060615aa,6685aa9113c938e83b4f1ea0,66b527036bc26104a960737b,2024-08-08_13h26.42.657,WTP_SM_Choice,2022.2.1,Win32,59.52380952,,,,,,,,,,,,,,,,,,93,,,,,,,,,,0.03,1,1.741,0,2,2,2,1,Going to the gym and listening to a new podcast episode,Buying stuff for our pets,0.03,0.04,1.1,1,,,,
,,6645a794be029b87060615aa,6685aa9113c938e83b4f1ea0,66b527036bc26104a960737b,2024-08-08_13h26.42.657,WTP_SM_Choice,2022.2.1,Win32,59.52380952,,,,,,,,,,,,,,,,,,94,,,,,,,,,,0.04,1,6.4577,0,3,3,3,1,Buying stuff online for me and my pets,Thrifting in a nearby town,0.04,0.04,4.4,1,,,,
,,6645a794be029b87060615aa,6685aa9113c938e83b4f1ea0,66b527036bc26104a960737b,2024-08-08_13h26.42.657,WTP_SM_Choice,2022.2.1,Win32,59.52380952,,,,,,,,,,,,,,,,,,95,,,,,,,,,,0.04,2,3.6389,0,4,4,4,1,Buying stuff online for me and my pets,Listening to music that they like,0.05,0.04,4.4,1,,,,
,,6645a794be029b87060615aa,6685aa9113c938e83b4f1ea0,66b527036bc26104a960737b,2024-08-08_13h26.42.657,WTP_SM_Choice,2022.2.1,Win32,59.52380952,,,,,,,NAN,,NAN,2.54,3.46,,0,94,94,94,1,95,Alex,Rej,Participant_Images/6645a794be029b87060615aa/6645a794be029b87060615aa_Images/6645a794be029b87060615aa_Image_7.jpeg,did not like,2.455989137,,,,,,,,,,,,,,,,,,,,,,
,,6645a794be029b87060615aa,6685aa9113c938e83b4f1ea0,66b527036bc26104a960737b,2024-08-08_13h26.42.657,WTP_SM_Choice,2022.2.1,Win32,59.52380952,,,,,space,0.6536,NAN,,NAN,2.54,3.46,,0,95,95,95,1,96,Alex,Rej,Participant_Images/6645a794be029b87060615aa/6645a794be029b87060615aa_Images/6645a794be029b87060615aa_Image_11.jpeg,did not like,3.79605092,,,,,,,,,,,,,,,,,,,,,,
,,6645a794be029b87060615aa,6685aa9113c938e83b4f1ea0,66b527036bc26104a960737b,2024-08-08_13h26.42.657,WTP_SM_Choice,2022.2.1,Win32,59.52380952,,,,,space,0.6943,NAN,,NAN,2.54,3.46,,0,96,96,96,1,97,Alex,Rej,Participant_Images/6645a794be029b87060615aa/6645a794be029b87060615aa_Images/6645a794be029b87060615aa_Image_12.jpeg,did not like,3.562416326,,,,,,,,,,,,,,,,,,,,,,
,,6645a794be029b87060615aa,6685aa9113c938e83b4f1ea0,66b527036bc26104a960737b,2024-08-08_13h26.42.657,WTP_SM_Choice,2022.2.1,Win32,59.52380952,,,,,space,1.1104,NAN,,NAN,2.54,3.46,,0,97,97,97,1,98,Alex,Rej,Participant_Images/6645a794be029b87060615aa/6645a794be029b87060615aa_Images/6645a794be029b87060615aa_Image_21.jpeg,did not like,2.843822497,,,,,,,,,,,,,,,,,,,,,,
,,6645a794be029b87060615aa,6685aa9113c938e83b4f1ea0,66b527036bc26104a960737b,2024-08-08_13h26.42.657,WTP_SM_Choice,2022.2.1,Win32,59.52380952,,,,,space,1.1449,NAN,,NAN,2.54,3.46,,0,98,98,98,1,99,Alex,Rej,Participant_Images/6645a794be029b87060615aa/6645a794be029b87060615aa_Images/6645a794be029b87060615aa_Image_24.jpeg,did not like,3.546495948,,,,,,,,,,,,,,,,,,,,,,
,,6645a794be029b87060615aa,6685aa9113c938e83b4f1ea0,66b527036bc26104a960737b,2024-08-08_13h26.42.657,WTP_SM_Choice,2022.2.1,Win32,59.52380952,,,,,,,,,,,,,,,,,,96,,,,,,space,1.2472,space,0.1916,0.01,1,1.8649,0,0,0,0,1,Baking something in the kitchen,Moving furniture in my room,0.01,0.05,3.3,0,,,,
,,6645a794be029b87060615aa,6685aa9113c938e83b4f1ea0,66b527036bc26104a960737b,2024-08-08_13h26.42.657,WTP_SM_Choice,2022.2.1,Win32,59.52380952,,,,,,,,,,,,,,,,,,97,,,,,,,,,,0.02,1,2.0263,0,1,1,1,1,Moving furniture in my room,Buying stuff for our pets,0.02,0.05,1.1,1,,,,
,,6645a794be029b87060615aa,6685aa9113c938e83b4f1ea0,66b527036bc26104a960737b,2024-08-08_13h26.42.657,WTP_SM_Choice,2022.2.1,Win32,59.52380952,,,,,,,,,,,,,,,,,,98,,,,,,,,,,0.03,1,4.3959,0,2,2,2,1,Buying stuff for our pets,Trying out new hobbies like baking and coffee making,0.03,0.05,1.1,0,,,,
,,6645a794be029b87060615aa,6685aa9113c938e83b4f1ea0,66b527036bc26104a960737b,2024-08-08_13h26.42.657,WTP_SM_Choice,2022.2.1,Win32,59.52380952,,,,,,,,,,,,,,,,,,99,,,,,,,,,,0.04,1,3.6628,0,3,3,3,1,Moving furniture in my room,Talking on the phone and catching up,0.04,0.05,3.3,1,,,,
,,6645a794be029b87060615aa,6685aa9113c938e83b4f1ea0,66b527036bc26104a960737b,2024-08-08_13h26.42.657,WTP_SM_Choice,2022.2.1,Win32,59.52380952,,,,,,,,,,,,,,,,,,100,,,,,,,,,,0.05,1,2.1335,0,4,4,4,1,Planning birthday gifts for my friends and family,Buying makeup to try and experiment with,0.05,0.05,4.4,1,,,,
,,6645a794be029b87060615aa,6685aa9113c938e83b4f1ea0,66b527036bc26104a960737b,2024-08-08_13h26.42.657,WTP_SM_Choice,2022.2.1,Win32,59.52380952,,,,,,,3,,4,2.69,3.31,,0,99,99,99,1,100,Alex,Rej,Participant_Images/6645a794be029b87060615aa/6645a794be029b87060615aa_Images/6645a794be029b87060615aa_Image_5.jpeg,did not like,1.672012706,,,,,,,,,,,,,,,,,,,space,1.1078,,
,,6645a794be029b87060615aa,6685aa9113c938e83b4f1ea0,66b527036bc26104a960737b,2024-08-08_13h26.42.657,WTP_SM_Choice,2022.2.1,Win32,59.52380952,,,,,,,,,,,,,,,,,,,,,,,,,,,,,,,,,,,,,,,,,,,,space,3.1133
