endwelcomescreen_keys.keys,endwelcomescreen_keys.rt,participant,STUDY_ID,SESSION_ID,date,expName,psychopyVersion,OS,frameRate,endinstructionscreen_keys.keys,endinstructionscreen_keys.rt,endpartnermatch_keys.keys,endpartnermatch_keys.rt,sharenextphoto_key.keys,sharenextphoto_key.rt,salience_rating,key_resp.keys,stress_level,subtract_bonus,TOTAL_TASK_BONUS,stresslevel_keypress.keys,entiretaskloop.thisRepN,entiretaskloop.thisTrialN,entiretaskloop.thisN,entiretaskloop.thisIndex,entiretaskloop.ran,TrialNumber,Partner,Condition,Photos,Feedback,FeedbackWait,WTP_ins_keys1.keys,WTP_ins_keys1.rt,WTP_ins_keys2.keys,WTP_ins_keys2.rt,decision_price,responses.keys,responses.rt,WTPTaskLoop.thisRepN,WTPTaskLoop.thisTrialN,WTPTaskLoop.thisN,WTPTaskLoop.thisIndex,WTPTaskLoop.ran,right,left,leftmoney,rightmoney,WTP_ITI,social_left,Resume_keys.keys,Resume_keys.rt,end_screen_keys.keys,end_screen_keys.rt
space,4.5118,66463e4efb99fba5a67a010a,6685aa9113c938e83b4f1ea0,66d0cf070883e2a9f2e26a38,2024-08-29_15h57.05.813,WTP_SM_Choice,2022.2.1,MacIntel,63.29113924,,,,,,,,,,,,,,,,,,,,,,,,,,,,,,,,,,,,,,,,,,,,,
,,66463e4efb99fba5a67a010a,6685aa9113c938e83b4f1ea0,66d0cf070883e2a9f2e26a38,2024-08-29_15h57.05.813,WTP_SM_Choice,2022.2.1,MacIntel,63.29113924,space,9.2501,,,,,,,,,,,,,,,,,,,,,,,,,,,,,,,,,,,,,,,,,,,
,,66463e4efb99fba5a67a010a,6685aa9113c938e83b4f1ea0,66d0cf070883e2a9f2e26a38,2024-08-29_15h57.05.813,WTP_SM_Choice,2022.2.1,MacIntel,63.29113924,,,space,1.7959,space,1.5506,NAN,,NAN,0,6,,0,0,0,0,1,1,Alex,Rej,Participant_Images/66463e4efb99fba5a67a010a/66463e4efb99fba5a67a010a_Images/66463e4efb99fba5a67a010a_Image_12.jpeg,did not like,3.613205605,,,,,,,,,,,,,,,,,,,,,,
,,66463e4efb99fba5a67a010a,6685aa9113c938e83b4f1ea0,66d0cf070883e2a9f2e26a38,2024-08-29_15h57.05.813,WTP_SM_Choice,2022.2.1,MacIntel,63.29113924,,,,,space,0.8512,NAN,,NAN,0,6,,0,1,1,1,1,2,Alex,Rej,Participant_Images/66463e4efb99fba5a67a010a/66463e4efb99fba5a67a010a_Images/66463e4efb99fba5a67a010a_Image_21.jpeg,liked,4.988446431,,,,,,,,,,,,,,,,,,,,,,
,,66463e4efb99fba5a67a010a,6685aa9113c938e83b4f1ea0,66d0cf070883e2a9f2e26a38,2024-08-29_15h57.05.813,WTP_SM_Choice,2022.2.1,MacIntel,63.29113924,,,,,space,1.8199,NAN,,NAN,0,6,,0,2,2,2,1,3,Alex,Rej,Participant_Images/66463e4efb99fba5a67a010a/66463e4efb99fba5a67a010a_Images/66463e4efb99fba5a67a010a_Image_5.jpeg,did not like,3.470791822,,,,,,,,,,,,,,,,,,,,,,
,,66463e4efb99fba5a67a010a,6685aa9113c938e83b4f1ea0,66d0cf070883e2a9f2e26a38,2024-08-29_15h57.05.813,WTP_SM_Choice,2022.2.1,MacIntel,63.29113924,,,,,space,1.3515,NAN,,NAN,0,6,,0,3,3,3,1,4,Alex,Rej,Participant_Images/66463e4efb99fba5a67a010a/66463e4efb99fba5a67a010a_Images/66463e4efb99fba5a67a010a_Image_22.jpeg,did not like,3.820572462,,,,,,,,,,,,,,,,,,,,,,
,,66463e4efb99fba5a67a010a,6685aa9113c938e83b4f1ea0,66d0cf070883e2a9f2e26a38,2024-08-29_15h57.05.813,WTP_SM_Choice,2022.2.1,MacIntel,63.29113924,,,,,,,,,,,,,,,,,,1,,,,,,space,27.1503,space,8.6337,0.01,2,9.3354,0,0,0,0,1,Shop in a new city and having laughs with my childhood buddies,Learn spanish in a dark basement,0.01,0.01,4.4,0,,,,
,,66463e4efb99fba5a67a010a,6685aa9113c938e83b4f1ea0,66d0cf070883e2a9f2e26a38,2024-08-29_15h57.05.813,WTP_SM_Choice,2022.2.1,MacIntel,63.29113924,,,,,,,,,,,,,,,,,,2,,,,,,,,,,0.02,1,4.4965,0,1,1,1,1,Listen to ai music while laying on my carpet,Go to the movies at a luxury theatre ,0.02,0.01,8.8,1,,,,
,,66463e4efb99fba5a67a010a,6685aa9113c938e83b4f1ea0,66d0cf070883e2a9f2e26a38,2024-08-29_15h57.05.813,WTP_SM_Choice,2022.2.1,MacIntel,63.29113924,,,,,,,,,,,,,,,,,,3,,,,,,,,,,0.01,2,3.6318,0,2,2,2,1,Eat breakfast in my living room,Cook food with new family members I just met,0.03,0.01,3.3,1,,,,
,,66463e4efb99fba5a67a010a,6685aa9113c938e83b4f1ea0,66d0cf070883e2a9f2e26a38,2024-08-29_15h57.05.813,WTP_SM_Choice,2022.2.1,MacIntel,63.29113924,,,,,,,,,,,,,,,,,,4,,,,,,,,,,0.01,2,4.0476,0,3,3,3,1,Shop in a new city and having laughs with my childhood buddies,Listen to ai music while laying on my carpet,0.04,0.01,1.1,0,,,,
,,66463e4efb99fba5a67a010a,6685aa9113c938e83b4f1ea0,66d0cf070883e2a9f2e26a38,2024-08-29_15h57.05.813,WTP_SM_Choice,2022.2.1,MacIntel,63.29113924,,,,,,,,,,,,,,,,,,5,,,,,,,,,,0.01,2,2.7112,0,4,4,4,1,Send emails to potential clients while on a train to NYC,Swim in the pool with family,0.05,0.01,1.1,1,,,,
,,66463e4efb99fba5a67a010a,6685aa9113c938e83b4f1ea0,66d0cf070883e2a9f2e26a38,2024-08-29_15h57.05.813,WTP_SM_Choice,2022.2.1,MacIntel,63.29113924,,,,,,,NAN,,NAN,0.06,5.94,,0,4,4,4,1,5,Alex,Rej,Participant_Images/66463e4efb99fba5a67a010a/66463e4efb99fba5a67a010a_Images/66463e4efb99fba5a67a010a_Image_10.jpeg,did not like,2.455989137,,,,,,,,,,,,,,,,,,,,,,
,,66463e4efb99fba5a67a010a,6685aa9113c938e83b4f1ea0,66d0cf070883e2a9f2e26a38,2024-08-29_15h57.05.813,WTP_SM_Choice,2022.2.1,MacIntel,63.29113924,,,,,space,1.6849,NAN,,NAN,0.06,5.94,,0,5,5,5,1,6,Alex,Rej,Participant_Images/66463e4efb99fba5a67a010a/66463e4efb99fba5a67a010a_Images/66463e4efb99fba5a67a010a_Image_16.jpeg,liked,3.79605092,,,,,,,,,,,,,,,,,,,,,,
,,66463e4efb99fba5a67a010a,6685aa9113c938e83b4f1ea0,66d0cf070883e2a9f2e26a38,2024-08-29_15h57.05.813,WTP_SM_Choice,2022.2.1,MacIntel,63.29113924,,,,,space,1.3528,NAN,,NAN,0.06,5.94,,0,6,6,6,1,7,Alex,Rej,Participant_Images/66463e4efb99fba5a67a010a/66463e4efb99fba5a67a010a_Images/66463e4efb99fba5a67a010a_Image_11.jpeg,did not like,3.562416326,,,,,,,,,,,,,,,,,,,,,,
,,66463e4efb99fba5a67a010a,6685aa9113c938e83b4f1ea0,66d0cf070883e2a9f2e26a38,2024-08-29_15h57.05.813,WTP_SM_Choice,2022.2.1,MacIntel,63.29113924,,,,,space,0.9028,NAN,,NAN,0.06,5.94,,0,7,7,7,1,8,Alex,Rej,Participant_Images/66463e4efb99fba5a67a010a/66463e4efb99fba5a67a010a_Images/66463e4efb99fba5a67a010a_Image_14.jpeg,did not like,2.843822497,,,,,,,,,,,,,,,,,,,,,,
,,66463e4efb99fba5a67a010a,6685aa9113c938e83b4f1ea0,66d0cf070883e2a9f2e26a38,2024-08-29_15h57.05.813,WTP_SM_Choice,2022.2.1,MacIntel,63.29113924,,,,,space,0.8317,NAN,,NAN,0.06,5.94,,0,8,8,8,1,9,Alex,Rej,Participant_Images/66463e4efb99fba5a67a010a/66463e4efb99fba5a67a010a_Images/66463e4efb99fba5a67a010a_Image_7.jpeg,did not like,3.546495948,,,,,,,,,,,,,,,,,,,,,,
,,66463e4efb99fba5a67a010a,6685aa9113c938e83b4f1ea0,66d0cf070883e2a9f2e26a38,2024-08-29_15h57.05.813,WTP_SM_Choice,2022.2.1,MacIntel,63.29113924,,,,,,,,,,,,,,,,,,6,,,,,,space,10.7512,space,3.0676,0.01,1,1.4757,0,0,0,0,1,Sleep over a in-laws house and making nachos,Send emails to potential clients while on a train to NYC,0.01,0.02,3.3,0,,,,
,,66463e4efb99fba5a67a010a,6685aa9113c938e83b4f1ea0,66d0cf070883e2a9f2e26a38,2024-08-29_15h57.05.813,WTP_SM_Choice,2022.2.1,MacIntel,63.29113924,,,,,,,,,,,,,,,,,,7,,,,,,,,,,0.02,2,2.3637,0,1,1,1,1,Code applications in my bedroom,Go to the movies at a luxury theatre ,0.02,0.02,1.1,1,,,,
,,66463e4efb99fba5a67a010a,6685aa9113c938e83b4f1ea0,66d0cf070883e2a9f2e26a38,2024-08-29_15h57.05.813,WTP_SM_Choice,2022.2.1,MacIntel,63.29113924,,,,,,,,,,,,,,,,,,8,,,,,,,,,,0.02,2,3.3543,0,2,2,2,1,Cook food with new family members I just met,Spin my DJ records in my studio,0.03,0.02,1.1,0,,,,
,,66463e4efb99fba5a67a010a,6685aa9113c938e83b4f1ea0,66d0cf070883e2a9f2e26a38,2024-08-29_15h57.05.813,WTP_SM_Choice,2022.2.1,MacIntel,63.29113924,,,,,,,,,,,,,,,,,,9,,,,,,,,,,0.02,2,1.6186,0,3,3,3,1,Send emails to potential clients while on a train to NYC,Cook food with new family members I just met,0.04,0.02,4.4,1,,,,
,,66463e4efb99fba5a67a010a,6685aa9113c938e83b4f1ea0,66d0cf070883e2a9f2e26a38,2024-08-29_15h57.05.813,WTP_SM_Choice,2022.2.1,MacIntel,63.29113924,,,,,,,,,,,,,,,,,,10,,,,,,,,,,0.02,2,2.9756,0,4,4,4,1,Watch animal shows on  a friday night at my parents house,Send emails to potential clients while on a train to NYC,0.05,0.02,1.1,0,,,,
,,66463e4efb99fba5a67a010a,6685aa9113c938e83b4f1ea0,66d0cf070883e2a9f2e26a38,2024-08-29_15h57.05.813,WTP_SM_Choice,2022.2.1,MacIntel,63.29113924,,,,,,,NAN,,NAN,0.15,5.85,,0,9,9,9,1,10,Alex,Rej,Participant_Images/66463e4efb99fba5a67a010a/66463e4efb99fba5a67a010a_Images/66463e4efb99fba5a67a010a_Image_17.jpeg,did not like,1.672012706,,,,,,,,,,,,,,,,,,,,,,
,,66463e4efb99fba5a67a010a,6685aa9113c938e83b4f1ea0,66d0cf070883e2a9f2e26a38,2024-08-29_15h57.05.813,WTP_SM_Choice,2022.2.1,MacIntel,63.29113924,,,,,space,1.2008,NAN,,NAN,0.15,5.85,,0,10,10,10,1,11,Alex,Rej,Participant_Images/66463e4efb99fba5a67a010a/66463e4efb99fba5a67a010a_Images/66463e4efb99fba5a67a010a_Image_6.jpeg,did not like,4.942172136,,,,,,,,,,,,,,,,,,,,,,
,,66463e4efb99fba5a67a010a,6685aa9113c938e83b4f1ea0,66d0cf070883e2a9f2e26a38,2024-08-29_15h57.05.813,WTP_SM_Choice,2022.2.1,MacIntel,63.29113924,,,,,space,2.02,NAN,,NAN,0.15,5.85,,0,11,11,11,1,12,Alex,Rej,Participant_Images/66463e4efb99fba5a67a010a/66463e4efb99fba5a67a010a_Images/66463e4efb99fba5a67a010a_Image_24.jpeg,liked,2.50187214,,,,,,,,,,,,,,,,,,,,,,
,,66463e4efb99fba5a67a010a,6685aa9113c938e83b4f1ea0,66d0cf070883e2a9f2e26a38,2024-08-29_15h57.05.813,WTP_SM_Choice,2022.2.1,MacIntel,63.29113924,,,,,space,2.1697,NAN,,NAN,0.15,5.85,,0,12,12,12,1,13,Alex,Rej,Participant_Images/66463e4efb99fba5a67a010a/66463e4efb99fba5a67a010a_Images/66463e4efb99fba5a67a010a_Image_20.jpeg,liked,2.071164779,,,,,,,,,,,,,,,,,,,,,,
,,66463e4efb99fba5a67a010a,6685aa9113c938e83b4f1ea0,66d0cf070883e2a9f2e26a38,2024-08-29_15h57.05.813,WTP_SM_Choice,2022.2.1,MacIntel,63.29113924,,,,,space,1.6152,NAN,,NAN,0.15,5.85,,0,13,13,13,1,14,Alex,Rej,Participant_Images/66463e4efb99fba5a67a010a/66463e4efb99fba5a67a010a_Images/66463e4efb99fba5a67a010a_Image_18.jpeg,did not like,5.336503566,,,,,,,,,,,,,,,,,,,,,,
,,66463e4efb99fba5a67a010a,6685aa9113c938e83b4f1ea0,66d0cf070883e2a9f2e26a38,2024-08-29_15h57.05.813,WTP_SM_Choice,2022.2.1,MacIntel,63.29113924,,,,,,,,,,,,,,,,,,11,,,,,,space,8.3339,space,1.3723,0.01,1,1.9969,0,0,0,0,1,Board a cruise and survey all the restaurants with family ,Drink a warm beer while walking in the park,0.01,0.03,3.3,0,,,,
,,66463e4efb99fba5a67a010a,6685aa9113c938e83b4f1ea0,66d0cf070883e2a9f2e26a38,2024-08-29_15h57.05.813,WTP_SM_Choice,2022.2.1,MacIntel,63.29113924,,,,,,,,,,,,,,,,,,12,,,,,,,,,,0.02,1,2.4009,0,1,1,1,1,Watch animal shows on  a friday night at my parents house,Spin my DJ records in my studio,0.02,0.03,4.4,0,,,,
,,66463e4efb99fba5a67a010a,6685aa9113c938e83b4f1ea0,66d0cf070883e2a9f2e26a38,2024-08-29_15h57.05.813,WTP_SM_Choice,2022.2.1,MacIntel,63.29113924,,,,,,,,,,,,,,,,,,13,,,,,,,,,,0.03,2,2.3145,0,2,2,2,1,Bet on nfl with my family at the bar,Listen to ai music while laying on my carpet,0.03,0.03,1.1,0,,,,
,,66463e4efb99fba5a67a010a,6685aa9113c938e83b4f1ea0,66d0cf070883e2a9f2e26a38,2024-08-29_15h57.05.813,WTP_SM_Choice,2022.2.1,MacIntel,63.29113924,,,,,,,,,,,,,,,,,,14,,,,,,,,,,0.03,2,2.9855,0,3,3,3,1,watch youtube while watering my garden,Dance to salsa in a new location with my spouse and friends,0.04,0.03,3.3,1,,,,
,,66463e4efb99fba5a67a010a,6685aa9113c938e83b4f1ea0,66d0cf070883e2a9f2e26a38,2024-08-29_15h57.05.813,WTP_SM_Choice,2022.2.1,MacIntel,63.29113924,,,,,,,,,,,,,,,,,,15,,,,,,,,,,0.03,2,3.4577,0,4,4,4,1,Shop in a new city and having laughs with my childhood buddies,Analyze data in a quiet library,0.05,0.03,4.4,0,,,,
,,66463e4efb99fba5a67a010a,6685aa9113c938e83b4f1ea0,66d0cf070883e2a9f2e26a38,2024-08-29_15h57.05.813,WTP_SM_Choice,2022.2.1,MacIntel,63.29113924,,,,,,,NAN,,NAN,0.27,5.73,,0,14,14,14,1,15,Alex,Rej,Participant_Images/66463e4efb99fba5a67a010a/66463e4efb99fba5a67a010a_Images/66463e4efb99fba5a67a010a_Image_23.jpeg,liked,2.642157193,,,,,,,,,,,,,,,,,,,,,,
,,66463e4efb99fba5a67a010a,6685aa9113c938e83b4f1ea0,66d0cf070883e2a9f2e26a38,2024-08-29_15h57.05.813,WTP_SM_Choice,2022.2.1,MacIntel,63.29113924,,,,,space,1.3005,NAN,,NAN,0.27,5.73,,0,15,15,15,1,16,Alex,Rej,Participant_Images/66463e4efb99fba5a67a010a/66463e4efb99fba5a67a010a_Images/66463e4efb99fba5a67a010a_Image_3.jpeg,did not like,4.456234322,,,,,,,,,,,,,,,,,,,,,,
,,66463e4efb99fba5a67a010a,6685aa9113c938e83b4f1ea0,66d0cf070883e2a9f2e26a38,2024-08-29_15h57.05.813,WTP_SM_Choice,2022.2.1,MacIntel,63.29113924,,,,,space,7.3198,NAN,,NAN,0.27,5.73,,0,16,16,16,1,17,Alex,Rej,Participant_Images/66463e4efb99fba5a67a010a/66463e4efb99fba5a67a010a_Images/66463e4efb99fba5a67a010a_Image_25.jpeg,liked,4.438512181,,,,,,,,,,,,,,,,,,,,,,
,,66463e4efb99fba5a67a010a,6685aa9113c938e83b4f1ea0,66d0cf070883e2a9f2e26a38,2024-08-29_15h57.05.813,WTP_SM_Choice,2022.2.1,MacIntel,63.29113924,,,,,space,0.9168,NAN,,NAN,0.27,5.73,,0,17,17,17,1,18,Alex,Rej,Participant_Images/66463e4efb99fba5a67a010a/66463e4efb99fba5a67a010a_Images/66463e4efb99fba5a67a010a_Image_2.jpeg,did not like,2.682944783,,,,,,,,,,,,,,,,,,,,,,
,,66463e4efb99fba5a67a010a,6685aa9113c938e83b4f1ea0,66d0cf070883e2a9f2e26a38,2024-08-29_15h57.05.813,WTP_SM_Choice,2022.2.1,MacIntel,63.29113924,,,,,space,0.828,NAN,,NAN,0.27,5.73,,0,18,18,18,1,19,Alex,Rej,Participant_Images/66463e4efb99fba5a67a010a/66463e4efb99fba5a67a010a_Images/66463e4efb99fba5a67a010a_Image_19.jpeg,did not like,4.51984296,,,,,,,,,,,,,,,,,,,,,,
,,66463e4efb99fba5a67a010a,6685aa9113c938e83b4f1ea0,66d0cf070883e2a9f2e26a38,2024-08-29_15h57.05.813,WTP_SM_Choice,2022.2.1,MacIntel,63.29113924,,,,,,,,,,,,,,,,,,16,,,,,,space,1.1651,space,0.7018,0.01,1,1.6505,0,0,0,0,1,Dance to salsa in a new location with my spouse and friends,Eat breakfast in my living room,0.01,0.04,1.1,0,,,,
,,66463e4efb99fba5a67a010a,6685aa9113c938e83b4f1ea0,66d0cf070883e2a9f2e26a38,2024-08-29_15h57.05.813,WTP_SM_Choice,2022.2.1,MacIntel,63.29113924,,,,,,,,,,,,,,,,,,17,,,,,,,,,,0.02,1,2.3095,0,1,1,1,1,Spin my DJ records in my studio,Catch up with a old cousin on a plane ride to the beach,0.02,0.04,8.8,1,,,,
,,66463e4efb99fba5a67a010a,6685aa9113c938e83b4f1ea0,66d0cf070883e2a9f2e26a38,2024-08-29_15h57.05.813,WTP_SM_Choice,2022.2.1,MacIntel,63.29113924,,,,,,,,,,,,,,,,,,18,,,,,,,,,,0.03,1,3.2492,0,2,2,2,1,Eat breakfast in my living room,Sleep over a in-laws house and making nachos,0.03,0.04,3.3,1,,,,
,,66463e4efb99fba5a67a010a,6685aa9113c938e83b4f1ea0,66d0cf070883e2a9f2e26a38,2024-08-29_15h57.05.813,WTP_SM_Choice,2022.2.1,MacIntel,63.29113924,,,,,,,,,,,,,,,,,,19,,,,,,,,,,0.04,1,4.5784,0,3,3,3,1,Swim in the pool with family,Learn spanish in a dark basement,0.04,0.04,3.3,0,,,,
,,66463e4efb99fba5a67a010a,6685aa9113c938e83b4f1ea0,66d0cf070883e2a9f2e26a38,2024-08-29_15h57.05.813,WTP_SM_Choice,2022.2.1,MacIntel,63.29113924,,,,,,,,,,,,,,,,,,20,,,,,,,,,,0.04,2,2.265,0,4,4,4,1,Learn spanish in a dark basement,Catch up with a old cousin on a plane ride to the beach,0.05,0.04,1.1,1,,,,
,,66463e4efb99fba5a67a010a,6685aa9113c938e83b4f1ea0,66d0cf070883e2a9f2e26a38,2024-08-29_15h57.05.813,WTP_SM_Choice,2022.2.1,MacIntel,63.29113924,,,,,,,NAN,,NAN,0.41,5.59,,0,19,19,19,1,20,Alex,Rej,Participant_Images/66463e4efb99fba5a67a010a/66463e4efb99fba5a67a010a_Images/66463e4efb99fba5a67a010a_Image_13.jpeg,did not like,3.195382774,,,,,,,,,,,,,,,,,,,,,,
,,66463e4efb99fba5a67a010a,6685aa9113c938e83b4f1ea0,66d0cf070883e2a9f2e26a38,2024-08-29_15h57.05.813,WTP_SM_Choice,2022.2.1,MacIntel,63.29113924,,,,,space,2.3522,NAN,,NAN,0.41,5.59,,0,20,20,20,1,21,Alex,Rej,Participant_Images/66463e4efb99fba5a67a010a/66463e4efb99fba5a67a010a_Images/66463e4efb99fba5a67a010a_Image_4.jpeg,did not like,1.779333479,,,,,,,,,,,,,,,,,,,,,,
,,66463e4efb99fba5a67a010a,6685aa9113c938e83b4f1ea0,66d0cf070883e2a9f2e26a38,2024-08-29_15h57.05.813,WTP_SM_Choice,2022.2.1,MacIntel,63.29113924,,,,,space,0.9318,NAN,,NAN,0.41,5.59,,0,21,21,21,1,22,Alex,Rej,Participant_Images/66463e4efb99fba5a67a010a/66463e4efb99fba5a67a010a_Images/66463e4efb99fba5a67a010a_Image_1.jpeg,liked,4.312468682,,,,,,,,,,,,,,,,,,,,,,
,,66463e4efb99fba5a67a010a,6685aa9113c938e83b4f1ea0,66d0cf070883e2a9f2e26a38,2024-08-29_15h57.05.813,WTP_SM_Choice,2022.2.1,MacIntel,63.29113924,,,,,space,1.615,NAN,,NAN,0.41,5.59,,0,22,22,22,1,23,Alex,Rej,Participant_Images/66463e4efb99fba5a67a010a/66463e4efb99fba5a67a010a_Images/66463e4efb99fba5a67a010a_Image_15.jpeg,did not like,4.940433059,,,,,,,,,,,,,,,,,,,,,,
,,66463e4efb99fba5a67a010a,6685aa9113c938e83b4f1ea0,66d0cf070883e2a9f2e26a38,2024-08-29_15h57.05.813,WTP_SM_Choice,2022.2.1,MacIntel,63.29113924,,,,,space,1.8824,NAN,,NAN,0.41,5.59,,0,23,23,23,1,24,Alex,Rej,Participant_Images/66463e4efb99fba5a67a010a/66463e4efb99fba5a67a010a_Images/66463e4efb99fba5a67a010a_Image_8.jpeg,did not like,2.7105123,,,,,,,,,,,,,,,,,,,,,,
,,66463e4efb99fba5a67a010a,6685aa9113c938e83b4f1ea0,66d0cf070883e2a9f2e26a38,2024-08-29_15h57.05.813,WTP_SM_Choice,2022.2.1,MacIntel,63.29113924,,,,,,,,,,,,,,,,,,21,,,,,,space,1.4354,space,0.772,0.01,1,1.2682,0,0,0,0,1,Send emails to potential clients while on a train to NYC,Shop in a new city and having laughs with my childhood buddies,0.01,0.05,8.8,1,,,,
,,66463e4efb99fba5a67a010a,6685aa9113c938e83b4f1ea0,66d0cf070883e2a9f2e26a38,2024-08-29_15h57.05.813,WTP_SM_Choice,2022.2.1,MacIntel,63.29113924,,,,,,,,,,,,,,,,,,22,,,,,,,,,,0.02,1,1.8684,0,1,1,1,1,Spin my DJ records in my studio,Dance to salsa in a new location with my spouse and friends,0.02,0.05,4.4,1,,,,
,,66463e4efb99fba5a67a010a,6685aa9113c938e83b4f1ea0,66d0cf070883e2a9f2e26a38,2024-08-29_15h57.05.813,WTP_SM_Choice,2022.2.1,MacIntel,63.29113924,,,,,,,,,,,,,,,,,,23,,,,,,,,,,0.03,1,2.4,0,2,2,2,1,watch youtube while watering my garden,Watch animal shows on  a friday night at my parents house,0.03,0.05,1.1,1,,,,
,,66463e4efb99fba5a67a010a,6685aa9113c938e83b4f1ea0,66d0cf070883e2a9f2e26a38,2024-08-29_15h57.05.813,WTP_SM_Choice,2022.2.1,MacIntel,63.29113924,,,,,,,,,,,,,,,,,,24,,,,,,,,,,0.04,1,2.2275,0,3,3,3,1,Sleep over a in-laws house and making nachos,Listen to ai music while laying on my carpet,0.04,0.05,4.4,0,,,,
,,66463e4efb99fba5a67a010a,6685aa9113c938e83b4f1ea0,66d0cf070883e2a9f2e26a38,2024-08-29_15h57.05.813,WTP_SM_Choice,2022.2.1,MacIntel,63.29113924,,,,,,,,,,,,,,,,,,25,,,,,,,,,,0.05,2,3.361,0,4,4,4,1,Dance to salsa in a new location with my spouse and friends,Learn spanish in a dark basement,0.05,0.05,3.3,0,,,,
,,66463e4efb99fba5a67a010a,6685aa9113c938e83b4f1ea0,66d0cf070883e2a9f2e26a38,2024-08-29_15h57.05.813,WTP_SM_Choice,2022.2.1,MacIntel,63.29113924,,,,,,,1,,2,0.56,5.44,,0,24,24,24,1,25,Alex,Rej,Participant_Images/66463e4efb99fba5a67a010a/66463e4efb99fba5a67a010a_Images/66463e4efb99fba5a67a010a_Image_9.jpeg,did not like,3.602308302,,,,,,,,,,,,,,,,,,,space,4.8833,,
,,66463e4efb99fba5a67a010a,6685aa9113c938e83b4f1ea0,66d0cf070883e2a9f2e26a38,2024-08-29_15h57.05.813,WTP_SM_Choice,2022.2.1,MacIntel,63.29113924,,,space,1.6798,space,1.2541,NAN,,NAN,0.56,5.44,,0,25,25,25,1,26,Charlie,Acc,Participant_Images/66463e4efb99fba5a67a010a/66463e4efb99fba5a67a010a_Images/66463e4efb99fba5a67a010a_Image_6.jpeg,liked,4.106391878,,,,,,,,,,,,,,,,,,,,,,
,,66463e4efb99fba5a67a010a,6685aa9113c938e83b4f1ea0,66d0cf070883e2a9f2e26a38,2024-08-29_15h57.05.813,WTP_SM_Choice,2022.2.1,MacIntel,63.29113924,,,,,space,2.8659,NAN,,NAN,0.56,5.44,,0,26,26,26,1,27,Charlie,Acc,Participant_Images/66463e4efb99fba5a67a010a/66463e4efb99fba5a67a010a_Images/66463e4efb99fba5a67a010a_Image_19.jpeg,did not like,3.799433026,,,,,,,,,,,,,,,,,,,,,,
,,66463e4efb99fba5a67a010a,6685aa9113c938e83b4f1ea0,66d0cf070883e2a9f2e26a38,2024-08-29_15h57.05.813,WTP_SM_Choice,2022.2.1,MacIntel,63.29113924,,,,,space,1.066,NAN,,NAN,0.56,5.44,,0,27,27,27,1,28,Charlie,Acc,Participant_Images/66463e4efb99fba5a67a010a/66463e4efb99fba5a67a010a_Images/66463e4efb99fba5a67a010a_Image_21.jpeg,liked,5.246980764,,,,,,,,,,,,,,,,,,,,,,
,,66463e4efb99fba5a67a010a,6685aa9113c938e83b4f1ea0,66d0cf070883e2a9f2e26a38,2024-08-29_15h57.05.813,WTP_SM_Choice,2022.2.1,MacIntel,63.29113924,,,,,space,1.6636,NAN,,NAN,0.56,5.44,,0,28,28,28,1,29,Charlie,Acc,Participant_Images/66463e4efb99fba5a67a010a/66463e4efb99fba5a67a010a_Images/66463e4efb99fba5a67a010a_Image_22.jpeg,liked,3.30081769,,,,,,,,,,,,,,,,,,,,,,
,,66463e4efb99fba5a67a010a,6685aa9113c938e83b4f1ea0,66d0cf070883e2a9f2e26a38,2024-08-29_15h57.05.813,WTP_SM_Choice,2022.2.1,MacIntel,63.29113924,,,,,,,,,,,,,,,,,,26,,,,,,space,1.1049,space,0.9014,0.01,1,5.6809,0,0,0,0,1,Listen to ai music while laying on my carpet,Dance to salsa in a new location with my spouse and friends,0.01,0.01,4.4,1,,,,
,,66463e4efb99fba5a67a010a,6685aa9113c938e83b4f1ea0,66d0cf070883e2a9f2e26a38,2024-08-29_15h57.05.813,WTP_SM_Choice,2022.2.1,MacIntel,63.29113924,,,,,,,,,,,,,,,,,,27,,,,,,,,,,0.01,2,1.3482,0,1,1,1,1,Catch up with a old cousin on a plane ride to the beach,watch youtube while watering my garden,0.02,0.01,3.3,0,,,,
,,66463e4efb99fba5a67a010a,6685aa9113c938e83b4f1ea0,66d0cf070883e2a9f2e26a38,2024-08-29_15h57.05.813,WTP_SM_Choice,2022.2.1,MacIntel,63.29113924,,,,,,,,,,,,,,,,,,28,,,,,,,,,,0.01,2,1.8947,0,2,2,2,1,Shop in a new city and having laughs with my childhood buddies,play online RPG games in my man cave,0.03,0.01,3.3,0,,,,
,,66463e4efb99fba5a67a010a,6685aa9113c938e83b4f1ea0,66d0cf070883e2a9f2e26a38,2024-08-29_15h57.05.813,WTP_SM_Choice,2022.2.1,MacIntel,63.29113924,,,,,,,,,,,,,,,,,,29,,,,,,,,,,0.04,1,1.8392,0,3,3,3,1,Drink a warm beer while walking in the park,Shop in a new city and having laughs with my childhood buddies,0.04,0.01,4.4,1,,,,
,,66463e4efb99fba5a67a010a,6685aa9113c938e83b4f1ea0,66d0cf070883e2a9f2e26a38,2024-08-29_15h57.05.813,WTP_SM_Choice,2022.2.1,MacIntel,63.29113924,,,,,,,,,,,,,,,,,,30,,,,,,,,,,0.01,2,1.4586,0,4,4,4,1,Board a cruise and survey all the restaurants with family ,Analyze data in a quiet library,0.05,0.01,8.8,0,,,,
,,66463e4efb99fba5a67a010a,6685aa9113c938e83b4f1ea0,66d0cf070883e2a9f2e26a38,2024-08-29_15h57.05.813,WTP_SM_Choice,2022.2.1,MacIntel,63.29113924,,,,,,,NAN,,NAN,0.64,5.36,,0,29,29,29,1,30,Charlie,Acc,Participant_Images/66463e4efb99fba5a67a010a/66463e4efb99fba5a67a010a_Images/66463e4efb99fba5a67a010a_Image_8.jpeg,liked,1.661473164,,,,,,,,,,,,,,,,,,,,,,
,,66463e4efb99fba5a67a010a,6685aa9113c938e83b4f1ea0,66d0cf070883e2a9f2e26a38,2024-08-29_15h57.05.813,WTP_SM_Choice,2022.2.1,MacIntel,63.29113924,,,,,space,4.6603,NAN,,NAN,0.64,5.36,,0,30,30,30,1,31,Charlie,Acc,Participant_Images/66463e4efb99fba5a67a010a/66463e4efb99fba5a67a010a_Images/66463e4efb99fba5a67a010a_Image_7.jpeg,liked,3.613205605,,,,,,,,,,,,,,,,,,,,,,
,,66463e4efb99fba5a67a010a,6685aa9113c938e83b4f1ea0,66d0cf070883e2a9f2e26a38,2024-08-29_15h57.05.813,WTP_SM_Choice,2022.2.1,MacIntel,63.29113924,,,,,space,1.3521,NAN,,NAN,0.64,5.36,,0,31,31,31,1,32,Charlie,Acc,Participant_Images/66463e4efb99fba5a67a010a/66463e4efb99fba5a67a010a_Images/66463e4efb99fba5a67a010a_Image_15.jpeg,liked,4.988446431,,,,,,,,,,,,,,,,,,,,,,
,,66463e4efb99fba5a67a010a,6685aa9113c938e83b4f1ea0,66d0cf070883e2a9f2e26a38,2024-08-29_15h57.05.813,WTP_SM_Choice,2022.2.1,MacIntel,63.29113924,,,,,space,0.9662,NAN,,NAN,0.64,5.36,,0,32,32,32,1,33,Charlie,Acc,Participant_Images/66463e4efb99fba5a67a010a/66463e4efb99fba5a67a010a_Images/66463e4efb99fba5a67a010a_Image_9.jpeg,did not like,3.470791822,,,,,,,,,,,,,,,,,,,,,,
,,66463e4efb99fba5a67a010a,6685aa9113c938e83b4f1ea0,66d0cf070883e2a9f2e26a38,2024-08-29_15h57.05.813,WTP_SM_Choice,2022.2.1,MacIntel,63.29113924,,,,,space,3.501,NAN,,NAN,0.64,5.36,,0,33,33,33,1,34,Charlie,Acc,Participant_Images/66463e4efb99fba5a67a010a/66463e4efb99fba5a67a010a_Images/66463e4efb99fba5a67a010a_Image_16.jpeg,liked,3.820572462,,,,,,,,,,,,,,,,,,,,,,
,,66463e4efb99fba5a67a010a,6685aa9113c938e83b4f1ea0,66d0cf070883e2a9f2e26a38,2024-08-29_15h57.05.813,WTP_SM_Choice,2022.2.1,MacIntel,63.29113924,,,,,,,,,,,,,,,,,,31,,,,,,space,1.1015,space,1.2697,0.01,1,2.2008,0,0,0,0,1,Send emails to potential clients while on a train to NYC,Go to the movies at a luxury theatre ,0.01,0.02,8.8,1,,,,
,,66463e4efb99fba5a67a010a,6685aa9113c938e83b4f1ea0,66d0cf070883e2a9f2e26a38,2024-08-29_15h57.05.813,WTP_SM_Choice,2022.2.1,MacIntel,63.29113924,,,,,,,,,,,,,,,,,,32,,,,,,,,,,0.02,1,1.3801,0,1,1,1,1,Send emails to potential clients while on a train to NYC,Board a cruise and survey all the restaurants with family ,0.02,0.02,1.1,1,,,,
,,66463e4efb99fba5a67a010a,6685aa9113c938e83b4f1ea0,66d0cf070883e2a9f2e26a38,2024-08-29_15h57.05.813,WTP_SM_Choice,2022.2.1,MacIntel,63.29113924,,,,,,,,,,,,,,,,,,33,,,,,,,,,,0.02,2,1.9084,0,2,2,2,1,Watch animal shows on  a friday night at my parents house,Drink a warm beer while walking in the park,0.03,0.02,4.4,0,,,,
,,66463e4efb99fba5a67a010a,6685aa9113c938e83b4f1ea0,66d0cf070883e2a9f2e26a38,2024-08-29_15h57.05.813,WTP_SM_Choice,2022.2.1,MacIntel,63.29113924,,,,,,,,,,,,,,,,,,34,,,,,,,,,,0.02,2,1.3999,0,3,3,3,1,Go to the movies at a luxury theatre ,watch youtube while watering my garden,0.04,0.02,3.3,0,,,,
,,66463e4efb99fba5a67a010a,6685aa9113c938e83b4f1ea0,66d0cf070883e2a9f2e26a38,2024-08-29_15h57.05.813,WTP_SM_Choice,2022.2.1,MacIntel,63.29113924,,,,,,,,,,,,,,,,,,35,,,,,,,,,,0.02,2,1.3817,0,4,4,4,1,Eat breakfast in my living room,Board a cruise and survey all the restaurants with family ,0.05,0.02,1.1,1,,,,
,,66463e4efb99fba5a67a010a,6685aa9113c938e83b4f1ea0,66d0cf070883e2a9f2e26a38,2024-08-29_15h57.05.813,WTP_SM_Choice,2022.2.1,MacIntel,63.29113924,,,,,,,NAN,,NAN,0.73,5.27,,0,34,34,34,1,35,Charlie,Acc,Participant_Images/66463e4efb99fba5a67a010a/66463e4efb99fba5a67a010a_Images/66463e4efb99fba5a67a010a_Image_12.jpeg,liked,2.455989137,,,,,,,,,,,,,,,,,,,,,,
,,66463e4efb99fba5a67a010a,6685aa9113c938e83b4f1ea0,66d0cf070883e2a9f2e26a38,2024-08-29_15h57.05.813,WTP_SM_Choice,2022.2.1,MacIntel,63.29113924,,,,,space,1.3722,NAN,,NAN,0.73,5.27,,0,35,35,35,1,36,Charlie,Acc,Participant_Images/66463e4efb99fba5a67a010a/66463e4efb99fba5a67a010a_Images/66463e4efb99fba5a67a010a_Image_10.jpeg,did not like,3.79605092,,,,,,,,,,,,,,,,,,,,,,
,,66463e4efb99fba5a67a010a,6685aa9113c938e83b4f1ea0,66d0cf070883e2a9f2e26a38,2024-08-29_15h57.05.813,WTP_SM_Choice,2022.2.1,MacIntel,63.29113924,,,,,space,0.799,NAN,,NAN,0.73,5.27,,0,36,36,36,1,37,Charlie,Acc,Participant_Images/66463e4efb99fba5a67a010a/66463e4efb99fba5a67a010a_Images/66463e4efb99fba5a67a010a_Image_13.jpeg,liked,3.562416326,,,,,,,,,,,,,,,,,,,,,,
,,66463e4efb99fba5a67a010a,6685aa9113c938e83b4f1ea0,66d0cf070883e2a9f2e26a38,2024-08-29_15h57.05.813,WTP_SM_Choice,2022.2.1,MacIntel,63.29113924,,,,,space,2.0386,NAN,,NAN,0.73,5.27,,0,37,37,37,1,38,Charlie,Acc,Participant_Images/66463e4efb99fba5a67a010a/66463e4efb99fba5a67a010a_Images/66463e4efb99fba5a67a010a_Image_1.jpeg,liked,2.843822497,,,,,,,,,,,,,,,,,,,,,,
,,66463e4efb99fba5a67a010a,6685aa9113c938e83b4f1ea0,66d0cf070883e2a9f2e26a38,2024-08-29_15h57.05.813,WTP_SM_Choice,2022.2.1,MacIntel,63.29113924,,,,,space,7.0847,NAN,,NAN,0.73,5.27,,0,38,38,38,1,39,Charlie,Acc,Participant_Images/66463e4efb99fba5a67a010a/66463e4efb99fba5a67a010a_Images/66463e4efb99fba5a67a010a_Image_25.jpeg,liked,3.546495948,,,,,,,,,,,,,,,,,,,,,,
,,66463e4efb99fba5a67a010a,6685aa9113c938e83b4f1ea0,66d0cf070883e2a9f2e26a38,2024-08-29_15h57.05.813,WTP_SM_Choice,2022.2.1,MacIntel,63.29113924,,,,,,,,,,,,,,,,,,36,,,,,,space,1.5994,space,0.6168,0.01,1,0.8767,0,0,0,0,1,play online RPG games in my man cave,Bet on nfl with my family at the bar,0.01,0.03,3.3,1,,,,
,,66463e4efb99fba5a67a010a,6685aa9113c938e83b4f1ea0,66d0cf070883e2a9f2e26a38,2024-08-29_15h57.05.813,WTP_SM_Choice,2022.2.1,MacIntel,63.29113924,,,,,,,,,,,,,,,,,,37,,,,,,,,,,0.02,1,1.0741,0,1,1,1,1,Board a cruise and survey all the restaurants with family ,Listen to ai music while laying on my carpet,0.02,0.03,1.1,0,,,,
,,66463e4efb99fba5a67a010a,6685aa9113c938e83b4f1ea0,66d0cf070883e2a9f2e26a38,2024-08-29_15h57.05.813,WTP_SM_Choice,2022.2.1,MacIntel,63.29113924,,,,,,,,,,,,,,,,,,38,,,,,,,,,,0.03,2,1.5748,0,2,2,2,1,Catch up with a old cousin on a plane ride to the beach,Eat breakfast in my living room,0.03,0.03,1.1,0,,,,
,,66463e4efb99fba5a67a010a,6685aa9113c938e83b4f1ea0,66d0cf070883e2a9f2e26a38,2024-08-29_15h57.05.813,WTP_SM_Choice,2022.2.1,MacIntel,63.29113924,,,,,,,,,,,,,,,,,,39,,,,,,,,,,0.03,2,1.3112,0,3,3,3,1,Drink a warm beer while walking in the park,Sleep over a in-laws house and making nachos,0.04,0.03,3.3,1,,,,
,,66463e4efb99fba5a67a010a,6685aa9113c938e83b4f1ea0,66d0cf070883e2a9f2e26a38,2024-08-29_15h57.05.813,WTP_SM_Choice,2022.2.1,MacIntel,63.29113924,,,,,,,,,,,,,,,,,,40,,,,,,,,,,0.03,2,1.4797,0,4,4,4,1,Bet on nfl with my family at the bar,watch youtube while watering my garden,0.05,0.03,4.4,0,,,,
,,66463e4efb99fba5a67a010a,6685aa9113c938e83b4f1ea0,66d0cf070883e2a9f2e26a38,2024-08-29_15h57.05.813,WTP_SM_Choice,2022.2.1,MacIntel,63.29113924,,,,,,,NAN,,NAN,0.85,5.15,,0,39,39,39,1,40,Charlie,Acc,Participant_Images/66463e4efb99fba5a67a010a/66463e4efb99fba5a67a010a_Images/66463e4efb99fba5a67a010a_Image_4.jpeg,did not like,1.672012706,,,,,,,,,,,,,,,,,,,,,,
,,66463e4efb99fba5a67a010a,6685aa9113c938e83b4f1ea0,66d0cf070883e2a9f2e26a38,2024-08-29_15h57.05.813,WTP_SM_Choice,2022.2.1,MacIntel,63.29113924,,,,,space,1.3215,NAN,,NAN,0.85,5.15,,0,40,40,40,1,41,Charlie,Acc,Participant_Images/66463e4efb99fba5a67a010a/66463e4efb99fba5a67a010a_Images/66463e4efb99fba5a67a010a_Image_11.jpeg,liked,4.942172136,,,,,,,,,,,,,,,,,,,,,,
,,66463e4efb99fba5a67a010a,6685aa9113c938e83b4f1ea0,66d0cf070883e2a9f2e26a38,2024-08-29_15h57.05.813,WTP_SM_Choice,2022.2.1,MacIntel,63.29113924,,,,,space,1.3872,NAN,,NAN,0.85,5.15,,0,41,41,41,1,42,Charlie,Acc,Participant_Images/66463e4efb99fba5a67a010a/66463e4efb99fba5a67a010a_Images/66463e4efb99fba5a67a010a_Image_5.jpeg,did not like,2.50187214,,,,,,,,,,,,,,,,,,,,,,
,,66463e4efb99fba5a67a010a,6685aa9113c938e83b4f1ea0,66d0cf070883e2a9f2e26a38,2024-08-29_15h57.05.813,WTP_SM_Choice,2022.2.1,MacIntel,63.29113924,,,,,space,0.7327,NAN,,NAN,0.85,5.15,,0,42,42,42,1,43,Charlie,Acc,Participant_Images/66463e4efb99fba5a67a010a/66463e4efb99fba5a67a010a_Images/66463e4efb99fba5a67a010a_Image_17.jpeg,did not like,2.071164779,,,,,,,,,,,,,,,,,,,,,,
,,66463e4efb99fba5a67a010a,6685aa9113c938e83b4f1ea0,66d0cf070883e2a9f2e26a38,2024-08-29_15h57.05.813,WTP_SM_Choice,2022.2.1,MacIntel,63.29113924,,,,,space,5.6795,NAN,,NAN,0.85,5.15,,0,43,43,43,1,44,Charlie,Acc,Participant_Images/66463e4efb99fba5a67a010a/66463e4efb99fba5a67a010a_Images/66463e4efb99fba5a67a010a_Image_18.jpeg,liked,5.336503566,,,,,,,,,,,,,,,,,,,,,,
,,66463e4efb99fba5a67a010a,6685aa9113c938e83b4f1ea0,66d0cf070883e2a9f2e26a38,2024-08-29_15h57.05.813,WTP_SM_Choice,2022.2.1,MacIntel,63.29113924,,,,,,,,,,,,,,,,,,41,,,,,,space,5.1864,space,0.4683,0.01,1,1.2625,0,0,0,0,1,Dance to salsa in a new location with my spouse and friends,Code applications in my bedroom,0.01,0.04,1.1,0,,,,
,,66463e4efb99fba5a67a010a,6685aa9113c938e83b4f1ea0,66d0cf070883e2a9f2e26a38,2024-08-29_15h57.05.813,WTP_SM_Choice,2022.2.1,MacIntel,63.29113924,,,,,,,,,,,,,,,,,,42,,,,,,,,,,0.02,1,1.3179,0,1,1,1,1,watch youtube while watering my garden,Sleep over a in-laws house and making nachos,0.02,0.04,3.3,1,,,,
,,66463e4efb99fba5a67a010a,6685aa9113c938e83b4f1ea0,66d0cf070883e2a9f2e26a38,2024-08-29_15h57.05.813,WTP_SM_Choice,2022.2.1,MacIntel,63.29113924,,,,,,,,,,,,,,,,,,43,,,,,,,,,,0.03,1,1.4118,0,2,2,2,1,Eat breakfast in my living room,Bet on nfl with my family at the bar,0.03,0.04,1.1,1,,,,
,,66463e4efb99fba5a67a010a,6685aa9113c938e83b4f1ea0,66d0cf070883e2a9f2e26a38,2024-08-29_15h57.05.813,WTP_SM_Choice,2022.2.1,MacIntel,63.29113924,,,,,,,,,,,,,,,,,,44,,,,,,,,,,0.04,2,1.8902,0,3,3,3,1,Code applications in my bedroom,Bet on nfl with my family at the bar,0.04,0.04,1.1,1,,,,
,,66463e4efb99fba5a67a010a,6685aa9113c938e83b4f1ea0,66d0cf070883e2a9f2e26a38,2024-08-29_15h57.05.813,WTP_SM_Choice,2022.2.1,MacIntel,63.29113924,,,,,,,,,,,,,,,,,,45,,,,,,,,,,0.04,2,1.5938,0,4,4,4,1,Cook food with new family members I just met,Drink a warm beer while walking in the park,0.05,0.04,4.4,0,,,,
,,66463e4efb99fba5a67a010a,6685aa9113c938e83b4f1ea0,66d0cf070883e2a9f2e26a38,2024-08-29_15h57.05.813,WTP_SM_Choice,2022.2.1,MacIntel,63.29113924,,,,,,,NAN,,NAN,0.99,5.01,,0,44,44,44,1,45,Charlie,Acc,Participant_Images/66463e4efb99fba5a67a010a/66463e4efb99fba5a67a010a_Images/66463e4efb99fba5a67a010a_Image_23.jpeg,did not like,2.642157193,,,,,,,,,,,,,,,,,,,,,,
,,66463e4efb99fba5a67a010a,6685aa9113c938e83b4f1ea0,66d0cf070883e2a9f2e26a38,2024-08-29_15h57.05.813,WTP_SM_Choice,2022.2.1,MacIntel,63.29113924,,,,,space,1.4007,NAN,,NAN,0.99,5.01,,0,45,45,45,1,46,Charlie,Acc,Participant_Images/66463e4efb99fba5a67a010a/66463e4efb99fba5a67a010a_Images/66463e4efb99fba5a67a010a_Image_14.jpeg,liked,4.456234322,,,,,,,,,,,,,,,,,,,,,,
,,66463e4efb99fba5a67a010a,6685aa9113c938e83b4f1ea0,66d0cf070883e2a9f2e26a38,2024-08-29_15h57.05.813,WTP_SM_Choice,2022.2.1,MacIntel,63.29113924,,,,,space,1.7338,NAN,,NAN,0.99,5.01,,0,46,46,46,1,47,Charlie,Acc,Participant_Images/66463e4efb99fba5a67a010a/66463e4efb99fba5a67a010a_Images/66463e4efb99fba5a67a010a_Image_2.jpeg,liked,4.438512181,,,,,,,,,,,,,,,,,,,,,,
,,66463e4efb99fba5a67a010a,6685aa9113c938e83b4f1ea0,66d0cf070883e2a9f2e26a38,2024-08-29_15h57.05.813,WTP_SM_Choice,2022.2.1,MacIntel,63.29113924,,,,,space,0.7354,NAN,,NAN,0.99,5.01,,0,47,47,47,1,48,Charlie,Acc,Participant_Images/66463e4efb99fba5a67a010a/66463e4efb99fba5a67a010a_Images/66463e4efb99fba5a67a010a_Image_24.jpeg,liked,2.682944783,,,,,,,,,,,,,,,,,,,,,,
,,66463e4efb99fba5a67a010a,6685aa9113c938e83b4f1ea0,66d0cf070883e2a9f2e26a38,2024-08-29_15h57.05.813,WTP_SM_Choice,2022.2.1,MacIntel,63.29113924,,,,,space,0.855,NAN,,NAN,0.99,5.01,,0,48,48,48,1,49,Charlie,Acc,Participant_Images/66463e4efb99fba5a67a010a/66463e4efb99fba5a67a010a_Images/66463e4efb99fba5a67a010a_Image_20.jpeg,liked,4.51984296,,,,,,,,,,,,,,,,,,,,,,
,,66463e4efb99fba5a67a010a,6685aa9113c938e83b4f1ea0,66d0cf070883e2a9f2e26a38,2024-08-29_15h57.05.813,WTP_SM_Choice,2022.2.1,MacIntel,63.29113924,,,,,,,,,,,,,,,,,,46,,,,,,space,3.452,space,1.9032,0.01,1,1.0905,0,0,0,0,1,watch youtube while watering my garden,Cook food with new family members I just met,0.01,0.05,8.8,1,,,,
,,66463e4efb99fba5a67a010a,6685aa9113c938e83b4f1ea0,66d0cf070883e2a9f2e26a38,2024-08-29_15h57.05.813,WTP_SM_Choice,2022.2.1,MacIntel,63.29113924,,,,,,,,,,,,,,,,,,47,,,,,,,,,,0.02,1,6.5209,0,1,1,1,1,Go to the movies at a luxury theatre ,Spin my DJ records in my studio,0.02,0.05,1.1,0,,,,
,,66463e4efb99fba5a67a010a,6685aa9113c938e83b4f1ea0,66d0cf070883e2a9f2e26a38,2024-08-29_15h57.05.813,WTP_SM_Choice,2022.2.1,MacIntel,63.29113924,,,,,,,,,,,,,,,,,,48,,,,,,,,,,0.03,1,1.5453,0,2,2,2,1,watch youtube while watering my garden,Swim in the pool with family,0.03,0.05,4.4,1,,,,
,,66463e4efb99fba5a67a010a,6685aa9113c938e83b4f1ea0,66d0cf070883e2a9f2e26a38,2024-08-29_15h57.05.813,WTP_SM_Choice,2022.2.1,MacIntel,63.29113924,,,,,,,,,,,,,,,,,,49,,,,,,,,,,0.04,1,1.2067,0,3,3,3,1,Analyze data in a quiet library,Sleep over a in-laws house and making nachos,0.04,0.05,3.3,1,,,,
,,66463e4efb99fba5a67a010a,6685aa9113c938e83b4f1ea0,66d0cf070883e2a9f2e26a38,2024-08-29_15h57.05.813,WTP_SM_Choice,2022.2.1,MacIntel,63.29113924,,,,,,,,,,,,,,,,,,50,,,,,,,,,,0.05,1,1.5436,0,4,4,4,1,Catch up with a old cousin on a plane ride to the beach,Send emails to potential clients while on a train to NYC,0.05,0.05,1.1,0,,,,
,,66463e4efb99fba5a67a010a,6685aa9113c938e83b4f1ea0,66d0cf070883e2a9f2e26a38,2024-08-29_15h57.05.813,WTP_SM_Choice,2022.2.1,MacIntel,63.29113924,,,,,,,2,,2,1.14,4.86,,0,49,49,49,1,50,Charlie,Acc,Participant_Images/66463e4efb99fba5a67a010a/66463e4efb99fba5a67a010a_Images/66463e4efb99fba5a67a010a_Image_3.jpeg,liked,3.195382774,,,,,,,,,,,,,,,,,,,space,1.5998,,
,,66463e4efb99fba5a67a010a,6685aa9113c938e83b4f1ea0,66d0cf070883e2a9f2e26a38,2024-08-29_15h57.05.813,WTP_SM_Choice,2022.2.1,MacIntel,63.29113924,,,space,2.1374,space,1.7825,NAN,,NAN,1.14,4.86,,0,50,50,50,1,51,Sam,Rej,Participant_Images/66463e4efb99fba5a67a010a/66463e4efb99fba5a67a010a_Images/66463e4efb99fba5a67a010a_Image_18.jpeg,did not like,1.779333479,,,,,,,,,,,,,,,,,,,,,,
,,66463e4efb99fba5a67a010a,6685aa9113c938e83b4f1ea0,66d0cf070883e2a9f2e26a38,2024-08-29_15h57.05.813,WTP_SM_Choice,2022.2.1,MacIntel,63.29113924,,,,,space,1.0992,NAN,,NAN,1.14,4.86,,0,51,51,51,1,52,Sam,Rej,Participant_Images/66463e4efb99fba5a67a010a/66463e4efb99fba5a67a010a_Images/66463e4efb99fba5a67a010a_Image_13.jpeg,did not like,4.312468682,,,,,,,,,,,,,,,,,,,,,,
,,66463e4efb99fba5a67a010a,6685aa9113c938e83b4f1ea0,66d0cf070883e2a9f2e26a38,2024-08-29_15h57.05.813,WTP_SM_Choice,2022.2.1,MacIntel,63.29113924,,,,,space,2.7822,NAN,,NAN,1.14,4.86,,0,52,52,52,1,53,Sam,Rej,Participant_Images/66463e4efb99fba5a67a010a/66463e4efb99fba5a67a010a_Images/66463e4efb99fba5a67a010a_Image_23.jpeg,liked,4.940433059,,,,,,,,,,,,,,,,,,,,,,
,,66463e4efb99fba5a67a010a,6685aa9113c938e83b4f1ea0,66d0cf070883e2a9f2e26a38,2024-08-29_15h57.05.813,WTP_SM_Choice,2022.2.1,MacIntel,63.29113924,,,,,space,1.652,NAN,,NAN,1.14,4.86,,0,53,53,53,1,54,Sam,Rej,Participant_Images/66463e4efb99fba5a67a010a/66463e4efb99fba5a67a010a_Images/66463e4efb99fba5a67a010a_Image_7.jpeg,did not like,2.7105123,,,,,,,,,,,,,,,,,,,,,,
,,66463e4efb99fba5a67a010a,6685aa9113c938e83b4f1ea0,66d0cf070883e2a9f2e26a38,2024-08-29_15h57.05.813,WTP_SM_Choice,2022.2.1,MacIntel,63.29113924,,,,,,,,,,,,,,,,,,51,,,,,,space,2.2607,space,1.2805,0.01,1,0.6599,0,0,0,0,1,Board a cruise and survey all the restaurants with family ,Spin my DJ records in my studio,0.01,0.01,1.1,0,,,,
,,66463e4efb99fba5a67a010a,6685aa9113c938e83b4f1ea0,66d0cf070883e2a9f2e26a38,2024-08-29_15h57.05.813,WTP_SM_Choice,2022.2.1,MacIntel,63.29113924,,,,,,,,,,,,,,,,,,52,,,,,,,,,,0.01,2,1.6882,0,1,1,1,1,Sleep over a in-laws house and making nachos,play online RPG games in my man cave,0.02,0.01,3.3,0,,,,
,,66463e4efb99fba5a67a010a,6685aa9113c938e83b4f1ea0,66d0cf070883e2a9f2e26a38,2024-08-29_15h57.05.813,WTP_SM_Choice,2022.2.1,MacIntel,63.29113924,,,,,,,,,,,,,,,,,,53,,,,,,,,,,0.01,2,1.4114,0,2,2,2,1,Watch animal shows on  a friday night at my parents house,play online RPG games in my man cave,0.03,0.01,1.1,0,,,,
,,66463e4efb99fba5a67a010a,6685aa9113c938e83b4f1ea0,66d0cf070883e2a9f2e26a38,2024-08-29_15h57.05.813,WTP_SM_Choice,2022.2.1,MacIntel,63.29113924,,,,,,,,,,,,,,,,,,54,,,,,,,,,,0.01,2,1.0373,0,3,3,3,1,Go to the movies at a luxury theatre ,Eat breakfast in my living room,0.04,0.01,4.4,0,,,,
,,66463e4efb99fba5a67a010a,6685aa9113c938e83b4f1ea0,66d0cf070883e2a9f2e26a38,2024-08-29_15h57.05.813,WTP_SM_Choice,2022.2.1,MacIntel,63.29113924,,,,,,,,,,,,,,,,,,55,,,,,,,,,,0.01,2,1.9586,0,4,4,4,1,Learn spanish in a dark basement,Cook food with new family members I just met,0.05,0.01,1.1,1,,,,
,,66463e4efb99fba5a67a010a,6685aa9113c938e83b4f1ea0,66d0cf070883e2a9f2e26a38,2024-08-29_15h57.05.813,WTP_SM_Choice,2022.2.1,MacIntel,63.29113924,,,,,,,NAN,,NAN,1.19,4.81,,0,54,54,54,1,55,Sam,Rej,Participant_Images/66463e4efb99fba5a67a010a/66463e4efb99fba5a67a010a_Images/66463e4efb99fba5a67a010a_Image_16.jpeg,did not like,3.602308302,,,,,,,,,,,,,,,,,,,,,,
,,66463e4efb99fba5a67a010a,6685aa9113c938e83b4f1ea0,66d0cf070883e2a9f2e26a38,2024-08-29_15h57.05.813,WTP_SM_Choice,2022.2.1,MacIntel,63.29113924,,,,,space,3.818,NAN,,NAN,1.19,4.81,,0,55,55,55,1,56,Sam,Rej,Participant_Images/66463e4efb99fba5a67a010a/66463e4efb99fba5a67a010a_Images/66463e4efb99fba5a67a010a_Image_14.jpeg,liked,4.106391878,,,,,,,,,,,,,,,,,,,,,,
,,66463e4efb99fba5a67a010a,6685aa9113c938e83b4f1ea0,66d0cf070883e2a9f2e26a38,2024-08-29_15h57.05.813,WTP_SM_Choice,2022.2.1,MacIntel,63.29113924,,,,,space,1.8474,NAN,,NAN,1.19,4.81,,0,56,56,56,1,57,Sam,Rej,Participant_Images/66463e4efb99fba5a67a010a/66463e4efb99fba5a67a010a_Images/66463e4efb99fba5a67a010a_Image_11.jpeg,did not like,3.799433026,,,,,,,,,,,,,,,,,,,,,,
,,66463e4efb99fba5a67a010a,6685aa9113c938e83b4f1ea0,66d0cf070883e2a9f2e26a38,2024-08-29_15h57.05.813,WTP_SM_Choice,2022.2.1,MacIntel,63.29113924,,,,,space,0.6148,NAN,,NAN,1.19,4.81,,0,57,57,57,1,58,Sam,Rej,Participant_Images/66463e4efb99fba5a67a010a/66463e4efb99fba5a67a010a_Images/66463e4efb99fba5a67a010a_Image_21.jpeg,liked,5.246980764,,,,,,,,,,,,,,,,,,,,,,
,,66463e4efb99fba5a67a010a,6685aa9113c938e83b4f1ea0,66d0cf070883e2a9f2e26a38,2024-08-29_15h57.05.813,WTP_SM_Choice,2022.2.1,MacIntel,63.29113924,,,,,space,5.4173,NAN,,NAN,1.19,4.81,,0,58,58,58,1,59,Sam,Rej,Participant_Images/66463e4efb99fba5a67a010a/66463e4efb99fba5a67a010a_Images/66463e4efb99fba5a67a010a_Image_4.jpeg,did not like,3.30081769,,,,,,,,,,,,,,,,,,,,,,
,,66463e4efb99fba5a67a010a,6685aa9113c938e83b4f1ea0,66d0cf070883e2a9f2e26a38,2024-08-29_15h57.05.813,WTP_SM_Choice,2022.2.1,MacIntel,63.29113924,,,,,,,,,,,,,,,,,,56,,,,,,space,13.4936,space,1.4355,0.01,1,0.8371,0,0,0,0,1,Listen to ai music while laying on my carpet,Swim in the pool with family,0.01,0.02,8.8,1,,,,
,,66463e4efb99fba5a67a010a,6685aa9113c938e83b4f1ea0,66d0cf070883e2a9f2e26a38,2024-08-29_15h57.05.813,WTP_SM_Choice,2022.2.1,MacIntel,63.29113924,,,,,,,,,,,,,,,,,,57,,,,,,,,,,0.02,2,2.3853,0,1,1,1,1,Listen to ai music while laying on my carpet,Catch up with a old cousin on a plane ride to the beach,0.02,0.02,4.4,1,,,,
,,66463e4efb99fba5a67a010a,6685aa9113c938e83b4f1ea0,66d0cf070883e2a9f2e26a38,2024-08-29_15h57.05.813,WTP_SM_Choice,2022.2.1,MacIntel,63.29113924,,,,,,,,,,,,,,,,,,58,,,,,,,,,,0.02,2,1.065,0,2,2,2,1,Code applications in my bedroom,Catch up with a old cousin on a plane ride to the beach,0.03,0.02,4.4,1,,,,
,,66463e4efb99fba5a67a010a,6685aa9113c938e83b4f1ea0,66d0cf070883e2a9f2e26a38,2024-08-29_15h57.05.813,WTP_SM_Choice,2022.2.1,MacIntel,63.29113924,,,,,,,,,,,,,,,,,,59,,,,,,,,,,0.02,2,1.2817,0,3,3,3,1,Go to the movies at a luxury theatre ,Learn spanish in a dark basement,0.04,0.02,4.4,0,,,,
,,66463e4efb99fba5a67a010a,6685aa9113c938e83b4f1ea0,66d0cf070883e2a9f2e26a38,2024-08-29_15h57.05.813,WTP_SM_Choice,2022.2.1,MacIntel,63.29113924,,,,,,,,,,,,,,,,,,60,,,,,,,,,,0.02,2,1.2921,0,4,4,4,1,Swim in the pool with family,Eat breakfast in my living room,0.05,0.02,1.1,0,,,,
,,66463e4efb99fba5a67a010a,6685aa9113c938e83b4f1ea0,66d0cf070883e2a9f2e26a38,2024-08-29_15h57.05.813,WTP_SM_Choice,2022.2.1,MacIntel,63.29113924,,,,,,,NAN,,NAN,1.28,4.72,,0,59,59,59,1,60,Sam,Rej,Participant_Images/66463e4efb99fba5a67a010a/66463e4efb99fba5a67a010a_Images/66463e4efb99fba5a67a010a_Image_6.jpeg,liked,1.661473164,,,,,,,,,,,,,,,,,,,,,,
,,66463e4efb99fba5a67a010a,6685aa9113c938e83b4f1ea0,66d0cf070883e2a9f2e26a38,2024-08-29_15h57.05.813,WTP_SM_Choice,2022.2.1,MacIntel,63.29113924,,,,,space,6.9856,NAN,,NAN,1.28,4.72,,0,60,60,60,1,61,Sam,Rej,Participant_Images/66463e4efb99fba5a67a010a/66463e4efb99fba5a67a010a_Images/66463e4efb99fba5a67a010a_Image_19.jpeg,did not like,3.613205605,,,,,,,,,,,,,,,,,,,,,,
,,66463e4efb99fba5a67a010a,6685aa9113c938e83b4f1ea0,66d0cf070883e2a9f2e26a38,2024-08-29_15h57.05.813,WTP_SM_Choice,2022.2.1,MacIntel,63.29113924,,,,,space,1.1334,NAN,,NAN,1.28,4.72,,0,61,61,61,1,62,Sam,Rej,Participant_Images/66463e4efb99fba5a67a010a/66463e4efb99fba5a67a010a_Images/66463e4efb99fba5a67a010a_Image_8.jpeg,did not like,4.988446431,,,,,,,,,,,,,,,,,,,,,,
,,66463e4efb99fba5a67a010a,6685aa9113c938e83b4f1ea0,66d0cf070883e2a9f2e26a38,2024-08-29_15h57.05.813,WTP_SM_Choice,2022.2.1,MacIntel,63.29113924,,,,,space,4.3158,NAN,,NAN,1.28,4.72,,0,62,62,62,1,63,Sam,Rej,Participant_Images/66463e4efb99fba5a67a010a/66463e4efb99fba5a67a010a_Images/66463e4efb99fba5a67a010a_Image_25.jpeg,liked,3.470791822,,,,,,,,,,,,,,,,,,,,,,
,,66463e4efb99fba5a67a010a,6685aa9113c938e83b4f1ea0,66d0cf070883e2a9f2e26a38,2024-08-29_15h57.05.813,WTP_SM_Choice,2022.2.1,MacIntel,63.29113924,,,,,space,3.7705,NAN,,NAN,1.28,4.72,,0,63,63,63,1,64,Sam,Rej,Participant_Images/66463e4efb99fba5a67a010a/66463e4efb99fba5a67a010a_Images/66463e4efb99fba5a67a010a_Image_1.jpeg,liked,3.820572462,,,,,,,,,,,,,,,,,,,,,,
,,66463e4efb99fba5a67a010a,6685aa9113c938e83b4f1ea0,66d0cf070883e2a9f2e26a38,2024-08-29_15h57.05.813,WTP_SM_Choice,2022.2.1,MacIntel,63.29113924,,,,,,,,,,,,,,,,,,61,,,,,,space,0.9358,space,1.2508,0.01,1,1.0717,0,0,0,0,1,Code applications in my bedroom,Swim in the pool with family,0.01,0.03,3.3,1,,,,
,,66463e4efb99fba5a67a010a,6685aa9113c938e83b4f1ea0,66d0cf070883e2a9f2e26a38,2024-08-29_15h57.05.813,WTP_SM_Choice,2022.2.1,MacIntel,63.29113924,,,,,,,,,,,,,,,,,,62,,,,,,,,,,0.02,1,1.5512,0,1,1,1,1,Send emails to potential clients while on a train to NYC,Dance to salsa in a new location with my spouse and friends,0.02,0.03,3.3,1,,,,
,,66463e4efb99fba5a67a010a,6685aa9113c938e83b4f1ea0,66d0cf070883e2a9f2e26a38,2024-08-29_15h57.05.813,WTP_SM_Choice,2022.2.1,MacIntel,63.29113924,,,,,,,,,,,,,,,,,,63,,,,,,,,,,0.03,1,1.8471,0,2,2,2,1,Catch up with a old cousin on a plane ride to the beach,play online RPG games in my man cave,0.03,0.03,3.3,0,,,,
,,66463e4efb99fba5a67a010a,6685aa9113c938e83b4f1ea0,66d0cf070883e2a9f2e26a38,2024-08-29_15h57.05.813,WTP_SM_Choice,2022.2.1,MacIntel,63.29113924,,,,,,,,,,,,,,,,,,64,,,,,,,,,,0.03,2,2.547,0,3,3,3,1,Bet on nfl with my family at the bar,Spin my DJ records in my studio,0.04,0.03,1.1,0,,,,
,,66463e4efb99fba5a67a010a,6685aa9113c938e83b4f1ea0,66d0cf070883e2a9f2e26a38,2024-08-29_15h57.05.813,WTP_SM_Choice,2022.2.1,MacIntel,63.29113924,,,,,,,,,,,,,,,,,,65,,,,,,,,,,0.03,2,2.2942,0,4,4,4,1,Swim in the pool with family,Spin my DJ records in my studio,0.05,0.03,1.1,0,,,,
,,66463e4efb99fba5a67a010a,6685aa9113c938e83b4f1ea0,66d0cf070883e2a9f2e26a38,2024-08-29_15h57.05.813,WTP_SM_Choice,2022.2.1,MacIntel,63.29113924,,,,,,,NAN,,NAN,1.4,4.6,,0,64,64,64,1,65,Sam,Rej,Participant_Images/66463e4efb99fba5a67a010a/66463e4efb99fba5a67a010a_Images/66463e4efb99fba5a67a010a_Image_17.jpeg,did not like,2.455989137,,,,,,,,,,,,,,,,,,,,,,
,,66463e4efb99fba5a67a010a,6685aa9113c938e83b4f1ea0,66d0cf070883e2a9f2e26a38,2024-08-29_15h57.05.813,WTP_SM_Choice,2022.2.1,MacIntel,63.29113924,,,,,space,7.1006,NAN,,NAN,1.4,4.6,,0,65,65,65,1,66,Sam,Rej,Participant_Images/66463e4efb99fba5a67a010a/66463e4efb99fba5a67a010a_Images/66463e4efb99fba5a67a010a_Image_24.jpeg,did not like,3.79605092,,,,,,,,,,,,,,,,,,,,,,
,,66463e4efb99fba5a67a010a,6685aa9113c938e83b4f1ea0,66d0cf070883e2a9f2e26a38,2024-08-29_15h57.05.813,WTP_SM_Choice,2022.2.1,MacIntel,63.29113924,,,,,space,3.3335,NAN,,NAN,1.4,4.6,,0,66,66,66,1,67,Sam,Rej,Participant_Images/66463e4efb99fba5a67a010a/66463e4efb99fba5a67a010a_Images/66463e4efb99fba5a67a010a_Image_2.jpeg,did not like,3.562416326,,,,,,,,,,,,,,,,,,,,,,
,,66463e4efb99fba5a67a010a,6685aa9113c938e83b4f1ea0,66d0cf070883e2a9f2e26a38,2024-08-29_15h57.05.813,WTP_SM_Choice,2022.2.1,MacIntel,63.29113924,,,,,space,5.7813,NAN,,NAN,1.4,4.6,,0,67,67,67,1,68,Sam,Rej,Participant_Images/66463e4efb99fba5a67a010a/66463e4efb99fba5a67a010a_Images/66463e4efb99fba5a67a010a_Image_22.jpeg,did not like,2.843822497,,,,,,,,,,,,,,,,,,,,,,
,,66463e4efb99fba5a67a010a,6685aa9113c938e83b4f1ea0,66d0cf070883e2a9f2e26a38,2024-08-29_15h57.05.813,WTP_SM_Choice,2022.2.1,MacIntel,63.29113924,,,,,space,1.3159,NAN,,NAN,1.4,4.6,,0,68,68,68,1,69,Sam,Rej,Participant_Images/66463e4efb99fba5a67a010a/66463e4efb99fba5a67a010a_Images/66463e4efb99fba5a67a010a_Image_3.jpeg,did not like,3.546495948,,,,,,,,,,,,,,,,,,,,,,
,,66463e4efb99fba5a67a010a,6685aa9113c938e83b4f1ea0,66d0cf070883e2a9f2e26a38,2024-08-29_15h57.05.813,WTP_SM_Choice,2022.2.1,MacIntel,63.29113924,,,,,,,,,,,,,,,,,,66,,,,,,space,0.9123,space,0.598,0.01,1,0.8875,0,0,0,0,1,watch youtube while watering my garden,Shop in a new city and having laughs with my childhood buddies,0.01,0.04,1.1,1,,,,
,,66463e4efb99fba5a67a010a,6685aa9113c938e83b4f1ea0,66d0cf070883e2a9f2e26a38,2024-08-29_15h57.05.813,WTP_SM_Choice,2022.2.1,MacIntel,63.29113924,,,,,,,,,,,,,,,,,,67,,,,,,,,,,0.02,1,1.1939,0,1,1,1,1,Board a cruise and survey all the restaurants with family ,Learn spanish in a dark basement,0.02,0.04,8.8,0,,,,
,,66463e4efb99fba5a67a010a,6685aa9113c938e83b4f1ea0,66d0cf070883e2a9f2e26a38,2024-08-29_15h57.05.813,WTP_SM_Choice,2022.2.1,MacIntel,63.29113924,,,,,,,,,,,,,,,,,,68,,,,,,,,,,0.03,1,2.1312,0,2,2,2,1,Swim in the pool with family,play online RPG games in my man cave,0.03,0.04,4.4,0,,,,
,,66463e4efb99fba5a67a010a,6685aa9113c938e83b4f1ea0,66d0cf070883e2a9f2e26a38,2024-08-29_15h57.05.813,WTP_SM_Choice,2022.2.1,MacIntel,63.29113924,,,,,,,,,,,,,,,,,,69,,,,,,,,,,0.04,1,3.6045,0,3,3,3,1,play online RPG games in my man cave,Cook food with new family members I just met,0.04,0.04,1.1,1,,,,
,,66463e4efb99fba5a67a010a,6685aa9113c938e83b4f1ea0,66d0cf070883e2a9f2e26a38,2024-08-29_15h57.05.813,WTP_SM_Choice,2022.2.1,MacIntel,63.29113924,,,,,,,,,,,,,,,,,,70,,,,,,,,,,0.04,2,3.9424,0,4,4,4,1,watch youtube while watering my garden,Board a cruise and survey all the restaurants with family ,0.05,0.04,1.1,1,,,,
,,66463e4efb99fba5a67a010a,6685aa9113c938e83b4f1ea0,66d0cf070883e2a9f2e26a38,2024-08-29_15h57.05.813,WTP_SM_Choice,2022.2.1,MacIntel,63.29113924,,,,,,,NAN,,NAN,1.54,4.46,,0,69,69,69,1,70,Sam,Rej,Participant_Images/66463e4efb99fba5a67a010a/66463e4efb99fba5a67a010a_Images/66463e4efb99fba5a67a010a_Image_5.jpeg,liked,1.672012706,,,,,,,,,,,,,,,,,,,,,,
,,66463e4efb99fba5a67a010a,6685aa9113c938e83b4f1ea0,66d0cf070883e2a9f2e26a38,2024-08-29_15h57.05.813,WTP_SM_Choice,2022.2.1,MacIntel,63.29113924,,,,,space,1.5313,NAN,,NAN,1.54,4.46,,0,70,70,70,1,71,Sam,Rej,Participant_Images/66463e4efb99fba5a67a010a/66463e4efb99fba5a67a010a_Images/66463e4efb99fba5a67a010a_Image_20.jpeg,did not like,4.942172136,,,,,,,,,,,,,,,,,,,,,,
,,66463e4efb99fba5a67a010a,6685aa9113c938e83b4f1ea0,66d0cf070883e2a9f2e26a38,2024-08-29_15h57.05.813,WTP_SM_Choice,2022.2.1,MacIntel,63.29113924,,,,,space,0.8161,NAN,,NAN,1.54,4.46,,0,71,71,71,1,72,Sam,Rej,Participant_Images/66463e4efb99fba5a67a010a/66463e4efb99fba5a67a010a_Images/66463e4efb99fba5a67a010a_Image_15.jpeg,did not like,2.50187214,,,,,,,,,,,,,,,,,,,,,,
,,66463e4efb99fba5a67a010a,6685aa9113c938e83b4f1ea0,66d0cf070883e2a9f2e26a38,2024-08-29_15h57.05.813,WTP_SM_Choice,2022.2.1,MacIntel,63.29113924,,,,,space,0.7554,NAN,,NAN,1.54,4.46,,0,72,72,72,1,73,Sam,Rej,Participant_Images/66463e4efb99fba5a67a010a/66463e4efb99fba5a67a010a_Images/66463e4efb99fba5a67a010a_Image_9.jpeg,did not like,2.071164779,,,,,,,,,,,,,,,,,,,,,,
,,66463e4efb99fba5a67a010a,6685aa9113c938e83b4f1ea0,66d0cf070883e2a9f2e26a38,2024-08-29_15h57.05.813,WTP_SM_Choice,2022.2.1,MacIntel,63.29113924,,,,,space,1.337,NAN,,NAN,1.54,4.46,,0,73,73,73,1,74,Sam,Rej,Participant_Images/66463e4efb99fba5a67a010a/66463e4efb99fba5a67a010a_Images/66463e4efb99fba5a67a010a_Image_12.jpeg,did not like,5.336503566,,,,,,,,,,,,,,,,,,,,,,
,,66463e4efb99fba5a67a010a,6685aa9113c938e83b4f1ea0,66d0cf070883e2a9f2e26a38,2024-08-29_15h57.05.813,WTP_SM_Choice,2022.2.1,MacIntel,63.29113924,,,,,,,,,,,,,,,,,,71,,,,,,space,1.1346,space,1.4994,0.01,1,1.2107,0,0,0,0,1,Analyze data in a quiet library,Cook food with new family members I just met,0.01,0.05,3.3,1,,,,
,,66463e4efb99fba5a67a010a,6685aa9113c938e83b4f1ea0,66d0cf070883e2a9f2e26a38,2024-08-29_15h57.05.813,WTP_SM_Choice,2022.2.1,MacIntel,63.29113924,,,,,,,,,,,,,,,,,,72,,,,,,,,,,0.02,1,1.0825,0,1,1,1,1,Learn spanish in a dark basement,Bet on nfl with my family at the bar,0.02,0.05,8.8,1,,,,
,,66463e4efb99fba5a67a010a,6685aa9113c938e83b4f1ea0,66d0cf070883e2a9f2e26a38,2024-08-29_15h57.05.813,WTP_SM_Choice,2022.2.1,MacIntel,63.29113924,,,,,,,,,,,,,,,,,,73,,,,,,,,,,0.03,1,1.1449,0,2,2,2,1,Code applications in my bedroom,Watch animal shows on  a friday night at my parents house,0.03,0.05,3.3,1,,,,
,,66463e4efb99fba5a67a010a,6685aa9113c938e83b4f1ea0,66d0cf070883e2a9f2e26a38,2024-08-29_15h57.05.813,WTP_SM_Choice,2022.2.1,MacIntel,63.29113924,,,,,,,,,,,,,,,,,,74,,,,,,,,,,0.04,1,1.5653,0,3,3,3,1,Cook food with new family members I just met,Code applications in my bedroom,0.04,0.05,4.4,0,,,,
,,66463e4efb99fba5a67a010a,6685aa9113c938e83b4f1ea0,66d0cf070883e2a9f2e26a38,2024-08-29_15h57.05.813,WTP_SM_Choice,2022.2.1,MacIntel,63.29113924,,,,,,,,,,,,,,,,,,75,,,,,,,,,,0.05,1,2.1538,0,4,4,4,1,Board a cruise and survey all the restaurants with family ,Code applications in my bedroom,0.05,0.05,3.3,0,,,,
,,66463e4efb99fba5a67a010a,6685aa9113c938e83b4f1ea0,66d0cf070883e2a9f2e26a38,2024-08-29_15h57.05.813,WTP_SM_Choice,2022.2.1,MacIntel,63.29113924,,,,,,,2,,2,1.69,4.31,,0,74,74,74,1,75,Sam,Rej,Participant_Images/66463e4efb99fba5a67a010a/66463e4efb99fba5a67a010a_Images/66463e4efb99fba5a67a010a_Image_10.jpeg,did not like,2.642157193,,,,,,,,,,,,,,,,,,,space,1.5499,,
,,66463e4efb99fba5a67a010a,6685aa9113c938e83b4f1ea0,66d0cf070883e2a9f2e26a38,2024-08-29_15h57.05.813,WTP_SM_Choice,2022.2.1,MacIntel,63.29113924,,,space,9.5474,space,1.365,NAN,,NAN,1.69,4.31,,0,75,75,75,1,76,Riley,Acc,Participant_Images/66463e4efb99fba5a67a010a/66463e4efb99fba5a67a010a_Images/66463e4efb99fba5a67a010a_Image_10.jpeg,liked,4.456234322,,,,,,,,,,,,,,,,,,,,,,
,,66463e4efb99fba5a67a010a,6685aa9113c938e83b4f1ea0,66d0cf070883e2a9f2e26a38,2024-08-29_15h57.05.813,WTP_SM_Choice,2022.2.1,MacIntel,63.29113924,,,,,space,0.8162,NAN,,NAN,1.69,4.31,,0,76,76,76,1,77,Riley,Acc,Participant_Images/66463e4efb99fba5a67a010a/66463e4efb99fba5a67a010a_Images/66463e4efb99fba5a67a010a_Image_13.jpeg,liked,4.438512181,,,,,,,,,,,,,,,,,,,,,,
,,66463e4efb99fba5a67a010a,6685aa9113c938e83b4f1ea0,66d0cf070883e2a9f2e26a38,2024-08-29_15h57.05.813,WTP_SM_Choice,2022.2.1,MacIntel,63.29113924,,,,,space,2.7672,NAN,,NAN,1.69,4.31,,0,77,77,77,1,78,Riley,Acc,Participant_Images/66463e4efb99fba5a67a010a/66463e4efb99fba5a67a010a_Images/66463e4efb99fba5a67a010a_Image_1.jpeg,did not like,2.682944783,,,,,,,,,,,,,,,,,,,,,,
,,66463e4efb99fba5a67a010a,6685aa9113c938e83b4f1ea0,66d0cf070883e2a9f2e26a38,2024-08-29_15h57.05.813,WTP_SM_Choice,2022.2.1,MacIntel,63.29113924,,,,,space,0.9638,NAN,,NAN,1.69,4.31,,0,78,78,78,1,79,Riley,Acc,Participant_Images/66463e4efb99fba5a67a010a/66463e4efb99fba5a67a010a_Images/66463e4efb99fba5a67a010a_Image_21.jpeg,liked,4.51984296,,,,,,,,,,,,,,,,,,,,,,
,,66463e4efb99fba5a67a010a,6685aa9113c938e83b4f1ea0,66d0cf070883e2a9f2e26a38,2024-08-29_15h57.05.813,WTP_SM_Choice,2022.2.1,MacIntel,63.29113924,,,,,,,,,,,,,,,,,,76,,,,,,space,2.3691,space,0.8049,0.01,1,1.0601,0,0,0,0,1,Shop in a new city and having laughs with my childhood buddies,Code applications in my bedroom,0.01,0.01,1.1,0,,,,
,,66463e4efb99fba5a67a010a,6685aa9113c938e83b4f1ea0,66d0cf070883e2a9f2e26a38,2024-08-29_15h57.05.813,WTP_SM_Choice,2022.2.1,MacIntel,63.29113924,,,,,,,,,,,,,,,,,,77,,,,,,,,,,0.01,2,1.1799,0,1,1,1,1,Drink a warm beer while walking in the park,Go to the movies at a luxury theatre ,0.02,0.01,8.8,1,,,,
,,66463e4efb99fba5a67a010a,6685aa9113c938e83b4f1ea0,66d0cf070883e2a9f2e26a38,2024-08-29_15h57.05.813,WTP_SM_Choice,2022.2.1,MacIntel,63.29113924,,,,,,,,,,,,,,,,,,78,,,,,,,,,,0.01,2,1.3982,0,2,2,2,1,Bet on nfl with my family at the bar,Send emails to potential clients while on a train to NYC,0.03,0.01,1.1,0,,,,
,,66463e4efb99fba5a67a010a,6685aa9113c938e83b4f1ea0,66d0cf070883e2a9f2e26a38,2024-08-29_15h57.05.813,WTP_SM_Choice,2022.2.1,MacIntel,63.29113924,,,,,,,,,,,,,,,,,,79,,,,,,,,,,0.01,2,0.9824,0,3,3,3,1,play online RPG games in my man cave,Dance to salsa in a new location with my spouse and friends,0.04,0.01,1.1,1,,,,
,,66463e4efb99fba5a67a010a,6685aa9113c938e83b4f1ea0,66d0cf070883e2a9f2e26a38,2024-08-29_15h57.05.813,WTP_SM_Choice,2022.2.1,MacIntel,63.29113924,,,,,,,,,,,,,,,,,,80,,,,,,,,,,0.01,2,1.3592,0,4,4,4,1,play online RPG games in my man cave,Go to the movies at a luxury theatre ,0.05,0.01,4.4,1,,,,
,,66463e4efb99fba5a67a010a,6685aa9113c938e83b4f1ea0,66d0cf070883e2a9f2e26a38,2024-08-29_15h57.05.813,WTP_SM_Choice,2022.2.1,MacIntel,63.29113924,,,,,,,NAN,,NAN,1.74,4.26,,0,79,79,79,1,80,Riley,Acc,Participant_Images/66463e4efb99fba5a67a010a/66463e4efb99fba5a67a010a_Images/66463e4efb99fba5a67a010a_Image_19.jpeg,liked,3.195382774,,,,,,,,,,,,,,,,,,,,,,
,,66463e4efb99fba5a67a010a,6685aa9113c938e83b4f1ea0,66d0cf070883e2a9f2e26a38,2024-08-29_15h57.05.813,WTP_SM_Choice,2022.2.1,MacIntel,63.29113924,,,,,space,1.5468,NAN,,NAN,1.74,4.26,,0,80,80,80,1,81,Riley,Acc,Participant_Images/66463e4efb99fba5a67a010a/66463e4efb99fba5a67a010a_Images/66463e4efb99fba5a67a010a_Image_22.jpeg,liked,1.779333479,,,,,,,,,,,,,,,,,,,,,,
,,66463e4efb99fba5a67a010a,6685aa9113c938e83b4f1ea0,66d0cf070883e2a9f2e26a38,2024-08-29_15h57.05.813,WTP_SM_Choice,2022.2.1,MacIntel,63.29113924,,,,,space,0.8168,NAN,,NAN,1.74,4.26,,0,81,81,81,1,82,Riley,Acc,Participant_Images/66463e4efb99fba5a67a010a/66463e4efb99fba5a67a010a_Images/66463e4efb99fba5a67a010a_Image_7.jpeg,liked,4.312468682,,,,,,,,,,,,,,,,,,,,,,
,,66463e4efb99fba5a67a010a,6685aa9113c938e83b4f1ea0,66d0cf070883e2a9f2e26a38,2024-08-29_15h57.05.813,WTP_SM_Choice,2022.2.1,MacIntel,63.29113924,,,,,space,3.0825,NAN,,NAN,1.74,4.26,,0,82,82,82,1,83,Riley,Acc,Participant_Images/66463e4efb99fba5a67a010a/66463e4efb99fba5a67a010a_Images/66463e4efb99fba5a67a010a_Image_15.jpeg,liked,4.940433059,,,,,,,,,,,,,,,,,,,,,,
,,66463e4efb99fba5a67a010a,6685aa9113c938e83b4f1ea0,66d0cf070883e2a9f2e26a38,2024-08-29_15h57.05.813,WTP_SM_Choice,2022.2.1,MacIntel,63.29113924,,,,,space,0.8492,NAN,,NAN,1.74,4.26,,0,83,83,83,1,84,Riley,Acc,Participant_Images/66463e4efb99fba5a67a010a/66463e4efb99fba5a67a010a_Images/66463e4efb99fba5a67a010a_Image_16.jpeg,liked,2.7105123,,,,,,,,,,,,,,,,,,,,,,
,,66463e4efb99fba5a67a010a,6685aa9113c938e83b4f1ea0,66d0cf070883e2a9f2e26a38,2024-08-29_15h57.05.813,WTP_SM_Choice,2022.2.1,MacIntel,63.29113924,,,,,,,,,,,,,,,,,,81,,,,,,space,4.0703,space,4.7329,0.01,1,2.0924,0,0,0,0,1,Sleep over a in-laws house and making nachos,Spin my DJ records in my studio,0.01,0.02,3.3,0,,,,
,,66463e4efb99fba5a67a010a,6685aa9113c938e83b4f1ea0,66d0cf070883e2a9f2e26a38,2024-08-29_15h57.05.813,WTP_SM_Choice,2022.2.1,MacIntel,63.29113924,,,,,,,,,,,,,,,,,,82,,,,,,,,,,0.02,1,2.6798,0,1,1,1,1,Bet on nfl with my family at the bar,Drink a warm beer while walking in the park,0.02,0.02,4.4,0,,,,
,,66463e4efb99fba5a67a010a,6685aa9113c938e83b4f1ea0,66d0cf070883e2a9f2e26a38,2024-08-29_15h57.05.813,WTP_SM_Choice,2022.2.1,MacIntel,63.29113924,,,,,,,,,,,,,,,,,,83,,,,,,,,,,0.02,2,2.2499,0,2,2,2,1,Watch animal shows on  a friday night at my parents house,Analyze data in a quiet library,0.03,0.02,1.1,0,,,,
,,66463e4efb99fba5a67a010a,6685aa9113c938e83b4f1ea0,66d0cf070883e2a9f2e26a38,2024-08-29_15h57.05.813,WTP_SM_Choice,2022.2.1,MacIntel,63.29113924,,,,,,,,,,,,,,,,,,84,,,,,,,,,,0.02,2,1.2804,0,3,3,3,1,Sleep over a in-laws house and making nachos,Learn spanish in a dark basement,0.04,0.02,3.3,0,,,,
,,66463e4efb99fba5a67a010a,6685aa9113c938e83b4f1ea0,66d0cf070883e2a9f2e26a38,2024-08-29_15h57.05.813,WTP_SM_Choice,2022.2.1,MacIntel,63.29113924,,,,,,,,,,,,,,,,,,85,,,,,,,,,,0.02,2,1.0834,0,4,4,4,1,Code applications in my bedroom,Sleep over a in-laws house and making nachos,0.05,0.02,3.3,1,,,,
,,66463e4efb99fba5a67a010a,6685aa9113c938e83b4f1ea0,66d0cf070883e2a9f2e26a38,2024-08-29_15h57.05.813,WTP_SM_Choice,2022.2.1,MacIntel,63.29113924,,,,,,,NAN,,NAN,1.83,4.17,,0,84,84,84,1,85,Riley,Acc,Participant_Images/66463e4efb99fba5a67a010a/66463e4efb99fba5a67a010a_Images/66463e4efb99fba5a67a010a_Image_12.jpeg,liked,3.602308302,,,,,,,,,,,,,,,,,,,,,,
,,66463e4efb99fba5a67a010a,6685aa9113c938e83b4f1ea0,66d0cf070883e2a9f2e26a38,2024-08-29_15h57.05.813,WTP_SM_Choice,2022.2.1,MacIntel,63.29113924,,,,,space,4.2673,NAN,,NAN,1.83,4.17,,0,85,85,85,1,86,Riley,Acc,Participant_Images/66463e4efb99fba5a67a010a/66463e4efb99fba5a67a010a_Images/66463e4efb99fba5a67a010a_Image_11.jpeg,did not like,4.106391878,,,,,,,,,,,,,,,,,,,,,,
,,66463e4efb99fba5a67a010a,6685aa9113c938e83b4f1ea0,66d0cf070883e2a9f2e26a38,2024-08-29_15h57.05.813,WTP_SM_Choice,2022.2.1,MacIntel,63.29113924,,,,,space,3.1986,NAN,,NAN,1.83,4.17,,0,86,86,86,1,87,Riley,Acc,Participant_Images/66463e4efb99fba5a67a010a/66463e4efb99fba5a67a010a_Images/66463e4efb99fba5a67a010a_Image_20.jpeg,did not like,3.799433026,,,,,,,,,,,,,,,,,,,,,,
,,66463e4efb99fba5a67a010a,6685aa9113c938e83b4f1ea0,66d0cf070883e2a9f2e26a38,2024-08-29_15h57.05.813,WTP_SM_Choice,2022.2.1,MacIntel,63.29113924,,,,,space,0.6859,NAN,,NAN,1.83,4.17,,0,87,87,87,1,88,Riley,Acc,Participant_Images/66463e4efb99fba5a67a010a/66463e4efb99fba5a67a010a_Images/66463e4efb99fba5a67a010a_Image_18.jpeg,did not like,5.246980764,,,,,,,,,,,,,,,,,,,,,,
,,66463e4efb99fba5a67a010a,6685aa9113c938e83b4f1ea0,66d0cf070883e2a9f2e26a38,2024-08-29_15h57.05.813,WTP_SM_Choice,2022.2.1,MacIntel,63.29113924,,,,,space,0.8535,NAN,,NAN,1.83,4.17,,0,88,88,88,1,89,Riley,Acc,Participant_Images/66463e4efb99fba5a67a010a/66463e4efb99fba5a67a010a_Images/66463e4efb99fba5a67a010a_Image_17.jpeg,liked,3.30081769,,,,,,,,,,,,,,,,,,,,,,
,,66463e4efb99fba5a67a010a,6685aa9113c938e83b4f1ea0,66d0cf070883e2a9f2e26a38,2024-08-29_15h57.05.813,WTP_SM_Choice,2022.2.1,MacIntel,63.29113924,,,,,,,,,,,,,,,,,,86,,,,,,space,0.6918,space,0.8017,0.01,1,0.801,0,0,0,0,1,Dance to salsa in a new location with my spouse and friends,Analyze data in a quiet library,0.01,0.03,1.1,0,,,,
,,66463e4efb99fba5a67a010a,6685aa9113c938e83b4f1ea0,66d0cf070883e2a9f2e26a38,2024-08-29_15h57.05.813,WTP_SM_Choice,2022.2.1,MacIntel,63.29113924,,,,,,,,,,,,,,,,,,87,,,,,,,,,,0.02,1,0.9323,0,1,1,1,1,Listen to ai music while laying on my carpet,Watch animal shows on  a friday night at my parents house,0.02,0.03,4.4,1,,,,
,,66463e4efb99fba5a67a010a,6685aa9113c938e83b4f1ea0,66d0cf070883e2a9f2e26a38,2024-08-29_15h57.05.813,WTP_SM_Choice,2022.2.1,MacIntel,63.29113924,,,,,,,,,,,,,,,,,,88,,,,,,,,,,0.03,1,2.1149,0,2,2,2,1,Watch animal shows on  a friday night at my parents house,Learn spanish in a dark basement,0.03,0.03,1.1,0,,,,
,,66463e4efb99fba5a67a010a,6685aa9113c938e83b4f1ea0,66d0cf070883e2a9f2e26a38,2024-08-29_15h57.05.813,WTP_SM_Choice,2022.2.1,MacIntel,63.29113924,,,,,,,,,,,,,,,,,,89,,,,,,,,,,0.03,2,1.1411,0,3,3,3,1,Go to the movies at a luxury theatre ,Analyze data in a quiet library,0.04,0.03,3.3,0,,,,
,,66463e4efb99fba5a67a010a,6685aa9113c938e83b4f1ea0,66d0cf070883e2a9f2e26a38,2024-08-29_15h57.05.813,WTP_SM_Choice,2022.2.1,MacIntel,63.29113924,,,,,,,,,,,,,,,,,,90,,,,,,,,,,0.03,2,1.0754,0,4,4,4,1,Spin my DJ records in my studio,Shop in a new city and having laughs with my childhood buddies,0.05,0.03,8.8,1,,,,
,,66463e4efb99fba5a67a010a,6685aa9113c938e83b4f1ea0,66d0cf070883e2a9f2e26a38,2024-08-29_15h57.05.813,WTP_SM_Choice,2022.2.1,MacIntel,63.29113924,,,,,,,NAN,,NAN,1.95,4.05,,0,89,89,89,1,90,Riley,Acc,Participant_Images/66463e4efb99fba5a67a010a/66463e4efb99fba5a67a010a_Images/66463e4efb99fba5a67a010a_Image_14.jpeg,liked,1.661473164,,,,,,,,,,,,,,,,,,,,,,
,,66463e4efb99fba5a67a010a,6685aa9113c938e83b4f1ea0,66d0cf070883e2a9f2e26a38,2024-08-29_15h57.05.813,WTP_SM_Choice,2022.2.1,MacIntel,63.29113924,,,,,space,0.9353,NAN,,NAN,1.95,4.05,,0,90,90,90,1,91,Riley,Acc,Participant_Images/66463e4efb99fba5a67a010a/66463e4efb99fba5a67a010a_Images/66463e4efb99fba5a67a010a_Image_25.jpeg,did not like,3.613205605,,,,,,,,,,,,,,,,,,,,,,
,,66463e4efb99fba5a67a010a,6685aa9113c938e83b4f1ea0,66d0cf070883e2a9f2e26a38,2024-08-29_15h57.05.813,WTP_SM_Choice,2022.2.1,MacIntel,63.29113924,,,,,space,0.867,NAN,,NAN,1.95,4.05,,0,91,91,91,1,92,Riley,Acc,Participant_Images/66463e4efb99fba5a67a010a/66463e4efb99fba5a67a010a_Images/66463e4efb99fba5a67a010a_Image_24.jpeg,did not like,4.988446431,,,,,,,,,,,,,,,,,,,,,,
,,66463e4efb99fba5a67a010a,6685aa9113c938e83b4f1ea0,66d0cf070883e2a9f2e26a38,2024-08-29_15h57.05.813,WTP_SM_Choice,2022.2.1,MacIntel,63.29113924,,,,,space,0.7471,NAN,,NAN,1.95,4.05,,0,92,92,92,1,93,Riley,Acc,Participant_Images/66463e4efb99fba5a67a010a/66463e4efb99fba5a67a010a_Images/66463e4efb99fba5a67a010a_Image_8.jpeg,liked,3.470791822,,,,,,,,,,,,,,,,,,,,,,
,,66463e4efb99fba5a67a010a,6685aa9113c938e83b4f1ea0,66d0cf070883e2a9f2e26a38,2024-08-29_15h57.05.813,WTP_SM_Choice,2022.2.1,MacIntel,63.29113924,,,,,space,0.8214,NAN,,NAN,1.95,4.05,,0,93,93,93,1,94,Riley,Acc,Participant_Images/66463e4efb99fba5a67a010a/66463e4efb99fba5a67a010a_Images/66463e4efb99fba5a67a010a_Image_6.jpeg,liked,3.820572462,,,,,,,,,,,,,,,,,,,,,,
,,66463e4efb99fba5a67a010a,6685aa9113c938e83b4f1ea0,66d0cf070883e2a9f2e26a38,2024-08-29_15h57.05.813,WTP_SM_Choice,2022.2.1,MacIntel,63.29113924,,,,,,,,,,,,,,,,,,91,,,,,,space,0.7995,space,0.6609,0.01,1,0.7611,0,0,0,0,1,Drink a warm beer while walking in the park,Swim in the pool with family,0.01,0.04,3.3,1,,,,
,,66463e4efb99fba5a67a010a,6685aa9113c938e83b4f1ea0,66d0cf070883e2a9f2e26a38,2024-08-29_15h57.05.813,WTP_SM_Choice,2022.2.1,MacIntel,63.29113924,,,,,,,,,,,,,,,,,,92,,,,,,,,,,0.02,1,2.1285,0,1,1,1,1,Drink a warm beer while walking in the park,Dance to salsa in a new location with my spouse and friends,0.02,0.04,8.8,1,,,,
,,66463e4efb99fba5a67a010a,6685aa9113c938e83b4f1ea0,66d0cf070883e2a9f2e26a38,2024-08-29_15h57.05.813,WTP_SM_Choice,2022.2.1,MacIntel,63.29113924,,,,,,,,,,,,,,,,,,93,,,,,,,,,,0.03,1,1.348,0,2,2,2,1,Swim in the pool with family,Analyze data in a quiet library,0.03,0.04,1.1,0,,,,
,,66463e4efb99fba5a67a010a,6685aa9113c938e83b4f1ea0,66d0cf070883e2a9f2e26a38,2024-08-29_15h57.05.813,WTP_SM_Choice,2022.2.1,MacIntel,63.29113924,,,,,,,,,,,,,,,,,,94,,,,,,,,,,0.04,1,1.9444,0,3,3,3,1,Shop in a new city and having laughs with my childhood buddies,Eat breakfast in my living room,0.04,0.04,4.4,0,,,,
,,66463e4efb99fba5a67a010a,6685aa9113c938e83b4f1ea0,66d0cf070883e2a9f2e26a38,2024-08-29_15h57.05.813,WTP_SM_Choice,2022.2.1,MacIntel,63.29113924,,,,,,,,,,,,,,,,,,95,,,,,,,,,,0.04,2,2.7176,0,4,4,4,1,Drink a warm beer while walking in the park,Catch up with a old cousin on a plane ride to the beach,0.05,0.04,4.4,1,,,,
,,66463e4efb99fba5a67a010a,6685aa9113c938e83b4f1ea0,66d0cf070883e2a9f2e26a38,2024-08-29_15h57.05.813,WTP_SM_Choice,2022.2.1,MacIntel,63.29113924,,,,,,,NAN,,NAN,2.09,3.91,,0,94,94,94,1,95,Riley,Acc,Participant_Images/66463e4efb99fba5a67a010a/66463e4efb99fba5a67a010a_Images/66463e4efb99fba5a67a010a_Image_23.jpeg,liked,2.455989137,,,,,,,,,,,,,,,,,,,,,,
,,66463e4efb99fba5a67a010a,6685aa9113c938e83b4f1ea0,66d0cf070883e2a9f2e26a38,2024-08-29_15h57.05.813,WTP_SM_Choice,2022.2.1,MacIntel,63.29113924,,,,,space,0.6491,NAN,,NAN,2.09,3.91,,0,95,95,95,1,96,Riley,Acc,Participant_Images/66463e4efb99fba5a67a010a/66463e4efb99fba5a67a010a_Images/66463e4efb99fba5a67a010a_Image_4.jpeg,liked,3.79605092,,,,,,,,,,,,,,,,,,,,,,
,,66463e4efb99fba5a67a010a,6685aa9113c938e83b4f1ea0,66d0cf070883e2a9f2e26a38,2024-08-29_15h57.05.813,WTP_SM_Choice,2022.2.1,MacIntel,63.29113924,,,,,space,2.2524,NAN,,NAN,2.09,3.91,,0,96,96,96,1,97,Riley,Acc,Participant_Images/66463e4efb99fba5a67a010a/66463e4efb99fba5a67a010a_Images/66463e4efb99fba5a67a010a_Image_3.jpeg,did not like,3.562416326,,,,,,,,,,,,,,,,,,,,,,
,,66463e4efb99fba5a67a010a,6685aa9113c938e83b4f1ea0,66d0cf070883e2a9f2e26a38,2024-08-29_15h57.05.813,WTP_SM_Choice,2022.2.1,MacIntel,63.29113924,,,,,space,0.6508,NAN,,NAN,2.09,3.91,,0,97,97,97,1,98,Riley,Acc,Participant_Images/66463e4efb99fba5a67a010a/66463e4efb99fba5a67a010a_Images/66463e4efb99fba5a67a010a_Image_9.jpeg,liked,2.843822497,,,,,,,,,,,,,,,,,,,,,,
,,66463e4efb99fba5a67a010a,6685aa9113c938e83b4f1ea0,66d0cf070883e2a9f2e26a38,2024-08-29_15h57.05.813,WTP_SM_Choice,2022.2.1,MacIntel,63.29113924,,,,,space,0.7512,NAN,,NAN,2.09,3.91,,0,98,98,98,1,99,Riley,Acc,Participant_Images/66463e4efb99fba5a67a010a/66463e4efb99fba5a67a010a_Images/66463e4efb99fba5a67a010a_Image_5.jpeg,liked,3.546495948,,,,,,,,,,,,,,,,,,,,,,
,,66463e4efb99fba5a67a010a,6685aa9113c938e83b4f1ea0,66d0cf070883e2a9f2e26a38,2024-08-29_15h57.05.813,WTP_SM_Choice,2022.2.1,MacIntel,63.29113924,,,,,,,,,,,,,,,,,,96,,,,,,space,1.1174,space,7.5205,0.01,1,1.0145,0,0,0,0,1,Listen to ai music while laying on my carpet,Cook food with new family members I just met,0.01,0.05,3.3,1,,,,
,,66463e4efb99fba5a67a010a,6685aa9113c938e83b4f1ea0,66d0cf070883e2a9f2e26a38,2024-08-29_15h57.05.813,WTP_SM_Choice,2022.2.1,MacIntel,63.29113924,,,,,,,,,,,,,,,,,,97,,,,,,,,,,0.02,1,1.2785,0,1,1,1,1,Catch up with a old cousin on a plane ride to the beach,Analyze data in a quiet library,0.02,0.05,1.1,0,,,,
,,66463e4efb99fba5a67a010a,6685aa9113c938e83b4f1ea0,66d0cf070883e2a9f2e26a38,2024-08-29_15h57.05.813,WTP_SM_Choice,2022.2.1,MacIntel,63.29113924,,,,,,,,,,,,,,,,,,98,,,,,,,,,,0.03,1,1.0179,0,2,2,2,1,Eat breakfast in my living room,Watch animal shows on  a friday night at my parents house,0.03,0.05,1.1,1,,,,
,,66463e4efb99fba5a67a010a,6685aa9113c938e83b4f1ea0,66d0cf070883e2a9f2e26a38,2024-08-29_15h57.05.813,WTP_SM_Choice,2022.2.1,MacIntel,63.29113924,,,,,,,,,,,,,,,,,,99,,,,,,,,,,0.04,1,2.4371,0,3,3,3,1,play online RPG games in my man cave,Board a cruise and survey all the restaurants with family ,0.04,0.05,3.3,1,,,,
,,66463e4efb99fba5a67a010a,6685aa9113c938e83b4f1ea0,66d0cf070883e2a9f2e26a38,2024-08-29_15h57.05.813,WTP_SM_Choice,2022.2.1,MacIntel,63.29113924,,,,,,,,,,,,,,,,,,100,,,,,,,,,,0.05,1,2.2151,0,4,4,4,1,Analyze data in a quiet library,Bet on nfl with my family at the bar,0.05,0.05,4.4,1,,,,
,,66463e4efb99fba5a67a010a,6685aa9113c938e83b4f1ea0,66d0cf070883e2a9f2e26a38,2024-08-29_15h57.05.813,WTP_SM_Choice,2022.2.1,MacIntel,63.29113924,,,,,,,2,,2,2.24,3.76,,0,99,99,99,1,100,Riley,Acc,Participant_Images/66463e4efb99fba5a67a010a/66463e4efb99fba5a67a010a_Images/66463e4efb99fba5a67a010a_Image_2.jpeg,liked,1.672012706,,,,,,,,,,,,,,,,,,,space,0.9517,,
,,66463e4efb99fba5a67a010a,6685aa9113c938e83b4f1ea0,66d0cf070883e2a9f2e26a38,2024-08-29_15h57.05.813,WTP_SM_Choice,2022.2.1,MacIntel,63.29113924,,,,,,,,,,,,,,,,,,,,,,,,,,,,,,,,,,,,,,,,,,,,space,5.8139
