endwelcomescreen_keys.keys,endwelcomescreen_keys.rt,participant,STUDY_ID,SESSION_ID,date,expName,psychopyVersion,OS,frameRate,endinstructionscreen_keys.keys,endinstructionscreen_keys.rt,endpartnermatch_keys.keys,endpartnermatch_keys.rt,sharenextphoto_key.keys,sharenextphoto_key.rt,salience_rating,key_resp.keys,stress_level,subtract_bonus,TOTAL_TASK_BONUS,stresslevel_keypress.keys,entiretaskloop.thisRepN,entiretaskloop.thisTrialN,entiretaskloop.thisN,entiretaskloop.thisIndex,entiretaskloop.ran,TrialNumber,Partner,Condition,Photos,Feedback,FeedbackWait,WTP_ins_keys1.keys,WTP_ins_keys1.rt,WTP_ins_keys2.keys,WTP_ins_keys2.rt,decision_price,responses.keys,responses.rt,WTPTaskLoop.thisRepN,WTPTaskLoop.thisTrialN,WTPTaskLoop.thisN,WTPTaskLoop.thisIndex,WTPTaskLoop.ran,right,left,leftmoney,rightmoney,WTP_ITI,social_left,Resume_keys.keys,Resume_keys.rt,end_screen_keys.keys,end_screen_keys.rt
space,5.9343,66465b2522d14ab162ff2dbd,6685aa9113c938e83b4f1ea0,66c776bfa5ed8f26d39f9578,2024-08-22_13h36.04.179,WTP_SM_Choice,2022.2.1,Linux x86_64,59.52380952,,,,,,,,,,,,,,,,,,,,,,,,,,,,,,,,,,,,,,,,,,,,,
,,66465b2522d14ab162ff2dbd,6685aa9113c938e83b4f1ea0,66c776bfa5ed8f26d39f9578,2024-08-22_13h36.04.179,WTP_SM_Choice,2022.2.1,Linux x86_64,59.52380952,space,22.377,,,,,,,,,,,,,,,,,,,,,,,,,,,,,,,,,,,,,,,,,,,
,,66465b2522d14ab162ff2dbd,6685aa9113c938e83b4f1ea0,66c776bfa5ed8f26d39f9578,2024-08-22_13h36.04.179,WTP_SM_Choice,2022.2.1,Linux x86_64,59.52380952,,,space,7.2553,space,0.7998,NAN,,NAN,0,6,,0,0,0,0,1,1,Charlie,Rej,Participant_Images/66465b2522d14ab162ff2dbd/66465b2522d14ab162ff2dbd_Images/66465b2522d14ab162ff2dbd_Image_12.jpeg,did not like,3.613205605,,,,,,,,,,,,,,,,,,,,,,
,,66465b2522d14ab162ff2dbd,6685aa9113c938e83b4f1ea0,66c776bfa5ed8f26d39f9578,2024-08-22_13h36.04.179,WTP_SM_Choice,2022.2.1,Linux x86_64,59.52380952,,,,,space,3.9487,NAN,,NAN,0,6,,0,1,1,1,1,2,Charlie,Rej,Participant_Images/66465b2522d14ab162ff2dbd/66465b2522d14ab162ff2dbd_Images/66465b2522d14ab162ff2dbd_Image_15.jpeg,did not like,4.988446431,,,,,,,,,,,,,,,,,,,,,,
,,66465b2522d14ab162ff2dbd,6685aa9113c938e83b4f1ea0,66c776bfa5ed8f26d39f9578,2024-08-22_13h36.04.179,WTP_SM_Choice,2022.2.1,Linux x86_64,59.52380952,,,,,space,0.4861,NAN,,NAN,0,6,,0,2,2,2,1,3,Charlie,Rej,Participant_Images/66465b2522d14ab162ff2dbd/66465b2522d14ab162ff2dbd_Images/66465b2522d14ab162ff2dbd_Image_22.jpeg,liked,3.470791822,,,,,,,,,,,,,,,,,,,,,,
,,66465b2522d14ab162ff2dbd,6685aa9113c938e83b4f1ea0,66c776bfa5ed8f26d39f9578,2024-08-22_13h36.04.179,WTP_SM_Choice,2022.2.1,Linux x86_64,59.52380952,,,,,space,4.8162,NAN,,NAN,0,6,,0,3,3,3,1,4,Charlie,Rej,Participant_Images/66465b2522d14ab162ff2dbd/66465b2522d14ab162ff2dbd_Images/66465b2522d14ab162ff2dbd_Image_11.jpeg,liked,3.820572462,,,,,,,,,,,,,,,,,,,,,,
,,66465b2522d14ab162ff2dbd,6685aa9113c938e83b4f1ea0,66c776bfa5ed8f26d39f9578,2024-08-22_13h36.04.179,WTP_SM_Choice,2022.2.1,Linux x86_64,59.52380952,,,,,,,,,,,,,,,,,,1,,,,,,space,0.2853,space,6.1303,0.01,1,9.8272,0,0,0,0,1,Watch adult animation shows with my boyfriend,Take a warm bath,0.01,0.01,4.4,0,,,,
,,66465b2522d14ab162ff2dbd,6685aa9113c938e83b4f1ea0,66c776bfa5ed8f26d39f9578,2024-08-22_13h36.04.179,WTP_SM_Choice,2022.2.1,Linux x86_64,59.52380952,,,,,,,,,,,,,,,,,,2,,,,,,,,,,0.01,2,4.466,0,1,1,1,1,Play with my animals,Watch adult animation shows with my boyfriend,0.02,0.01,8.8,1,,,,
,,66465b2522d14ab162ff2dbd,6685aa9113c938e83b4f1ea0,66c776bfa5ed8f26d39f9578,2024-08-22_13h36.04.179,WTP_SM_Choice,2022.2.1,Linux x86_64,59.52380952,,,,,,,,,,,,,,,,,,3,,,,,,,,,,0.03,1,3.9211,0,2,2,2,1,Play video games,Watch tv saturday nights with my dad,0.03,0.01,3.3,1,,,,
,,66465b2522d14ab162ff2dbd,6685aa9113c938e83b4f1ea0,66c776bfa5ed8f26d39f9578,2024-08-22_13h36.04.179,WTP_SM_Choice,2022.2.1,Linux x86_64,59.52380952,,,,,,,,,,,,,,,,,,4,,,,,,,,,,0.04,1,3.147,0,3,3,3,1,Take a warm bath,Go fish with my family,0.04,0.01,1.1,1,,,,
,,66465b2522d14ab162ff2dbd,6685aa9113c938e83b4f1ea0,66c776bfa5ed8f26d39f9578,2024-08-22_13h36.04.179,WTP_SM_Choice,2022.2.1,Linux x86_64,59.52380952,,,,,,,,,,,,,,,,,,5,,,,,,,,,,0.05,1,5.2315,0,4,4,4,1,Paint my toes and nails,Go out to eat with my boyfriend,0.05,0.01,1.1,1,,,,
,,66465b2522d14ab162ff2dbd,6685aa9113c938e83b4f1ea0,66c776bfa5ed8f26d39f9578,2024-08-22_13h36.04.179,WTP_SM_Choice,2022.2.1,Linux x86_64,59.52380952,,,,,,,NAN,,NAN,0.14,5.86,,0,4,4,4,1,5,Charlie,Rej,Participant_Images/66465b2522d14ab162ff2dbd/66465b2522d14ab162ff2dbd_Images/66465b2522d14ab162ff2dbd_Image_7.jpeg,did not like,2.455989137,,,,,,,,,,,,,,,,,,,,,,
,,66465b2522d14ab162ff2dbd,6685aa9113c938e83b4f1ea0,66c776bfa5ed8f26d39f9578,2024-08-22_13h36.04.179,WTP_SM_Choice,2022.2.1,Linux x86_64,59.52380952,,,,,space,0.1491,NAN,,NAN,0.14,5.86,,0,5,5,5,1,6,Charlie,Rej,Participant_Images/66465b2522d14ab162ff2dbd/66465b2522d14ab162ff2dbd_Images/66465b2522d14ab162ff2dbd_Image_3.jpeg,liked,3.79605092,,,,,,,,,,,,,,,,,,,,,,
,,66465b2522d14ab162ff2dbd,6685aa9113c938e83b4f1ea0,66c776bfa5ed8f26d39f9578,2024-08-22_13h36.04.179,WTP_SM_Choice,2022.2.1,Linux x86_64,59.52380952,,,,,space,1.3567,NAN,,NAN,0.14,5.86,,0,6,6,6,1,7,Charlie,Rej,Participant_Images/66465b2522d14ab162ff2dbd/66465b2522d14ab162ff2dbd_Images/66465b2522d14ab162ff2dbd_Image_8.jpeg,liked,3.562416326,,,,,,,,,,,,,,,,,,,,,,
,,66465b2522d14ab162ff2dbd,6685aa9113c938e83b4f1ea0,66c776bfa5ed8f26d39f9578,2024-08-22_13h36.04.179,WTP_SM_Choice,2022.2.1,Linux x86_64,59.52380952,,,,,space,1.1703,NAN,,NAN,0.14,5.86,,0,7,7,7,1,8,Charlie,Rej,Participant_Images/66465b2522d14ab162ff2dbd/66465b2522d14ab162ff2dbd_Images/66465b2522d14ab162ff2dbd_Image_5.jpeg,did not like,2.843822497,,,,,,,,,,,,,,,,,,,,,,
,,66465b2522d14ab162ff2dbd,6685aa9113c938e83b4f1ea0,66c776bfa5ed8f26d39f9578,2024-08-22_13h36.04.179,WTP_SM_Choice,2022.2.1,Linux x86_64,59.52380952,,,,,space,0.9378,NAN,,NAN,0.14,5.86,,0,8,8,8,1,9,Charlie,Rej,Participant_Images/66465b2522d14ab162ff2dbd/66465b2522d14ab162ff2dbd_Images/66465b2522d14ab162ff2dbd_Image_17.jpeg,did not like,3.546495948,,,,,,,,,,,,,,,,,,,,,,
,,66465b2522d14ab162ff2dbd,6685aa9113c938e83b4f1ea0,66c776bfa5ed8f26d39f9578,2024-08-22_13h36.04.179,WTP_SM_Choice,2022.2.1,Linux x86_64,59.52380952,,,,,,,,,,,,,,,,,,6,,,,,,space,12.4708,space,6.6336,0.01,1,2.0354,0,0,0,0,1,Do my hair with my friends,Listen to podcasts,0.01,0.02,3.3,0,,,,
,,66465b2522d14ab162ff2dbd,6685aa9113c938e83b4f1ea0,66c776bfa5ed8f26d39f9578,2024-08-22_13h36.04.179,WTP_SM_Choice,2022.2.1,Linux x86_64,59.52380952,,,,,,,,,,,,,,,,,,7,,,,,,,,,,0.02,1,3.5016,0,1,1,1,1,Play video games,Play fortnite with my little brother,0.02,0.02,1.1,1,,,,
,,66465b2522d14ab162ff2dbd,6685aa9113c938e83b4f1ea0,66c776bfa5ed8f26d39f9578,2024-08-22_13h36.04.179,WTP_SM_Choice,2022.2.1,Linux x86_64,59.52380952,,,,,,,,,,,,,,,,,,8,,,,,,,,,,0.02,2,2.1777,0,2,2,2,1,Play fortnite with my little brother,Paint my toes and nails,0.03,0.02,1.1,0,,,,
,,66465b2522d14ab162ff2dbd,6685aa9113c938e83b4f1ea0,66c776bfa5ed8f26d39f9578,2024-08-22_13h36.04.179,WTP_SM_Choice,2022.2.1,Linux x86_64,59.52380952,,,,,,,,,,,,,,,,,,9,,,,,,,,,,0.02,2,2.168,0,3,3,3,1,Go to thrift stores with my boyfriend,Do my skin care,0.04,0.02,4.4,0,,,,
,,66465b2522d14ab162ff2dbd,6685aa9113c938e83b4f1ea0,66c776bfa5ed8f26d39f9578,2024-08-22_13h36.04.179,WTP_SM_Choice,2022.2.1,Linux x86_64,59.52380952,,,,,,,,,,,,,,,,,,10,,,,,,,,,,0.02,2,2.1294,0,4,4,4,1,Paint frames with my friends,Take a warm bath,0.05,0.02,1.1,0,,,,
,,66465b2522d14ab162ff2dbd,6685aa9113c938e83b4f1ea0,66c776bfa5ed8f26d39f9578,2024-08-22_13h36.04.179,WTP_SM_Choice,2022.2.1,Linux x86_64,59.52380952,,,,,,,NAN,,NAN,0.23,5.77,,0,9,9,9,1,10,Charlie,Rej,Participant_Images/66465b2522d14ab162ff2dbd/66465b2522d14ab162ff2dbd_Images/66465b2522d14ab162ff2dbd_Image_10.jpeg,liked,1.672012706,,,,,,,,,,,,,,,,,,,,,,
,,66465b2522d14ab162ff2dbd,6685aa9113c938e83b4f1ea0,66c776bfa5ed8f26d39f9578,2024-08-22_13h36.04.179,WTP_SM_Choice,2022.2.1,Linux x86_64,59.52380952,,,,,space,1.005,NAN,,NAN,0.23,5.77,,0,10,10,10,1,11,Charlie,Rej,Participant_Images/66465b2522d14ab162ff2dbd/66465b2522d14ab162ff2dbd_Images/66465b2522d14ab162ff2dbd_Image_24.jpeg,did not like,4.942172136,,,,,,,,,,,,,,,,,,,,,,
,,66465b2522d14ab162ff2dbd,6685aa9113c938e83b4f1ea0,66c776bfa5ed8f26d39f9578,2024-08-22_13h36.04.179,WTP_SM_Choice,2022.2.1,Linux x86_64,59.52380952,,,,,space,0.4035,NAN,,NAN,0.23,5.77,,0,11,11,11,1,12,Charlie,Rej,Participant_Images/66465b2522d14ab162ff2dbd/66465b2522d14ab162ff2dbd_Images/66465b2522d14ab162ff2dbd_Image_9.jpeg,did not like,2.50187214,,,,,,,,,,,,,,,,,,,,,,
,,66465b2522d14ab162ff2dbd,6685aa9113c938e83b4f1ea0,66c776bfa5ed8f26d39f9578,2024-08-22_13h36.04.179,WTP_SM_Choice,2022.2.1,Linux x86_64,59.52380952,,,,,space,0.2819,NAN,,NAN,0.23,5.77,,0,12,12,12,1,13,Charlie,Rej,Participant_Images/66465b2522d14ab162ff2dbd/66465b2522d14ab162ff2dbd_Images/66465b2522d14ab162ff2dbd_Image_1.jpeg,did not like,2.071164779,,,,,,,,,,,,,,,,,,,,,,
,,66465b2522d14ab162ff2dbd,6685aa9113c938e83b4f1ea0,66c776bfa5ed8f26d39f9578,2024-08-22_13h36.04.179,WTP_SM_Choice,2022.2.1,Linux x86_64,59.52380952,,,,,space,1.2393,NAN,,NAN,0.23,5.77,,0,13,13,13,1,14,Charlie,Rej,Participant_Images/66465b2522d14ab162ff2dbd/66465b2522d14ab162ff2dbd_Images/66465b2522d14ab162ff2dbd_Image_14.jpeg,did not like,5.336503566,,,,,,,,,,,,,,,,,,,,,,
,,66465b2522d14ab162ff2dbd,6685aa9113c938e83b4f1ea0,66c776bfa5ed8f26d39f9578,2024-08-22_13h36.04.179,WTP_SM_Choice,2022.2.1,Linux x86_64,59.52380952,,,,,,,,,,,,,,,,,,11,,,,,,space,0.781,space,2.1457,0.01,1,1.7773,0,0,0,0,1,Go on picnics with my friends,Paint my toes and nails,0.01,0.03,3.3,0,,,,
,,66465b2522d14ab162ff2dbd,6685aa9113c938e83b4f1ea0,66c776bfa5ed8f26d39f9578,2024-08-22_13h36.04.179,WTP_SM_Choice,2022.2.1,Linux x86_64,59.52380952,,,,,,,,,,,,,,,,,,12,,,,,,,,,,0.02,1,2.2047,0,1,1,1,1,Listen to podcasts,Play fortnite with my little brother,0.02,0.03,4.4,1,,,,
,,66465b2522d14ab162ff2dbd,6685aa9113c938e83b4f1ea0,66c776bfa5ed8f26d39f9578,2024-08-22_13h36.04.179,WTP_SM_Choice,2022.2.1,Linux x86_64,59.52380952,,,,,,,,,,,,,,,,,,13,,,,,,,,,,0.03,1,1.5375,0,2,2,2,1,Go on picnics with my friends,Read thriller books,0.03,0.03,1.1,0,,,,
,,66465b2522d14ab162ff2dbd,6685aa9113c938e83b4f1ea0,66c776bfa5ed8f26d39f9578,2024-08-22_13h36.04.179,WTP_SM_Choice,2022.2.1,Linux x86_64,59.52380952,,,,,,,,,,,,,,,,,,14,,,,,,,,,,0.03,2,5.1667,0,3,3,3,1,Go to the pool with my family,Binge watch reality tv,0.04,0.03,3.3,0,,,,
,,66465b2522d14ab162ff2dbd,6685aa9113c938e83b4f1ea0,66c776bfa5ed8f26d39f9578,2024-08-22_13h36.04.179,WTP_SM_Choice,2022.2.1,Linux x86_64,59.52380952,,,,,,,,,,,,,,,,,,15,,,,,,,,,,0.03,2,1.7774,0,4,4,4,1,Go to the pool with my family,Paint my toes and nails,0.05,0.03,4.4,0,,,,
,,66465b2522d14ab162ff2dbd,6685aa9113c938e83b4f1ea0,66c776bfa5ed8f26d39f9578,2024-08-22_13h36.04.179,WTP_SM_Choice,2022.2.1,Linux x86_64,59.52380952,,,,,,,NAN,,NAN,0.35,5.65,,0,14,14,14,1,15,Charlie,Rej,Participant_Images/66465b2522d14ab162ff2dbd/66465b2522d14ab162ff2dbd_Images/66465b2522d14ab162ff2dbd_Image_23.jpeg,did not like,2.642157193,,,,,,,,,,,,,,,,,,,,,,
,,66465b2522d14ab162ff2dbd,6685aa9113c938e83b4f1ea0,66c776bfa5ed8f26d39f9578,2024-08-22_13h36.04.179,WTP_SM_Choice,2022.2.1,Linux x86_64,59.52380952,,,,,space,1.5699,NAN,,NAN,0.35,5.65,,0,15,15,15,1,16,Charlie,Rej,Participant_Images/66465b2522d14ab162ff2dbd/66465b2522d14ab162ff2dbd_Images/66465b2522d14ab162ff2dbd_Image_25.jpeg,did not like,4.456234322,,,,,,,,,,,,,,,,,,,,,,
,,66465b2522d14ab162ff2dbd,6685aa9113c938e83b4f1ea0,66c776bfa5ed8f26d39f9578,2024-08-22_13h36.04.179,WTP_SM_Choice,2022.2.1,Linux x86_64,59.52380952,,,,,space,2.6199,NAN,,NAN,0.35,5.65,,0,16,16,16,1,17,Charlie,Rej,Participant_Images/66465b2522d14ab162ff2dbd/66465b2522d14ab162ff2dbd_Images/66465b2522d14ab162ff2dbd_Image_21.jpeg,did not like,4.438512181,,,,,,,,,,,,,,,,,,,,,,
,,66465b2522d14ab162ff2dbd,6685aa9113c938e83b4f1ea0,66c776bfa5ed8f26d39f9578,2024-08-22_13h36.04.179,WTP_SM_Choice,2022.2.1,Linux x86_64,59.52380952,,,,,space,5.4505,NAN,,NAN,0.35,5.65,,0,17,17,17,1,18,Charlie,Rej,Participant_Images/66465b2522d14ab162ff2dbd/66465b2522d14ab162ff2dbd_Images/66465b2522d14ab162ff2dbd_Image_6.jpeg,liked,2.682944783,,,,,,,,,,,,,,,,,,,,,,
,,66465b2522d14ab162ff2dbd,6685aa9113c938e83b4f1ea0,66c776bfa5ed8f26d39f9578,2024-08-22_13h36.04.179,WTP_SM_Choice,2022.2.1,Linux x86_64,59.52380952,,,,,space,3.2477,NAN,,NAN,0.35,5.65,,0,18,18,18,1,19,Charlie,Rej,Participant_Images/66465b2522d14ab162ff2dbd/66465b2522d14ab162ff2dbd_Images/66465b2522d14ab162ff2dbd_Image_13.jpeg,did not like,4.51984296,,,,,,,,,,,,,,,,,,,,,,
,,66465b2522d14ab162ff2dbd,6685aa9113c938e83b4f1ea0,66c776bfa5ed8f26d39f9578,2024-08-22_13h36.04.179,WTP_SM_Choice,2022.2.1,Linux x86_64,59.52380952,,,,,,,,,,,,,,,,,,16,,,,,,space,1.3481,space,6.4817,0.01,1,2.3072,0,0,0,0,1,Paint frames with my friends,Listen to podcasts,0.01,0.04,1.1,0,,,,
,,66465b2522d14ab162ff2dbd,6685aa9113c938e83b4f1ea0,66c776bfa5ed8f26d39f9578,2024-08-22_13h36.04.179,WTP_SM_Choice,2022.2.1,Linux x86_64,59.52380952,,,,,,,,,,,,,,,,,,17,,,,,,,,,,0.04,2,1.5459,0,1,1,1,1,Go to thrift stores with my boyfriend,Paint my toes and nails,0.02,0.04,8.8,0,,,,
,,66465b2522d14ab162ff2dbd,6685aa9113c938e83b4f1ea0,66c776bfa5ed8f26d39f9578,2024-08-22_13h36.04.179,WTP_SM_Choice,2022.2.1,Linux x86_64,59.52380952,,,,,,,,,,,,,,,,,,18,,,,,,,,,,0.03,1,1.184,0,2,2,2,1,Play fortnite with my little brother,Binge watch reality tv,0.03,0.04,3.3,0,,,,
,,66465b2522d14ab162ff2dbd,6685aa9113c938e83b4f1ea0,66c776bfa5ed8f26d39f9578,2024-08-22_13h36.04.179,WTP_SM_Choice,2022.2.1,Linux x86_64,59.52380952,,,,,,,,,,,,,,,,,,19,,,,,,,,,,0.04,2,6.8925,0,3,3,3,1,Listen to podcasts,Go fish with my family,0.04,0.04,3.3,1,,,,
,,66465b2522d14ab162ff2dbd,6685aa9113c938e83b4f1ea0,66c776bfa5ed8f26d39f9578,2024-08-22_13h36.04.179,WTP_SM_Choice,2022.2.1,Linux x86_64,59.52380952,,,,,,,,,,,,,,,,,,20,,,,,,,,,,0.04,2,9.8314,0,4,4,4,1,Go on picnics with my friends,Paint with acrylic paint,0.05,0.04,1.1,0,,,,
,,66465b2522d14ab162ff2dbd,6685aa9113c938e83b4f1ea0,66c776bfa5ed8f26d39f9578,2024-08-22_13h36.04.179,WTP_SM_Choice,2022.2.1,Linux x86_64,59.52380952,,,,,,,NAN,,NAN,0.51,5.49,,0,19,19,19,1,20,Charlie,Rej,Participant_Images/66465b2522d14ab162ff2dbd/66465b2522d14ab162ff2dbd_Images/66465b2522d14ab162ff2dbd_Image_16.jpeg,did not like,3.195382774,,,,,,,,,,,,,,,,,,,,,,
,,66465b2522d14ab162ff2dbd,6685aa9113c938e83b4f1ea0,66c776bfa5ed8f26d39f9578,2024-08-22_13h36.04.179,WTP_SM_Choice,2022.2.1,Linux x86_64,59.52380952,,,,,space,1.3202,NAN,,NAN,0.51,5.49,,0,20,20,20,1,21,Charlie,Rej,Participant_Images/66465b2522d14ab162ff2dbd/66465b2522d14ab162ff2dbd_Images/66465b2522d14ab162ff2dbd_Image_4.jpeg,did not like,1.779333479,,,,,,,,,,,,,,,,,,,,,,
,,66465b2522d14ab162ff2dbd,6685aa9113c938e83b4f1ea0,66c776bfa5ed8f26d39f9578,2024-08-22_13h36.04.179,WTP_SM_Choice,2022.2.1,Linux x86_64,59.52380952,,,,,space,1.6562,NAN,,NAN,0.51,5.49,,0,21,21,21,1,22,Charlie,Rej,Participant_Images/66465b2522d14ab162ff2dbd/66465b2522d14ab162ff2dbd_Images/66465b2522d14ab162ff2dbd_Image_18.jpeg,did not like,4.312468682,,,,,,,,,,,,,,,,,,,,,,
,,66465b2522d14ab162ff2dbd,6685aa9113c938e83b4f1ea0,66c776bfa5ed8f26d39f9578,2024-08-22_13h36.04.179,WTP_SM_Choice,2022.2.1,Linux x86_64,59.52380952,,,,,space,1.0484,NAN,,NAN,0.51,5.49,,0,22,22,22,1,23,Charlie,Rej,Participant_Images/66465b2522d14ab162ff2dbd/66465b2522d14ab162ff2dbd_Images/66465b2522d14ab162ff2dbd_Image_19.jpeg,liked,4.940433059,,,,,,,,,,,,,,,,,,,,,,
,,66465b2522d14ab162ff2dbd,6685aa9113c938e83b4f1ea0,66c776bfa5ed8f26d39f9578,2024-08-22_13h36.04.179,WTP_SM_Choice,2022.2.1,Linux x86_64,59.52380952,,,,,space,0.32,NAN,,NAN,0.51,5.49,,0,23,23,23,1,24,Charlie,Rej,Participant_Images/66465b2522d14ab162ff2dbd/66465b2522d14ab162ff2dbd_Images/66465b2522d14ab162ff2dbd_Image_2.jpeg,did not like,2.7105123,,,,,,,,,,,,,,,,,,,,,,
,,66465b2522d14ab162ff2dbd,6685aa9113c938e83b4f1ea0,66c776bfa5ed8f26d39f9578,2024-08-22_13h36.04.179,WTP_SM_Choice,2022.2.1,Linux x86_64,59.52380952,,,,,,,,,,,,,,,,,,21,,,,,,space,6.8708,space,0.8027,0.05,2,2.2261,0,0,0,0,1,Watch adult animation shows with my boyfriend,Try new makeup styles,0.01,0.05,8.8,0,,,,
,,66465b2522d14ab162ff2dbd,6685aa9113c938e83b4f1ea0,66c776bfa5ed8f26d39f9578,2024-08-22_13h36.04.179,WTP_SM_Choice,2022.2.1,Linux x86_64,59.52380952,,,,,,,,,,,,,,,,,,22,,,,,,,,,,0.02,1,1.8149,0,1,1,1,1,Try new makeup styles,Go fish with my family,0.02,0.05,4.4,1,,,,
,,66465b2522d14ab162ff2dbd,6685aa9113c938e83b4f1ea0,66c776bfa5ed8f26d39f9578,2024-08-22_13h36.04.179,WTP_SM_Choice,2022.2.1,Linux x86_64,59.52380952,,,,,,,,,,,,,,,,,,23,,,,,,,,,,0.03,1,4.0894,0,2,2,2,1,Paint with acrylic paint,Go to the pool with my family,0.03,0.05,1.1,1,,,,
,,66465b2522d14ab162ff2dbd,6685aa9113c938e83b4f1ea0,66c776bfa5ed8f26d39f9578,2024-08-22_13h36.04.179,WTP_SM_Choice,2022.2.1,Linux x86_64,59.52380952,,,,,,,,,,,,,,,,,,24,,,,,,,,,,0.05,2,2.37,0,3,3,3,1,Read thriller books,Go to the pool with my family,0.04,0.05,4.4,1,,,,
,,66465b2522d14ab162ff2dbd,6685aa9113c938e83b4f1ea0,66c776bfa5ed8f26d39f9578,2024-08-22_13h36.04.179,WTP_SM_Choice,2022.2.1,Linux x86_64,59.52380952,,,,,,,,,,,,,,,,,,25,,,,,,,,,,0.05,2,2.1324,0,4,4,4,1,Read thriller books,Go out to eat with my boyfriend,0.05,0.05,3.3,1,,,,
,,66465b2522d14ab162ff2dbd,6685aa9113c938e83b4f1ea0,66c776bfa5ed8f26d39f9578,2024-08-22_13h36.04.179,WTP_SM_Choice,2022.2.1,Linux x86_64,59.52380952,,,,,,,4,,9,0.71,5.29,,0,24,24,24,1,25,Charlie,Rej,Participant_Images/66465b2522d14ab162ff2dbd/66465b2522d14ab162ff2dbd_Images/66465b2522d14ab162ff2dbd_Image_20.jpeg,did not like,3.602308302,,,,,,,,,,,,,,,,,,,space,1.3444,,
,,66465b2522d14ab162ff2dbd,6685aa9113c938e83b4f1ea0,66c776bfa5ed8f26d39f9578,2024-08-22_13h36.04.179,WTP_SM_Choice,2022.2.1,Linux x86_64,59.52380952,,,space,8.2957,space,3.1317,NAN,,NAN,0.71,5.29,,0,25,25,25,1,26,Riley,Acc,Participant_Images/66465b2522d14ab162ff2dbd/66465b2522d14ab162ff2dbd_Images/66465b2522d14ab162ff2dbd_Image_1.jpeg,did not like,4.106391878,,,,,,,,,,,,,,,,,,,,,,
,,66465b2522d14ab162ff2dbd,6685aa9113c938e83b4f1ea0,66c776bfa5ed8f26d39f9578,2024-08-22_13h36.04.179,WTP_SM_Choice,2022.2.1,Linux x86_64,59.52380952,,,,,space,1.1521,NAN,,NAN,0.71,5.29,,0,26,26,26,1,27,Riley,Acc,Participant_Images/66465b2522d14ab162ff2dbd/66465b2522d14ab162ff2dbd_Images/66465b2522d14ab162ff2dbd_Image_4.jpeg,liked,3.799433026,,,,,,,,,,,,,,,,,,,,,,
,,66465b2522d14ab162ff2dbd,6685aa9113c938e83b4f1ea0,66c776bfa5ed8f26d39f9578,2024-08-22_13h36.04.179,WTP_SM_Choice,2022.2.1,Linux x86_64,59.52380952,,,,,space,0.6828,NAN,,NAN,0.71,5.29,,0,27,27,27,1,28,Riley,Acc,Participant_Images/66465b2522d14ab162ff2dbd/66465b2522d14ab162ff2dbd_Images/66465b2522d14ab162ff2dbd_Image_19.jpeg,liked,5.246980764,,,,,,,,,,,,,,,,,,,,,,
,,66465b2522d14ab162ff2dbd,6685aa9113c938e83b4f1ea0,66c776bfa5ed8f26d39f9578,2024-08-22_13h36.04.179,WTP_SM_Choice,2022.2.1,Linux x86_64,59.52380952,,,,,space,1.8301,NAN,,NAN,0.71,5.29,,0,28,28,28,1,29,Riley,Acc,Participant_Images/66465b2522d14ab162ff2dbd/66465b2522d14ab162ff2dbd_Images/66465b2522d14ab162ff2dbd_Image_5.jpeg,did not like,3.30081769,,,,,,,,,,,,,,,,,,,,,,
,,66465b2522d14ab162ff2dbd,6685aa9113c938e83b4f1ea0,66c776bfa5ed8f26d39f9578,2024-08-22_13h36.04.179,WTP_SM_Choice,2022.2.1,Linux x86_64,59.52380952,,,,,,,,,,,,,,,,,,26,,,,,,space,14.4847,space,3.4031,0.01,1,1.8867,0,0,0,0,1,Try new makeup styles,Go to thrift stores with my boyfriend,0.01,0.01,4.4,1,,,,
,,66465b2522d14ab162ff2dbd,6685aa9113c938e83b4f1ea0,66c776bfa5ed8f26d39f9578,2024-08-22_13h36.04.179,WTP_SM_Choice,2022.2.1,Linux x86_64,59.52380952,,,,,,,,,,,,,,,,,,27,,,,,,,,,,0.02,1,1.7401,0,1,1,1,1,Paint frames with my friends,Do my skin care,0.02,0.01,3.3,0,,,,
,,66465b2522d14ab162ff2dbd,6685aa9113c938e83b4f1ea0,66c776bfa5ed8f26d39f9578,2024-08-22_13h36.04.179,WTP_SM_Choice,2022.2.1,Linux x86_64,59.52380952,,,,,,,,,,,,,,,,,,28,,,,,,,,,,0.01,2,6.0042,0,2,2,2,1,Do my hair with my friends,Paint my toes and nails,0.03,0.01,3.3,0,,,,
,,66465b2522d14ab162ff2dbd,6685aa9113c938e83b4f1ea0,66c776bfa5ed8f26d39f9578,2024-08-22_13h36.04.179,WTP_SM_Choice,2022.2.1,Linux x86_64,59.52380952,,,,,,,,,,,,,,,,,,29,,,,,,,,,,0.04,1,7.3682,0,3,3,3,1,Go to the pool with my family,Take a warm bath,0.04,0.01,4.4,0,,,,
,,66465b2522d14ab162ff2dbd,6685aa9113c938e83b4f1ea0,66c776bfa5ed8f26d39f9578,2024-08-22_13h36.04.179,WTP_SM_Choice,2022.2.1,Linux x86_64,59.52380952,,,,,,,,,,,,,,,,,,30,,,,,,,,,,0.01,2,2.2497,0,4,4,4,1,Listen to podcasts,Watch adult animation shows with my boyfriend,0.05,0.01,8.8,1,,,,
,,66465b2522d14ab162ff2dbd,6685aa9113c938e83b4f1ea0,66c776bfa5ed8f26d39f9578,2024-08-22_13h36.04.179,WTP_SM_Choice,2022.2.1,Linux x86_64,59.52380952,,,,,,,NAN,,NAN,0.8,5.2,,0,29,29,29,1,30,Riley,Acc,Participant_Images/66465b2522d14ab162ff2dbd/66465b2522d14ab162ff2dbd_Images/66465b2522d14ab162ff2dbd_Image_15.jpeg,liked,1.661473164,,,,,,,,,,,,,,,,,,,,,,
,,66465b2522d14ab162ff2dbd,6685aa9113c938e83b4f1ea0,66c776bfa5ed8f26d39f9578,2024-08-22_13h36.04.179,WTP_SM_Choice,2022.2.1,Linux x86_64,59.52380952,,,,,space,1.5857,NAN,,NAN,0.8,5.2,,0,30,30,30,1,31,Riley,Acc,Participant_Images/66465b2522d14ab162ff2dbd/66465b2522d14ab162ff2dbd_Images/66465b2522d14ab162ff2dbd_Image_17.jpeg,liked,3.613205605,,,,,,,,,,,,,,,,,,,,,,
,,66465b2522d14ab162ff2dbd,6685aa9113c938e83b4f1ea0,66c776bfa5ed8f26d39f9578,2024-08-22_13h36.04.179,WTP_SM_Choice,2022.2.1,Linux x86_64,59.52380952,,,,,space,0.7494,NAN,,NAN,0.8,5.2,,0,31,31,31,1,32,Riley,Acc,Participant_Images/66465b2522d14ab162ff2dbd/66465b2522d14ab162ff2dbd_Images/66465b2522d14ab162ff2dbd_Image_14.jpeg,liked,4.988446431,,,,,,,,,,,,,,,,,,,,,,
,,66465b2522d14ab162ff2dbd,6685aa9113c938e83b4f1ea0,66c776bfa5ed8f26d39f9578,2024-08-22_13h36.04.179,WTP_SM_Choice,2022.2.1,Linux x86_64,59.52380952,,,,,space,0.3167,NAN,,NAN,0.8,5.2,,0,32,32,32,1,33,Riley,Acc,Participant_Images/66465b2522d14ab162ff2dbd/66465b2522d14ab162ff2dbd_Images/66465b2522d14ab162ff2dbd_Image_9.jpeg,liked,3.470791822,,,,,,,,,,,,,,,,,,,,,,
,,66465b2522d14ab162ff2dbd,6685aa9113c938e83b4f1ea0,66c776bfa5ed8f26d39f9578,2024-08-22_13h36.04.179,WTP_SM_Choice,2022.2.1,Linux x86_64,59.52380952,,,,,space,3.568,NAN,,NAN,0.8,5.2,,0,33,33,33,1,34,Riley,Acc,Participant_Images/66465b2522d14ab162ff2dbd/66465b2522d14ab162ff2dbd_Images/66465b2522d14ab162ff2dbd_Image_8.jpeg,liked,3.820572462,,,,,,,,,,,,,,,,,,,,,,
,,66465b2522d14ab162ff2dbd,6685aa9113c938e83b4f1ea0,66c776bfa5ed8f26d39f9578,2024-08-22_13h36.04.179,WTP_SM_Choice,2022.2.1,Linux x86_64,59.52380952,,,,,,,,,,,,,,,,,,31,,,,,,space,12.0459,space,6.8171,0.01,1,0.8729,0,0,0,0,1,Watch adult animation shows with my boyfriend,Paint with acrylic paint,0.01,0.02,8.8,0,,,,
,,66465b2522d14ab162ff2dbd,6685aa9113c938e83b4f1ea0,66c776bfa5ed8f26d39f9578,2024-08-22_13h36.04.179,WTP_SM_Choice,2022.2.1,Linux x86_64,59.52380952,,,,,,,,,,,,,,,,,,32,,,,,,,,,,0.02,2,0.5461,0,1,1,1,1,Play video games,Do my hair with my friends,0.02,0.02,1.1,1,,,,
,,66465b2522d14ab162ff2dbd,6685aa9113c938e83b4f1ea0,66c776bfa5ed8f26d39f9578,2024-08-22_13h36.04.179,WTP_SM_Choice,2022.2.1,Linux x86_64,59.52380952,,,,,,,,,,,,,,,,,,33,,,,,,,,,,0.03,1,0.8778,0,2,2,2,1,Listen to podcasts,Watch tv saturday nights with my dad,0.03,0.02,4.4,1,,,,
,,66465b2522d14ab162ff2dbd,6685aa9113c938e83b4f1ea0,66c776bfa5ed8f26d39f9578,2024-08-22_13h36.04.179,WTP_SM_Choice,2022.2.1,Linux x86_64,59.52380952,,,,,,,,,,,,,,,,,,34,,,,,,,,,,0.02,2,0.6336,0,3,3,3,1,Read thriller books,Go to thrift stores with my boyfriend,0.04,0.02,3.3,1,,,,
,,66465b2522d14ab162ff2dbd,6685aa9113c938e83b4f1ea0,66c776bfa5ed8f26d39f9578,2024-08-22_13h36.04.179,WTP_SM_Choice,2022.2.1,Linux x86_64,59.52380952,,,,,,,,,,,,,,,,,,35,,,,,,,,,,0.05,1,1.1561,0,4,4,4,1,Paint frames with my friends,Paint my toes and nails,0.05,0.02,1.1,0,,,,
,,66465b2522d14ab162ff2dbd,6685aa9113c938e83b4f1ea0,66c776bfa5ed8f26d39f9578,2024-08-22_13h36.04.179,WTP_SM_Choice,2022.2.1,Linux x86_64,59.52380952,,,,,,,NAN,,NAN,0.93,5.07,,0,34,34,34,1,35,Riley,Acc,Participant_Images/66465b2522d14ab162ff2dbd/66465b2522d14ab162ff2dbd_Images/66465b2522d14ab162ff2dbd_Image_13.jpeg,liked,2.455989137,,,,,,,,,,,,,,,,,,,,,,
,,66465b2522d14ab162ff2dbd,6685aa9113c938e83b4f1ea0,66c776bfa5ed8f26d39f9578,2024-08-22_13h36.04.179,WTP_SM_Choice,2022.2.1,Linux x86_64,59.52380952,,,,,space,3.5368,NAN,,NAN,0.93,5.07,,0,35,35,35,1,36,Riley,Acc,Participant_Images/66465b2522d14ab162ff2dbd/66465b2522d14ab162ff2dbd_Images/66465b2522d14ab162ff2dbd_Image_18.jpeg,liked,3.79605092,,,,,,,,,,,,,,,,,,,,,,
,,66465b2522d14ab162ff2dbd,6685aa9113c938e83b4f1ea0,66c776bfa5ed8f26d39f9578,2024-08-22_13h36.04.179,WTP_SM_Choice,2022.2.1,Linux x86_64,59.52380952,,,,,space,1.2357,NAN,,NAN,0.93,5.07,,0,36,36,36,1,37,Riley,Acc,Participant_Images/66465b2522d14ab162ff2dbd/66465b2522d14ab162ff2dbd_Images/66465b2522d14ab162ff2dbd_Image_20.jpeg,liked,3.562416326,,,,,,,,,,,,,,,,,,,,,,
,,66465b2522d14ab162ff2dbd,6685aa9113c938e83b4f1ea0,66c776bfa5ed8f26d39f9578,2024-08-22_13h36.04.179,WTP_SM_Choice,2022.2.1,Linux x86_64,59.52380952,,,,,space,0.8685,NAN,,NAN,0.93,5.07,,0,37,37,37,1,38,Riley,Acc,Participant_Images/66465b2522d14ab162ff2dbd/66465b2522d14ab162ff2dbd_Images/66465b2522d14ab162ff2dbd_Image_6.jpeg,liked,2.843822497,,,,,,,,,,,,,,,,,,,,,,
,,66465b2522d14ab162ff2dbd,6685aa9113c938e83b4f1ea0,66c776bfa5ed8f26d39f9578,2024-08-22_13h36.04.179,WTP_SM_Choice,2022.2.1,Linux x86_64,59.52380952,,,,,space,1.95,NAN,,NAN,0.93,5.07,,0,38,38,38,1,39,Riley,Acc,Participant_Images/66465b2522d14ab162ff2dbd/66465b2522d14ab162ff2dbd_Images/66465b2522d14ab162ff2dbd_Image_16.jpeg,liked,3.546495948,,,,,,,,,,,,,,,,,,,,,,
,,66465b2522d14ab162ff2dbd,6685aa9113c938e83b4f1ea0,66c776bfa5ed8f26d39f9578,2024-08-22_13h36.04.179,WTP_SM_Choice,2022.2.1,Linux x86_64,59.52380952,,,,,,,,,,,,,,,,,,36,,,,,,space,3.0493,space,1.7686,0.01,1,1.1879,0,0,0,0,1,Watch tv saturday nights with my dad,Binge watch reality tv,0.01,0.03,3.3,0,,,,
,,66465b2522d14ab162ff2dbd,6685aa9113c938e83b4f1ea0,66c776bfa5ed8f26d39f9578,2024-08-22_13h36.04.179,WTP_SM_Choice,2022.2.1,Linux x86_64,59.52380952,,,,,,,,,,,,,,,,,,37,,,,,,,,,,0.03,2,1.5631,0,1,1,1,1,Read thriller books,Go fish with my family,0.02,0.03,1.1,1,,,,
,,66465b2522d14ab162ff2dbd,6685aa9113c938e83b4f1ea0,66c776bfa5ed8f26d39f9578,2024-08-22_13h36.04.179,WTP_SM_Choice,2022.2.1,Linux x86_64,59.52380952,,,,,,,,,,,,,,,,,,38,,,,,,,,,,0.03,1,0.9139,0,2,2,2,1,Go on picnics with my friends,Try new makeup styles,0.03,0.03,1.1,0,,,,
,,66465b2522d14ab162ff2dbd,6685aa9113c938e83b4f1ea0,66c776bfa5ed8f26d39f9578,2024-08-22_13h36.04.179,WTP_SM_Choice,2022.2.1,Linux x86_64,59.52380952,,,,,,,,,,,,,,,,,,39,,,,,,,,,,0.03,2,0.9133,0,3,3,3,1,Go on picnics with my friends,Play video games,0.04,0.03,3.3,0,,,,
,,66465b2522d14ab162ff2dbd,6685aa9113c938e83b4f1ea0,66c776bfa5ed8f26d39f9578,2024-08-22_13h36.04.179,WTP_SM_Choice,2022.2.1,Linux x86_64,59.52380952,,,,,,,,,,,,,,,,,,40,,,,,,,,,,0.05,1,0.8725,0,4,4,4,1,Go out to eat with my boyfriend,Play with my animals,0.05,0.03,4.4,0,,,,
,,66465b2522d14ab162ff2dbd,6685aa9113c938e83b4f1ea0,66c776bfa5ed8f26d39f9578,2024-08-22_13h36.04.179,WTP_SM_Choice,2022.2.1,Linux x86_64,59.52380952,,,,,,,NAN,,NAN,1.08,4.92,,0,39,39,39,1,40,Riley,Acc,Participant_Images/66465b2522d14ab162ff2dbd/66465b2522d14ab162ff2dbd_Images/66465b2522d14ab162ff2dbd_Image_25.jpeg,liked,1.672012706,,,,,,,,,,,,,,,,,,,,,,
,,66465b2522d14ab162ff2dbd,6685aa9113c938e83b4f1ea0,66c776bfa5ed8f26d39f9578,2024-08-22_13h36.04.179,WTP_SM_Choice,2022.2.1,Linux x86_64,59.52380952,,,,,space,0.9796,NAN,,NAN,1.08,4.92,,0,40,40,40,1,41,Riley,Acc,Participant_Images/66465b2522d14ab162ff2dbd/66465b2522d14ab162ff2dbd_Images/66465b2522d14ab162ff2dbd_Image_22.jpeg,did not like,4.942172136,,,,,,,,,,,,,,,,,,,,,,
,,66465b2522d14ab162ff2dbd,6685aa9113c938e83b4f1ea0,66c776bfa5ed8f26d39f9578,2024-08-22_13h36.04.179,WTP_SM_Choice,2022.2.1,Linux x86_64,59.52380952,,,,,space,0.655,NAN,,NAN,1.08,4.92,,0,41,41,41,1,42,Riley,Acc,Participant_Images/66465b2522d14ab162ff2dbd/66465b2522d14ab162ff2dbd_Images/66465b2522d14ab162ff2dbd_Image_7.jpeg,liked,2.50187214,,,,,,,,,,,,,,,,,,,,,,
,,66465b2522d14ab162ff2dbd,6685aa9113c938e83b4f1ea0,66c776bfa5ed8f26d39f9578,2024-08-22_13h36.04.179,WTP_SM_Choice,2022.2.1,Linux x86_64,59.52380952,,,,,space,0.4039,NAN,,NAN,1.08,4.92,,0,42,42,42,1,43,Riley,Acc,Participant_Images/66465b2522d14ab162ff2dbd/66465b2522d14ab162ff2dbd_Images/66465b2522d14ab162ff2dbd_Image_12.jpeg,did not like,2.071164779,,,,,,,,,,,,,,,,,,,,,,
,,66465b2522d14ab162ff2dbd,6685aa9113c938e83b4f1ea0,66c776bfa5ed8f26d39f9578,2024-08-22_13h36.04.179,WTP_SM_Choice,2022.2.1,Linux x86_64,59.52380952,,,,,space,8.2854,NAN,,NAN,1.08,4.92,,0,43,43,43,1,44,Riley,Acc,Participant_Images/66465b2522d14ab162ff2dbd/66465b2522d14ab162ff2dbd_Images/66465b2522d14ab162ff2dbd_Image_23.jpeg,liked,5.336503566,,,,,,,,,,,,,,,,,,,,,,
,,66465b2522d14ab162ff2dbd,6685aa9113c938e83b4f1ea0,66c776bfa5ed8f26d39f9578,2024-08-22_13h36.04.179,WTP_SM_Choice,2022.2.1,Linux x86_64,59.52380952,,,,,,,,,,,,,,,,,,41,,,,,,space,1.6528,space,1.4989,0.01,1,1.5162,0,0,0,0,1,Paint with acrylic paint,Go fish with my family,0.01,0.04,1.1,1,,,,
,,66465b2522d14ab162ff2dbd,6685aa9113c938e83b4f1ea0,66c776bfa5ed8f26d39f9578,2024-08-22_13h36.04.179,WTP_SM_Choice,2022.2.1,Linux x86_64,59.52380952,,,,,,,,,,,,,,,,,,42,,,,,,,,,,0.02,1,2.6577,0,1,1,1,1,Listen to podcasts,Go to the pool with my family,0.02,0.04,3.3,1,,,,
,,66465b2522d14ab162ff2dbd,6685aa9113c938e83b4f1ea0,66c776bfa5ed8f26d39f9578,2024-08-22_13h36.04.179,WTP_SM_Choice,2022.2.1,Linux x86_64,59.52380952,,,,,,,,,,,,,,,,,,43,,,,,,,,,,0.04,2,1.1423,0,2,2,2,1,Try new makeup styles,Do my hair with my friends,0.03,0.04,1.1,1,,,,
,,66465b2522d14ab162ff2dbd,6685aa9113c938e83b4f1ea0,66c776bfa5ed8f26d39f9578,2024-08-22_13h36.04.179,WTP_SM_Choice,2022.2.1,Linux x86_64,59.52380952,,,,,,,,,,,,,,,,,,44,,,,,,,,,,0.04,1,2.2413,0,3,3,3,1,Go on picnics with my friends,Listen to podcasts,0.04,0.04,1.1,0,,,,
,,66465b2522d14ab162ff2dbd,6685aa9113c938e83b4f1ea0,66c776bfa5ed8f26d39f9578,2024-08-22_13h36.04.179,WTP_SM_Choice,2022.2.1,Linux x86_64,59.52380952,,,,,,,,,,,,,,,,,,45,,,,,,,,,,0.04,2,1.3639,0,4,4,4,1,Binge watch reality tv,Paint frames with my friends,0.05,0.04,4.4,1,,,,
,,66465b2522d14ab162ff2dbd,6685aa9113c938e83b4f1ea0,66c776bfa5ed8f26d39f9578,2024-08-22_13h36.04.179,WTP_SM_Choice,2022.2.1,Linux x86_64,59.52380952,,,,,,,NAN,,NAN,1.23,4.77,,0,44,44,44,1,45,Riley,Acc,Participant_Images/66465b2522d14ab162ff2dbd/66465b2522d14ab162ff2dbd_Images/66465b2522d14ab162ff2dbd_Image_3.jpeg,liked,2.642157193,,,,,,,,,,,,,,,,,,,,,,
,,66465b2522d14ab162ff2dbd,6685aa9113c938e83b4f1ea0,66c776bfa5ed8f26d39f9578,2024-08-22_13h36.04.179,WTP_SM_Choice,2022.2.1,Linux x86_64,59.52380952,,,,,space,0.7744,NAN,,NAN,1.23,4.77,,0,45,45,45,1,46,Riley,Acc,Participant_Images/66465b2522d14ab162ff2dbd/66465b2522d14ab162ff2dbd_Images/66465b2522d14ab162ff2dbd_Image_10.jpeg,did not like,4.456234322,,,,,,,,,,,,,,,,,,,,,,
,,66465b2522d14ab162ff2dbd,6685aa9113c938e83b4f1ea0,66c776bfa5ed8f26d39f9578,2024-08-22_13h36.04.179,WTP_SM_Choice,2022.2.1,Linux x86_64,59.52380952,,,,,space,0.9504,NAN,,NAN,1.23,4.77,,0,46,46,46,1,47,Riley,Acc,Participant_Images/66465b2522d14ab162ff2dbd/66465b2522d14ab162ff2dbd_Images/66465b2522d14ab162ff2dbd_Image_11.jpeg,did not like,4.438512181,,,,,,,,,,,,,,,,,,,,,,
,,66465b2522d14ab162ff2dbd,6685aa9113c938e83b4f1ea0,66c776bfa5ed8f26d39f9578,2024-08-22_13h36.04.179,WTP_SM_Choice,2022.2.1,Linux x86_64,59.52380952,,,,,space,0.3375,NAN,,NAN,1.23,4.77,,0,47,47,47,1,48,Riley,Acc,Participant_Images/66465b2522d14ab162ff2dbd/66465b2522d14ab162ff2dbd_Images/66465b2522d14ab162ff2dbd_Image_21.jpeg,liked,2.682944783,,,,,,,,,,,,,,,,,,,,,,
,,66465b2522d14ab162ff2dbd,6685aa9113c938e83b4f1ea0,66c776bfa5ed8f26d39f9578,2024-08-22_13h36.04.179,WTP_SM_Choice,2022.2.1,Linux x86_64,59.52380952,,,,,space,2.3651,NAN,,NAN,1.23,4.77,,0,48,48,48,1,49,Riley,Acc,Participant_Images/66465b2522d14ab162ff2dbd/66465b2522d14ab162ff2dbd_Images/66465b2522d14ab162ff2dbd_Image_24.jpeg,liked,4.51984296,,,,,,,,,,,,,,,,,,,,,,
,,66465b2522d14ab162ff2dbd,6685aa9113c938e83b4f1ea0,66c776bfa5ed8f26d39f9578,2024-08-22_13h36.04.179,WTP_SM_Choice,2022.2.1,Linux x86_64,59.52380952,,,,,,,,,,,,,,,,,,46,,,,,,space,0.5871,space,1.5301,0.01,1,1.1567,0,0,0,0,1,Go to the pool with my family,Play with my animals,0.01,0.05,8.8,0,,,,
,,66465b2522d14ab162ff2dbd,6685aa9113c938e83b4f1ea0,66c776bfa5ed8f26d39f9578,2024-08-22_13h36.04.179,WTP_SM_Choice,2022.2.1,Linux x86_64,59.52380952,,,,,,,,,,,,,,,,,,47,,,,,,,,,,0.02,1,2.0662,0,1,1,1,1,Play video games,Go to thrift stores with my boyfriend,0.02,0.05,1.1,1,,,,
,,66465b2522d14ab162ff2dbd,6685aa9113c938e83b4f1ea0,66c776bfa5ed8f26d39f9578,2024-08-22_13h36.04.179,WTP_SM_Choice,2022.2.1,Linux x86_64,59.52380952,,,,,,,,,,,,,,,,,,48,,,,,,,,,,0.05,2,4.8276,0,2,2,2,1,Go on picnics with my friends,Binge watch reality tv,0.03,0.05,4.4,0,,,,
,,66465b2522d14ab162ff2dbd,6685aa9113c938e83b4f1ea0,66c776bfa5ed8f26d39f9578,2024-08-22_13h36.04.179,WTP_SM_Choice,2022.2.1,Linux x86_64,59.52380952,,,,,,,,,,,,,,,,,,49,,,,,,,,,,0.05,2,0.914,0,3,3,3,1,Go out to eat with my boyfriend,Listen to podcasts,0.04,0.05,3.3,0,,,,
,,66465b2522d14ab162ff2dbd,6685aa9113c938e83b4f1ea0,66c776bfa5ed8f26d39f9578,2024-08-22_13h36.04.179,WTP_SM_Choice,2022.2.1,Linux x86_64,59.52380952,,,,,,,,,,,,,,,,,,50,,,,,,,,,,0.05,1,1.8593,0,4,4,4,1,Play with my animals,Watch tv saturday nights with my dad,0.05,0.05,1.1,1,,,,
,,66465b2522d14ab162ff2dbd,6685aa9113c938e83b4f1ea0,66c776bfa5ed8f26d39f9578,2024-08-22_13h36.04.179,WTP_SM_Choice,2022.2.1,Linux x86_64,59.52380952,,,,,,,5,,9,1.41,4.59,,0,49,49,49,1,50,Riley,Acc,Participant_Images/66465b2522d14ab162ff2dbd/66465b2522d14ab162ff2dbd_Images/66465b2522d14ab162ff2dbd_Image_2.jpeg,did not like,3.195382774,,,,,,,,,,,,,,,,,,,space,6.8291,,
,,66465b2522d14ab162ff2dbd,6685aa9113c938e83b4f1ea0,66c776bfa5ed8f26d39f9578,2024-08-22_13h36.04.179,WTP_SM_Choice,2022.2.1,Linux x86_64,59.52380952,,,space,1.7125,space,15.6517,NAN,,NAN,1.41,4.59,,0,50,50,50,1,51,Alex,Rej,Participant_Images/66465b2522d14ab162ff2dbd/66465b2522d14ab162ff2dbd_Images/66465b2522d14ab162ff2dbd_Image_23.jpeg,did not like,1.779333479,,,,,,,,,,,,,,,,,,,,,,
,,66465b2522d14ab162ff2dbd,6685aa9113c938e83b4f1ea0,66c776bfa5ed8f26d39f9578,2024-08-22_13h36.04.179,WTP_SM_Choice,2022.2.1,Linux x86_64,59.52380952,,,,,space,1.342,NAN,,NAN,1.41,4.59,,0,51,51,51,1,52,Alex,Rej,Participant_Images/66465b2522d14ab162ff2dbd/66465b2522d14ab162ff2dbd_Images/66465b2522d14ab162ff2dbd_Image_8.jpeg,liked,4.312468682,,,,,,,,,,,,,,,,,,,,,,
,,66465b2522d14ab162ff2dbd,6685aa9113c938e83b4f1ea0,66c776bfa5ed8f26d39f9578,2024-08-22_13h36.04.179,WTP_SM_Choice,2022.2.1,Linux x86_64,59.52380952,,,,,space,2.3849,NAN,,NAN,1.41,4.59,,0,52,52,52,1,53,Alex,Rej,Participant_Images/66465b2522d14ab162ff2dbd/66465b2522d14ab162ff2dbd_Images/66465b2522d14ab162ff2dbd_Image_21.jpeg,liked,4.940433059,,,,,,,,,,,,,,,,,,,,,,
,,66465b2522d14ab162ff2dbd,6685aa9113c938e83b4f1ea0,66c776bfa5ed8f26d39f9578,2024-08-22_13h36.04.179,WTP_SM_Choice,2022.2.1,Linux x86_64,59.52380952,,,,,space,1.2323,NAN,,NAN,1.41,4.59,,0,53,53,53,1,54,Alex,Rej,Participant_Images/66465b2522d14ab162ff2dbd/66465b2522d14ab162ff2dbd_Images/66465b2522d14ab162ff2dbd_Image_12.jpeg,did not like,2.7105123,,,,,,,,,,,,,,,,,,,,,,
,,66465b2522d14ab162ff2dbd,6685aa9113c938e83b4f1ea0,66c776bfa5ed8f26d39f9578,2024-08-22_13h36.04.179,WTP_SM_Choice,2022.2.1,Linux x86_64,59.52380952,,,,,,,,,,,,,,,,,,51,,,,,,space,0.7794,space,2.5189,0.01,2,2.3766,0,0,0,0,1,Go out to eat with my boyfriend,Binge watch reality tv,0.01,0.01,1.1,0,,,,
,,66465b2522d14ab162ff2dbd,6685aa9113c938e83b4f1ea0,66c776bfa5ed8f26d39f9578,2024-08-22_13h36.04.179,WTP_SM_Choice,2022.2.1,Linux x86_64,59.52380952,,,,,,,,,,,,,,,,,,52,,,,,,,,,,0.01,2,1.8926,0,1,1,1,1,Do my skin care,Go to the pool with my family,0.02,0.01,3.3,1,,,,
,,66465b2522d14ab162ff2dbd,6685aa9113c938e83b4f1ea0,66c776bfa5ed8f26d39f9578,2024-08-22_13h36.04.179,WTP_SM_Choice,2022.2.1,Linux x86_64,59.52380952,,,,,,,,,,,,,,,,,,53,,,,,,,,,,0.03,1,1.2481,0,2,2,2,1,Paint with acrylic paint,Do my hair with my friends,0.03,0.01,1.1,1,,,,
,,66465b2522d14ab162ff2dbd,6685aa9113c938e83b4f1ea0,66c776bfa5ed8f26d39f9578,2024-08-22_13h36.04.179,WTP_SM_Choice,2022.2.1,Linux x86_64,59.52380952,,,,,,,,,,,,,,,,,,54,,,,,,,,,,0.01,2,1.2627,0,3,3,3,1,Go to the pool with my family,Play video games,0.04,0.01,4.4,0,,,,
,,66465b2522d14ab162ff2dbd,6685aa9113c938e83b4f1ea0,66c776bfa5ed8f26d39f9578,2024-08-22_13h36.04.179,WTP_SM_Choice,2022.2.1,Linux x86_64,59.52380952,,,,,,,,,,,,,,,,,,55,,,,,,,,,,0.01,2,1.3356,0,4,4,4,1,Go to thrift stores with my boyfriend,Play with my animals,0.05,0.01,1.1,0,,,,
,,66465b2522d14ab162ff2dbd,6685aa9113c938e83b4f1ea0,66c776bfa5ed8f26d39f9578,2024-08-22_13h36.04.179,WTP_SM_Choice,2022.2.1,Linux x86_64,59.52380952,,,,,,,NAN,,NAN,1.48,4.52,,0,54,54,54,1,55,Alex,Rej,Participant_Images/66465b2522d14ab162ff2dbd/66465b2522d14ab162ff2dbd_Images/66465b2522d14ab162ff2dbd_Image_17.jpeg,did not like,3.602308302,,,,,,,,,,,,,,,,,,,,,,
,,66465b2522d14ab162ff2dbd,6685aa9113c938e83b4f1ea0,66c776bfa5ed8f26d39f9578,2024-08-22_13h36.04.179,WTP_SM_Choice,2022.2.1,Linux x86_64,59.52380952,,,,,space,3.1717,NAN,,NAN,1.48,4.52,,0,55,55,55,1,56,Alex,Rej,Participant_Images/66465b2522d14ab162ff2dbd/66465b2522d14ab162ff2dbd_Images/66465b2522d14ab162ff2dbd_Image_10.jpeg,did not like,4.106391878,,,,,,,,,,,,,,,,,,,,,,
,,66465b2522d14ab162ff2dbd,6685aa9113c938e83b4f1ea0,66c776bfa5ed8f26d39f9578,2024-08-22_13h36.04.179,WTP_SM_Choice,2022.2.1,Linux x86_64,59.52380952,,,,,space,7.1658,NAN,,NAN,1.48,4.52,,0,56,56,56,1,57,Alex,Rej,Participant_Images/66465b2522d14ab162ff2dbd/66465b2522d14ab162ff2dbd_Images/66465b2522d14ab162ff2dbd_Image_14.jpeg,did not like,3.799433026,,,,,,,,,,,,,,,,,,,,,,
,,66465b2522d14ab162ff2dbd,6685aa9113c938e83b4f1ea0,66c776bfa5ed8f26d39f9578,2024-08-22_13h36.04.179,WTP_SM_Choice,2022.2.1,Linux x86_64,59.52380952,,,,,space,8.8322,NAN,,NAN,1.48,4.52,,0,57,57,57,1,58,Alex,Rej,Participant_Images/66465b2522d14ab162ff2dbd/66465b2522d14ab162ff2dbd_Images/66465b2522d14ab162ff2dbd_Image_11.jpeg,did not like,5.246980764,,,,,,,,,,,,,,,,,,,,,,
,,66465b2522d14ab162ff2dbd,6685aa9113c938e83b4f1ea0,66c776bfa5ed8f26d39f9578,2024-08-22_13h36.04.179,WTP_SM_Choice,2022.2.1,Linux x86_64,59.52380952,,,,,space,1.4844,NAN,,NAN,1.48,4.52,,0,58,58,58,1,59,Alex,Rej,Participant_Images/66465b2522d14ab162ff2dbd/66465b2522d14ab162ff2dbd_Images/66465b2522d14ab162ff2dbd_Image_13.jpeg,liked,3.30081769,,,,,,,,,,,,,,,,,,,,,,
,,66465b2522d14ab162ff2dbd,6685aa9113c938e83b4f1ea0,66c776bfa5ed8f26d39f9578,2024-08-22_13h36.04.179,WTP_SM_Choice,2022.2.1,Linux x86_64,59.52380952,,,,,,,,,,,,,,,,,,56,,,,,,space,1.4152,space,1.6222,0.01,1,1.4567,0,0,0,0,1,Paint frames with my friends,Play with my animals,0.01,0.02,8.8,0,,,,
,,66465b2522d14ab162ff2dbd,6685aa9113c938e83b4f1ea0,66c776bfa5ed8f26d39f9578,2024-08-22_13h36.04.179,WTP_SM_Choice,2022.2.1,Linux x86_64,59.52380952,,,,,,,,,,,,,,,,,,57,,,,,,,,,,0.02,1,1.6096,0,1,1,1,1,Do my hair with my friends,Do my skin care,0.02,0.02,4.4,0,,,,
,,66465b2522d14ab162ff2dbd,6685aa9113c938e83b4f1ea0,66c776bfa5ed8f26d39f9578,2024-08-22_13h36.04.179,WTP_SM_Choice,2022.2.1,Linux x86_64,59.52380952,,,,,,,,,,,,,,,,,,58,,,,,,,,,,0.02,2,3.2392,0,2,2,2,1,Try new makeup styles,Go to the pool with my family,0.03,0.02,4.4,1,,,,
,,66465b2522d14ab162ff2dbd,6685aa9113c938e83b4f1ea0,66c776bfa5ed8f26d39f9578,2024-08-22_13h36.04.179,WTP_SM_Choice,2022.2.1,Linux x86_64,59.52380952,,,,,,,,,,,,,,,,,,59,,,,,,,,,,0.02,2,1.8869,0,3,3,3,1,Watch tv saturday nights with my dad,Paint with acrylic paint,0.04,0.02,4.4,0,,,,
,,66465b2522d14ab162ff2dbd,6685aa9113c938e83b4f1ea0,66c776bfa5ed8f26d39f9578,2024-08-22_13h36.04.179,WTP_SM_Choice,2022.2.1,Linux x86_64,59.52380952,,,,,,,,,,,,,,,,,,60,,,,,,,,,,0.02,2,2.1148,0,4,4,4,1,Binge watch reality tv,Watch adult animation shows with my boyfriend,0.05,0.02,1.1,1,,,,
,,66465b2522d14ab162ff2dbd,6685aa9113c938e83b4f1ea0,66c776bfa5ed8f26d39f9578,2024-08-22_13h36.04.179,WTP_SM_Choice,2022.2.1,Linux x86_64,59.52380952,,,,,,,NAN,,NAN,1.57,4.43,,0,59,59,59,1,60,Alex,Rej,Participant_Images/66465b2522d14ab162ff2dbd/66465b2522d14ab162ff2dbd_Images/66465b2522d14ab162ff2dbd_Image_5.jpeg,liked,1.661473164,,,,,,,,,,,,,,,,,,,,,,
,,66465b2522d14ab162ff2dbd,6685aa9113c938e83b4f1ea0,66c776bfa5ed8f26d39f9578,2024-08-22_13h36.04.179,WTP_SM_Choice,2022.2.1,Linux x86_64,59.52380952,,,,,space,0.8919,NAN,,NAN,1.57,4.43,,0,60,60,60,1,61,Alex,Rej,Participant_Images/66465b2522d14ab162ff2dbd/66465b2522d14ab162ff2dbd_Images/66465b2522d14ab162ff2dbd_Image_9.jpeg,did not like,3.613205605,,,,,,,,,,,,,,,,,,,,,,
,,66465b2522d14ab162ff2dbd,6685aa9113c938e83b4f1ea0,66c776bfa5ed8f26d39f9578,2024-08-22_13h36.04.179,WTP_SM_Choice,2022.2.1,Linux x86_64,59.52380952,,,,,space,1.2524,NAN,,NAN,1.57,4.43,,0,61,61,61,1,62,Alex,Rej,Participant_Images/66465b2522d14ab162ff2dbd/66465b2522d14ab162ff2dbd_Images/66465b2522d14ab162ff2dbd_Image_6.jpeg,did not like,4.988446431,,,,,,,,,,,,,,,,,,,,,,
,,66465b2522d14ab162ff2dbd,6685aa9113c938e83b4f1ea0,66c776bfa5ed8f26d39f9578,2024-08-22_13h36.04.179,WTP_SM_Choice,2022.2.1,Linux x86_64,59.52380952,,,,,space,1.8327,NAN,,NAN,1.57,4.43,,0,62,62,62,1,63,Alex,Rej,Participant_Images/66465b2522d14ab162ff2dbd/66465b2522d14ab162ff2dbd_Images/66465b2522d14ab162ff2dbd_Image_4.jpeg,did not like,3.470791822,,,,,,,,,,,,,,,,,,,,,,
,,66465b2522d14ab162ff2dbd,6685aa9113c938e83b4f1ea0,66c776bfa5ed8f26d39f9578,2024-08-22_13h36.04.179,WTP_SM_Choice,2022.2.1,Linux x86_64,59.52380952,,,,,space,1.9197,NAN,,NAN,1.57,4.43,,0,63,63,63,1,64,Alex,Rej,Participant_Images/66465b2522d14ab162ff2dbd/66465b2522d14ab162ff2dbd_Images/66465b2522d14ab162ff2dbd_Image_2.jpeg,liked,3.820572462,,,,,,,,,,,,,,,,,,,,,,
,,66465b2522d14ab162ff2dbd,6685aa9113c938e83b4f1ea0,66c776bfa5ed8f26d39f9578,2024-08-22_13h36.04.179,WTP_SM_Choice,2022.2.1,Linux x86_64,59.52380952,,,,,,,,,,,,,,,,,,61,,,,,,space,1.5828,space,3.0043,0.01,1,0.914,0,0,0,0,1,Go fish with my family,Play with my animals,0.01,0.03,3.3,0,,,,
,,66465b2522d14ab162ff2dbd,6685aa9113c938e83b4f1ea0,66c776bfa5ed8f26d39f9578,2024-08-22_13h36.04.179,WTP_SM_Choice,2022.2.1,Linux x86_64,59.52380952,,,,,,,,,,,,,,,,,,62,,,,,,,,,,0.02,1,2.1987,0,1,1,1,1,Go out to eat with my boyfriend,Take a warm bath,0.02,0.03,3.3,0,,,,
,,66465b2522d14ab162ff2dbd,6685aa9113c938e83b4f1ea0,66c776bfa5ed8f26d39f9578,2024-08-22_13h36.04.179,WTP_SM_Choice,2022.2.1,Linux x86_64,59.52380952,,,,,,,,,,,,,,,,,,63,,,,,,,,,,0.03,2,2.4505,0,2,2,2,1,Play video games,Paint frames with my friends,0.03,0.03,3.3,1,,,,
,,66465b2522d14ab162ff2dbd,6685aa9113c938e83b4f1ea0,66c776bfa5ed8f26d39f9578,2024-08-22_13h36.04.179,WTP_SM_Choice,2022.2.1,Linux x86_64,59.52380952,,,,,,,,,,,,,,,,,,64,,,,,,,,,,0.03,2,4.2473,0,3,3,3,1,Play with my animals,Play fortnite with my little brother,0.04,0.03,1.1,1,,,,
,,66465b2522d14ab162ff2dbd,6685aa9113c938e83b4f1ea0,66c776bfa5ed8f26d39f9578,2024-08-22_13h36.04.179,WTP_SM_Choice,2022.2.1,Linux x86_64,59.52380952,,,,,,,,,,,,,,,,,,65,,,,,,,,,,0.03,2,6.4,0,4,4,4,1,Watch adult animation shows with my boyfriend,Do my skin care,0.05,0.03,1.1,0,,,,
,,66465b2522d14ab162ff2dbd,6685aa9113c938e83b4f1ea0,66c776bfa5ed8f26d39f9578,2024-08-22_13h36.04.179,WTP_SM_Choice,2022.2.1,Linux x86_64,59.52380952,,,,,,,NAN,,NAN,1.69,4.31,,0,64,64,64,1,65,Alex,Rej,Participant_Images/66465b2522d14ab162ff2dbd/66465b2522d14ab162ff2dbd_Images/66465b2522d14ab162ff2dbd_Image_18.jpeg,liked,2.455989137,,,,,,,,,,,,,,,,,,,,,,
,,66465b2522d14ab162ff2dbd,6685aa9113c938e83b4f1ea0,66c776bfa5ed8f26d39f9578,2024-08-22_13h36.04.179,WTP_SM_Choice,2022.2.1,Linux x86_64,59.52380952,,,,,space,1.5488,NAN,,NAN,1.69,4.31,,0,65,65,65,1,66,Alex,Rej,Participant_Images/66465b2522d14ab162ff2dbd/66465b2522d14ab162ff2dbd_Images/66465b2522d14ab162ff2dbd_Image_19.jpeg,did not like,3.79605092,,,,,,,,,,,,,,,,,,,,,,
,,66465b2522d14ab162ff2dbd,6685aa9113c938e83b4f1ea0,66c776bfa5ed8f26d39f9578,2024-08-22_13h36.04.179,WTP_SM_Choice,2022.2.1,Linux x86_64,59.52380952,,,,,space,7.586,NAN,,NAN,1.69,4.31,,0,66,66,66,1,67,Alex,Rej,Participant_Images/66465b2522d14ab162ff2dbd/66465b2522d14ab162ff2dbd_Images/66465b2522d14ab162ff2dbd_Image_7.jpeg,did not like,3.562416326,,,,,,,,,,,,,,,,,,,,,,
,,66465b2522d14ab162ff2dbd,6685aa9113c938e83b4f1ea0,66c776bfa5ed8f26d39f9578,2024-08-22_13h36.04.179,WTP_SM_Choice,2022.2.1,Linux x86_64,59.52380952,,,,,space,7.6867,NAN,,NAN,1.69,4.31,,0,67,67,67,1,68,Alex,Rej,Participant_Images/66465b2522d14ab162ff2dbd/66465b2522d14ab162ff2dbd_Images/66465b2522d14ab162ff2dbd_Image_16.jpeg,did not like,2.843822497,,,,,,,,,,,,,,,,,,,,,,
,,66465b2522d14ab162ff2dbd,6685aa9113c938e83b4f1ea0,66c776bfa5ed8f26d39f9578,2024-08-22_13h36.04.179,WTP_SM_Choice,2022.2.1,Linux x86_64,59.52380952,,,,,space,4.9656,NAN,,NAN,1.69,4.31,,0,68,68,68,1,69,Alex,Rej,Participant_Images/66465b2522d14ab162ff2dbd/66465b2522d14ab162ff2dbd_Images/66465b2522d14ab162ff2dbd_Image_1.jpeg,did not like,3.546495948,,,,,,,,,,,,,,,,,,,,,,
,,66465b2522d14ab162ff2dbd,6685aa9113c938e83b4f1ea0,66c776bfa5ed8f26d39f9578,2024-08-22_13h36.04.179,WTP_SM_Choice,2022.2.1,Linux x86_64,59.52380952,,,,,,,,,,,,,,,,,,66,,,,,,space,2.6389,space,0.5342,0.01,1,1.4006,0,0,0,0,1,Take a warm bath,Go to thrift stores with my boyfriend,0.01,0.04,1.1,1,,,,
,,66465b2522d14ab162ff2dbd,6685aa9113c938e83b4f1ea0,66c776bfa5ed8f26d39f9578,2024-08-22_13h36.04.179,WTP_SM_Choice,2022.2.1,Linux x86_64,59.52380952,,,,,,,,,,,,,,,,,,67,,,,,,,,,,0.02,1,2.975,0,1,1,1,1,Watch tv saturday nights with my dad,Paint my toes and nails,0.02,0.04,8.8,0,,,,
,,66465b2522d14ab162ff2dbd,6685aa9113c938e83b4f1ea0,66c776bfa5ed8f26d39f9578,2024-08-22_13h36.04.179,WTP_SM_Choice,2022.2.1,Linux x86_64,59.52380952,,,,,,,,,,,,,,,,,,68,,,,,,,,,,0.03,1,2.6132,0,2,2,2,1,Listen to podcasts,Go to thrift stores with my boyfriend,0.03,0.04,4.4,1,,,,
,,66465b2522d14ab162ff2dbd,6685aa9113c938e83b4f1ea0,66c776bfa5ed8f26d39f9578,2024-08-22_13h36.04.179,WTP_SM_Choice,2022.2.1,Linux x86_64,59.52380952,,,,,,,,,,,,,,,,,,69,,,,,,,,,,,,,0,3,3,3,1,Take a warm bath,Play fortnite with my little brother,0.04,0.04,1.1,1,,,,
,,66465b2522d14ab162ff2dbd,6685aa9113c938e83b4f1ea0,66c776bfa5ed8f26d39f9578,2024-08-22_13h36.04.179,WTP_SM_Choice,2022.2.1,Linux x86_64,59.52380952,,,,,,,,,,,,,,,,,,70,,,,,,,,,,0.04,2,1.0711,0,4,4,4,1,Play video games,Go out to eat with my boyfriend,0.05,0.04,1.1,1,,,,
,,66465b2522d14ab162ff2dbd,6685aa9113c938e83b4f1ea0,66c776bfa5ed8f26d39f9578,2024-08-22_13h36.04.179,WTP_SM_Choice,2022.2.1,Linux x86_64,59.52380952,,,,,,,NAN,,NAN,1.79,4.21,,0,69,69,69,1,70,Alex,Rej,Participant_Images/66465b2522d14ab162ff2dbd/66465b2522d14ab162ff2dbd_Images/66465b2522d14ab162ff2dbd_Image_20.jpeg,did not like,1.672012706,,,,,,,,,,,,,,,,,,,,,,
,,66465b2522d14ab162ff2dbd,6685aa9113c938e83b4f1ea0,66c776bfa5ed8f26d39f9578,2024-08-22_13h36.04.179,WTP_SM_Choice,2022.2.1,Linux x86_64,59.52380952,,,,,space,2.0548,NAN,,NAN,1.79,4.21,,0,70,70,70,1,71,Alex,Rej,Participant_Images/66465b2522d14ab162ff2dbd/66465b2522d14ab162ff2dbd_Images/66465b2522d14ab162ff2dbd_Image_24.jpeg,liked,4.942172136,,,,,,,,,,,,,,,,,,,,,,
,,66465b2522d14ab162ff2dbd,6685aa9113c938e83b4f1ea0,66c776bfa5ed8f26d39f9578,2024-08-22_13h36.04.179,WTP_SM_Choice,2022.2.1,Linux x86_64,59.52380952,,,,,space,1.5557,NAN,,NAN,1.79,4.21,,0,71,71,71,1,72,Alex,Rej,Participant_Images/66465b2522d14ab162ff2dbd/66465b2522d14ab162ff2dbd_Images/66465b2522d14ab162ff2dbd_Image_15.jpeg,did not like,2.50187214,,,,,,,,,,,,,,,,,,,,,,
,,66465b2522d14ab162ff2dbd,6685aa9113c938e83b4f1ea0,66c776bfa5ed8f26d39f9578,2024-08-22_13h36.04.179,WTP_SM_Choice,2022.2.1,Linux x86_64,59.52380952,,,,,space,3.5431,NAN,,NAN,1.79,4.21,,0,72,72,72,1,73,Alex,Rej,Participant_Images/66465b2522d14ab162ff2dbd/66465b2522d14ab162ff2dbd_Images/66465b2522d14ab162ff2dbd_Image_22.jpeg,did not like,2.071164779,,,,,,,,,,,,,,,,,,,,,,
,,66465b2522d14ab162ff2dbd,6685aa9113c938e83b4f1ea0,66c776bfa5ed8f26d39f9578,2024-08-22_13h36.04.179,WTP_SM_Choice,2022.2.1,Linux x86_64,59.52380952,,,,,space,4.2214,NAN,,NAN,1.79,4.21,,0,73,73,73,1,74,Alex,Rej,Participant_Images/66465b2522d14ab162ff2dbd/66465b2522d14ab162ff2dbd_Images/66465b2522d14ab162ff2dbd_Image_3.jpeg,did not like,5.336503566,,,,,,,,,,,,,,,,,,,,,,
,,66465b2522d14ab162ff2dbd,6685aa9113c938e83b4f1ea0,66c776bfa5ed8f26d39f9578,2024-08-22_13h36.04.179,WTP_SM_Choice,2022.2.1,Linux x86_64,59.52380952,,,,,,,,,,,,,,,,,,71,,,,,,space,0.3683,space,0.8648,0.01,1,2.3205,0,0,0,0,1,Do my hair with my friends,Read thriller books,0.01,0.05,3.3,0,,,,
,,66465b2522d14ab162ff2dbd,6685aa9113c938e83b4f1ea0,66c776bfa5ed8f26d39f9578,2024-08-22_13h36.04.179,WTP_SM_Choice,2022.2.1,Linux x86_64,59.52380952,,,,,,,,,,,,,,,,,,72,,,,,,,,,,0.02,1,2.021,0,1,1,1,1,Go fish with my family,Do my skin care,0.02,0.05,8.8,0,,,,
,,66465b2522d14ab162ff2dbd,6685aa9113c938e83b4f1ea0,66c776bfa5ed8f26d39f9578,2024-08-22_13h36.04.179,WTP_SM_Choice,2022.2.1,Linux x86_64,59.52380952,,,,,,,,,,,,,,,,,,73,,,,,,,,,,0.03,1,2.2153,0,2,2,2,1,Do my skin care,Play fortnite with my little brother,0.03,0.05,3.3,1,,,,
,,66465b2522d14ab162ff2dbd,6685aa9113c938e83b4f1ea0,66c776bfa5ed8f26d39f9578,2024-08-22_13h36.04.179,WTP_SM_Choice,2022.2.1,Linux x86_64,59.52380952,,,,,,,,,,,,,,,,,,74,,,,,,,,,,0.04,1,1.5739,0,3,3,3,1,Go fish with my family,Binge watch reality tv,0.04,0.05,4.4,0,,,,
,,66465b2522d14ab162ff2dbd,6685aa9113c938e83b4f1ea0,66c776bfa5ed8f26d39f9578,2024-08-22_13h36.04.179,WTP_SM_Choice,2022.2.1,Linux x86_64,59.52380952,,,,,,,,,,,,,,,,,,75,,,,,,,,,,0.05,1,1.4966,0,4,4,4,1,Watch tv saturday nights with my dad,Do my skin care,0.05,0.05,3.3,0,,,,
,,66465b2522d14ab162ff2dbd,6685aa9113c938e83b4f1ea0,66c776bfa5ed8f26d39f9578,2024-08-22_13h36.04.179,WTP_SM_Choice,2022.2.1,Linux x86_64,59.52380952,,,,,,,5,,9,1.94,4.06,,0,74,74,74,1,75,Alex,Rej,Participant_Images/66465b2522d14ab162ff2dbd/66465b2522d14ab162ff2dbd_Images/66465b2522d14ab162ff2dbd_Image_25.jpeg,did not like,2.642157193,,,,,,,,,,,,,,,,,,,space,4.6651,,
,,66465b2522d14ab162ff2dbd,6685aa9113c938e83b4f1ea0,66c776bfa5ed8f26d39f9578,2024-08-22_13h36.04.179,WTP_SM_Choice,2022.2.1,Linux x86_64,59.52380952,,,space,8.3137,space,1.6695,NAN,,NAN,1.94,4.06,,0,75,75,75,1,76,Sam,Acc,Participant_Images/66465b2522d14ab162ff2dbd/66465b2522d14ab162ff2dbd_Images/66465b2522d14ab162ff2dbd_Image_11.jpeg,liked,4.456234322,,,,,,,,,,,,,,,,,,,,,,
,,66465b2522d14ab162ff2dbd,6685aa9113c938e83b4f1ea0,66c776bfa5ed8f26d39f9578,2024-08-22_13h36.04.179,WTP_SM_Choice,2022.2.1,Linux x86_64,59.52380952,,,,,space,3.2719,NAN,,NAN,1.94,4.06,,0,76,76,76,1,77,Sam,Acc,Participant_Images/66465b2522d14ab162ff2dbd/66465b2522d14ab162ff2dbd_Images/66465b2522d14ab162ff2dbd_Image_16.jpeg,liked,4.438512181,,,,,,,,,,,,,,,,,,,,,,
,,66465b2522d14ab162ff2dbd,6685aa9113c938e83b4f1ea0,66c776bfa5ed8f26d39f9578,2024-08-22_13h36.04.179,WTP_SM_Choice,2022.2.1,Linux x86_64,59.52380952,,,,,space,3.8699,NAN,,NAN,1.94,4.06,,0,77,77,77,1,78,Sam,Acc,Participant_Images/66465b2522d14ab162ff2dbd/66465b2522d14ab162ff2dbd_Images/66465b2522d14ab162ff2dbd_Image_13.jpeg,liked,2.682944783,,,,,,,,,,,,,,,,,,,,,,
,,66465b2522d14ab162ff2dbd,6685aa9113c938e83b4f1ea0,66c776bfa5ed8f26d39f9578,2024-08-22_13h36.04.179,WTP_SM_Choice,2022.2.1,Linux x86_64,59.52380952,,,,,space,3.1011,NAN,,NAN,1.94,4.06,,0,78,78,78,1,79,Sam,Acc,Participant_Images/66465b2522d14ab162ff2dbd/66465b2522d14ab162ff2dbd_Images/66465b2522d14ab162ff2dbd_Image_17.jpeg,liked,4.51984296,,,,,,,,,,,,,,,,,,,,,,
,,66465b2522d14ab162ff2dbd,6685aa9113c938e83b4f1ea0,66c776bfa5ed8f26d39f9578,2024-08-22_13h36.04.179,WTP_SM_Choice,2022.2.1,Linux x86_64,59.52380952,,,,,,,,,,,,,,,,,,76,,,,,,space,1.6331,space,0.5878,0.01,2,2.0943,0,0,0,0,1,Watch adult animation shows with my boyfriend,Paint my toes and nails,0.01,0.01,1.1,0,,,,
,,66465b2522d14ab162ff2dbd,6685aa9113c938e83b4f1ea0,66c776bfa5ed8f26d39f9578,2024-08-22_13h36.04.179,WTP_SM_Choice,2022.2.1,Linux x86_64,59.52380952,,,,,,,,,,,,,,,,,,77,,,,,,,,,,0.01,2,1.5654,0,1,1,1,1,Try new makeup styles,Watch tv saturday nights with my dad,0.02,0.01,8.8,1,,,,
,,66465b2522d14ab162ff2dbd,6685aa9113c938e83b4f1ea0,66c776bfa5ed8f26d39f9578,2024-08-22_13h36.04.179,WTP_SM_Choice,2022.2.1,Linux x86_64,59.52380952,,,,,,,,,,,,,,,,,,78,,,,,,,,,,0.01,2,1.9425,0,2,2,2,1,Binge watch reality tv,Do my hair with my friends,0.03,0.01,1.1,1,,,,
,,66465b2522d14ab162ff2dbd,6685aa9113c938e83b4f1ea0,66c776bfa5ed8f26d39f9578,2024-08-22_13h36.04.179,WTP_SM_Choice,2022.2.1,Linux x86_64,59.52380952,,,,,,,,,,,,,,,,,,79,,,,,,,,,,0.01,2,3.3833,0,3,3,3,1,Do my skin care,Go out to eat with my boyfriend,0.04,0.01,1.1,1,,,,
,,66465b2522d14ab162ff2dbd,6685aa9113c938e83b4f1ea0,66c776bfa5ed8f26d39f9578,2024-08-22_13h36.04.179,WTP_SM_Choice,2022.2.1,Linux x86_64,59.52380952,,,,,,,,,,,,,,,,,,80,,,,,,,,,,0.01,2,5.2037,0,4,4,4,1,Go to thrift stores with my boyfriend,Binge watch reality tv,0.05,0.01,4.4,0,,,,
,,66465b2522d14ab162ff2dbd,6685aa9113c938e83b4f1ea0,66c776bfa5ed8f26d39f9578,2024-08-22_13h36.04.179,WTP_SM_Choice,2022.2.1,Linux x86_64,59.52380952,,,,,,,NAN,,NAN,1.99,4.01,,0,79,79,79,1,80,Sam,Acc,Participant_Images/66465b2522d14ab162ff2dbd/66465b2522d14ab162ff2dbd_Images/66465b2522d14ab162ff2dbd_Image_10.jpeg,did not like,3.195382774,,,,,,,,,,,,,,,,,,,,,,
,,66465b2522d14ab162ff2dbd,6685aa9113c938e83b4f1ea0,66c776bfa5ed8f26d39f9578,2024-08-22_13h36.04.179,WTP_SM_Choice,2022.2.1,Linux x86_64,59.52380952,,,,,space,6.651,NAN,,NAN,1.99,4.01,,0,80,80,80,1,81,Sam,Acc,Participant_Images/66465b2522d14ab162ff2dbd/66465b2522d14ab162ff2dbd_Images/66465b2522d14ab162ff2dbd_Image_9.jpeg,liked,1.779333479,,,,,,,,,,,,,,,,,,,,,,
,,66465b2522d14ab162ff2dbd,6685aa9113c938e83b4f1ea0,66c776bfa5ed8f26d39f9578,2024-08-22_13h36.04.179,WTP_SM_Choice,2022.2.1,Linux x86_64,59.52380952,,,,,space,4.3792,NAN,,NAN,1.99,4.01,,0,81,81,81,1,82,Sam,Acc,Participant_Images/66465b2522d14ab162ff2dbd/66465b2522d14ab162ff2dbd_Images/66465b2522d14ab162ff2dbd_Image_7.jpeg,liked,4.312468682,,,,,,,,,,,,,,,,,,,,,,
,,66465b2522d14ab162ff2dbd,6685aa9113c938e83b4f1ea0,66c776bfa5ed8f26d39f9578,2024-08-22_13h36.04.179,WTP_SM_Choice,2022.2.1,Linux x86_64,59.52380952,,,,,space,1.6682,NAN,,NAN,1.99,4.01,,0,82,82,82,1,83,Sam,Acc,Participant_Images/66465b2522d14ab162ff2dbd/66465b2522d14ab162ff2dbd_Images/66465b2522d14ab162ff2dbd_Image_6.jpeg,did not like,4.940433059,,,,,,,,,,,,,,,,,,,,,,
,,66465b2522d14ab162ff2dbd,6685aa9113c938e83b4f1ea0,66c776bfa5ed8f26d39f9578,2024-08-22_13h36.04.179,WTP_SM_Choice,2022.2.1,Linux x86_64,59.52380952,,,,,space,2.8842,NAN,,NAN,1.99,4.01,,0,83,83,83,1,84,Sam,Acc,Participant_Images/66465b2522d14ab162ff2dbd/66465b2522d14ab162ff2dbd_Images/66465b2522d14ab162ff2dbd_Image_5.jpeg,did not like,2.7105123,,,,,,,,,,,,,,,,,,,,,,
,,66465b2522d14ab162ff2dbd,6685aa9113c938e83b4f1ea0,66c776bfa5ed8f26d39f9578,2024-08-22_13h36.04.179,WTP_SM_Choice,2022.2.1,Linux x86_64,59.52380952,,,,,,,,,,,,,,,,,,81,,,,,,space,1.3544,space,7.9807,0.01,1,1.9756,0,0,0,0,1,Try new makeup styles,Go out to eat with my boyfriend,0.01,0.02,3.3,1,,,,
,,66465b2522d14ab162ff2dbd,6685aa9113c938e83b4f1ea0,66c776bfa5ed8f26d39f9578,2024-08-22_13h36.04.179,WTP_SM_Choice,2022.2.1,Linux x86_64,59.52380952,,,,,,,,,,,,,,,,,,82,,,,,,,,,,0.02,2,1.7205,0,1,1,1,1,Watch adult animation shows with my boyfriend,Read thriller books,0.02,0.02,4.4,0,,,,
,,66465b2522d14ab162ff2dbd,6685aa9113c938e83b4f1ea0,66c776bfa5ed8f26d39f9578,2024-08-22_13h36.04.179,WTP_SM_Choice,2022.2.1,Linux x86_64,59.52380952,,,,,,,,,,,,,,,,,,83,,,,,,,,,,0.02,2,1.1116,0,2,2,2,1,Paint with acrylic paint,Play fortnite with my little brother,0.03,0.02,1.1,1,,,,
,,66465b2522d14ab162ff2dbd,6685aa9113c938e83b4f1ea0,66c776bfa5ed8f26d39f9578,2024-08-22_13h36.04.179,WTP_SM_Choice,2022.2.1,Linux x86_64,59.52380952,,,,,,,,,,,,,,,,,,84,,,,,,,,,,0.02,2,1.0456,0,3,3,3,1,Play with my animals,Do my hair with my friends,0.04,0.02,3.3,1,,,,
,,66465b2522d14ab162ff2dbd,6685aa9113c938e83b4f1ea0,66c776bfa5ed8f26d39f9578,2024-08-22_13h36.04.179,WTP_SM_Choice,2022.2.1,Linux x86_64,59.52380952,,,,,,,,,,,,,,,,,,85,,,,,,,,,,0.02,2,1.2105,0,4,4,4,1,Play fortnite with my little brother,Try new makeup styles,0.05,0.02,3.3,0,,,,
,,66465b2522d14ab162ff2dbd,6685aa9113c938e83b4f1ea0,66c776bfa5ed8f26d39f9578,2024-08-22_13h36.04.179,WTP_SM_Choice,2022.2.1,Linux x86_64,59.52380952,,,,,,,NAN,,NAN,2.08,3.92,,0,84,84,84,1,85,Sam,Acc,Participant_Images/66465b2522d14ab162ff2dbd/66465b2522d14ab162ff2dbd_Images/66465b2522d14ab162ff2dbd_Image_8.jpeg,liked,3.602308302,,,,,,,,,,,,,,,,,,,,,,
,,66465b2522d14ab162ff2dbd,6685aa9113c938e83b4f1ea0,66c776bfa5ed8f26d39f9578,2024-08-22_13h36.04.179,WTP_SM_Choice,2022.2.1,Linux x86_64,59.52380952,,,,,space,4.0892,NAN,,NAN,2.08,3.92,,0,85,85,85,1,86,Sam,Acc,Participant_Images/66465b2522d14ab162ff2dbd/66465b2522d14ab162ff2dbd_Images/66465b2522d14ab162ff2dbd_Image_19.jpeg,did not like,4.106391878,,,,,,,,,,,,,,,,,,,,,,
,,66465b2522d14ab162ff2dbd,6685aa9113c938e83b4f1ea0,66c776bfa5ed8f26d39f9578,2024-08-22_13h36.04.179,WTP_SM_Choice,2022.2.1,Linux x86_64,59.52380952,,,,,space,5.7844,NAN,,NAN,2.08,3.92,,0,86,86,86,1,87,Sam,Acc,Participant_Images/66465b2522d14ab162ff2dbd/66465b2522d14ab162ff2dbd_Images/66465b2522d14ab162ff2dbd_Image_12.jpeg,liked,3.799433026,,,,,,,,,,,,,,,,,,,,,,
,,66465b2522d14ab162ff2dbd,6685aa9113c938e83b4f1ea0,66c776bfa5ed8f26d39f9578,2024-08-22_13h36.04.179,WTP_SM_Choice,2022.2.1,Linux x86_64,59.52380952,,,,,space,3.637,NAN,,NAN,2.08,3.92,,0,87,87,87,1,88,Sam,Acc,Participant_Images/66465b2522d14ab162ff2dbd/66465b2522d14ab162ff2dbd_Images/66465b2522d14ab162ff2dbd_Image_1.jpeg,liked,5.246980764,,,,,,,,,,,,,,,,,,,,,,
,,66465b2522d14ab162ff2dbd,6685aa9113c938e83b4f1ea0,66c776bfa5ed8f26d39f9578,2024-08-22_13h36.04.179,WTP_SM_Choice,2022.2.1,Linux x86_64,59.52380952,,,,,space,0.4024,NAN,,NAN,2.08,3.92,,0,88,88,88,1,89,Sam,Acc,Participant_Images/66465b2522d14ab162ff2dbd/66465b2522d14ab162ff2dbd_Images/66465b2522d14ab162ff2dbd_Image_14.jpeg,liked,3.30081769,,,,,,,,,,,,,,,,,,,,,,
,,66465b2522d14ab162ff2dbd,6685aa9113c938e83b4f1ea0,66c776bfa5ed8f26d39f9578,2024-08-22_13h36.04.179,WTP_SM_Choice,2022.2.1,Linux x86_64,59.52380952,,,,,,,,,,,,,,,,,,86,,,,,,space,1.704,space,0.437,0.01,1,1.3533,0,0,0,0,1,Watch tv saturday nights with my dad,Take a warm bath,0.01,0.03,1.1,0,,,,
,,66465b2522d14ab162ff2dbd,6685aa9113c938e83b4f1ea0,66c776bfa5ed8f26d39f9578,2024-08-22_13h36.04.179,WTP_SM_Choice,2022.2.1,Linux x86_64,59.52380952,,,,,,,,,,,,,,,,,,87,,,,,,,,,,0.02,1,1.5891,0,1,1,1,1,Paint with acrylic paint,Paint frames with my friends,0.02,0.03,4.4,1,,,,
,,66465b2522d14ab162ff2dbd,6685aa9113c938e83b4f1ea0,66c776bfa5ed8f26d39f9578,2024-08-22_13h36.04.179,WTP_SM_Choice,2022.2.1,Linux x86_64,59.52380952,,,,,,,,,,,,,,,,,,88,,,,,,,,,,0.03,1,2.0436,0,2,2,2,1,Read thriller books,Play fortnite with my little brother,0.03,0.03,1.1,1,,,,
,,66465b2522d14ab162ff2dbd,6685aa9113c938e83b4f1ea0,66c776bfa5ed8f26d39f9578,2024-08-22_13h36.04.179,WTP_SM_Choice,2022.2.1,Linux x86_64,59.52380952,,,,,,,,,,,,,,,,,,89,,,,,,,,,,0.03,2,1.9448,0,3,3,3,1,Paint frames with my friends,Try new makeup styles,0.04,0.03,3.3,0,,,,
,,66465b2522d14ab162ff2dbd,6685aa9113c938e83b4f1ea0,66c776bfa5ed8f26d39f9578,2024-08-22_13h36.04.179,WTP_SM_Choice,2022.2.1,Linux x86_64,59.52380952,,,,,,,,,,,,,,,,,,90,,,,,,,,,,0.03,2,2.3387,0,4,4,4,1,Go to thrift stores with my boyfriend,Paint with acrylic paint,0.05,0.03,8.8,0,,,,
,,66465b2522d14ab162ff2dbd,6685aa9113c938e83b4f1ea0,66c776bfa5ed8f26d39f9578,2024-08-22_13h36.04.179,WTP_SM_Choice,2022.2.1,Linux x86_64,59.52380952,,,,,,,NAN,,NAN,2.2,3.8,,0,89,89,89,1,90,Sam,Acc,Participant_Images/66465b2522d14ab162ff2dbd/66465b2522d14ab162ff2dbd_Images/66465b2522d14ab162ff2dbd_Image_15.jpeg,liked,1.661473164,,,,,,,,,,,,,,,,,,,,,,
,,66465b2522d14ab162ff2dbd,6685aa9113c938e83b4f1ea0,66c776bfa5ed8f26d39f9578,2024-08-22_13h36.04.179,WTP_SM_Choice,2022.2.1,Linux x86_64,59.52380952,,,,,space,6.5708,NAN,,NAN,2.2,3.8,,0,90,90,90,1,91,Sam,Acc,Participant_Images/66465b2522d14ab162ff2dbd/66465b2522d14ab162ff2dbd_Images/66465b2522d14ab162ff2dbd_Image_24.jpeg,liked,3.613205605,,,,,,,,,,,,,,,,,,,,,,
,,66465b2522d14ab162ff2dbd,6685aa9113c938e83b4f1ea0,66c776bfa5ed8f26d39f9578,2024-08-22_13h36.04.179,WTP_SM_Choice,2022.2.1,Linux x86_64,59.52380952,,,,,space,1.8214,NAN,,NAN,2.2,3.8,,0,91,91,91,1,92,Sam,Acc,Participant_Images/66465b2522d14ab162ff2dbd/66465b2522d14ab162ff2dbd_Images/66465b2522d14ab162ff2dbd_Image_4.jpeg,liked,4.988446431,,,,,,,,,,,,,,,,,,,,,,
,,66465b2522d14ab162ff2dbd,6685aa9113c938e83b4f1ea0,66c776bfa5ed8f26d39f9578,2024-08-22_13h36.04.179,WTP_SM_Choice,2022.2.1,Linux x86_64,59.52380952,,,,,space,3.2921,NAN,,NAN,2.2,3.8,,0,92,92,92,1,93,Sam,Acc,Participant_Images/66465b2522d14ab162ff2dbd/66465b2522d14ab162ff2dbd_Images/66465b2522d14ab162ff2dbd_Image_18.jpeg,liked,3.470791822,,,,,,,,,,,,,,,,,,,,,,
,,66465b2522d14ab162ff2dbd,6685aa9113c938e83b4f1ea0,66c776bfa5ed8f26d39f9578,2024-08-22_13h36.04.179,WTP_SM_Choice,2022.2.1,Linux x86_64,59.52380952,,,,,space,1.189,NAN,,NAN,2.2,3.8,,0,93,93,93,1,94,Sam,Acc,Participant_Images/66465b2522d14ab162ff2dbd/66465b2522d14ab162ff2dbd_Images/66465b2522d14ab162ff2dbd_Image_20.jpeg,did not like,3.820572462,,,,,,,,,,,,,,,,,,,,,,
,,66465b2522d14ab162ff2dbd,6685aa9113c938e83b4f1ea0,66c776bfa5ed8f26d39f9578,2024-08-22_13h36.04.179,WTP_SM_Choice,2022.2.1,Linux x86_64,59.52380952,,,,,,,,,,,,,,,,,,91,,,,,,space,3.2869,space,4.0556,0.01,1,1.5758,0,0,0,0,1,Go out to eat with my boyfriend,Paint with acrylic paint,0.01,0.04,3.3,0,,,,
,,66465b2522d14ab162ff2dbd,6685aa9113c938e83b4f1ea0,66c776bfa5ed8f26d39f9578,2024-08-22_13h36.04.179,WTP_SM_Choice,2022.2.1,Linux x86_64,59.52380952,,,,,,,,,,,,,,,,,,92,,,,,,,,,,0.02,1,1.8795,0,1,1,1,1,Paint my toes and nails,Go fish with my family,0.02,0.04,8.8,1,,,,
,,66465b2522d14ab162ff2dbd,6685aa9113c938e83b4f1ea0,66c776bfa5ed8f26d39f9578,2024-08-22_13h36.04.179,WTP_SM_Choice,2022.2.1,Linux x86_64,59.52380952,,,,,,,,,,,,,,,,,,93,,,,,,,,,,0.03,1,1.8456,0,2,2,2,1,Do my skin care,Go on picnics with my friends,0.03,0.04,1.1,1,,,,
,,66465b2522d14ab162ff2dbd,6685aa9113c938e83b4f1ea0,66c776bfa5ed8f26d39f9578,2024-08-22_13h36.04.179,WTP_SM_Choice,2022.2.1,Linux x86_64,59.52380952,,,,,,,,,,,,,,,,,,94,,,,,,,,,,0.04,1,5.0295,0,3,3,3,1,Go on picnics with my friends,Take a warm bath,0.04,0.04,4.4,0,,,,
,,66465b2522d14ab162ff2dbd,6685aa9113c938e83b4f1ea0,66c776bfa5ed8f26d39f9578,2024-08-22_13h36.04.179,WTP_SM_Choice,2022.2.1,Linux x86_64,59.52380952,,,,,,,,,,,,,,,,,,95,,,,,,,,,,0.04,2,3.9707,0,4,4,4,1,Play video games,Go fish with my family,0.05,0.04,4.4,1,,,,
,,66465b2522d14ab162ff2dbd,6685aa9113c938e83b4f1ea0,66c776bfa5ed8f26d39f9578,2024-08-22_13h36.04.179,WTP_SM_Choice,2022.2.1,Linux x86_64,59.52380952,,,,,,,NAN,,NAN,2.34,3.66,,0,94,94,94,1,95,Sam,Acc,Participant_Images/66465b2522d14ab162ff2dbd/66465b2522d14ab162ff2dbd_Images/66465b2522d14ab162ff2dbd_Image_3.jpeg,liked,2.455989137,,,,,,,,,,,,,,,,,,,,,,
,,66465b2522d14ab162ff2dbd,6685aa9113c938e83b4f1ea0,66c776bfa5ed8f26d39f9578,2024-08-22_13h36.04.179,WTP_SM_Choice,2022.2.1,Linux x86_64,59.52380952,,,,,space,3.2348,NAN,,NAN,2.34,3.66,,0,95,95,95,1,96,Sam,Acc,Participant_Images/66465b2522d14ab162ff2dbd/66465b2522d14ab162ff2dbd_Images/66465b2522d14ab162ff2dbd_Image_21.jpeg,liked,3.79605092,,,,,,,,,,,,,,,,,,,,,,
,,66465b2522d14ab162ff2dbd,6685aa9113c938e83b4f1ea0,66c776bfa5ed8f26d39f9578,2024-08-22_13h36.04.179,WTP_SM_Choice,2022.2.1,Linux x86_64,59.52380952,,,,,space,2.3678,NAN,,NAN,2.34,3.66,,0,96,96,96,1,97,Sam,Acc,Participant_Images/66465b2522d14ab162ff2dbd/66465b2522d14ab162ff2dbd_Images/66465b2522d14ab162ff2dbd_Image_25.jpeg,liked,3.562416326,,,,,,,,,,,,,,,,,,,,,,
,,66465b2522d14ab162ff2dbd,6685aa9113c938e83b4f1ea0,66c776bfa5ed8f26d39f9578,2024-08-22_13h36.04.179,WTP_SM_Choice,2022.2.1,Linux x86_64,59.52380952,,,,,space,4.4516,NAN,,NAN,2.34,3.66,,0,97,97,97,1,98,Sam,Acc,Participant_Images/66465b2522d14ab162ff2dbd/66465b2522d14ab162ff2dbd_Images/66465b2522d14ab162ff2dbd_Image_22.jpeg,did not like,2.843822497,,,,,,,,,,,,,,,,,,,,,,
,,66465b2522d14ab162ff2dbd,6685aa9113c938e83b4f1ea0,66c776bfa5ed8f26d39f9578,2024-08-22_13h36.04.179,WTP_SM_Choice,2022.2.1,Linux x86_64,59.52380952,,,,,space,1.6032,NAN,,NAN,2.34,3.66,,0,98,98,98,1,99,Sam,Acc,Participant_Images/66465b2522d14ab162ff2dbd/66465b2522d14ab162ff2dbd_Images/66465b2522d14ab162ff2dbd_Image_23.jpeg,liked,3.546495948,,,,,,,,,,,,,,,,,,,,,,
,,66465b2522d14ab162ff2dbd,6685aa9113c938e83b4f1ea0,66c776bfa5ed8f26d39f9578,2024-08-22_13h36.04.179,WTP_SM_Choice,2022.2.1,Linux x86_64,59.52380952,,,,,,,,,,,,,,,,,,96,,,,,,space,2.0697,space,12.7135,0.01,1,1.6778,0,0,0,0,1,Take a warm bath,Do my hair with my friends,0.01,0.05,3.3,1,,,,
,,66465b2522d14ab162ff2dbd,6685aa9113c938e83b4f1ea0,66c776bfa5ed8f26d39f9578,2024-08-22_13h36.04.179,WTP_SM_Choice,2022.2.1,Linux x86_64,59.52380952,,,,,,,,,,,,,,,,,,97,,,,,,,,,,0.02,1,2.6062,0,1,1,1,1,Play with my animals,Go on picnics with my friends,0.02,0.05,1.1,1,,,,
,,66465b2522d14ab162ff2dbd,6685aa9113c938e83b4f1ea0,66c776bfa5ed8f26d39f9578,2024-08-22_13h36.04.179,WTP_SM_Choice,2022.2.1,Linux x86_64,59.52380952,,,,,,,,,,,,,,,,,,98,,,,,,,,,,0.03,1,2.6759,0,2,2,2,1,Read thriller books,Watch tv saturday nights with my dad,0.03,0.05,1.1,1,,,,
,,66465b2522d14ab162ff2dbd,6685aa9113c938e83b4f1ea0,66c776bfa5ed8f26d39f9578,2024-08-22_13h36.04.179,WTP_SM_Choice,2022.2.1,Linux x86_64,59.52380952,,,,,,,,,,,,,,,,,,99,,,,,,,,,,0.04,1,3.9796,0,3,3,3,1,Read thriller books,Paint frames with my friends,0.04,0.05,3.3,1,,,,
,,66465b2522d14ab162ff2dbd,6685aa9113c938e83b4f1ea0,66c776bfa5ed8f26d39f9578,2024-08-22_13h36.04.179,WTP_SM_Choice,2022.2.1,Linux x86_64,59.52380952,,,,,,,,,,,,,,,,,,100,,,,,,,,,,0.05,1,2.4829,0,4,4,4,1,Play video games,Watch adult animation shows with my boyfriend,0.05,0.05,4.4,1,,,,
,,66465b2522d14ab162ff2dbd,6685aa9113c938e83b4f1ea0,66c776bfa5ed8f26d39f9578,2024-08-22_13h36.04.179,WTP_SM_Choice,2022.2.1,Linux x86_64,59.52380952,,,,,,,5,,9,2.49,3.51,,0,99,99,99,1,100,Sam,Acc,Participant_Images/66465b2522d14ab162ff2dbd/66465b2522d14ab162ff2dbd_Images/66465b2522d14ab162ff2dbd_Image_2.jpeg,did not like,1.672012706,,,,,,,,,,,,,,,,,,,space,2.0196,,
,,66465b2522d14ab162ff2dbd,6685aa9113c938e83b4f1ea0,66c776bfa5ed8f26d39f9578,2024-08-22_13h36.04.179,WTP_SM_Choice,2022.2.1,Linux x86_64,59.52380952,,,,,,,,,,,,,,,,,,,,,,,,,,,,,,,,,,,,,,,,,,,,space,1.7268
