endwelcomescreen_keys.keys,endwelcomescreen_keys.rt,participant,STUDY_ID,SESSION_ID,date,expName,psychopyVersion,OS,frameRate,endinstructionscreen_keys.keys,endinstructionscreen_keys.rt,endpartnermatch_keys.keys,endpartnermatch_keys.rt,sharenextphoto_key.keys,sharenextphoto_key.rt,salience_rating,key_resp.keys,stress_level,subtract_bonus,TOTAL_TASK_BONUS,stresslevel_keypress.keys,entiretaskloop.thisRepN,entiretaskloop.thisTrialN,entiretaskloop.thisN,entiretaskloop.thisIndex,entiretaskloop.ran,TrialNumber,Partner,Condition,Photos,Feedback,FeedbackWait,WTP_ins_keys1.keys,WTP_ins_keys1.rt,WTP_ins_keys2.keys,WTP_ins_keys2.rt,responses.keys,WTPTaskLoop.thisRepN,WTPTaskLoop.thisTrialN,WTPTaskLoop.thisN,WTPTaskLoop.thisIndex,WTPTaskLoop.ran,right,left,leftmoney,rightmoney,WTP_ITI,social_left,decision_price,responses.rt,Resume_keys.keys,Resume_keys.rt,end_screen_keys.keys,end_screen_keys.rt
space,5.6625,665629a30c7e3f40e8f3d1d5,6685aa9113c938e83b4f1ea0,672d0355d5816a0516c551ea,2024-11-07_11h14.08.941,WTP_SM_Choice,2022.2.1,Win32,59.52380952,,,,,,,,,,,,,,,,,,,,,,,,,,,,,,,,,,,,,,,,,,,,,
,,665629a30c7e3f40e8f3d1d5,6685aa9113c938e83b4f1ea0,672d0355d5816a0516c551ea,2024-11-07_11h14.08.941,WTP_SM_Choice,2022.2.1,Win32,59.52380952,space,22.1534,,,,,,,,,,,,,,,,,,,,,,,,,,,,,,,,,,,,,,,,,,,
,,665629a30c7e3f40e8f3d1d5,6685aa9113c938e83b4f1ea0,672d0355d5816a0516c551ea,2024-11-07_11h14.08.941,WTP_SM_Choice,2022.2.1,Win32,59.52380952,,,space,16.5329,space,1.6331,NAN,,NAN,0,6,,0,0,0,0,1,1,Alex,Acc,Participant_Images/665629a30c7e3f40e8f3d1d5/665629a30c7e3f40e8f3d1d5_Images/665629a30c7e3f40e8f3d1d5_Image_8.jpeg,did not like,3.613205605,,,,,,,,,,,,,,,,,,,,,,
,,665629a30c7e3f40e8f3d1d5,6685aa9113c938e83b4f1ea0,672d0355d5816a0516c551ea,2024-11-07_11h14.08.941,WTP_SM_Choice,2022.2.1,Win32,59.52380952,,,,,space,1.5307,NAN,,NAN,0,6,,0,1,1,1,1,2,Alex,Acc,Participant_Images/665629a30c7e3f40e8f3d1d5/665629a30c7e3f40e8f3d1d5_Images/665629a30c7e3f40e8f3d1d5_Image_23.jpeg,did not like,4.988446431,,,,,,,,,,,,,,,,,,,,,,
,,665629a30c7e3f40e8f3d1d5,6685aa9113c938e83b4f1ea0,672d0355d5816a0516c551ea,2024-11-07_11h14.08.941,WTP_SM_Choice,2022.2.1,Win32,59.52380952,,,,,space,0.8622,NAN,,NAN,0,6,,0,2,2,2,1,3,Alex,Acc,Participant_Images/665629a30c7e3f40e8f3d1d5/665629a30c7e3f40e8f3d1d5_Images/665629a30c7e3f40e8f3d1d5_Image_10.jpeg,did not like,3.470791822,,,,,,,,,,,,,,,,,,,,,,
,,665629a30c7e3f40e8f3d1d5,6685aa9113c938e83b4f1ea0,672d0355d5816a0516c551ea,2024-11-07_11h14.08.941,WTP_SM_Choice,2022.2.1,Win32,59.52380952,,,,,space,0.72,NAN,,NAN,0,6,,0,3,3,3,1,4,Alex,Acc,Participant_Images/665629a30c7e3f40e8f3d1d5/665629a30c7e3f40e8f3d1d5_Images/665629a30c7e3f40e8f3d1d5_Image_19.jpeg,liked,3.820572462,,,,,,,,,,,,,,,,,,,,,,
,,665629a30c7e3f40e8f3d1d5,6685aa9113c938e83b4f1ea0,672d0355d5816a0516c551ea,2024-11-07_11h14.08.941,WTP_SM_Choice,2022.2.1,Win32,59.52380952,,,,,,,,,,,,,,,,,,1,,,,,,space,22.7082,space,7.6081,,0,0,0,0,1,Learn a new craft as I watch youtube videos of cats and baby animals,Hike in the mountains with my best friends and seeing the trees all change colors in the Fall,0.01,0.01,4.4,1,,,,,,
,,665629a30c7e3f40e8f3d1d5,6685aa9113c938e83b4f1ea0,672d0355d5816a0516c551ea,2024-11-07_11h14.08.941,WTP_SM_Choice,2022.2.1,Win32,59.52380952,,,,,,,,,,,,,,,,,,2,,,,,,,,,,1,0,1,1,1,1,Go to friday night bingo with my partner and winning the jackpot,Cuddling with my cats while making a pot of PG Tips Tea to sip on,0.02,0.01,8.8,0,0.02,5.4779,,,,
,,665629a30c7e3f40e8f3d1d5,6685aa9113c938e83b4f1ea0,672d0355d5816a0516c551ea,2024-11-07_11h14.08.941,WTP_SM_Choice,2022.2.1,Win32,59.52380952,,,,,,,,,,,,,,,,,,3,,,,,,,,,,2,0,2,2,2,1,Macrame time while watching my comfort shows on the television,Try to meet someone new and make a friend over coffee and brunch,0.03,0.01,3.3,1,0.01,4.7553,,,,
,,665629a30c7e3f40e8f3d1d5,6685aa9113c938e83b4f1ea0,672d0355d5816a0516c551ea,2024-11-07_11h14.08.941,WTP_SM_Choice,2022.2.1,Win32,59.52380952,,,,,,,,,,,,,,,,,,4,,,,,,,,,,2,0,3,3,3,1,Watch our comfort shows on the television and cuddling with my partner before bed,Collect rocks as I walk along the park on a beautiful cloudy day,0.04,0.01,1.1,0,0.01,3.71,,,,
,,665629a30c7e3f40e8f3d1d5,6685aa9113c938e83b4f1ea0,672d0355d5816a0516c551ea,2024-11-07_11h14.08.941,WTP_SM_Choice,2022.2.1,Win32,59.52380952,,,,,,,,,,,,,,,,,,5,,,,,,,,,,2,0,4,4,4,1,Go on road trips with my friend back home to visit the people I grew up with,Read my favorite book in bed under comfy blankets,0.05,0.01,1.1,0,0.01,3.4453,,,,
,,665629a30c7e3f40e8f3d1d5,6685aa9113c938e83b4f1ea0,672d0355d5816a0516c551ea,2024-11-07_11h14.08.941,WTP_SM_Choice,2022.2.1,Win32,59.52380952,,,,,,,NAN,,NAN,0.05,5.95,,0,4,4,4,1,5,Alex,Acc,Participant_Images/665629a30c7e3f40e8f3d1d5/665629a30c7e3f40e8f3d1d5_Images/665629a30c7e3f40e8f3d1d5_Image_1.jpeg,liked,2.455989137,,,,,,,,,,,,,,,,,,,,,,
,,665629a30c7e3f40e8f3d1d5,6685aa9113c938e83b4f1ea0,672d0355d5816a0516c551ea,2024-11-07_11h14.08.941,WTP_SM_Choice,2022.2.1,Win32,59.52380952,,,,,space,0.7508,NAN,,NAN,0.05,5.95,,0,5,5,5,1,6,Alex,Acc,Participant_Images/665629a30c7e3f40e8f3d1d5/665629a30c7e3f40e8f3d1d5_Images/665629a30c7e3f40e8f3d1d5_Image_15.jpeg,did not like,3.79605092,,,,,,,,,,,,,,,,,,,,,,
,,665629a30c7e3f40e8f3d1d5,6685aa9113c938e83b4f1ea0,672d0355d5816a0516c551ea,2024-11-07_11h14.08.941,WTP_SM_Choice,2022.2.1,Win32,59.52380952,,,,,space,0.6834,NAN,,NAN,0.05,5.95,,0,6,6,6,1,7,Alex,Acc,Participant_Images/665629a30c7e3f40e8f3d1d5/665629a30c7e3f40e8f3d1d5_Images/665629a30c7e3f40e8f3d1d5_Image_9.jpeg,liked,3.562416326,,,,,,,,,,,,,,,,,,,,,,
,,665629a30c7e3f40e8f3d1d5,6685aa9113c938e83b4f1ea0,672d0355d5816a0516c551ea,2024-11-07_11h14.08.941,WTP_SM_Choice,2022.2.1,Win32,59.52380952,,,,,space,0.5172,NAN,,NAN,0.05,5.95,,0,7,7,7,1,8,Alex,Acc,Participant_Images/665629a30c7e3f40e8f3d1d5/665629a30c7e3f40e8f3d1d5_Images/665629a30c7e3f40e8f3d1d5_Image_20.jpeg,liked,2.843822497,,,,,,,,,,,,,,,,,,,,,,
,,665629a30c7e3f40e8f3d1d5,6685aa9113c938e83b4f1ea0,672d0355d5816a0516c551ea,2024-11-07_11h14.08.941,WTP_SM_Choice,2022.2.1,Win32,59.52380952,,,,,space,0.7661,NAN,,NAN,0.05,5.95,,0,8,8,8,1,9,Alex,Acc,Participant_Images/665629a30c7e3f40e8f3d1d5/665629a30c7e3f40e8f3d1d5_Images/665629a30c7e3f40e8f3d1d5_Image_12.jpeg,liked,3.546495948,,,,,,,,,,,,,,,,,,,,,,
,,665629a30c7e3f40e8f3d1d5,6685aa9113c938e83b4f1ea0,672d0355d5816a0516c551ea,2024-11-07_11h14.08.941,WTP_SM_Choice,2022.2.1,Win32,59.52380952,,,,,,,,,,,,,,,,,,6,,,,,,space,8.9045,space,5.9667,1,0,0,0,0,1,Have a breakfast date with my partner at our favorite coffee shop downtown,Cuddling with my cats while making a pot of PG Tips Tea to sip on,0.01,0.02,3.3,0,0.01,2.1993,,,,
,,665629a30c7e3f40e8f3d1d5,6685aa9113c938e83b4f1ea0,672d0355d5816a0516c551ea,2024-11-07_11h14.08.941,WTP_SM_Choice,2022.2.1,Win32,59.52380952,,,,,,,,,,,,,,,,,,7,,,,,,,,,,2,0,1,1,1,1,Go to the thrift store with my friends and searching for treasures,Meditate while laying in my bed listening to the guided sounds of nature and serenity,0.02,0.02,1.1,0,0.02,3.7804,,,,
,,665629a30c7e3f40e8f3d1d5,6685aa9113c938e83b4f1ea0,672d0355d5816a0516c551ea,2024-11-07_11h14.08.941,WTP_SM_Choice,2022.2.1,Win32,59.52380952,,,,,,,,,,,,,,,,,,8,,,,,,,,,,2,0,2,2,2,1,Hike in the mountains with my best friends and seeing the trees all change colors in the Fall,Go to my favorite coffee shop to enjoy the ambiance and a large chai latte,0.03,0.02,1.1,0,0.02,2.9789,,,,
,,665629a30c7e3f40e8f3d1d5,6685aa9113c938e83b4f1ea0,672d0355d5816a0516c551ea,2024-11-07_11h14.08.941,WTP_SM_Choice,2022.2.1,Win32,59.52380952,,,,,,,,,,,,,,,,,,9,,,,,,,,,,2,0,3,3,3,1,Try to meet someone new and make a friend over coffee and brunch,Cuddling with my cats while making a pot of PG Tips Tea to sip on,0.04,0.02,4.4,0,0.02,2.0382,,,,
,,665629a30c7e3f40e8f3d1d5,6685aa9113c938e83b4f1ea0,672d0355d5816a0516c551ea,2024-11-07_11h14.08.941,WTP_SM_Choice,2022.2.1,Win32,59.52380952,,,,,,,,,,,,,,,,,,10,,,,,,,,,,2,0,4,4,4,1,Watch Bob Ross paint happy little trees,Try to meet someone new and make a friend over coffee and brunch,0.05,0.02,1.1,1,0.02,1.9816,,,,
,,665629a30c7e3f40e8f3d1d5,6685aa9113c938e83b4f1ea0,672d0355d5816a0516c551ea,2024-11-07_11h14.08.941,WTP_SM_Choice,2022.2.1,Win32,59.52380952,,,,,,,NAN,,NAN,0.14,5.86,,0,9,9,9,1,10,Alex,Acc,Participant_Images/665629a30c7e3f40e8f3d1d5/665629a30c7e3f40e8f3d1d5_Images/665629a30c7e3f40e8f3d1d5_Image_11.jpeg,liked,1.672012706,,,,,,,,,,,,,,,,,,,,,,
,,665629a30c7e3f40e8f3d1d5,6685aa9113c938e83b4f1ea0,672d0355d5816a0516c551ea,2024-11-07_11h14.08.941,WTP_SM_Choice,2022.2.1,Win32,59.52380952,,,,,space,0.683,NAN,,NAN,0.14,5.86,,0,10,10,10,1,11,Alex,Acc,Participant_Images/665629a30c7e3f40e8f3d1d5/665629a30c7e3f40e8f3d1d5_Images/665629a30c7e3f40e8f3d1d5_Image_16.jpeg,did not like,4.942172136,,,,,,,,,,,,,,,,,,,,,,
,,665629a30c7e3f40e8f3d1d5,6685aa9113c938e83b4f1ea0,672d0355d5816a0516c551ea,2024-11-07_11h14.08.941,WTP_SM_Choice,2022.2.1,Win32,59.52380952,,,,,space,1.0183,NAN,,NAN,0.14,5.86,,0,11,11,11,1,12,Alex,Acc,Participant_Images/665629a30c7e3f40e8f3d1d5/665629a30c7e3f40e8f3d1d5_Images/665629a30c7e3f40e8f3d1d5_Image_6.jpeg,liked,2.50187214,,,,,,,,,,,,,,,,,,,,,,
,,665629a30c7e3f40e8f3d1d5,6685aa9113c938e83b4f1ea0,672d0355d5816a0516c551ea,2024-11-07_11h14.08.941,WTP_SM_Choice,2022.2.1,Win32,59.52380952,,,,,space,0.6167,NAN,,NAN,0.14,5.86,,0,12,12,12,1,13,Alex,Acc,Participant_Images/665629a30c7e3f40e8f3d1d5/665629a30c7e3f40e8f3d1d5_Images/665629a30c7e3f40e8f3d1d5_Image_24.jpeg,liked,2.071164779,,,,,,,,,,,,,,,,,,,,,,
,,665629a30c7e3f40e8f3d1d5,6685aa9113c938e83b4f1ea0,672d0355d5816a0516c551ea,2024-11-07_11h14.08.941,WTP_SM_Choice,2022.2.1,Win32,59.52380952,,,,,space,0.4135,NAN,,NAN,0.14,5.86,,0,13,13,13,1,14,Alex,Acc,Participant_Images/665629a30c7e3f40e8f3d1d5/665629a30c7e3f40e8f3d1d5_Images/665629a30c7e3f40e8f3d1d5_Image_22.jpeg,liked,5.336503566,,,,,,,,,,,,,,,,,,,,,,
,,665629a30c7e3f40e8f3d1d5,6685aa9113c938e83b4f1ea0,672d0355d5816a0516c551ea,2024-11-07_11h14.08.941,WTP_SM_Choice,2022.2.1,Win32,59.52380952,,,,,,,,,,,,,,,,,,11,,,,,,space,7.2404,space,4.5823,1,0,0,0,0,1,Try to meet someone new and make a friend over coffee and brunch,Read my favorite book in bed under comfy blankets,0.01,0.03,3.3,0,0.01,1.6818,,,,
,,665629a30c7e3f40e8f3d1d5,6685aa9113c938e83b4f1ea0,672d0355d5816a0516c551ea,2024-11-07_11h14.08.941,WTP_SM_Choice,2022.2.1,Win32,59.52380952,,,,,,,,,,,,,,,,,,12,,,,,,,,,,1,0,1,1,1,1,Go to the movies with the family and relaxing in the heated reclining chairs,Read my favorite book in bed under comfy blankets,0.02,0.03,4.4,0,0.02,2.0721,,,,
,,665629a30c7e3f40e8f3d1d5,6685aa9113c938e83b4f1ea0,672d0355d5816a0516c551ea,2024-11-07_11h14.08.941,WTP_SM_Choice,2022.2.1,Win32,59.52380952,,,,,,,,,,,,,,,,,,13,,,,,,,,,,1,0,2,2,2,1,Go to friday night bingo with my partner and winning the jackpot,Watch Bob Ross paint happy little trees,0.03,0.03,1.1,0,0.03,1.7965,,,,
,,665629a30c7e3f40e8f3d1d5,6685aa9113c938e83b4f1ea0,672d0355d5816a0516c551ea,2024-11-07_11h14.08.941,WTP_SM_Choice,2022.2.1,Win32,59.52380952,,,,,,,,,,,,,,,,,,14,,,,,,,,,,2,0,3,3,3,1,Practice piano in the living room with the fireplace glowing in the background,Hike in the mountains with my best friends and seeing the trees all change colors in the Fall,0.04,0.03,3.3,1,0.03,1.5779,,,,
,,665629a30c7e3f40e8f3d1d5,6685aa9113c938e83b4f1ea0,672d0355d5816a0516c551ea,2024-11-07_11h14.08.941,WTP_SM_Choice,2022.2.1,Win32,59.52380952,,,,,,,,,,,,,,,,,,15,,,,,,,,,,2,0,4,4,4,1,Try to meet someone new and make a friend over coffee and brunch,Meditate while laying in my bed listening to the guided sounds of nature and serenity,0.05,0.03,4.4,0,0.03,1.8443,,,,
,,665629a30c7e3f40e8f3d1d5,6685aa9113c938e83b4f1ea0,672d0355d5816a0516c551ea,2024-11-07_11h14.08.941,WTP_SM_Choice,2022.2.1,Win32,59.52380952,,,,,,,NAN,,NAN,0.26,5.74,,0,14,14,14,1,15,Alex,Acc,Participant_Images/665629a30c7e3f40e8f3d1d5/665629a30c7e3f40e8f3d1d5_Images/665629a30c7e3f40e8f3d1d5_Image_14.jpeg,did not like,2.642157193,,,,,,,,,,,,,,,,,,,,,,
,,665629a30c7e3f40e8f3d1d5,6685aa9113c938e83b4f1ea0,672d0355d5816a0516c551ea,2024-11-07_11h14.08.941,WTP_SM_Choice,2022.2.1,Win32,59.52380952,,,,,space,0.9175,NAN,,NAN,0.26,5.74,,0,15,15,15,1,16,Alex,Acc,Participant_Images/665629a30c7e3f40e8f3d1d5/665629a30c7e3f40e8f3d1d5_Images/665629a30c7e3f40e8f3d1d5_Image_7.jpeg,did not like,4.456234322,,,,,,,,,,,,,,,,,,,,,,
,,665629a30c7e3f40e8f3d1d5,6685aa9113c938e83b4f1ea0,672d0355d5816a0516c551ea,2024-11-07_11h14.08.941,WTP_SM_Choice,2022.2.1,Win32,59.52380952,,,,,space,1.2269,NAN,,NAN,0.26,5.74,,0,16,16,16,1,17,Alex,Acc,Participant_Images/665629a30c7e3f40e8f3d1d5/665629a30c7e3f40e8f3d1d5_Images/665629a30c7e3f40e8f3d1d5_Image_5.jpeg,liked,4.438512181,,,,,,,,,,,,,,,,,,,,,,
,,665629a30c7e3f40e8f3d1d5,6685aa9113c938e83b4f1ea0,672d0355d5816a0516c551ea,2024-11-07_11h14.08.941,WTP_SM_Choice,2022.2.1,Win32,59.52380952,,,,,space,0.4419,NAN,,NAN,0.26,5.74,,0,17,17,17,1,18,Alex,Acc,Participant_Images/665629a30c7e3f40e8f3d1d5/665629a30c7e3f40e8f3d1d5_Images/665629a30c7e3f40e8f3d1d5_Image_13.jpeg,liked,2.682944783,,,,,,,,,,,,,,,,,,,,,,
,,665629a30c7e3f40e8f3d1d5,6685aa9113c938e83b4f1ea0,672d0355d5816a0516c551ea,2024-11-07_11h14.08.941,WTP_SM_Choice,2022.2.1,Win32,59.52380952,,,,,space,0.5598,NAN,,NAN,0.26,5.74,,0,18,18,18,1,19,Alex,Acc,Participant_Images/665629a30c7e3f40e8f3d1d5/665629a30c7e3f40e8f3d1d5_Images/665629a30c7e3f40e8f3d1d5_Image_2.jpeg,liked,4.51984296,,,,,,,,,,,,,,,,,,,,,,
,,665629a30c7e3f40e8f3d1d5,6685aa9113c938e83b4f1ea0,672d0355d5816a0516c551ea,2024-11-07_11h14.08.941,WTP_SM_Choice,2022.2.1,Win32,59.52380952,,,,,,,,,,,,,,,,,,16,,,,,,space,5.6393,space,1.5167,1,0,0,0,0,1,Go to the movies with the family and relaxing in the heated reclining chairs,Macrame time while watching my comfort shows on the television,0.01,0.04,1.1,0,0.01,1.2646,,,,
,,665629a30c7e3f40e8f3d1d5,6685aa9113c938e83b4f1ea0,672d0355d5816a0516c551ea,2024-11-07_11h14.08.941,WTP_SM_Choice,2022.2.1,Win32,59.52380952,,,,,,,,,,,,,,,,,,17,,,,,,,,,,1,0,1,1,1,1,Collect rocks as I walk along the park on a beautiful cloudy day,Try to meet someone new and make a friend over coffee and brunch,0.02,0.04,8.8,1,0.02,1.1328,,,,
,,665629a30c7e3f40e8f3d1d5,6685aa9113c938e83b4f1ea0,672d0355d5816a0516c551ea,2024-11-07_11h14.08.941,WTP_SM_Choice,2022.2.1,Win32,59.52380952,,,,,,,,,,,,,,,,,,18,,,,,,,,,,1,0,2,2,2,1,Try to meet someone new and make a friend over coffee and brunch,Go to my favorite coffee shop to enjoy the ambiance and a large chai latte,0.03,0.04,3.3,0,0.03,1.7157,,,,
,,665629a30c7e3f40e8f3d1d5,6685aa9113c938e83b4f1ea0,672d0355d5816a0516c551ea,2024-11-07_11h14.08.941,WTP_SM_Choice,2022.2.1,Win32,59.52380952,,,,,,,,,,,,,,,,,,19,,,,,,,,,,1,0,3,3,3,1,Make a trip to target to look for new favorite squishmallows to cuddle with,Have a breakfast date with my partner at our favorite coffee shop downtown,0.04,0.04,3.3,1,0.04,3.9273,,,,
,,665629a30c7e3f40e8f3d1d5,6685aa9113c938e83b4f1ea0,672d0355d5816a0516c551ea,2024-11-07_11h14.08.941,WTP_SM_Choice,2022.2.1,Win32,59.52380952,,,,,,,,,,,,,,,,,,20,,,,,,,,,,2,0,4,4,4,1,Watch Bob Ross paint happy little trees,Watch our comfort shows on the television and cuddling with my partner before bed,0.05,0.04,1.1,1,0.04,1.3488,,,,
,,665629a30c7e3f40e8f3d1d5,6685aa9113c938e83b4f1ea0,672d0355d5816a0516c551ea,2024-11-07_11h14.08.941,WTP_SM_Choice,2022.2.1,Win32,59.52380952,,,,,,,NAN,,NAN,0.4,5.6,,0,19,19,19,1,20,Alex,Acc,Participant_Images/665629a30c7e3f40e8f3d1d5/665629a30c7e3f40e8f3d1d5_Images/665629a30c7e3f40e8f3d1d5_Image_25.jpeg,liked,3.195382774,,,,,,,,,,,,,,,,,,,,,,
,,665629a30c7e3f40e8f3d1d5,6685aa9113c938e83b4f1ea0,672d0355d5816a0516c551ea,2024-11-07_11h14.08.941,WTP_SM_Choice,2022.2.1,Win32,59.52380952,,,,,space,1.0054,NAN,,NAN,0.4,5.6,,0,20,20,20,1,21,Alex,Acc,Participant_Images/665629a30c7e3f40e8f3d1d5/665629a30c7e3f40e8f3d1d5_Images/665629a30c7e3f40e8f3d1d5_Image_17.jpeg,liked,1.779333479,,,,,,,,,,,,,,,,,,,,,,
,,665629a30c7e3f40e8f3d1d5,6685aa9113c938e83b4f1ea0,672d0355d5816a0516c551ea,2024-11-07_11h14.08.941,WTP_SM_Choice,2022.2.1,Win32,59.52380952,,,,,space,0.9467,NAN,,NAN,0.4,5.6,,0,21,21,21,1,22,Alex,Acc,Participant_Images/665629a30c7e3f40e8f3d1d5/665629a30c7e3f40e8f3d1d5_Images/665629a30c7e3f40e8f3d1d5_Image_18.jpeg,liked,4.312468682,,,,,,,,,,,,,,,,,,,,,,
,,665629a30c7e3f40e8f3d1d5,6685aa9113c938e83b4f1ea0,672d0355d5816a0516c551ea,2024-11-07_11h14.08.941,WTP_SM_Choice,2022.2.1,Win32,59.52380952,,,,,space,0.7169,NAN,,NAN,0.4,5.6,,0,22,22,22,1,23,Alex,Acc,Participant_Images/665629a30c7e3f40e8f3d1d5/665629a30c7e3f40e8f3d1d5_Images/665629a30c7e3f40e8f3d1d5_Image_3.jpeg,liked,4.940433059,,,,,,,,,,,,,,,,,,,,,,
,,665629a30c7e3f40e8f3d1d5,6685aa9113c938e83b4f1ea0,672d0355d5816a0516c551ea,2024-11-07_11h14.08.941,WTP_SM_Choice,2022.2.1,Win32,59.52380952,,,,,space,0.6335,NAN,,NAN,0.4,5.6,,0,23,23,23,1,24,Alex,Acc,Participant_Images/665629a30c7e3f40e8f3d1d5/665629a30c7e3f40e8f3d1d5_Images/665629a30c7e3f40e8f3d1d5_Image_4.jpeg,liked,2.7105123,,,,,,,,,,,,,,,,,,,,,,
,,665629a30c7e3f40e8f3d1d5,6685aa9113c938e83b4f1ea0,672d0355d5816a0516c551ea,2024-11-07_11h14.08.941,WTP_SM_Choice,2022.2.1,Win32,59.52380952,,,,,,,,,,,,,,,,,,21,,,,,,space,4.5446,space,1.1004,1,0,0,0,0,1,Macrame time while watching my comfort shows on the television,Go on road trips with my friend back home to visit the people I grew up with,0.01,0.05,8.8,1,0.01,0.9655,,,,
,,665629a30c7e3f40e8f3d1d5,6685aa9113c938e83b4f1ea0,672d0355d5816a0516c551ea,2024-11-07_11h14.08.941,WTP_SM_Choice,2022.2.1,Win32,59.52380952,,,,,,,,,,,,,,,,,,22,,,,,,,,,,1,0,1,1,1,1,Go to the thrift store with my friends and searching for treasures,Practice piano in the living room with the fireplace glowing in the background,0.02,0.05,4.4,0,0.02,1.2491,,,,
,,665629a30c7e3f40e8f3d1d5,6685aa9113c938e83b4f1ea0,672d0355d5816a0516c551ea,2024-11-07_11h14.08.941,WTP_SM_Choice,2022.2.1,Win32,59.52380952,,,,,,,,,,,,,,,,,,23,,,,,,,,,,1,0,2,2,2,1,Make a trip to target to look for new favorite squishmallows to cuddle with,Go on road trips with my friend back home to visit the people I grew up with,0.03,0.05,1.1,1,0.03,1.4077,,,,
,,665629a30c7e3f40e8f3d1d5,6685aa9113c938e83b4f1ea0,672d0355d5816a0516c551ea,2024-11-07_11h14.08.941,WTP_SM_Choice,2022.2.1,Win32,59.52380952,,,,,,,,,,,,,,,,,,24,,,,,,,,,,1,0,3,3,3,1,Go on road trips with my friend back home to visit the people I grew up with,Cuddling with my cats while making a pot of PG Tips Tea to sip on,0.04,0.05,4.4,0,0.04,1.8157,,,,
,,665629a30c7e3f40e8f3d1d5,6685aa9113c938e83b4f1ea0,672d0355d5816a0516c551ea,2024-11-07_11h14.08.941,WTP_SM_Choice,2022.2.1,Win32,59.52380952,,,,,,,,,,,,,,,,,,25,,,,,,,,,,1,0,4,4,4,1,Go to the thrift store with my friends and searching for treasures,Watch Bob Ross paint happy little trees,0.05,0.05,3.3,0,0.05,3.2473,,,,
,,665629a30c7e3f40e8f3d1d5,6685aa9113c938e83b4f1ea0,672d0355d5816a0516c551ea,2024-11-07_11h14.08.941,WTP_SM_Choice,2022.2.1,Win32,59.52380952,,,,,,,3,,3,0.55,5.45,,0,24,24,24,1,25,Alex,Acc,Participant_Images/665629a30c7e3f40e8f3d1d5/665629a30c7e3f40e8f3d1d5_Images/665629a30c7e3f40e8f3d1d5_Image_21.jpeg,liked,3.602308302,,,,,,,,,,,,,,,,,,,space,1.1994,,
,,665629a30c7e3f40e8f3d1d5,6685aa9113c938e83b4f1ea0,672d0355d5816a0516c551ea,2024-11-07_11h14.08.941,WTP_SM_Choice,2022.2.1,Win32,59.52380952,,,space,2.6793,space,0.6941,NAN,,NAN,0.55,5.45,,0,25,25,25,1,26,Charlie,Rej,Participant_Images/665629a30c7e3f40e8f3d1d5/665629a30c7e3f40e8f3d1d5_Images/665629a30c7e3f40e8f3d1d5_Image_3.jpeg,did not like,4.106391878,,,,,,,,,,,,,,,,,,,,,,
,,665629a30c7e3f40e8f3d1d5,6685aa9113c938e83b4f1ea0,672d0355d5816a0516c551ea,2024-11-07_11h14.08.941,WTP_SM_Choice,2022.2.1,Win32,59.52380952,,,,,space,0.6123,NAN,,NAN,0.55,5.45,,0,26,26,26,1,27,Charlie,Rej,Participant_Images/665629a30c7e3f40e8f3d1d5/665629a30c7e3f40e8f3d1d5_Images/665629a30c7e3f40e8f3d1d5_Image_22.jpeg,liked,3.799433026,,,,,,,,,,,,,,,,,,,,,,
,,665629a30c7e3f40e8f3d1d5,6685aa9113c938e83b4f1ea0,672d0355d5816a0516c551ea,2024-11-07_11h14.08.941,WTP_SM_Choice,2022.2.1,Win32,59.52380952,,,,,space,0.6412,NAN,,NAN,0.55,5.45,,0,27,27,27,1,28,Charlie,Rej,Participant_Images/665629a30c7e3f40e8f3d1d5/665629a30c7e3f40e8f3d1d5_Images/665629a30c7e3f40e8f3d1d5_Image_9.jpeg,did not like,5.246980764,,,,,,,,,,,,,,,,,,,,,,
,,665629a30c7e3f40e8f3d1d5,6685aa9113c938e83b4f1ea0,672d0355d5816a0516c551ea,2024-11-07_11h14.08.941,WTP_SM_Choice,2022.2.1,Win32,59.52380952,,,,,space,0.1305,NAN,,NAN,0.55,5.45,,0,28,28,28,1,29,Charlie,Rej,Participant_Images/665629a30c7e3f40e8f3d1d5/665629a30c7e3f40e8f3d1d5_Images/665629a30c7e3f40e8f3d1d5_Image_7.jpeg,did not like,3.30081769,,,,,,,,,,,,,,,,,,,,,,
,,665629a30c7e3f40e8f3d1d5,6685aa9113c938e83b4f1ea0,672d0355d5816a0516c551ea,2024-11-07_11h14.08.941,WTP_SM_Choice,2022.2.1,Win32,59.52380952,,,,,,,,,,,,,,,,,,26,,,,,,space,1.5851,space,2.0994,1,0,0,0,0,1,Have a breakfast date with my partner at our favorite coffee shop downtown,Macrame time while watching my comfort shows on the television,0.01,0.01,4.4,0,0.01,3.1638,,,,
,,665629a30c7e3f40e8f3d1d5,6685aa9113c938e83b4f1ea0,672d0355d5816a0516c551ea,2024-11-07_11h14.08.941,WTP_SM_Choice,2022.2.1,Win32,59.52380952,,,,,,,,,,,,,,,,,,27,,,,,,,,,,2,0,1,1,1,1,Learn a new craft as I watch youtube videos of cats and baby animals,Try to meet someone new and make a friend over coffee and brunch,0.02,0.01,3.3,1,0.01,2.4631,,,,
,,665629a30c7e3f40e8f3d1d5,6685aa9113c938e83b4f1ea0,672d0355d5816a0516c551ea,2024-11-07_11h14.08.941,WTP_SM_Choice,2022.2.1,Win32,59.52380952,,,,,,,,,,,,,,,,,,28,,,,,,,,,,2,0,2,2,2,1,Have family game night and playing new board games with the children,Practice piano in the living room with the fireplace glowing in the background,0.03,0.01,3.3,0,0.01,2.7671,,,,
,,665629a30c7e3f40e8f3d1d5,6685aa9113c938e83b4f1ea0,672d0355d5816a0516c551ea,2024-11-07_11h14.08.941,WTP_SM_Choice,2022.2.1,Win32,59.52380952,,,,,,,,,,,,,,,,,,29,,,,,,,,,,2,0,3,3,3,1,Make a trip to target to look for new favorite squishmallows to cuddle with,Go to the thrift store with my friends and searching for treasures,0.04,0.01,4.4,1,0.01,1.8888,,,,
,,665629a30c7e3f40e8f3d1d5,6685aa9113c938e83b4f1ea0,672d0355d5816a0516c551ea,2024-11-07_11h14.08.941,WTP_SM_Choice,2022.2.1,Win32,59.52380952,,,,,,,,,,,,,,,,,,30,,,,,,,,,,2,0,4,4,4,1,Go to the thrift store with my friends and searching for treasures,Read my favorite book in bed under comfy blankets,0.05,0.01,8.8,0,0.01,1.1093,,,,
,,665629a30c7e3f40e8f3d1d5,6685aa9113c938e83b4f1ea0,672d0355d5816a0516c551ea,2024-11-07_11h14.08.941,WTP_SM_Choice,2022.2.1,Win32,59.52380952,,,,,,,NAN,,NAN,0.6,5.4,,0,29,29,29,1,30,Charlie,Rej,Participant_Images/665629a30c7e3f40e8f3d1d5/665629a30c7e3f40e8f3d1d5_Images/665629a30c7e3f40e8f3d1d5_Image_10.jpeg,did not like,1.661473164,,,,,,,,,,,,,,,,,,,,,,
,,665629a30c7e3f40e8f3d1d5,6685aa9113c938e83b4f1ea0,672d0355d5816a0516c551ea,2024-11-07_11h14.08.941,WTP_SM_Choice,2022.2.1,Win32,59.52380952,,,,,space,1.0839,NAN,,NAN,0.6,5.4,,0,30,30,30,1,31,Charlie,Rej,Participant_Images/665629a30c7e3f40e8f3d1d5/665629a30c7e3f40e8f3d1d5_Images/665629a30c7e3f40e8f3d1d5_Image_6.jpeg,did not like,3.613205605,,,,,,,,,,,,,,,,,,,,,,
,,665629a30c7e3f40e8f3d1d5,6685aa9113c938e83b4f1ea0,672d0355d5816a0516c551ea,2024-11-07_11h14.08.941,WTP_SM_Choice,2022.2.1,Win32,59.52380952,,,,,space,0.7156,NAN,,NAN,0.6,5.4,,0,31,31,31,1,32,Charlie,Rej,Participant_Images/665629a30c7e3f40e8f3d1d5/665629a30c7e3f40e8f3d1d5_Images/665629a30c7e3f40e8f3d1d5_Image_24.jpeg,did not like,4.988446431,,,,,,,,,,,,,,,,,,,,,,
,,665629a30c7e3f40e8f3d1d5,6685aa9113c938e83b4f1ea0,672d0355d5816a0516c551ea,2024-11-07_11h14.08.941,WTP_SM_Choice,2022.2.1,Win32,59.52380952,,,,,space,0.6507,NAN,,NAN,0.6,5.4,,0,32,32,32,1,33,Charlie,Rej,Participant_Images/665629a30c7e3f40e8f3d1d5/665629a30c7e3f40e8f3d1d5_Images/665629a30c7e3f40e8f3d1d5_Image_14.jpeg,did not like,3.470791822,,,,,,,,,,,,,,,,,,,,,,
,,665629a30c7e3f40e8f3d1d5,6685aa9113c938e83b4f1ea0,672d0355d5816a0516c551ea,2024-11-07_11h14.08.941,WTP_SM_Choice,2022.2.1,Win32,59.52380952,,,,,space,0.6156,NAN,,NAN,0.6,5.4,,0,33,33,33,1,34,Charlie,Rej,Participant_Images/665629a30c7e3f40e8f3d1d5/665629a30c7e3f40e8f3d1d5_Images/665629a30c7e3f40e8f3d1d5_Image_11.jpeg,did not like,3.820572462,,,,,,,,,,,,,,,,,,,,,,
,,665629a30c7e3f40e8f3d1d5,6685aa9113c938e83b4f1ea0,672d0355d5816a0516c551ea,2024-11-07_11h14.08.941,WTP_SM_Choice,2022.2.1,Win32,59.52380952,,,,,,,,,,,,,,,,,,31,,,,,,space,2.6751,space,1.5899,1,0,0,0,0,1,Go to my favorite coffee shop to enjoy the ambiance and a large chai latte,Watch our comfort shows on the television and cuddling with my partner before bed,0.01,0.02,8.8,1,0.01,1.1648,,,,
,,665629a30c7e3f40e8f3d1d5,6685aa9113c938e83b4f1ea0,672d0355d5816a0516c551ea,2024-11-07_11h14.08.941,WTP_SM_Choice,2022.2.1,Win32,59.52380952,,,,,,,,,,,,,,,,,,32,,,,,,,,,,2,0,1,1,1,1,Learn a new craft as I watch youtube videos of cats and baby animals,Volunteer at the elementary school and helping children learn,0.02,0.02,1.1,1,0.02,2.5284,,,,
,,665629a30c7e3f40e8f3d1d5,6685aa9113c938e83b4f1ea0,672d0355d5816a0516c551ea,2024-11-07_11h14.08.941,WTP_SM_Choice,2022.2.1,Win32,59.52380952,,,,,,,,,,,,,,,,,,33,,,,,,,,,,2,0,2,2,2,1,Watch Bob Ross paint happy little trees,Have a breakfast date with my partner at our favorite coffee shop downtown,0.03,0.02,4.4,1,0.02,1.7166,,,,
,,665629a30c7e3f40e8f3d1d5,6685aa9113c938e83b4f1ea0,672d0355d5816a0516c551ea,2024-11-07_11h14.08.941,WTP_SM_Choice,2022.2.1,Win32,59.52380952,,,,,,,,,,,,,,,,,,34,,,,,,,,,,2,0,3,3,3,1,Go to my favorite coffee shop to enjoy the ambiance and a large chai latte,Have family game night and playing new board games with the children,0.04,0.02,3.3,1,0.02,1.6982,,,,
,,665629a30c7e3f40e8f3d1d5,6685aa9113c938e83b4f1ea0,672d0355d5816a0516c551ea,2024-11-07_11h14.08.941,WTP_SM_Choice,2022.2.1,Win32,59.52380952,,,,,,,,,,,,,,,,,,35,,,,,,,,,,2,0,4,4,4,1,Have family game night and playing new board games with the children,Collect rocks as I walk along the park on a beautiful cloudy day,0.05,0.02,1.1,0,0.02,1.8146,,,,
,,665629a30c7e3f40e8f3d1d5,6685aa9113c938e83b4f1ea0,672d0355d5816a0516c551ea,2024-11-07_11h14.08.941,WTP_SM_Choice,2022.2.1,Win32,59.52380952,,,,,,,NAN,,NAN,0.69,5.31,,0,34,34,34,1,35,Charlie,Rej,Participant_Images/665629a30c7e3f40e8f3d1d5/665629a30c7e3f40e8f3d1d5_Images/665629a30c7e3f40e8f3d1d5_Image_1.jpeg,liked,2.455989137,,,,,,,,,,,,,,,,,,,,,,
,,665629a30c7e3f40e8f3d1d5,6685aa9113c938e83b4f1ea0,672d0355d5816a0516c551ea,2024-11-07_11h14.08.941,WTP_SM_Choice,2022.2.1,Win32,59.52380952,,,,,space,0.4995,NAN,,NAN,0.69,5.31,,0,35,35,35,1,36,Charlie,Rej,Participant_Images/665629a30c7e3f40e8f3d1d5/665629a30c7e3f40e8f3d1d5_Images/665629a30c7e3f40e8f3d1d5_Image_20.jpeg,did not like,3.79605092,,,,,,,,,,,,,,,,,,,,,,
,,665629a30c7e3f40e8f3d1d5,6685aa9113c938e83b4f1ea0,672d0355d5816a0516c551ea,2024-11-07_11h14.08.941,WTP_SM_Choice,2022.2.1,Win32,59.52380952,,,,,space,0.9178,NAN,,NAN,0.69,5.31,,0,36,36,36,1,37,Charlie,Rej,Participant_Images/665629a30c7e3f40e8f3d1d5/665629a30c7e3f40e8f3d1d5_Images/665629a30c7e3f40e8f3d1d5_Image_12.jpeg,did not like,3.562416326,,,,,,,,,,,,,,,,,,,,,,
,,665629a30c7e3f40e8f3d1d5,6685aa9113c938e83b4f1ea0,672d0355d5816a0516c551ea,2024-11-07_11h14.08.941,WTP_SM_Choice,2022.2.1,Win32,59.52380952,,,,,space,0.6416,NAN,,NAN,0.69,5.31,,0,37,37,37,1,38,Charlie,Rej,Participant_Images/665629a30c7e3f40e8f3d1d5/665629a30c7e3f40e8f3d1d5_Images/665629a30c7e3f40e8f3d1d5_Image_21.jpeg,did not like,2.843822497,,,,,,,,,,,,,,,,,,,,,,
,,665629a30c7e3f40e8f3d1d5,6685aa9113c938e83b4f1ea0,672d0355d5816a0516c551ea,2024-11-07_11h14.08.941,WTP_SM_Choice,2022.2.1,Win32,59.52380952,,,,,space,0.8802,NAN,,NAN,0.69,5.31,,0,38,38,38,1,39,Charlie,Rej,Participant_Images/665629a30c7e3f40e8f3d1d5/665629a30c7e3f40e8f3d1d5_Images/665629a30c7e3f40e8f3d1d5_Image_4.jpeg,did not like,3.546495948,,,,,,,,,,,,,,,,,,,,,,
,,665629a30c7e3f40e8f3d1d5,6685aa9113c938e83b4f1ea0,672d0355d5816a0516c551ea,2024-11-07_11h14.08.941,WTP_SM_Choice,2022.2.1,Win32,59.52380952,,,,,,,,,,,,,,,,,,36,,,,,,space,3.0175,space,4.4466,1,0,0,0,0,1,Go to the movies with the family and relaxing in the heated reclining chairs,Watch Bob Ross paint happy little trees,0.01,0.03,3.3,0,0.01,1.1041,,,,
,,665629a30c7e3f40e8f3d1d5,6685aa9113c938e83b4f1ea0,672d0355d5816a0516c551ea,2024-11-07_11h14.08.941,WTP_SM_Choice,2022.2.1,Win32,59.52380952,,,,,,,,,,,,,,,,,,37,,,,,,,,,,1,0,1,1,1,1,Learn a new craft as I watch youtube videos of cats and baby animals,Go to friday night bingo with my partner and winning the jackpot,0.02,0.03,1.1,1,0.02,0.916,,,,
,,665629a30c7e3f40e8f3d1d5,6685aa9113c938e83b4f1ea0,672d0355d5816a0516c551ea,2024-11-07_11h14.08.941,WTP_SM_Choice,2022.2.1,Win32,59.52380952,,,,,,,,,,,,,,,,,,38,,,,,,,,,,2,0,2,2,2,1,Macrame time while watching my comfort shows on the television,Go to friday night bingo with my partner and winning the jackpot,0.03,0.03,1.1,1,0.03,2.699,,,,
,,665629a30c7e3f40e8f3d1d5,6685aa9113c938e83b4f1ea0,672d0355d5816a0516c551ea,2024-11-07_11h14.08.941,WTP_SM_Choice,2022.2.1,Win32,59.52380952,,,,,,,,,,,,,,,,,,39,,,,,,,,,,2,0,3,3,3,1,Practice piano in the living room with the fireplace glowing in the background,Go to the movies with the family and relaxing in the heated reclining chairs,0.04,0.03,3.3,1,0.03,2.4803,,,,
,,665629a30c7e3f40e8f3d1d5,6685aa9113c938e83b4f1ea0,672d0355d5816a0516c551ea,2024-11-07_11h14.08.941,WTP_SM_Choice,2022.2.1,Win32,59.52380952,,,,,,,,,,,,,,,,,,40,,,,,,,,,,2,0,4,4,4,1,Have a breakfast date with my partner at our favorite coffee shop downtown,Collect rocks as I walk along the park on a beautiful cloudy day,0.05,0.03,4.4,0,0.03,2.2482,,,,
,,665629a30c7e3f40e8f3d1d5,6685aa9113c938e83b4f1ea0,672d0355d5816a0516c551ea,2024-11-07_11h14.08.941,WTP_SM_Choice,2022.2.1,Win32,59.52380952,,,,,,,NAN,,NAN,0.81,5.19,,0,39,39,39,1,40,Charlie,Rej,Participant_Images/665629a30c7e3f40e8f3d1d5/665629a30c7e3f40e8f3d1d5_Images/665629a30c7e3f40e8f3d1d5_Image_19.jpeg,liked,1.672012706,,,,,,,,,,,,,,,,,,,,,,
,,665629a30c7e3f40e8f3d1d5,6685aa9113c938e83b4f1ea0,672d0355d5816a0516c551ea,2024-11-07_11h14.08.941,WTP_SM_Choice,2022.2.1,Win32,59.52380952,,,,,space,0.917,NAN,,NAN,0.81,5.19,,0,40,40,40,1,41,Charlie,Rej,Participant_Images/665629a30c7e3f40e8f3d1d5/665629a30c7e3f40e8f3d1d5_Images/665629a30c7e3f40e8f3d1d5_Image_17.jpeg,did not like,4.942172136,,,,,,,,,,,,,,,,,,,,,,
,,665629a30c7e3f40e8f3d1d5,6685aa9113c938e83b4f1ea0,672d0355d5816a0516c551ea,2024-11-07_11h14.08.941,WTP_SM_Choice,2022.2.1,Win32,59.52380952,,,,,space,0.756,NAN,,NAN,0.81,5.19,,0,41,41,41,1,42,Charlie,Rej,Participant_Images/665629a30c7e3f40e8f3d1d5/665629a30c7e3f40e8f3d1d5_Images/665629a30c7e3f40e8f3d1d5_Image_13.jpeg,liked,2.50187214,,,,,,,,,,,,,,,,,,,,,,
,,665629a30c7e3f40e8f3d1d5,6685aa9113c938e83b4f1ea0,672d0355d5816a0516c551ea,2024-11-07_11h14.08.941,WTP_SM_Choice,2022.2.1,Win32,59.52380952,,,,,space,0.3871,NAN,,NAN,0.81,5.19,,0,42,42,42,1,43,Charlie,Rej,Participant_Images/665629a30c7e3f40e8f3d1d5/665629a30c7e3f40e8f3d1d5_Images/665629a30c7e3f40e8f3d1d5_Image_15.jpeg,did not like,2.071164779,,,,,,,,,,,,,,,,,,,,,,
,,665629a30c7e3f40e8f3d1d5,6685aa9113c938e83b4f1ea0,672d0355d5816a0516c551ea,2024-11-07_11h14.08.941,WTP_SM_Choice,2022.2.1,Win32,59.52380952,,,,,space,0.6068,NAN,,NAN,0.81,5.19,,0,43,43,43,1,44,Charlie,Rej,Participant_Images/665629a30c7e3f40e8f3d1d5/665629a30c7e3f40e8f3d1d5_Images/665629a30c7e3f40e8f3d1d5_Image_23.jpeg,did not like,5.336503566,,,,,,,,,,,,,,,,,,,,,,
,,665629a30c7e3f40e8f3d1d5,6685aa9113c938e83b4f1ea0,672d0355d5816a0516c551ea,2024-11-07_11h14.08.941,WTP_SM_Choice,2022.2.1,Win32,59.52380952,,,,,,,,,,,,,,,,,,41,,,,,,space,1.4989,space,0.6353,1,0,0,0,0,1,Have family game night and playing new board games with the children,Watch Bob Ross paint happy little trees,0.01,0.04,1.1,0,0.01,1.1639,,,,
,,665629a30c7e3f40e8f3d1d5,6685aa9113c938e83b4f1ea0,672d0355d5816a0516c551ea,2024-11-07_11h14.08.941,WTP_SM_Choice,2022.2.1,Win32,59.52380952,,,,,,,,,,,,,,,,,,42,,,,,,,,,,1,0,1,1,1,1,Collect rocks as I walk along the park on a beautiful cloudy day,Go to the thrift store with my friends and searching for treasures,0.02,0.04,3.3,1,0.02,1.7034,,,,
,,665629a30c7e3f40e8f3d1d5,6685aa9113c938e83b4f1ea0,672d0355d5816a0516c551ea,2024-11-07_11h14.08.941,WTP_SM_Choice,2022.2.1,Win32,59.52380952,,,,,,,,,,,,,,,,,,43,,,,,,,,,,1,0,2,2,2,1,Have family game night and playing new board games with the children,Read my favorite book in bed under comfy blankets,0.03,0.04,1.1,0,0.03,2.5519,,,,
,,665629a30c7e3f40e8f3d1d5,6685aa9113c938e83b4f1ea0,672d0355d5816a0516c551ea,2024-11-07_11h14.08.941,WTP_SM_Choice,2022.2.1,Win32,59.52380952,,,,,,,,,,,,,,,,,,44,,,,,,,,,,1,0,3,3,3,1,Watch our comfort shows on the television and cuddling with my partner before bed,Meditate while laying in my bed listening to the guided sounds of nature and serenity,0.04,0.04,1.1,0,0.04,2.4497,,,,
,,665629a30c7e3f40e8f3d1d5,6685aa9113c938e83b4f1ea0,672d0355d5816a0516c551ea,2024-11-07_11h14.08.941,WTP_SM_Choice,2022.2.1,Win32,59.52380952,,,,,,,,,,,,,,,,,,45,,,,,,,,,,2,0,4,4,4,1,Collect rocks as I walk along the park on a beautiful cloudy day,Go on road trips with my friend back home to visit the people I grew up with,0.05,0.04,4.4,1,0.04,2.1306,,,,
,,665629a30c7e3f40e8f3d1d5,6685aa9113c938e83b4f1ea0,672d0355d5816a0516c551ea,2024-11-07_11h14.08.941,WTP_SM_Choice,2022.2.1,Win32,59.52380952,,,,,,,NAN,,NAN,0.95,5.05,,0,44,44,44,1,45,Charlie,Rej,Participant_Images/665629a30c7e3f40e8f3d1d5/665629a30c7e3f40e8f3d1d5_Images/665629a30c7e3f40e8f3d1d5_Image_5.jpeg,did not like,2.642157193,,,,,,,,,,,,,,,,,,,,,,
,,665629a30c7e3f40e8f3d1d5,6685aa9113c938e83b4f1ea0,672d0355d5816a0516c551ea,2024-11-07_11h14.08.941,WTP_SM_Choice,2022.2.1,Win32,59.52380952,,,,,space,0.4471,NAN,,NAN,0.95,5.05,,0,45,45,45,1,46,Charlie,Rej,Participant_Images/665629a30c7e3f40e8f3d1d5/665629a30c7e3f40e8f3d1d5_Images/665629a30c7e3f40e8f3d1d5_Image_8.jpeg,did not like,4.456234322,,,,,,,,,,,,,,,,,,,,,,
,,665629a30c7e3f40e8f3d1d5,6685aa9113c938e83b4f1ea0,672d0355d5816a0516c551ea,2024-11-07_11h14.08.941,WTP_SM_Choice,2022.2.1,Win32,59.52380952,,,,,space,0.6631,NAN,,NAN,0.95,5.05,,0,46,46,46,1,47,Charlie,Rej,Participant_Images/665629a30c7e3f40e8f3d1d5/665629a30c7e3f40e8f3d1d5_Images/665629a30c7e3f40e8f3d1d5_Image_2.jpeg,liked,4.438512181,,,,,,,,,,,,,,,,,,,,,,
,,665629a30c7e3f40e8f3d1d5,6685aa9113c938e83b4f1ea0,672d0355d5816a0516c551ea,2024-11-07_11h14.08.941,WTP_SM_Choice,2022.2.1,Win32,59.52380952,,,,,space,0.6276,NAN,,NAN,0.95,5.05,,0,47,47,47,1,48,Charlie,Rej,Participant_Images/665629a30c7e3f40e8f3d1d5/665629a30c7e3f40e8f3d1d5_Images/665629a30c7e3f40e8f3d1d5_Image_25.jpeg,liked,2.682944783,,,,,,,,,,,,,,,,,,,,,,
,,665629a30c7e3f40e8f3d1d5,6685aa9113c938e83b4f1ea0,672d0355d5816a0516c551ea,2024-11-07_11h14.08.941,WTP_SM_Choice,2022.2.1,Win32,59.52380952,,,,,space,0.5907,NAN,,NAN,0.95,5.05,,0,48,48,48,1,49,Charlie,Rej,Participant_Images/665629a30c7e3f40e8f3d1d5/665629a30c7e3f40e8f3d1d5_Images/665629a30c7e3f40e8f3d1d5_Image_18.jpeg,liked,4.51984296,,,,,,,,,,,,,,,,,,,,,,
,,665629a30c7e3f40e8f3d1d5,6685aa9113c938e83b4f1ea0,672d0355d5816a0516c551ea,2024-11-07_11h14.08.941,WTP_SM_Choice,2022.2.1,Win32,59.52380952,,,,,,,,,,,,,,,,,,46,,,,,,space,0.9487,space,0.9041,1,0,0,0,0,1,Macrame time while watching my comfort shows on the television,Watch our comfort shows on the television and cuddling with my partner before bed,0.01,0.05,8.8,1,0.01,1.4008,,,,
,,665629a30c7e3f40e8f3d1d5,6685aa9113c938e83b4f1ea0,672d0355d5816a0516c551ea,2024-11-07_11h14.08.941,WTP_SM_Choice,2022.2.1,Win32,59.52380952,,,,,,,,,,,,,,,,,,47,,,,,,,,,,1,0,1,1,1,1,Volunteer at the elementary school and helping children learn,Macrame time while watching my comfort shows on the television,0.02,0.05,1.1,0,0.02,3.6255,,,,
,,665629a30c7e3f40e8f3d1d5,6685aa9113c938e83b4f1ea0,672d0355d5816a0516c551ea,2024-11-07_11h14.08.941,WTP_SM_Choice,2022.2.1,Win32,59.52380952,,,,,,,,,,,,,,,,,,48,,,,,,,,,,1,0,2,2,2,1,Go to my favorite coffee shop to enjoy the ambiance and a large chai latte,Have a breakfast date with my partner at our favorite coffee shop downtown,0.03,0.05,4.4,1,0.03,3.3662,,,,
,,665629a30c7e3f40e8f3d1d5,6685aa9113c938e83b4f1ea0,672d0355d5816a0516c551ea,2024-11-07_11h14.08.941,WTP_SM_Choice,2022.2.1,Win32,59.52380952,,,,,,,,,,,,,,,,,,49,,,,,,,,,,1,0,3,3,3,1,Make a trip to target to look for new favorite squishmallows to cuddle with,Go to friday night bingo with my partner and winning the jackpot,0.04,0.05,3.3,1,0.04,3.1132,,,,
,,665629a30c7e3f40e8f3d1d5,6685aa9113c938e83b4f1ea0,672d0355d5816a0516c551ea,2024-11-07_11h14.08.941,WTP_SM_Choice,2022.2.1,Win32,59.52380952,,,,,,,,,,,,,,,,,,50,,,,,,,,,,1,0,4,4,4,1,Make a trip to target to look for new favorite squishmallows to cuddle with,Have family game night and playing new board games with the children,0.05,0.05,1.1,1,0.05,4.3741,,,,
,,665629a30c7e3f40e8f3d1d5,6685aa9113c938e83b4f1ea0,672d0355d5816a0516c551ea,2024-11-07_11h14.08.941,WTP_SM_Choice,2022.2.1,Win32,59.52380952,,,,,,,1,,2,1.1,4.9,,0,49,49,49,1,50,Charlie,Rej,Participant_Images/665629a30c7e3f40e8f3d1d5/665629a30c7e3f40e8f3d1d5_Images/665629a30c7e3f40e8f3d1d5_Image_16.jpeg,did not like,3.195382774,,,,,,,,,,,,,,,,,,,space,0.6992,,
,,665629a30c7e3f40e8f3d1d5,6685aa9113c938e83b4f1ea0,672d0355d5816a0516c551ea,2024-11-07_11h14.08.941,WTP_SM_Choice,2022.2.1,Win32,59.52380952,,,space,1.6293,space,0.334,NAN,,NAN,1.1,4.9,,0,50,50,50,1,51,Sam,Rej,Participant_Images/665629a30c7e3f40e8f3d1d5/665629a30c7e3f40e8f3d1d5_Images/665629a30c7e3f40e8f3d1d5_Image_7.jpeg,liked,1.779333479,,,,,,,,,,,,,,,,,,,,,,
,,665629a30c7e3f40e8f3d1d5,6685aa9113c938e83b4f1ea0,672d0355d5816a0516c551ea,2024-11-07_11h14.08.941,WTP_SM_Choice,2022.2.1,Win32,59.52380952,,,,,space,0.4723,NAN,,NAN,1.1,4.9,,0,51,51,51,1,52,Sam,Rej,Participant_Images/665629a30c7e3f40e8f3d1d5/665629a30c7e3f40e8f3d1d5_Images/665629a30c7e3f40e8f3d1d5_Image_24.jpeg,did not like,4.312468682,,,,,,,,,,,,,,,,,,,,,,
,,665629a30c7e3f40e8f3d1d5,6685aa9113c938e83b4f1ea0,672d0355d5816a0516c551ea,2024-11-07_11h14.08.941,WTP_SM_Choice,2022.2.1,Win32,59.52380952,,,,,space,0.3852,NAN,,NAN,1.1,4.9,,0,52,52,52,1,53,Sam,Rej,Participant_Images/665629a30c7e3f40e8f3d1d5/665629a30c7e3f40e8f3d1d5_Images/665629a30c7e3f40e8f3d1d5_Image_3.jpeg,did not like,4.940433059,,,,,,,,,,,,,,,,,,,,,,
,,665629a30c7e3f40e8f3d1d5,6685aa9113c938e83b4f1ea0,672d0355d5816a0516c551ea,2024-11-07_11h14.08.941,WTP_SM_Choice,2022.2.1,Win32,59.52380952,,,,,space,0.3908,NAN,,NAN,1.1,4.9,,0,53,53,53,1,54,Sam,Rej,Participant_Images/665629a30c7e3f40e8f3d1d5/665629a30c7e3f40e8f3d1d5_Images/665629a30c7e3f40e8f3d1d5_Image_15.jpeg,did not like,2.7105123,,,,,,,,,,,,,,,,,,,,,,
,,665629a30c7e3f40e8f3d1d5,6685aa9113c938e83b4f1ea0,672d0355d5816a0516c551ea,2024-11-07_11h14.08.941,WTP_SM_Choice,2022.2.1,Win32,59.52380952,,,,,,,,,,,,,,,,,,51,,,,,,space,7.5258,space,2.0482,1,0,0,0,0,1,Go on road trips with my friend back home to visit the people I grew up with,Watch Bob Ross paint happy little trees,0.01,0.01,1.1,0,0.01,1.9576,,,,
,,665629a30c7e3f40e8f3d1d5,6685aa9113c938e83b4f1ea0,672d0355d5816a0516c551ea,2024-11-07_11h14.08.941,WTP_SM_Choice,2022.2.1,Win32,59.52380952,,,,,,,,,,,,,,,,,,52,,,,,,,,,,2,0,1,1,1,1,Watch our comfort shows on the television and cuddling with my partner before bed,Cuddling with my cats while making a pot of PG Tips Tea to sip on,0.02,0.01,3.3,0,0.01,3.6963,,,,
,,665629a30c7e3f40e8f3d1d5,6685aa9113c938e83b4f1ea0,672d0355d5816a0516c551ea,2024-11-07_11h14.08.941,WTP_SM_Choice,2022.2.1,Win32,59.52380952,,,,,,,,,,,,,,,,,,53,,,,,,,,,,2,0,2,2,2,1,Watch Bob Ross paint happy little trees,Volunteer at the elementary school and helping children learn,0.03,0.01,1.1,1,0.01,2.0838,,,,
,,665629a30c7e3f40e8f3d1d5,6685aa9113c938e83b4f1ea0,672d0355d5816a0516c551ea,2024-11-07_11h14.08.941,WTP_SM_Choice,2022.2.1,Win32,59.52380952,,,,,,,,,,,,,,,,,,54,,,,,,,,,,2,0,3,3,3,1,Learn a new craft as I watch youtube videos of cats and baby animals,Watch our comfort shows on the television and cuddling with my partner before bed,0.04,0.01,4.4,1,0.01,2.6163,,,,
,,665629a30c7e3f40e8f3d1d5,6685aa9113c938e83b4f1ea0,672d0355d5816a0516c551ea,2024-11-07_11h14.08.941,WTP_SM_Choice,2022.2.1,Win32,59.52380952,,,,,,,,,,,,,,,,,,55,,,,,,,,,,2,0,4,4,4,1,Have family game night and playing new board games with the children,Cuddling with my cats while making a pot of PG Tips Tea to sip on,0.05,0.01,1.1,0,0.01,1.4877,,,,
,,665629a30c7e3f40e8f3d1d5,6685aa9113c938e83b4f1ea0,672d0355d5816a0516c551ea,2024-11-07_11h14.08.941,WTP_SM_Choice,2022.2.1,Win32,59.52380952,,,,,,,NAN,,NAN,1.15,4.85,,0,54,54,54,1,55,Sam,Rej,Participant_Images/665629a30c7e3f40e8f3d1d5/665629a30c7e3f40e8f3d1d5_Images/665629a30c7e3f40e8f3d1d5_Image_1.jpeg,did not like,3.602308302,,,,,,,,,,,,,,,,,,,,,,
,,665629a30c7e3f40e8f3d1d5,6685aa9113c938e83b4f1ea0,672d0355d5816a0516c551ea,2024-11-07_11h14.08.941,WTP_SM_Choice,2022.2.1,Win32,59.52380952,,,,,space,0.6071,NAN,,NAN,1.15,4.85,,0,55,55,55,1,56,Sam,Rej,Participant_Images/665629a30c7e3f40e8f3d1d5/665629a30c7e3f40e8f3d1d5_Images/665629a30c7e3f40e8f3d1d5_Image_13.jpeg,did not like,4.106391878,,,,,,,,,,,,,,,,,,,,,,
,,665629a30c7e3f40e8f3d1d5,6685aa9113c938e83b4f1ea0,672d0355d5816a0516c551ea,2024-11-07_11h14.08.941,WTP_SM_Choice,2022.2.1,Win32,59.52380952,,,,,space,0.4002,NAN,,NAN,1.15,4.85,,0,56,56,56,1,57,Sam,Rej,Participant_Images/665629a30c7e3f40e8f3d1d5/665629a30c7e3f40e8f3d1d5_Images/665629a30c7e3f40e8f3d1d5_Image_19.jpeg,liked,3.799433026,,,,,,,,,,,,,,,,,,,,,,
,,665629a30c7e3f40e8f3d1d5,6685aa9113c938e83b4f1ea0,672d0355d5816a0516c551ea,2024-11-07_11h14.08.941,WTP_SM_Choice,2022.2.1,Win32,59.52380952,,,,,space,0.4068,NAN,,NAN,1.15,4.85,,0,57,57,57,1,58,Sam,Rej,Participant_Images/665629a30c7e3f40e8f3d1d5/665629a30c7e3f40e8f3d1d5_Images/665629a30c7e3f40e8f3d1d5_Image_8.jpeg,did not like,5.246980764,,,,,,,,,,,,,,,,,,,,,,
,,665629a30c7e3f40e8f3d1d5,6685aa9113c938e83b4f1ea0,672d0355d5816a0516c551ea,2024-11-07_11h14.08.941,WTP_SM_Choice,2022.2.1,Win32,59.52380952,,,,,space,0.418,NAN,,NAN,1.15,4.85,,0,58,58,58,1,59,Sam,Rej,Participant_Images/665629a30c7e3f40e8f3d1d5/665629a30c7e3f40e8f3d1d5_Images/665629a30c7e3f40e8f3d1d5_Image_10.jpeg,did not like,3.30081769,,,,,,,,,,,,,,,,,,,,,,
,,665629a30c7e3f40e8f3d1d5,6685aa9113c938e83b4f1ea0,672d0355d5816a0516c551ea,2024-11-07_11h14.08.941,WTP_SM_Choice,2022.2.1,Win32,59.52380952,,,,,,,,,,,,,,,,,,56,,,,,,space,0.3381,space,1.0657,1,0,0,0,0,1,Make a trip to target to look for new favorite squishmallows to cuddle with,Watch our comfort shows on the television and cuddling with my partner before bed,0.01,0.02,8.8,1,0.01,2.4984,,,,
,,665629a30c7e3f40e8f3d1d5,6685aa9113c938e83b4f1ea0,672d0355d5816a0516c551ea,2024-11-07_11h14.08.941,WTP_SM_Choice,2022.2.1,Win32,59.52380952,,,,,,,,,,,,,,,,,,57,,,,,,,,,,2,0,1,1,1,1,Go to my favorite coffee shop to enjoy the ambiance and a large chai latte,Go to the movies with the family and relaxing in the heated reclining chairs,0.02,0.02,4.4,1,0.02,2.8444,,,,
,,665629a30c7e3f40e8f3d1d5,6685aa9113c938e83b4f1ea0,672d0355d5816a0516c551ea,2024-11-07_11h14.08.941,WTP_SM_Choice,2022.2.1,Win32,59.52380952,,,,,,,,,,,,,,,,,,58,,,,,,,,,,2,0,2,2,2,1,Go to my favorite coffee shop to enjoy the ambiance and a large chai latte,Volunteer at the elementary school and helping children learn,0.03,0.02,4.4,1,0.02,2.1175,,,,
,,665629a30c7e3f40e8f3d1d5,6685aa9113c938e83b4f1ea0,672d0355d5816a0516c551ea,2024-11-07_11h14.08.941,WTP_SM_Choice,2022.2.1,Win32,59.52380952,,,,,,,,,,,,,,,,,,59,,,,,,,,,,1,0,3,3,3,1,Go to friday night bingo with my partner and winning the jackpot,Read my favorite book in bed under comfy blankets,0.04,0.02,4.4,0,0.04,5.5399,,,,
,,665629a30c7e3f40e8f3d1d5,6685aa9113c938e83b4f1ea0,672d0355d5816a0516c551ea,2024-11-07_11h14.08.941,WTP_SM_Choice,2022.2.1,Win32,59.52380952,,,,,,,,,,,,,,,,,,60,,,,,,,,,,2,0,4,4,4,1,Have family game night and playing new board games with the children,Meditate while laying in my bed listening to the guided sounds of nature and serenity,0.05,0.02,1.1,0,0.02,2.7784,,,,
,,665629a30c7e3f40e8f3d1d5,6685aa9113c938e83b4f1ea0,672d0355d5816a0516c551ea,2024-11-07_11h14.08.941,WTP_SM_Choice,2022.2.1,Win32,59.52380952,,,,,,,NAN,,NAN,1.26,4.74,,0,59,59,59,1,60,Sam,Rej,Participant_Images/665629a30c7e3f40e8f3d1d5/665629a30c7e3f40e8f3d1d5_Images/665629a30c7e3f40e8f3d1d5_Image_18.jpeg,did not like,1.661473164,,,,,,,,,,,,,,,,,,,,,,
,,665629a30c7e3f40e8f3d1d5,6685aa9113c938e83b4f1ea0,672d0355d5816a0516c551ea,2024-11-07_11h14.08.941,WTP_SM_Choice,2022.2.1,Win32,59.52380952,,,,,space,0.6991,NAN,,NAN,1.26,4.74,,0,60,60,60,1,61,Sam,Rej,Participant_Images/665629a30c7e3f40e8f3d1d5/665629a30c7e3f40e8f3d1d5_Images/665629a30c7e3f40e8f3d1d5_Image_17.jpeg,did not like,3.613205605,,,,,,,,,,,,,,,,,,,,,,
,,665629a30c7e3f40e8f3d1d5,6685aa9113c938e83b4f1ea0,672d0355d5816a0516c551ea,2024-11-07_11h14.08.941,WTP_SM_Choice,2022.2.1,Win32,59.52380952,,,,,space,0.3,NAN,,NAN,1.26,4.74,,0,61,61,61,1,62,Sam,Rej,Participant_Images/665629a30c7e3f40e8f3d1d5/665629a30c7e3f40e8f3d1d5_Images/665629a30c7e3f40e8f3d1d5_Image_12.jpeg,did not like,4.988446431,,,,,,,,,,,,,,,,,,,,,,
,,665629a30c7e3f40e8f3d1d5,6685aa9113c938e83b4f1ea0,672d0355d5816a0516c551ea,2024-11-07_11h14.08.941,WTP_SM_Choice,2022.2.1,Win32,59.52380952,,,,,space,0.6667,NAN,,NAN,1.26,4.74,,0,62,62,62,1,63,Sam,Rej,Participant_Images/665629a30c7e3f40e8f3d1d5/665629a30c7e3f40e8f3d1d5_Images/665629a30c7e3f40e8f3d1d5_Image_9.jpeg,did not like,3.470791822,,,,,,,,,,,,,,,,,,,,,,
,,665629a30c7e3f40e8f3d1d5,6685aa9113c938e83b4f1ea0,672d0355d5816a0516c551ea,2024-11-07_11h14.08.941,WTP_SM_Choice,2022.2.1,Win32,59.52380952,,,,,space,0.5266,NAN,,NAN,1.26,4.74,,0,63,63,63,1,64,Sam,Rej,Participant_Images/665629a30c7e3f40e8f3d1d5/665629a30c7e3f40e8f3d1d5_Images/665629a30c7e3f40e8f3d1d5_Image_11.jpeg,liked,3.820572462,,,,,,,,,,,,,,,,,,,,,,
,,665629a30c7e3f40e8f3d1d5,6685aa9113c938e83b4f1ea0,672d0355d5816a0516c551ea,2024-11-07_11h14.08.941,WTP_SM_Choice,2022.2.1,Win32,59.52380952,,,,,,,,,,,,,,,,,,61,,,,,,space,3.2307,space,1.533,1,0,0,0,0,1,Make a trip to target to look for new favorite squishmallows to cuddle with,Try to meet someone new and make a friend over coffee and brunch,0.01,0.03,3.3,1,0.01,1.3627,,,,
,,665629a30c7e3f40e8f3d1d5,6685aa9113c938e83b4f1ea0,672d0355d5816a0516c551ea,2024-11-07_11h14.08.941,WTP_SM_Choice,2022.2.1,Win32,59.52380952,,,,,,,,,,,,,,,,,,62,,,,,,,,,,1,0,1,1,1,1,Go to the movies with the family and relaxing in the heated reclining chairs,Learn a new craft as I watch youtube videos of cats and baby animals,0.02,0.03,3.3,0,0.02,2.3489,,,,
,,665629a30c7e3f40e8f3d1d5,6685aa9113c938e83b4f1ea0,672d0355d5816a0516c551ea,2024-11-07_11h14.08.941,WTP_SM_Choice,2022.2.1,Win32,59.52380952,,,,,,,,,,,,,,,,,,63,,,,,,,,,,2,0,2,2,2,1,Have family game night and playing new board games with the children,Macrame time while watching my comfort shows on the television,0.03,0.03,3.3,0,0.03,2.8895,,,,
,,665629a30c7e3f40e8f3d1d5,6685aa9113c938e83b4f1ea0,672d0355d5816a0516c551ea,2024-11-07_11h14.08.941,WTP_SM_Choice,2022.2.1,Win32,59.52380952,,,,,,,,,,,,,,,,,,64,,,,,,,,,,1,0,3,3,3,1,Have a breakfast date with my partner at our favorite coffee shop downtown,Meditate while laying in my bed listening to the guided sounds of nature and serenity,0.04,0.03,1.1,0,0.04,4.0162,,,,
,,665629a30c7e3f40e8f3d1d5,6685aa9113c938e83b4f1ea0,672d0355d5816a0516c551ea,2024-11-07_11h14.08.941,WTP_SM_Choice,2022.2.1,Win32,59.52380952,,,,,,,,,,,,,,,,,,65,,,,,,,,,,2,0,4,4,4,1,Have family game night and playing new board games with the children,Learn a new craft as I watch youtube videos of cats and baby animals,0.05,0.03,1.1,0,0.03,2.8483,,,,
,,665629a30c7e3f40e8f3d1d5,6685aa9113c938e83b4f1ea0,672d0355d5816a0516c551ea,2024-11-07_11h14.08.941,WTP_SM_Choice,2022.2.1,Win32,59.52380952,,,,,,,NAN,,NAN,1.39,4.61,,0,64,64,64,1,65,Sam,Rej,Participant_Images/665629a30c7e3f40e8f3d1d5/665629a30c7e3f40e8f3d1d5_Images/665629a30c7e3f40e8f3d1d5_Image_2.jpeg,liked,2.455989137,,,,,,,,,,,,,,,,,,,,,,
,,665629a30c7e3f40e8f3d1d5,6685aa9113c938e83b4f1ea0,672d0355d5816a0516c551ea,2024-11-07_11h14.08.941,WTP_SM_Choice,2022.2.1,Win32,59.52380952,,,,,space,0.3508,NAN,,NAN,1.39,4.61,,0,65,65,65,1,66,Sam,Rej,Participant_Images/665629a30c7e3f40e8f3d1d5/665629a30c7e3f40e8f3d1d5_Images/665629a30c7e3f40e8f3d1d5_Image_22.jpeg,did not like,3.79605092,,,,,,,,,,,,,,,,,,,,,,
,,665629a30c7e3f40e8f3d1d5,6685aa9113c938e83b4f1ea0,672d0355d5816a0516c551ea,2024-11-07_11h14.08.941,WTP_SM_Choice,2022.2.1,Win32,59.52380952,,,,,space,0.4331,NAN,,NAN,1.39,4.61,,0,66,66,66,1,67,Sam,Rej,Participant_Images/665629a30c7e3f40e8f3d1d5/665629a30c7e3f40e8f3d1d5_Images/665629a30c7e3f40e8f3d1d5_Image_14.jpeg,liked,3.562416326,,,,,,,,,,,,,,,,,,,,,,
,,665629a30c7e3f40e8f3d1d5,6685aa9113c938e83b4f1ea0,672d0355d5816a0516c551ea,2024-11-07_11h14.08.941,WTP_SM_Choice,2022.2.1,Win32,59.52380952,,,,,space,0.8666,NAN,,NAN,1.39,4.61,,0,67,67,67,1,68,Sam,Rej,Participant_Images/665629a30c7e3f40e8f3d1d5/665629a30c7e3f40e8f3d1d5_Images/665629a30c7e3f40e8f3d1d5_Image_25.jpeg,liked,2.843822497,,,,,,,,,,,,,,,,,,,,,,
,,665629a30c7e3f40e8f3d1d5,6685aa9113c938e83b4f1ea0,672d0355d5816a0516c551ea,2024-11-07_11h14.08.941,WTP_SM_Choice,2022.2.1,Win32,59.52380952,,,,,space,0.4892,NAN,,NAN,1.39,4.61,,0,68,68,68,1,69,Sam,Rej,Participant_Images/665629a30c7e3f40e8f3d1d5/665629a30c7e3f40e8f3d1d5_Images/665629a30c7e3f40e8f3d1d5_Image_23.jpeg,did not like,3.546495948,,,,,,,,,,,,,,,,,,,,,,
,,665629a30c7e3f40e8f3d1d5,6685aa9113c938e83b4f1ea0,672d0355d5816a0516c551ea,2024-11-07_11h14.08.941,WTP_SM_Choice,2022.2.1,Win32,59.52380952,,,,,,,,,,,,,,,,,,66,,,,,,space,1.3639,space,0.7486,1,0,0,0,0,1,Go to friday night bingo with my partner and winning the jackpot,Go to my favorite coffee shop to enjoy the ambiance and a large chai latte,0.01,0.04,1.1,0,0.01,1.3031,,,,
,,665629a30c7e3f40e8f3d1d5,6685aa9113c938e83b4f1ea0,672d0355d5816a0516c551ea,2024-11-07_11h14.08.941,WTP_SM_Choice,2022.2.1,Win32,59.52380952,,,,,,,,,,,,,,,,,,67,,,,,,,,,,1,0,1,1,1,1,Have a breakfast date with my partner at our favorite coffee shop downtown,Learn a new craft as I watch youtube videos of cats and baby animals,0.02,0.04,8.8,0,0.02,1.4991,,,,
,,665629a30c7e3f40e8f3d1d5,6685aa9113c938e83b4f1ea0,672d0355d5816a0516c551ea,2024-11-07_11h14.08.941,WTP_SM_Choice,2022.2.1,Win32,59.52380952,,,,,,,,,,,,,,,,,,68,,,,,,,,,,1,0,2,2,2,1,Hike in the mountains with my best friends and seeing the trees all change colors in the Fall,Macrame time while watching my comfort shows on the television,0.03,0.04,4.4,0,0.03,2.7773,,,,
,,665629a30c7e3f40e8f3d1d5,6685aa9113c938e83b4f1ea0,672d0355d5816a0516c551ea,2024-11-07_11h14.08.941,WTP_SM_Choice,2022.2.1,Win32,59.52380952,,,,,,,,,,,,,,,,,,69,,,,,,,,,,2,0,3,3,3,1,Learn a new craft as I watch youtube videos of cats and baby animals,Go to the thrift store with my friends and searching for treasures,0.04,0.04,1.1,1,0.04,3.1922,,,,
,,665629a30c7e3f40e8f3d1d5,6685aa9113c938e83b4f1ea0,672d0355d5816a0516c551ea,2024-11-07_11h14.08.941,WTP_SM_Choice,2022.2.1,Win32,59.52380952,,,,,,,,,,,,,,,,,,70,,,,,,,,,,2,0,4,4,4,1,Go to the movies with the family and relaxing in the heated reclining chairs,Meditate while laying in my bed listening to the guided sounds of nature and serenity,0.05,0.04,1.1,0,0.04,2.4348,,,,
,,665629a30c7e3f40e8f3d1d5,6685aa9113c938e83b4f1ea0,672d0355d5816a0516c551ea,2024-11-07_11h14.08.941,WTP_SM_Choice,2022.2.1,Win32,59.52380952,,,,,,,NAN,,NAN,1.53,4.47,,0,69,69,69,1,70,Sam,Rej,Participant_Images/665629a30c7e3f40e8f3d1d5/665629a30c7e3f40e8f3d1d5_Images/665629a30c7e3f40e8f3d1d5_Image_20.jpeg,did not like,1.672012706,,,,,,,,,,,,,,,,,,,,,,
,,665629a30c7e3f40e8f3d1d5,6685aa9113c938e83b4f1ea0,672d0355d5816a0516c551ea,2024-11-07_11h14.08.941,WTP_SM_Choice,2022.2.1,Win32,59.52380952,,,,,space,2.7321,NAN,,NAN,1.53,4.47,,0,70,70,70,1,71,Sam,Rej,Participant_Images/665629a30c7e3f40e8f3d1d5/665629a30c7e3f40e8f3d1d5_Images/665629a30c7e3f40e8f3d1d5_Image_6.jpeg,did not like,4.942172136,,,,,,,,,,,,,,,,,,,,,,
,,665629a30c7e3f40e8f3d1d5,6685aa9113c938e83b4f1ea0,672d0355d5816a0516c551ea,2024-11-07_11h14.08.941,WTP_SM_Choice,2022.2.1,Win32,59.52380952,,,,,space,0.551,NAN,,NAN,1.53,4.47,,0,71,71,71,1,72,Sam,Rej,Participant_Images/665629a30c7e3f40e8f3d1d5/665629a30c7e3f40e8f3d1d5_Images/665629a30c7e3f40e8f3d1d5_Image_21.jpeg,liked,2.50187214,,,,,,,,,,,,,,,,,,,,,,
,,665629a30c7e3f40e8f3d1d5,6685aa9113c938e83b4f1ea0,672d0355d5816a0516c551ea,2024-11-07_11h14.08.941,WTP_SM_Choice,2022.2.1,Win32,59.52380952,,,,,space,0.3709,NAN,,NAN,1.53,4.47,,0,72,72,72,1,73,Sam,Rej,Participant_Images/665629a30c7e3f40e8f3d1d5/665629a30c7e3f40e8f3d1d5_Images/665629a30c7e3f40e8f3d1d5_Image_4.jpeg,did not like,2.071164779,,,,,,,,,,,,,,,,,,,,,,
,,665629a30c7e3f40e8f3d1d5,6685aa9113c938e83b4f1ea0,672d0355d5816a0516c551ea,2024-11-07_11h14.08.941,WTP_SM_Choice,2022.2.1,Win32,59.52380952,,,,,space,0.5948,NAN,,NAN,1.53,4.47,,0,73,73,73,1,74,Sam,Rej,Participant_Images/665629a30c7e3f40e8f3d1d5/665629a30c7e3f40e8f3d1d5_Images/665629a30c7e3f40e8f3d1d5_Image_5.jpeg,did not like,5.336503566,,,,,,,,,,,,,,,,,,,,,,
,,665629a30c7e3f40e8f3d1d5,6685aa9113c938e83b4f1ea0,672d0355d5816a0516c551ea,2024-11-07_11h14.08.941,WTP_SM_Choice,2022.2.1,Win32,59.52380952,,,,,,,,,,,,,,,,,,71,,,,,,space,0.5334,space,0.5871,1,0,0,0,0,1,Volunteer at the elementary school and helping children learn,Collect rocks as I walk along the park on a beautiful cloudy day,0.01,0.05,3.3,0,0.01,1.6662,,,,
,,665629a30c7e3f40e8f3d1d5,6685aa9113c938e83b4f1ea0,672d0355d5816a0516c551ea,2024-11-07_11h14.08.941,WTP_SM_Choice,2022.2.1,Win32,59.52380952,,,,,,,,,,,,,,,,,,72,,,,,,,,,,1,0,1,1,1,1,Meditate while laying in my bed listening to the guided sounds of nature and serenity,Volunteer at the elementary school and helping children learn,0.02,0.05,8.8,1,0.02,4.6613,,,,
,,665629a30c7e3f40e8f3d1d5,6685aa9113c938e83b4f1ea0,672d0355d5816a0516c551ea,2024-11-07_11h14.08.941,WTP_SM_Choice,2022.2.1,Win32,59.52380952,,,,,,,,,,,,,,,,,,73,,,,,,,,,,1,0,2,2,2,1,Read my favorite book in bed under comfy blankets,Watch our comfort shows on the television and cuddling with my partner before bed,0.03,0.05,3.3,1,0.03,3.598,,,,
,,665629a30c7e3f40e8f3d1d5,6685aa9113c938e83b4f1ea0,672d0355d5816a0516c551ea,2024-11-07_11h14.08.941,WTP_SM_Choice,2022.2.1,Win32,59.52380952,,,,,,,,,,,,,,,,,,74,,,,,,,,,,1,0,3,3,3,1,Cuddling with my cats while making a pot of PG Tips Tea to sip on,Go to the movies with the family and relaxing in the heated reclining chairs,0.04,0.05,4.4,1,0.04,2.6969,,,,
,,665629a30c7e3f40e8f3d1d5,6685aa9113c938e83b4f1ea0,672d0355d5816a0516c551ea,2024-11-07_11h14.08.941,WTP_SM_Choice,2022.2.1,Win32,59.52380952,,,,,,,,,,,,,,,,,,75,,,,,,,,,,2,0,4,4,4,1,Read my favorite book in bed under comfy blankets,Volunteer at the elementary school and helping children learn,0.05,0.05,3.3,1,0.05,3.5948,,,,
,,665629a30c7e3f40e8f3d1d5,6685aa9113c938e83b4f1ea0,672d0355d5816a0516c551ea,2024-11-07_11h14.08.941,WTP_SM_Choice,2022.2.1,Win32,59.52380952,,,,,,,1,,2,1.68,4.32,,0,74,74,74,1,75,Sam,Rej,Participant_Images/665629a30c7e3f40e8f3d1d5/665629a30c7e3f40e8f3d1d5_Images/665629a30c7e3f40e8f3d1d5_Image_16.jpeg,did not like,2.642157193,,,,,,,,,,,,,,,,,,,space,0.9094,,
,,665629a30c7e3f40e8f3d1d5,6685aa9113c938e83b4f1ea0,672d0355d5816a0516c551ea,2024-11-07_11h14.08.941,WTP_SM_Choice,2022.2.1,Win32,59.52380952,,,space,2.6304,space,0.5004,NAN,,NAN,1.68,4.32,,0,75,75,75,1,76,Riley,Acc,Participant_Images/665629a30c7e3f40e8f3d1d5/665629a30c7e3f40e8f3d1d5_Images/665629a30c7e3f40e8f3d1d5_Image_8.jpeg,did not like,4.456234322,,,,,,,,,,,,,,,,,,,,,,
,,665629a30c7e3f40e8f3d1d5,6685aa9113c938e83b4f1ea0,672d0355d5816a0516c551ea,2024-11-07_11h14.08.941,WTP_SM_Choice,2022.2.1,Win32,59.52380952,,,,,space,0.5828,NAN,,NAN,1.68,4.32,,0,76,76,76,1,77,Riley,Acc,Participant_Images/665629a30c7e3f40e8f3d1d5/665629a30c7e3f40e8f3d1d5_Images/665629a30c7e3f40e8f3d1d5_Image_22.jpeg,did not like,4.438512181,,,,,,,,,,,,,,,,,,,,,,
,,665629a30c7e3f40e8f3d1d5,6685aa9113c938e83b4f1ea0,672d0355d5816a0516c551ea,2024-11-07_11h14.08.941,WTP_SM_Choice,2022.2.1,Win32,59.52380952,,,,,space,0.564,NAN,,NAN,1.68,4.32,,0,77,77,77,1,78,Riley,Acc,Participant_Images/665629a30c7e3f40e8f3d1d5/665629a30c7e3f40e8f3d1d5_Images/665629a30c7e3f40e8f3d1d5_Image_10.jpeg,did not like,2.682944783,,,,,,,,,,,,,,,,,,,,,,
,,665629a30c7e3f40e8f3d1d5,6685aa9113c938e83b4f1ea0,672d0355d5816a0516c551ea,2024-11-07_11h14.08.941,WTP_SM_Choice,2022.2.1,Win32,59.52380952,,,,,space,0.3886,NAN,,NAN,1.68,4.32,,0,78,78,78,1,79,Riley,Acc,Participant_Images/665629a30c7e3f40e8f3d1d5/665629a30c7e3f40e8f3d1d5_Images/665629a30c7e3f40e8f3d1d5_Image_1.jpeg,liked,4.51984296,,,,,,,,,,,,,,,,,,,,,,
,,665629a30c7e3f40e8f3d1d5,6685aa9113c938e83b4f1ea0,672d0355d5816a0516c551ea,2024-11-07_11h14.08.941,WTP_SM_Choice,2022.2.1,Win32,59.52380952,,,,,,,,,,,,,,,,,,76,,,,,,space,0.7185,space,0.4846,1,0,0,0,0,1,Hike in the mountains with my best friends and seeing the trees all change colors in the Fall,Meditate while laying in my bed listening to the guided sounds of nature and serenity,0.01,0.01,1.1,0,0.01,1.1493,,,,
,,665629a30c7e3f40e8f3d1d5,6685aa9113c938e83b4f1ea0,672d0355d5816a0516c551ea,2024-11-07_11h14.08.941,WTP_SM_Choice,2022.2.1,Win32,59.52380952,,,,,,,,,,,,,,,,,,77,,,,,,,,,,2,0,1,1,1,1,Have a breakfast date with my partner at our favorite coffee shop downtown,Practice piano in the living room with the fireplace glowing in the background,0.02,0.01,8.8,0,0.01,2.1308,,,,
,,665629a30c7e3f40e8f3d1d5,6685aa9113c938e83b4f1ea0,672d0355d5816a0516c551ea,2024-11-07_11h14.08.941,WTP_SM_Choice,2022.2.1,Win32,59.52380952,,,,,,,,,,,,,,,,,,78,,,,,,,,,,2,0,2,2,2,1,Practice piano in the living room with the fireplace glowing in the background,Go on road trips with my friend back home to visit the people I grew up with,0.03,0.01,1.1,1,0.01,1.5838,,,,
,,665629a30c7e3f40e8f3d1d5,6685aa9113c938e83b4f1ea0,672d0355d5816a0516c551ea,2024-11-07_11h14.08.941,WTP_SM_Choice,2022.2.1,Win32,59.52380952,,,,,,,,,,,,,,,,,,79,,,,,,,,,,2,0,3,3,3,1,Collect rocks as I walk along the park on a beautiful cloudy day,Hike in the mountains with my best friends and seeing the trees all change colors in the Fall,0.04,0.01,1.1,1,0.01,1.6995,,,,
,,665629a30c7e3f40e8f3d1d5,6685aa9113c938e83b4f1ea0,672d0355d5816a0516c551ea,2024-11-07_11h14.08.941,WTP_SM_Choice,2022.2.1,Win32,59.52380952,,,,,,,,,,,,,,,,,,80,,,,,,,,,,2,0,4,4,4,1,Hike in the mountains with my best friends and seeing the trees all change colors in the Fall,Make a trip to target to look for new favorite squishmallows to cuddle with,0.05,0.01,4.4,0,0.01,1.7653,,,,
,,665629a30c7e3f40e8f3d1d5,6685aa9113c938e83b4f1ea0,672d0355d5816a0516c551ea,2024-11-07_11h14.08.941,WTP_SM_Choice,2022.2.1,Win32,59.52380952,,,,,,,NAN,,NAN,1.73,4.27,,0,79,79,79,1,80,Riley,Acc,Participant_Images/665629a30c7e3f40e8f3d1d5/665629a30c7e3f40e8f3d1d5_Images/665629a30c7e3f40e8f3d1d5_Image_9.jpeg,liked,3.195382774,,,,,,,,,,,,,,,,,,,,,,
,,665629a30c7e3f40e8f3d1d5,6685aa9113c938e83b4f1ea0,672d0355d5816a0516c551ea,2024-11-07_11h14.08.941,WTP_SM_Choice,2022.2.1,Win32,59.52380952,,,,,space,0.3927,NAN,,NAN,1.73,4.27,,0,80,80,80,1,81,Riley,Acc,Participant_Images/665629a30c7e3f40e8f3d1d5/665629a30c7e3f40e8f3d1d5_Images/665629a30c7e3f40e8f3d1d5_Image_7.jpeg,did not like,1.779333479,,,,,,,,,,,,,,,,,,,,,,
,,665629a30c7e3f40e8f3d1d5,6685aa9113c938e83b4f1ea0,672d0355d5816a0516c551ea,2024-11-07_11h14.08.941,WTP_SM_Choice,2022.2.1,Win32,59.52380952,,,,,space,0.356,NAN,,NAN,1.73,4.27,,0,81,81,81,1,82,Riley,Acc,Participant_Images/665629a30c7e3f40e8f3d1d5/665629a30c7e3f40e8f3d1d5_Images/665629a30c7e3f40e8f3d1d5_Image_16.jpeg,liked,4.312468682,,,,,,,,,,,,,,,,,,,,,,
,,665629a30c7e3f40e8f3d1d5,6685aa9113c938e83b4f1ea0,672d0355d5816a0516c551ea,2024-11-07_11h14.08.941,WTP_SM_Choice,2022.2.1,Win32,59.52380952,,,,,space,0.001,NAN,,NAN,1.73,4.27,,0,82,82,82,1,83,Riley,Acc,Participant_Images/665629a30c7e3f40e8f3d1d5/665629a30c7e3f40e8f3d1d5_Images/665629a30c7e3f40e8f3d1d5_Image_20.jpeg,liked,4.940433059,,,,,,,,,,,,,,,,,,,,,,
,,665629a30c7e3f40e8f3d1d5,6685aa9113c938e83b4f1ea0,672d0355d5816a0516c551ea,2024-11-07_11h14.08.941,WTP_SM_Choice,2022.2.1,Win32,59.52380952,,,,,space,0.4498,NAN,,NAN,1.73,4.27,,0,83,83,83,1,84,Riley,Acc,Participant_Images/665629a30c7e3f40e8f3d1d5/665629a30c7e3f40e8f3d1d5_Images/665629a30c7e3f40e8f3d1d5_Image_18.jpeg,did not like,2.7105123,,,,,,,,,,,,,,,,,,,,,,
,,665629a30c7e3f40e8f3d1d5,6685aa9113c938e83b4f1ea0,672d0355d5816a0516c551ea,2024-11-07_11h14.08.941,WTP_SM_Choice,2022.2.1,Win32,59.52380952,,,,,,,,,,,,,,,,,,81,,,,,,space,1.2194,space,0.5383,1,0,0,0,0,1,Practice piano in the living room with the fireplace glowing in the background,Watch our comfort shows on the television and cuddling with my partner before bed,0.01,0.02,3.3,1,0.01,1.4817,,,,
,,665629a30c7e3f40e8f3d1d5,6685aa9113c938e83b4f1ea0,672d0355d5816a0516c551ea,2024-11-07_11h14.08.941,WTP_SM_Choice,2022.2.1,Win32,59.52380952,,,,,,,,,,,,,,,,,,82,,,,,,,,,,2,0,1,1,1,1,Meditate while laying in my bed listening to the guided sounds of nature and serenity,Go on road trips with my friend back home to visit the people I grew up with,0.02,0.02,4.4,1,0.02,2.8374,,,,
,,665629a30c7e3f40e8f3d1d5,6685aa9113c938e83b4f1ea0,672d0355d5816a0516c551ea,2024-11-07_11h14.08.941,WTP_SM_Choice,2022.2.1,Win32,59.52380952,,,,,,,,,,,,,,,,,,83,,,,,,,,,,1,0,2,2,2,1,Go to the movies with the family and relaxing in the heated reclining chairs,Make a trip to target to look for new favorite squishmallows to cuddle with,0.03,0.02,1.1,0,0.03,2.5812,,,,
,,665629a30c7e3f40e8f3d1d5,6685aa9113c938e83b4f1ea0,672d0355d5816a0516c551ea,2024-11-07_11h14.08.941,WTP_SM_Choice,2022.2.1,Win32,59.52380952,,,,,,,,,,,,,,,,,,84,,,,,,,,,,2,0,3,3,3,1,Read my favorite book in bed under comfy blankets,Hike in the mountains with my best friends and seeing the trees all change colors in the Fall,0.04,0.02,3.3,1,0.02,2.4443,,,,
,,665629a30c7e3f40e8f3d1d5,6685aa9113c938e83b4f1ea0,672d0355d5816a0516c551ea,2024-11-07_11h14.08.941,WTP_SM_Choice,2022.2.1,Win32,59.52380952,,,,,,,,,,,,,,,,,,85,,,,,,,,,,2,0,4,4,4,1,Practice piano in the living room with the fireplace glowing in the background,Volunteer at the elementary school and helping children learn,0.05,0.02,3.3,1,0.02,1.2859,,,,
,,665629a30c7e3f40e8f3d1d5,6685aa9113c938e83b4f1ea0,672d0355d5816a0516c551ea,2024-11-07_11h14.08.941,WTP_SM_Choice,2022.2.1,Win32,59.52380952,,,,,,,NAN,,NAN,1.83,4.17,,0,84,84,84,1,85,Riley,Acc,Participant_Images/665629a30c7e3f40e8f3d1d5/665629a30c7e3f40e8f3d1d5_Images/665629a30c7e3f40e8f3d1d5_Image_19.jpeg,liked,3.602308302,,,,,,,,,,,,,,,,,,,,,,
,,665629a30c7e3f40e8f3d1d5,6685aa9113c938e83b4f1ea0,672d0355d5816a0516c551ea,2024-11-07_11h14.08.941,WTP_SM_Choice,2022.2.1,Win32,59.52380952,,,,,space,0.251,NAN,,NAN,1.83,4.17,,0,85,85,85,1,86,Riley,Acc,Participant_Images/665629a30c7e3f40e8f3d1d5/665629a30c7e3f40e8f3d1d5_Images/665629a30c7e3f40e8f3d1d5_Image_12.jpeg,did not like,4.106391878,,,,,,,,,,,,,,,,,,,,,,
,,665629a30c7e3f40e8f3d1d5,6685aa9113c938e83b4f1ea0,672d0355d5816a0516c551ea,2024-11-07_11h14.08.941,WTP_SM_Choice,2022.2.1,Win32,59.52380952,,,,,space,0.3674,NAN,,NAN,1.83,4.17,,0,86,86,86,1,87,Riley,Acc,Participant_Images/665629a30c7e3f40e8f3d1d5/665629a30c7e3f40e8f3d1d5_Images/665629a30c7e3f40e8f3d1d5_Image_21.jpeg,liked,3.799433026,,,,,,,,,,,,,,,,,,,,,,
,,665629a30c7e3f40e8f3d1d5,6685aa9113c938e83b4f1ea0,672d0355d5816a0516c551ea,2024-11-07_11h14.08.941,WTP_SM_Choice,2022.2.1,Win32,59.52380952,,,,,space,0.401,NAN,,NAN,1.83,4.17,,0,87,87,87,1,88,Riley,Acc,Participant_Images/665629a30c7e3f40e8f3d1d5/665629a30c7e3f40e8f3d1d5_Images/665629a30c7e3f40e8f3d1d5_Image_13.jpeg,liked,5.246980764,,,,,,,,,,,,,,,,,,,,,,
,,665629a30c7e3f40e8f3d1d5,6685aa9113c938e83b4f1ea0,672d0355d5816a0516c551ea,2024-11-07_11h14.08.941,WTP_SM_Choice,2022.2.1,Win32,59.52380952,,,,,space,0.4894,NAN,,NAN,1.83,4.17,,0,88,88,88,1,89,Riley,Acc,Participant_Images/665629a30c7e3f40e8f3d1d5/665629a30c7e3f40e8f3d1d5_Images/665629a30c7e3f40e8f3d1d5_Image_6.jpeg,liked,3.30081769,,,,,,,,,,,,,,,,,,,,,,
,,665629a30c7e3f40e8f3d1d5,6685aa9113c938e83b4f1ea0,672d0355d5816a0516c551ea,2024-11-07_11h14.08.941,WTP_SM_Choice,2022.2.1,Win32,59.52380952,,,,,,,,,,,,,,,,,,86,,,,,,space,0.7834,space,0.4523,1,0,0,0,0,1,Macrame time while watching my comfort shows on the television,Go to the thrift store with my friends and searching for treasures,0.01,0.03,1.1,1,0.01,1.1317,,,,
,,665629a30c7e3f40e8f3d1d5,6685aa9113c938e83b4f1ea0,672d0355d5816a0516c551ea,2024-11-07_11h14.08.941,WTP_SM_Choice,2022.2.1,Win32,59.52380952,,,,,,,,,,,,,,,,,,87,,,,,,,,,,1,0,1,1,1,1,Go to friday night bingo with my partner and winning the jackpot,Collect rocks as I walk along the park on a beautiful cloudy day,0.02,0.03,4.4,0,0.02,1.3121,,,,
,,665629a30c7e3f40e8f3d1d5,6685aa9113c938e83b4f1ea0,672d0355d5816a0516c551ea,2024-11-07_11h14.08.941,WTP_SM_Choice,2022.2.1,Win32,59.52380952,,,,,,,,,,,,,,,,,,88,,,,,,,,,,1,0,2,2,2,1,Go to the thrift store with my friends and searching for treasures,Go to my favorite coffee shop to enjoy the ambiance and a large chai latte,0.03,0.03,1.1,0,0.03,2.1007,,,,
,,665629a30c7e3f40e8f3d1d5,6685aa9113c938e83b4f1ea0,672d0355d5816a0516c551ea,2024-11-07_11h14.08.941,WTP_SM_Choice,2022.2.1,Win32,59.52380952,,,,,,,,,,,,,,,,,,89,,,,,,,,,,2,0,3,3,3,1,Cuddling with my cats while making a pot of PG Tips Tea to sip on,Hike in the mountains with my best friends and seeing the trees all change colors in the Fall,0.04,0.03,3.3,1,0.03,1.4471,,,,
,,665629a30c7e3f40e8f3d1d5,6685aa9113c938e83b4f1ea0,672d0355d5816a0516c551ea,2024-11-07_11h14.08.941,WTP_SM_Choice,2022.2.1,Win32,59.52380952,,,,,,,,,,,,,,,,,,90,,,,,,,,,,2,0,4,4,4,1,Go to my favorite coffee shop to enjoy the ambiance and a large chai latte,Go on road trips with my friend back home to visit the people I grew up with,0.05,0.03,8.8,1,0.03,1.548,,,,
,,665629a30c7e3f40e8f3d1d5,6685aa9113c938e83b4f1ea0,672d0355d5816a0516c551ea,2024-11-07_11h14.08.941,WTP_SM_Choice,2022.2.1,Win32,59.52380952,,,,,,,NAN,,NAN,1.95,4.05,,0,89,89,89,1,90,Riley,Acc,Participant_Images/665629a30c7e3f40e8f3d1d5/665629a30c7e3f40e8f3d1d5_Images/665629a30c7e3f40e8f3d1d5_Image_14.jpeg,liked,1.661473164,,,,,,,,,,,,,,,,,,,,,,
,,665629a30c7e3f40e8f3d1d5,6685aa9113c938e83b4f1ea0,672d0355d5816a0516c551ea,2024-11-07_11h14.08.941,WTP_SM_Choice,2022.2.1,Win32,59.52380952,,,,,space,0.3571,NAN,,NAN,1.95,4.05,,0,90,90,90,1,91,Riley,Acc,Participant_Images/665629a30c7e3f40e8f3d1d5/665629a30c7e3f40e8f3d1d5_Images/665629a30c7e3f40e8f3d1d5_Image_11.jpeg,liked,3.613205605,,,,,,,,,,,,,,,,,,,,,,
,,665629a30c7e3f40e8f3d1d5,6685aa9113c938e83b4f1ea0,672d0355d5816a0516c551ea,2024-11-07_11h14.08.941,WTP_SM_Choice,2022.2.1,Win32,59.52380952,,,,,space,0.3702,NAN,,NAN,1.95,4.05,,0,91,91,91,1,92,Riley,Acc,Participant_Images/665629a30c7e3f40e8f3d1d5/665629a30c7e3f40e8f3d1d5_Images/665629a30c7e3f40e8f3d1d5_Image_15.jpeg,liked,4.988446431,,,,,,,,,,,,,,,,,,,,,,
,,665629a30c7e3f40e8f3d1d5,6685aa9113c938e83b4f1ea0,672d0355d5816a0516c551ea,2024-11-07_11h14.08.941,WTP_SM_Choice,2022.2.1,Win32,59.52380952,,,,,space,0.3812,NAN,,NAN,1.95,4.05,,0,92,92,92,1,93,Riley,Acc,Participant_Images/665629a30c7e3f40e8f3d1d5/665629a30c7e3f40e8f3d1d5_Images/665629a30c7e3f40e8f3d1d5_Image_3.jpeg,did not like,3.470791822,,,,,,,,,,,,,,,,,,,,,,
,,665629a30c7e3f40e8f3d1d5,6685aa9113c938e83b4f1ea0,672d0355d5816a0516c551ea,2024-11-07_11h14.08.941,WTP_SM_Choice,2022.2.1,Win32,59.52380952,,,,,space,0.4172,NAN,,NAN,1.95,4.05,,0,93,93,93,1,94,Riley,Acc,Participant_Images/665629a30c7e3f40e8f3d1d5/665629a30c7e3f40e8f3d1d5_Images/665629a30c7e3f40e8f3d1d5_Image_4.jpeg,liked,3.820572462,,,,,,,,,,,,,,,,,,,,,,
,,665629a30c7e3f40e8f3d1d5,6685aa9113c938e83b4f1ea0,672d0355d5816a0516c551ea,2024-11-07_11h14.08.941,WTP_SM_Choice,2022.2.1,Win32,59.52380952,,,,,,,,,,,,,,,,,,91,,,,,,space,0.4378,space,0.634,1,0,0,0,0,1,Read my favorite book in bed under comfy blankets,Have a breakfast date with my partner at our favorite coffee shop downtown,0.01,0.04,3.3,1,0.01,1.4096,,,,
,,665629a30c7e3f40e8f3d1d5,6685aa9113c938e83b4f1ea0,672d0355d5816a0516c551ea,2024-11-07_11h14.08.941,WTP_SM_Choice,2022.2.1,Win32,59.52380952,,,,,,,,,,,,,,,,,,92,,,,,,,,,,1,0,1,1,1,1,Go on road trips with my friend back home to visit the people I grew up with,Learn a new craft as I watch youtube videos of cats and baby animals,0.02,0.04,8.8,0,0.02,1.1205,,,,
,,665629a30c7e3f40e8f3d1d5,6685aa9113c938e83b4f1ea0,672d0355d5816a0516c551ea,2024-11-07_11h14.08.941,WTP_SM_Choice,2022.2.1,Win32,59.52380952,,,,,,,,,,,,,,,,,,93,,,,,,,,,,1,0,2,2,2,1,Practice piano in the living room with the fireplace glowing in the background,Try to meet someone new and make a friend over coffee and brunch,0.03,0.04,1.1,1,0.03,2.9961,,,,
,,665629a30c7e3f40e8f3d1d5,6685aa9113c938e83b4f1ea0,672d0355d5816a0516c551ea,2024-11-07_11h14.08.941,WTP_SM_Choice,2022.2.1,Win32,59.52380952,,,,,,,,,,,,,,,,,,94,,,,,,,,,,2,0,3,3,3,1,Practice piano in the living room with the fireplace glowing in the background,Go to friday night bingo with my partner and winning the jackpot,0.04,0.04,4.4,1,0.04,3.2117,,,,
,,665629a30c7e3f40e8f3d1d5,6685aa9113c938e83b4f1ea0,672d0355d5816a0516c551ea,2024-11-07_11h14.08.941,WTP_SM_Choice,2022.2.1,Win32,59.52380952,,,,,,,,,,,,,,,,,,95,,,,,,,,,,1,0,4,4,4,1,Go to friday night bingo with my partner and winning the jackpot,Meditate while laying in my bed listening to the guided sounds of nature and serenity,0.05,0.04,4.4,0,0.05,2.187,,,,
,,665629a30c7e3f40e8f3d1d5,6685aa9113c938e83b4f1ea0,672d0355d5816a0516c551ea,2024-11-07_11h14.08.941,WTP_SM_Choice,2022.2.1,Win32,59.52380952,,,,,,,NAN,,NAN,2.1,3.9,,0,94,94,94,1,95,Riley,Acc,Participant_Images/665629a30c7e3f40e8f3d1d5/665629a30c7e3f40e8f3d1d5_Images/665629a30c7e3f40e8f3d1d5_Image_24.jpeg,liked,2.455989137,,,,,,,,,,,,,,,,,,,,,,
,,665629a30c7e3f40e8f3d1d5,6685aa9113c938e83b4f1ea0,672d0355d5816a0516c551ea,2024-11-07_11h14.08.941,WTP_SM_Choice,2022.2.1,Win32,59.52380952,,,,,space,0.2696,NAN,,NAN,2.1,3.9,,0,95,95,95,1,96,Riley,Acc,Participant_Images/665629a30c7e3f40e8f3d1d5/665629a30c7e3f40e8f3d1d5_Images/665629a30c7e3f40e8f3d1d5_Image_25.jpeg,liked,3.79605092,,,,,,,,,,,,,,,,,,,,,,
,,665629a30c7e3f40e8f3d1d5,6685aa9113c938e83b4f1ea0,672d0355d5816a0516c551ea,2024-11-07_11h14.08.941,WTP_SM_Choice,2022.2.1,Win32,59.52380952,,,,,space,0.4669,NAN,,NAN,2.1,3.9,,0,96,96,96,1,97,Riley,Acc,Participant_Images/665629a30c7e3f40e8f3d1d5/665629a30c7e3f40e8f3d1d5_Images/665629a30c7e3f40e8f3d1d5_Image_5.jpeg,liked,3.562416326,,,,,,,,,,,,,,,,,,,,,,
,,665629a30c7e3f40e8f3d1d5,6685aa9113c938e83b4f1ea0,672d0355d5816a0516c551ea,2024-11-07_11h14.08.941,WTP_SM_Choice,2022.2.1,Win32,59.52380952,,,,,space,0.3832,NAN,,NAN,2.1,3.9,,0,97,97,97,1,98,Riley,Acc,Participant_Images/665629a30c7e3f40e8f3d1d5/665629a30c7e3f40e8f3d1d5_Images/665629a30c7e3f40e8f3d1d5_Image_2.jpeg,liked,2.843822497,,,,,,,,,,,,,,,,,,,,,,
,,665629a30c7e3f40e8f3d1d5,6685aa9113c938e83b4f1ea0,672d0355d5816a0516c551ea,2024-11-07_11h14.08.941,WTP_SM_Choice,2022.2.1,Win32,59.52380952,,,,,space,0.3673,NAN,,NAN,2.1,3.9,,0,98,98,98,1,99,Riley,Acc,Participant_Images/665629a30c7e3f40e8f3d1d5/665629a30c7e3f40e8f3d1d5_Images/665629a30c7e3f40e8f3d1d5_Image_23.jpeg,liked,3.546495948,,,,,,,,,,,,,,,,,,,,,,
,,665629a30c7e3f40e8f3d1d5,6685aa9113c938e83b4f1ea0,672d0355d5816a0516c551ea,2024-11-07_11h14.08.941,WTP_SM_Choice,2022.2.1,Win32,59.52380952,,,,,,,,,,,,,,,,,,96,,,,,,space,1.1402,space,0.5502,1,0,0,0,0,1,Volunteer at the elementary school and helping children learn,Cuddling with my cats while making a pot of PG Tips Tea to sip on,0.01,0.05,3.3,0,0.01,1.2539,,,,
,,665629a30c7e3f40e8f3d1d5,6685aa9113c938e83b4f1ea0,672d0355d5816a0516c551ea,2024-11-07_11h14.08.941,WTP_SM_Choice,2022.2.1,Win32,59.52380952,,,,,,,,,,,,,,,,,,97,,,,,,,,,,1,0,1,1,1,1,Make a trip to target to look for new favorite squishmallows to cuddle with,Volunteer at the elementary school and helping children learn,0.02,0.05,1.1,1,0.02,1.3154,,,,
,,665629a30c7e3f40e8f3d1d5,6685aa9113c938e83b4f1ea0,672d0355d5816a0516c551ea,2024-11-07_11h14.08.941,WTP_SM_Choice,2022.2.1,Win32,59.52380952,,,,,,,,,,,,,,,,,,98,,,,,,,,,,1,0,2,2,2,1,Cuddling with my cats while making a pot of PG Tips Tea to sip on,Go to the thrift store with my friends and searching for treasures,0.03,0.05,1.1,1,0.03,1.5977,,,,
,,665629a30c7e3f40e8f3d1d5,6685aa9113c938e83b4f1ea0,672d0355d5816a0516c551ea,2024-11-07_11h14.08.941,WTP_SM_Choice,2022.2.1,Win32,59.52380952,,,,,,,,,,,,,,,,,,99,,,,,,,,,,1,0,3,3,3,1,Hike in the mountains with my best friends and seeing the trees all change colors in the Fall,Watch Bob Ross paint happy little trees,0.04,0.05,3.3,0,0.04,1.385,,,,
,,665629a30c7e3f40e8f3d1d5,6685aa9113c938e83b4f1ea0,672d0355d5816a0516c551ea,2024-11-07_11h14.08.941,WTP_SM_Choice,2022.2.1,Win32,59.52380952,,,,,,,,,,,,,,,,,,100,,,,,,,,,,2,0,4,4,4,1,Collect rocks as I walk along the park on a beautiful cloudy day,Go to the movies with the family and relaxing in the heated reclining chairs,0.05,0.05,4.4,1,0.05,2.6477,,,,
,,665629a30c7e3f40e8f3d1d5,6685aa9113c938e83b4f1ea0,672d0355d5816a0516c551ea,2024-11-07_11h14.08.941,WTP_SM_Choice,2022.2.1,Win32,59.52380952,,,,,,,5,,2,2.25,3.75,,0,99,99,99,1,100,Riley,Acc,Participant_Images/665629a30c7e3f40e8f3d1d5/665629a30c7e3f40e8f3d1d5_Images/665629a30c7e3f40e8f3d1d5_Image_17.jpeg,liked,1.672012706,,,,,,,,,,,,,,,,,,,space,0.8366,,
,,665629a30c7e3f40e8f3d1d5,6685aa9113c938e83b4f1ea0,672d0355d5816a0516c551ea,2024-11-07_11h14.08.941,WTP_SM_Choice,2022.2.1,Win32,59.52380952,,,,,,,,,,,,,,,,,,,,,,,,,,,,,,,,,,,,,,,,,,,,space,2.9328
