endwelcomescreen_keys.keys,endwelcomescreen_keys.rt,participant,date,expName,psychopyVersion,OS,frameRate,endinstructionscreen_keys.keys,endinstructionscreen_keys.rt,endpartnermatch_keys.keys,endpartnermatch_keys.rt,sharenextphoto_key.keys,sharenextphoto_key.rt,salience_rating,key_resp.keys,stress_level,subtract_bonus,TOTAL_TASK_BONUS,stresslevel_keypress.keys,entiretaskloop.thisRepN,entiretaskloop.thisTrialN,entiretaskloop.thisN,entiretaskloop.thisIndex,entiretaskloop.ran,TrialNumber,Partner,Condition,Photos,Feedback,FeedbackWait,WTP_ins_keys1.keys,WTP_ins_keys1.rt,WTP_ins_keys2.keys,WTP_ins_keys2.rt,decision_price,responses.keys,responses.rt,WTPTaskLoop.thisRepN,WTPTaskLoop.thisTrialN,WTPTaskLoop.thisN,WTPTaskLoop.thisIndex,WTPTaskLoop.ran,right,left,leftmoney,rightmoney,WTP_ITI,Resume_keys.keys,Resume_keys.rt,end_screen_keys.keys,end_screen_keys.rt
space,15.5207,665fc69fe8d5562ac1294f30,2024-07-04_15h06.16.989,WTP_SM_Choice,2022.2.1,MacIntel,108.6956522,,,,,,,,,,,,,,,,,,,,,,,,,,,,,,,,,,,,,,,,,,,,
,,665fc69fe8d5562ac1294f30,2024-07-04_15h06.16.989,WTP_SM_Choice,2022.2.1,MacIntel,108.6956522,space,0.7446,,,,,,,,,,,,,,,,,,,,,,,,,,,,,,,,,,,,,,,,,,
,,665fc69fe8d5562ac1294f30,2024-07-04_15h06.16.989,WTP_SM_Choice,2022.2.1,MacIntel,108.6956522,,,space,11.2499,space,1.1914,NAN,,NAN,0,6,,0,0,0,0,1,1,Alex,Acc,Participant_Images/665fc69fe8d5562ac1294f30/665fc69fe8d5562ac1294f30_Images/665fc69fe8d5562ac1294f30_Image_12.jpeg,did not like,3.613205605,,,,,,,,,,,,,,,,,,,,,
,,665fc69fe8d5562ac1294f30,2024-07-04_15h06.16.989,WTP_SM_Choice,2022.2.1,MacIntel,108.6956522,,,,,space,1.491,NAN,,NAN,0,6,,0,1,1,1,1,2,Alex,Acc,Participant_Images/665fc69fe8d5562ac1294f30/665fc69fe8d5562ac1294f30_Images/665fc69fe8d5562ac1294f30_Image_5.jpeg,liked,4.988446431,,,,,,,,,,,,,,,,,,,,,
,,665fc69fe8d5562ac1294f30,2024-07-04_15h06.16.989,WTP_SM_Choice,2022.2.1,MacIntel,108.6956522,,,,,space,1.3915,NAN,,NAN,0,6,,0,2,2,2,1,3,Alex,Acc,Participant_Images/665fc69fe8d5562ac1294f30/665fc69fe8d5562ac1294f30_Images/665fc69fe8d5562ac1294f30_Image_17.jpeg,did not like,3.470791822,,,,,,,,,,,,,,,,,,,,,
,,665fc69fe8d5562ac1294f30,2024-07-04_15h06.16.989,WTP_SM_Choice,2022.2.1,MacIntel,108.6956522,,,,,space,1.4264,NAN,,NAN,0,6,,0,3,3,3,1,4,Alex,Acc,Participant_Images/665fc69fe8d5562ac1294f30/665fc69fe8d5562ac1294f30_Images/665fc69fe8d5562ac1294f30_Image_16.jpeg,liked,3.820572462,,,,,,,,,,,,,,,,,,,,,
,,665fc69fe8d5562ac1294f30,2024-07-04_15h06.16.989,WTP_SM_Choice,2022.2.1,MacIntel,108.6956522,,,,,,,,,,,,,,,,,,1,,,,,,space,4.1698,space,3.0576,0.01,1,3.483,0,0,0,0,1,work on fixing my moped,eat fancy dinners with my girlfriend,0.01,0.01,4.4,,,,
,,665fc69fe8d5562ac1294f30,2024-07-04_15h06.16.989,WTP_SM_Choice,2022.2.1,MacIntel,108.6956522,,,,,,,,,,,,,,,,,,2,,,,,,,,,,0.01,2,1.3603,0,1,1,1,1,go on long walks by the train tracks,dance with my brother and his friends,0.02,0.01,8.8,,,,
,,665fc69fe8d5562ac1294f30,2024-07-04_15h06.16.989,WTP_SM_Choice,2022.2.1,MacIntel,108.6956522,,,,,,,,,,,,,,,,,,3,,,,,,,,,,0.01,2,1.4306,0,2,2,2,1,blast and danc to music with my dog,dance with my brother and his friends,0.03,0.01,3.3,,,,
,,665fc69fe8d5562ac1294f30,2024-07-04_15h06.16.989,WTP_SM_Choice,2022.2.1,MacIntel,108.6956522,,,,,,,,,,,,,,,,,,4,,,,,,,,,,0.01,2,1.4465,0,3,3,3,1,go on long walks by the train tracks,travel to other countries with friends,0.04,0.01,1.1,,,,
,,665fc69fe8d5562ac1294f30,2024-07-04_15h06.16.989,WTP_SM_Choice,2022.2.1,MacIntel,108.6956522,,,,,,,,,,,,,,,,,,5,,,,,,,,,,0.01,2,1.9885,0,4,4,4,1,go on long walks by the train tracks,cuddle on the couch with my girlfriend,0.05,0.01,1.1,,,,
,,665fc69fe8d5562ac1294f30,2024-07-04_15h06.16.989,WTP_SM_Choice,2022.2.1,MacIntel,108.6956522,,,,,,,NAN,,NAN,0.05,5.95,,0,4,4,4,1,5,Alex,Acc,Participant_Images/665fc69fe8d5562ac1294f30/665fc69fe8d5562ac1294f30_Images/665fc69fe8d5562ac1294f30_Image_14.jpeg,liked,2.455989137,,,,,,,,,,,,,,,,,,,,,
,,665fc69fe8d5562ac1294f30,2024-07-04_15h06.16.989,WTP_SM_Choice,2022.2.1,MacIntel,108.6956522,,,,,space,4.3224,NAN,,NAN,0.05,5.95,,0,5,5,5,1,6,Alex,Acc,Participant_Images/665fc69fe8d5562ac1294f30/665fc69fe8d5562ac1294f30_Images/665fc69fe8d5562ac1294f30_Image_25.jpeg,liked,3.79605092,,,,,,,,,,,,,,,,,,,,,
,,665fc69fe8d5562ac1294f30,2024-07-04_15h06.16.989,WTP_SM_Choice,2022.2.1,MacIntel,108.6956522,,,,,space,3.1927,NAN,,NAN,0.05,5.95,,0,6,6,6,1,7,Alex,Acc,Participant_Images/665fc69fe8d5562ac1294f30/665fc69fe8d5562ac1294f30_Images/665fc69fe8d5562ac1294f30_Image_22.jpeg,did not like,3.562416326,,,,,,,,,,,,,,,,,,,,,
,,665fc69fe8d5562ac1294f30,2024-07-04_15h06.16.989,WTP_SM_Choice,2022.2.1,MacIntel,108.6956522,,,,,space,0.6627,NAN,,NAN,0.05,5.95,,0,7,7,7,1,8,Alex,Acc,Participant_Images/665fc69fe8d5562ac1294f30/665fc69fe8d5562ac1294f30_Images/665fc69fe8d5562ac1294f30_Image_20.jpeg,liked,2.843822497,,,,,,,,,,,,,,,,,,,,,
,,665fc69fe8d5562ac1294f30,2024-07-04_15h06.16.989,WTP_SM_Choice,2022.2.1,MacIntel,108.6956522,,,,,space,1.8159,NAN,,NAN,0.05,5.95,,0,8,8,8,1,9,Alex,Acc,Participant_Images/665fc69fe8d5562ac1294f30/665fc69fe8d5562ac1294f30_Images/665fc69fe8d5562ac1294f30_Image_11.jpeg,liked,3.546495948,,,,,,,,,,,,,,,,,,,,,
,,665fc69fe8d5562ac1294f30,2024-07-04_15h06.16.989,WTP_SM_Choice,2022.2.1,MacIntel,108.6956522,,,,,,,,,,,,,,,,,,6,,,,,,space,1.1376,space,5.5899,0.01,1,1.157,0,0,0,0,1,take my dog to the park to play fetch,play kickball with my co-workers,0.01,0.02,3.3,,,,
,,665fc69fe8d5562ac1294f30,2024-07-04_15h06.16.989,WTP_SM_Choice,2022.2.1,MacIntel,108.6956522,,,,,,,,,,,,,,,,,,7,,,,,,,,,,0.02,2,2.1476,0,1,1,1,1,shoot basketball free throws,dance with my brother and his friends,0.02,0.02,1.1,,,,
,,665fc69fe8d5562ac1294f30,2024-07-04_15h06.16.989,WTP_SM_Choice,2022.2.1,MacIntel,108.6956522,,,,,,,,,,,,,,,,,,8,,,,,,,,,,0.02,2,2.7942,0,2,2,2,1,re-organize my closet and throw out or donate old things,cuddle on the couch with my girlfriend,0.03,0.02,1.1,,,,
,,665fc69fe8d5562ac1294f30,2024-07-04_15h06.16.989,WTP_SM_Choice,2022.2.1,MacIntel,108.6956522,,,,,,,,,,,,,,,,,,9,,,,,,,,,,0.02,2,1.8194,0,3,3,3,1,eat ice cream in my back yard on a hot day,dance with my brother and his friends,0.04,0.02,4.4,,,,
,,665fc69fe8d5562ac1294f30,2024-07-04_15h06.16.989,WTP_SM_Choice,2022.2.1,MacIntel,108.6956522,,,,,,,,,,,,,,,,,,10,,,,,,,,,,0.02,2,1.9823,0,4,4,4,1,Browse old vintage tee shirts at the thrift store,cuddle on the couch with my girlfriend,0.05,0.02,1.1,,,,
,,665fc69fe8d5562ac1294f30,2024-07-04_15h06.16.989,WTP_SM_Choice,2022.2.1,MacIntel,108.6956522,,,,,,,NAN,,NAN,0.14,5.86,,0,9,9,9,1,10,Alex,Acc,Participant_Images/665fc69fe8d5562ac1294f30/665fc69fe8d5562ac1294f30_Images/665fc69fe8d5562ac1294f30_Image_7.jpeg,liked,1.672012706,,,,,,,,,,,,,,,,,,,,,
,,665fc69fe8d5562ac1294f30,2024-07-04_15h06.16.989,WTP_SM_Choice,2022.2.1,MacIntel,108.6956522,,,,,space,36.7916,NAN,,NAN,0.14,5.86,,0,10,10,10,1,11,Alex,Acc,Participant_Images/665fc69fe8d5562ac1294f30/665fc69fe8d5562ac1294f30_Images/665fc69fe8d5562ac1294f30_Image_24.jpeg,liked,4.942172136,,,,,,,,,,,,,,,,,,,,,
,,665fc69fe8d5562ac1294f30,2024-07-04_15h06.16.989,WTP_SM_Choice,2022.2.1,MacIntel,108.6956522,,,,,space,4.8499,NAN,,NAN,0.14,5.86,,0,11,11,11,1,12,Alex,Acc,Participant_Images/665fc69fe8d5562ac1294f30/665fc69fe8d5562ac1294f30_Images/665fc69fe8d5562ac1294f30_Image_13.jpeg,liked,2.50187214,,,,,,,,,,,,,,,,,,,,,
,,665fc69fe8d5562ac1294f30,2024-07-04_15h06.16.989,WTP_SM_Choice,2022.2.1,MacIntel,108.6956522,,,,,space,1.2087,NAN,,NAN,0.14,5.86,,0,12,12,12,1,13,Alex,Acc,Participant_Images/665fc69fe8d5562ac1294f30/665fc69fe8d5562ac1294f30_Images/665fc69fe8d5562ac1294f30_Image_10.jpeg,liked,2.071164779,,,,,,,,,,,,,,,,,,,,,
,,665fc69fe8d5562ac1294f30,2024-07-04_15h06.16.989,WTP_SM_Choice,2022.2.1,MacIntel,108.6956522,,,,,space,2.6269,NAN,,NAN,0.14,5.86,,0,13,13,13,1,14,Alex,Acc,Participant_Images/665fc69fe8d5562ac1294f30/665fc69fe8d5562ac1294f30_Images/665fc69fe8d5562ac1294f30_Image_19.jpeg,did not like,5.336503566,,,,,,,,,,,,,,,,,,,,,
,,665fc69fe8d5562ac1294f30,2024-07-04_15h06.16.989,WTP_SM_Choice,2022.2.1,MacIntel,108.6956522,,,,,,,,,,,,,,,,,,11,,,,,,space,1.5876,space,2.6517,0.01,1,1.8015,0,0,0,0,1,eat ice cream in my back yard on a hot day,help my friend out with yard work or moving,0.01,0.03,3.3,,,,
,,665fc69fe8d5562ac1294f30,2024-07-04_15h06.16.989,WTP_SM_Choice,2022.2.1,MacIntel,108.6956522,,,,,,,,,,,,,,,,,,12,,,,,,,,,,0.02,1,2.6768,0,1,1,1,1,eat ice cream in my back yard on a hot day,eat fancy dinners with my girlfriend,0.02,0.03,4.4,,,,
,,665fc69fe8d5562ac1294f30,2024-07-04_15h06.16.989,WTP_SM_Choice,2022.2.1,MacIntel,108.6956522,,,,,,,,,,,,,,,,,,13,,,,,,,,,,0.03,2,5.0818,0,2,2,2,1,eat ice cream in my back yard on a hot day,play kickball with my co-workers,0.03,0.03,1.1,,,,
,,665fc69fe8d5562ac1294f30,2024-07-04_15h06.16.989,WTP_SM_Choice,2022.2.1,MacIntel,108.6956522,,,,,,,,,,,,,,,,,,14,,,,,,,,,,0.03,2,3.6456,0,3,3,3,1,shoot basketball free throws,help my friend out with yard work or moving,0.04,0.03,3.3,,,,
,,665fc69fe8d5562ac1294f30,2024-07-04_15h06.16.989,WTP_SM_Choice,2022.2.1,MacIntel,108.6956522,,,,,,,,,,,,,,,,,,15,,,,,,,,,,0.03,2,4.3897,0,4,4,4,1,shoot basketball free throws,play kickball with my co-workers,0.05,0.03,4.4,,,,
,,665fc69fe8d5562ac1294f30,2024-07-04_15h06.16.989,WTP_SM_Choice,2022.2.1,MacIntel,108.6956522,,,,,,,NAN,,NAN,0.26,5.74,,0,14,14,14,1,15,Alex,Acc,Participant_Images/665fc69fe8d5562ac1294f30/665fc69fe8d5562ac1294f30_Images/665fc69fe8d5562ac1294f30_Image_1.jpeg,liked,2.642157193,,,,,,,,,,,,,,,,,,,,,
,,665fc69fe8d5562ac1294f30,2024-07-04_15h06.16.989,WTP_SM_Choice,2022.2.1,MacIntel,108.6956522,,,,,space,9.5718,NAN,,NAN,0.26,5.74,,0,15,15,15,1,16,Alex,Acc,Participant_Images/665fc69fe8d5562ac1294f30/665fc69fe8d5562ac1294f30_Images/665fc69fe8d5562ac1294f30_Image_3.jpeg,liked,4.456234322,,,,,,,,,,,,,,,,,,,,,
,,665fc69fe8d5562ac1294f30,2024-07-04_15h06.16.989,WTP_SM_Choice,2022.2.1,MacIntel,108.6956522,,,,,space,8.4677,NAN,,NAN,0.26,5.74,,0,16,16,16,1,17,Alex,Acc,Participant_Images/665fc69fe8d5562ac1294f30/665fc69fe8d5562ac1294f30_Images/665fc69fe8d5562ac1294f30_Image_6.jpeg,did not like,4.438512181,,,,,,,,,,,,,,,,,,,,,
,,665fc69fe8d5562ac1294f30,2024-07-04_15h06.16.989,WTP_SM_Choice,2022.2.1,MacIntel,108.6956522,,,,,space,2.1174,NAN,,NAN,0.26,5.74,,0,17,17,17,1,18,Alex,Acc,Participant_Images/665fc69fe8d5562ac1294f30/665fc69fe8d5562ac1294f30_Images/665fc69fe8d5562ac1294f30_Image_4.jpeg,did not like,2.682944783,,,,,,,,,,,,,,,,,,,,,
,,665fc69fe8d5562ac1294f30,2024-07-04_15h06.16.989,WTP_SM_Choice,2022.2.1,MacIntel,108.6956522,,,,,space,1.56,NAN,,NAN,0.26,5.74,,0,18,18,18,1,19,Alex,Acc,Participant_Images/665fc69fe8d5562ac1294f30/665fc69fe8d5562ac1294f30_Images/665fc69fe8d5562ac1294f30_Image_23.jpeg,liked,4.51984296,,,,,,,,,,,,,,,,,,,,,
,,665fc69fe8d5562ac1294f30,2024-07-04_15h06.16.989,WTP_SM_Choice,2022.2.1,MacIntel,108.6956522,,,,,,,,,,,,,,,,,,16,,,,,,space,4.2531,space,4.8309,0.01,1,2.6873,0,0,0,0,1,deep clean my apartment with all the windows open,cuddle on the couch with my girlfriend,0.01,0.04,1.1,,,,
,,665fc69fe8d5562ac1294f30,2024-07-04_15h06.16.989,WTP_SM_Choice,2022.2.1,MacIntel,108.6956522,,,,,,,,,,,,,,,,,,17,,,,,,,,,,0.02,1,1.3322,0,1,1,1,1,blast and danc to music with my dog,travel to other countries with friends,0.02,0.04,8.8,,,,
,,665fc69fe8d5562ac1294f30,2024-07-04_15h06.16.989,WTP_SM_Choice,2022.2.1,MacIntel,108.6956522,,,,,,,,,,,,,,,,,,18,,,,,,,,,,0.03,1,7.0974,0,2,2,2,1,shoot basketball free throws,travel to other countries with friends,0.03,0.04,3.3,,,,
,,665fc69fe8d5562ac1294f30,2024-07-04_15h06.16.989,WTP_SM_Choice,2022.2.1,MacIntel,108.6956522,,,,,,,,,,,,,,,,,,19,,,,,,,,,,0.04,2,5.132,0,3,3,3,1,eat ice cream in my back yard on a hot day,go hiking with friends,0.04,0.04,3.3,,,,
,,665fc69fe8d5562ac1294f30,2024-07-04_15h06.16.989,WTP_SM_Choice,2022.2.1,MacIntel,108.6956522,,,,,,,,,,,,,,,,,,20,,,,,,,,,,0.04,2,4.2687,0,4,4,4,1,go on long walks by the train tracks,play kickball with my co-workers,0.05,0.04,1.1,,,,
,,665fc69fe8d5562ac1294f30,2024-07-04_15h06.16.989,WTP_SM_Choice,2022.2.1,MacIntel,108.6956522,,,,,,,NAN,,NAN,0.4,5.6,,0,19,19,19,1,20,Alex,Acc,Participant_Images/665fc69fe8d5562ac1294f30/665fc69fe8d5562ac1294f30_Images/665fc69fe8d5562ac1294f30_Image_18.jpeg,liked,3.195382774,,,,,,,,,,,,,,,,,,,,,
,,665fc69fe8d5562ac1294f30,2024-07-04_15h06.16.989,WTP_SM_Choice,2022.2.1,MacIntel,108.6956522,,,,,space,1.9579,NAN,,NAN,0.4,5.6,,0,20,20,20,1,21,Alex,Acc,Participant_Images/665fc69fe8d5562ac1294f30/665fc69fe8d5562ac1294f30_Images/665fc69fe8d5562ac1294f30_Image_2.jpeg,liked,1.779333479,,,,,,,,,,,,,,,,,,,,,
,,665fc69fe8d5562ac1294f30,2024-07-04_15h06.16.989,WTP_SM_Choice,2022.2.1,MacIntel,108.6956522,,,,,space,2.6422,NAN,,NAN,0.4,5.6,,0,21,21,21,1,22,Alex,Acc,Participant_Images/665fc69fe8d5562ac1294f30/665fc69fe8d5562ac1294f30_Images/665fc69fe8d5562ac1294f30_Image_21.jpeg,liked,4.312468682,,,,,,,,,,,,,,,,,,,,,
,,665fc69fe8d5562ac1294f30,2024-07-04_15h06.16.989,WTP_SM_Choice,2022.2.1,MacIntel,108.6956522,,,,,space,1.2181,NAN,,NAN,0.4,5.6,,0,22,22,22,1,23,Alex,Acc,Participant_Images/665fc69fe8d5562ac1294f30/665fc69fe8d5562ac1294f30_Images/665fc69fe8d5562ac1294f30_Image_8.jpeg,liked,4.940433059,,,,,,,,,,,,,,,,,,,,,
,,665fc69fe8d5562ac1294f30,2024-07-04_15h06.16.989,WTP_SM_Choice,2022.2.1,MacIntel,108.6956522,,,,,space,1.6274,NAN,,NAN,0.4,5.6,,0,23,23,23,1,24,Alex,Acc,Participant_Images/665fc69fe8d5562ac1294f30/665fc69fe8d5562ac1294f30_Images/665fc69fe8d5562ac1294f30_Image_9.jpeg,liked,2.7105123,,,,,,,,,,,,,,,,,,,,,
,,665fc69fe8d5562ac1294f30,2024-07-04_15h06.16.989,WTP_SM_Choice,2022.2.1,MacIntel,108.6956522,,,,,,,,,,,,,,,,,,21,,,,,,space,12.3999,space,1.2014,0.01,1,1.063,0,0,0,0,1,shoot basketball free throws,cook out with my family,0.01,0.05,8.8,,,,
,,665fc69fe8d5562ac1294f30,2024-07-04_15h06.16.989,WTP_SM_Choice,2022.2.1,MacIntel,108.6956522,,,,,,,,,,,,,,,,,,22,,,,,,,,,,0.02,1,6.0525,0,1,1,1,1,take my dog to the park to play fetch,help my friend out with yard work or moving,0.02,0.05,4.4,,,,
,,665fc69fe8d5562ac1294f30,2024-07-04_15h06.16.989,WTP_SM_Choice,2022.2.1,MacIntel,108.6956522,,,,,,,,,,,,,,,,,,23,,,,,,,,,,0.03,1,4.177,0,2,2,2,1,blast and danc to music with my dog,go hiking with friends,0.03,0.05,1.1,,,,
,,665fc69fe8d5562ac1294f30,2024-07-04_15h06.16.989,WTP_SM_Choice,2022.2.1,MacIntel,108.6956522,,,,,,,,,,,,,,,,,,24,,,,,,,,,,0.04,1,2.0696,0,3,3,3,1,find new recipes and cook them ,go hiking with friends,0.04,0.05,4.4,,,,
,,665fc69fe8d5562ac1294f30,2024-07-04_15h06.16.989,WTP_SM_Choice,2022.2.1,MacIntel,108.6956522,,,,,,,,,,,,,,,,,,25,,,,,,,,,,0.05,2,6.2454,0,4,4,4,1,go on long walks by the train tracks,cook out with my family,0.05,0.05,3.3,,,,
,,665fc69fe8d5562ac1294f30,2024-07-04_15h06.16.989,WTP_SM_Choice,2022.2.1,MacIntel,108.6956522,,,,,,,4,,7,0.55,5.45,,0,24,24,24,1,25,Alex,Acc,Participant_Images/665fc69fe8d5562ac1294f30/665fc69fe8d5562ac1294f30_Images/665fc69fe8d5562ac1294f30_Image_15.jpeg,did not like,3.602308302,,,,,,,,,,,,,,,,,,space,4.9507,,
,,665fc69fe8d5562ac1294f30,2024-07-04_15h06.16.989,WTP_SM_Choice,2022.2.1,MacIntel,108.6956522,,,space,3.0009,space,3.9615,NAN,,NAN,0.55,5.45,,0,25,25,25,1,26,Riley,Rej,Participant_Images/665fc69fe8d5562ac1294f30/665fc69fe8d5562ac1294f30_Images/665fc69fe8d5562ac1294f30_Image_20.jpeg,did not like,4.106391878,,,,,,,,,,,,,,,,,,,,,
,,665fc69fe8d5562ac1294f30,2024-07-04_15h06.16.989,WTP_SM_Choice,2022.2.1,MacIntel,108.6956522,,,,,space,1.3688,NAN,,NAN,0.55,5.45,,0,26,26,26,1,27,Riley,Rej,Participant_Images/665fc69fe8d5562ac1294f30/665fc69fe8d5562ac1294f30_Images/665fc69fe8d5562ac1294f30_Image_4.jpeg,did not like,3.799433026,,,,,,,,,,,,,,,,,,,,,
,,665fc69fe8d5562ac1294f30,2024-07-04_15h06.16.989,WTP_SM_Choice,2022.2.1,MacIntel,108.6956522,,,,,space,1.2028,NAN,,NAN,0.55,5.45,,0,27,27,27,1,28,Riley,Rej,Participant_Images/665fc69fe8d5562ac1294f30/665fc69fe8d5562ac1294f30_Images/665fc69fe8d5562ac1294f30_Image_12.jpeg,liked,5.246980764,,,,,,,,,,,,,,,,,,,,,
,,665fc69fe8d5562ac1294f30,2024-07-04_15h06.16.989,WTP_SM_Choice,2022.2.1,MacIntel,108.6956522,,,,,space,1.238,NAN,,NAN,0.55,5.45,,0,28,28,28,1,29,Riley,Rej,Participant_Images/665fc69fe8d5562ac1294f30/665fc69fe8d5562ac1294f30_Images/665fc69fe8d5562ac1294f30_Image_24.jpeg,did not like,3.30081769,,,,,,,,,,,,,,,,,,,,,
,,665fc69fe8d5562ac1294f30,2024-07-04_15h06.16.989,WTP_SM_Choice,2022.2.1,MacIntel,108.6956522,,,,,,,,,,,,,,,,,,26,,,,,,space,0.8752,space,0.8251,0.01,1,9.1311,0,0,0,0,1,deep clean my apartment with all the windows open,travel to other countries with friends,0.01,0.01,4.4,,,,
,,665fc69fe8d5562ac1294f30,2024-07-04_15h06.16.989,WTP_SM_Choice,2022.2.1,MacIntel,108.6956522,,,,,,,,,,,,,,,,,,27,,,,,,,,,,0.01,2,2.904,0,1,1,1,1,Browse old vintage tee shirts at the thrift store,travel to other countries with friends,0.02,0.01,3.3,,,,
,,665fc69fe8d5562ac1294f30,2024-07-04_15h06.16.989,WTP_SM_Choice,2022.2.1,MacIntel,108.6956522,,,,,,,,,,,,,,,,,,28,,,,,,,,,,0.01,2,1.5173,0,2,2,2,1,blast and danc to music with my dog,help my friend out with yard work or moving,0.03,0.01,3.3,,,,
,,665fc69fe8d5562ac1294f30,2024-07-04_15h06.16.989,WTP_SM_Choice,2022.2.1,MacIntel,108.6956522,,,,,,,,,,,,,,,,,,29,,,,,,,,,,0.01,2,1.6806,0,3,3,3,1,take my dog to the park to play fetch,go to music festivals with my friends,0.04,0.01,4.4,,,,
,,665fc69fe8d5562ac1294f30,2024-07-04_15h06.16.989,WTP_SM_Choice,2022.2.1,MacIntel,108.6956522,,,,,,,,,,,,,,,,,,30,,,,,,,,,,0.01,2,1.3642,0,4,4,4,1,work on fixing my moped,explore downtown with friends,0.05,0.01,8.8,,,,
,,665fc69fe8d5562ac1294f30,2024-07-04_15h06.16.989,WTP_SM_Choice,2022.2.1,MacIntel,108.6956522,,,,,,,NAN,,NAN,0.6,5.4,,0,29,29,29,1,30,Riley,Rej,Participant_Images/665fc69fe8d5562ac1294f30/665fc69fe8d5562ac1294f30_Images/665fc69fe8d5562ac1294f30_Image_18.jpeg,liked,1.661473164,,,,,,,,,,,,,,,,,,,,,
,,665fc69fe8d5562ac1294f30,2024-07-04_15h06.16.989,WTP_SM_Choice,2022.2.1,MacIntel,108.6956522,,,,,space,2.716,NAN,,NAN,0.6,5.4,,0,30,30,30,1,31,Riley,Rej,Participant_Images/665fc69fe8d5562ac1294f30/665fc69fe8d5562ac1294f30_Images/665fc69fe8d5562ac1294f30_Image_23.jpeg,liked,3.613205605,,,,,,,,,,,,,,,,,,,,,
,,665fc69fe8d5562ac1294f30,2024-07-04_15h06.16.989,WTP_SM_Choice,2022.2.1,MacIntel,108.6956522,,,,,space,3.8498,NAN,,NAN,0.6,5.4,,0,31,31,31,1,32,Riley,Rej,Participant_Images/665fc69fe8d5562ac1294f30/665fc69fe8d5562ac1294f30_Images/665fc69fe8d5562ac1294f30_Image_3.jpeg,did not like,4.988446431,,,,,,,,,,,,,,,,,,,,,
,,665fc69fe8d5562ac1294f30,2024-07-04_15h06.16.989,WTP_SM_Choice,2022.2.1,MacIntel,108.6956522,,,,,space,1.6679,NAN,,NAN,0.6,5.4,,0,32,32,32,1,33,Riley,Rej,Participant_Images/665fc69fe8d5562ac1294f30/665fc69fe8d5562ac1294f30_Images/665fc69fe8d5562ac1294f30_Image_13.jpeg,did not like,3.470791822,,,,,,,,,,,,,,,,,,,,,
,,665fc69fe8d5562ac1294f30,2024-07-04_15h06.16.989,WTP_SM_Choice,2022.2.1,MacIntel,108.6956522,,,,,space,6.1682,NAN,,NAN,0.6,5.4,,0,33,33,33,1,34,Riley,Rej,Participant_Images/665fc69fe8d5562ac1294f30/665fc69fe8d5562ac1294f30_Images/665fc69fe8d5562ac1294f30_Image_7.jpeg,liked,3.820572462,,,,,,,,,,,,,,,,,,,,,
,,665fc69fe8d5562ac1294f30,2024-07-04_15h06.16.989,WTP_SM_Choice,2022.2.1,MacIntel,108.6956522,,,,,,,,,,,,,,,,,,31,,,,,,space,3.4143,space,6.3605,0.01,1,5.3794,0,0,0,0,1,Browse old vintage tee shirts at the thrift store,eat fancy dinners with my girlfriend,0.01,0.02,8.8,,,,
,,665fc69fe8d5562ac1294f30,2024-07-04_15h06.16.989,WTP_SM_Choice,2022.2.1,MacIntel,108.6956522,,,,,,,,,,,,,,,,,,32,,,,,,,,,,0.02,1,3.8007,0,1,1,1,1,deep clean my apartment with all the windows open,eat fancy dinners with my girlfriend,0.02,0.02,1.1,,,,
,,665fc69fe8d5562ac1294f30,2024-07-04_15h06.16.989,WTP_SM_Choice,2022.2.1,MacIntel,108.6956522,,,,,,,,,,,,,,,,,,33,,,,,,,,,,0.02,2,2.5502,0,2,2,2,1,eat ice cream in my back yard on a hot day,cook out with my family,0.03,0.02,4.4,,,,
,,665fc69fe8d5562ac1294f30,2024-07-04_15h06.16.989,WTP_SM_Choice,2022.2.1,MacIntel,108.6956522,,,,,,,,,,,,,,,,,,34,,,,,,,,,,0.02,2,7.2271,0,3,3,3,1,Browse old vintage tee shirts at the thrift store,go to music festivals with my friends,0.04,0.02,3.3,,,,
,,665fc69fe8d5562ac1294f30,2024-07-04_15h06.16.989,WTP_SM_Choice,2022.2.1,MacIntel,108.6956522,,,,,,,,,,,,,,,,,,35,,,,,,,,,,0.02,2,2.864,0,4,4,4,1,take my dog to the park to play fetch,dance with my brother and his friends,0.05,0.02,1.1,,,,
,,665fc69fe8d5562ac1294f30,2024-07-04_15h06.16.989,WTP_SM_Choice,2022.2.1,MacIntel,108.6956522,,,,,,,NAN,,NAN,0.69,5.31,,0,34,34,34,1,35,Riley,Rej,Participant_Images/665fc69fe8d5562ac1294f30/665fc69fe8d5562ac1294f30_Images/665fc69fe8d5562ac1294f30_Image_11.jpeg,liked,2.455989137,,,,,,,,,,,,,,,,,,,,,
,,665fc69fe8d5562ac1294f30,2024-07-04_15h06.16.989,WTP_SM_Choice,2022.2.1,MacIntel,108.6956522,,,,,space,4.0479,NAN,,NAN,0.69,5.31,,0,35,35,35,1,36,Riley,Rej,Participant_Images/665fc69fe8d5562ac1294f30/665fc69fe8d5562ac1294f30_Images/665fc69fe8d5562ac1294f30_Image_19.jpeg,did not like,3.79605092,,,,,,,,,,,,,,,,,,,,,
,,665fc69fe8d5562ac1294f30,2024-07-04_15h06.16.989,WTP_SM_Choice,2022.2.1,MacIntel,108.6956522,,,,,space,1.3623,NAN,,NAN,0.69,5.31,,0,36,36,36,1,37,Riley,Rej,Participant_Images/665fc69fe8d5562ac1294f30/665fc69fe8d5562ac1294f30_Images/665fc69fe8d5562ac1294f30_Image_14.jpeg,did not like,3.562416326,,,,,,,,,,,,,,,,,,,,,
,,665fc69fe8d5562ac1294f30,2024-07-04_15h06.16.989,WTP_SM_Choice,2022.2.1,MacIntel,108.6956522,,,,,space,2.5669,NAN,,NAN,0.69,5.31,,0,37,37,37,1,38,Riley,Rej,Participant_Images/665fc69fe8d5562ac1294f30/665fc69fe8d5562ac1294f30_Images/665fc69fe8d5562ac1294f30_Image_17.jpeg,did not like,2.843822497,,,,,,,,,,,,,,,,,,,,,
,,665fc69fe8d5562ac1294f30,2024-07-04_15h06.16.989,WTP_SM_Choice,2022.2.1,MacIntel,108.6956522,,,,,space,1.8853,NAN,,NAN,0.69,5.31,,0,38,38,38,1,39,Riley,Rej,Participant_Images/665fc69fe8d5562ac1294f30/665fc69fe8d5562ac1294f30_Images/665fc69fe8d5562ac1294f30_Image_2.jpeg,did not like,3.546495948,,,,,,,,,,,,,,,,,,,,,
,,665fc69fe8d5562ac1294f30,2024-07-04_15h06.16.989,WTP_SM_Choice,2022.2.1,MacIntel,108.6956522,,,,,,,,,,,,,,,,,,36,,,,,,space,1.0541,space,4.6639,0.01,1,3.176,0,0,0,0,1,re-organize my closet and throw out or donate old things,explore downtown with friends,0.01,0.03,3.3,,,,
,,665fc69fe8d5562ac1294f30,2024-07-04_15h06.16.989,WTP_SM_Choice,2022.2.1,MacIntel,108.6956522,,,,,,,,,,,,,,,,,,37,,,,,,,,,,0.02,1,9.0469,0,1,1,1,1,Browse old vintage tee shirts at the thrift store,go hiking with friends,0.02,0.03,1.1,,,,
,,665fc69fe8d5562ac1294f30,2024-07-04_15h06.16.989,WTP_SM_Choice,2022.2.1,MacIntel,108.6956522,,,,,,,,,,,,,,,,,,38,,,,,,,,,,0.03,1,6.48,0,2,2,2,1,work on fixing my moped,travel to other countries with friends,0.03,0.03,1.1,,,,
,,665fc69fe8d5562ac1294f30,2024-07-04_15h06.16.989,WTP_SM_Choice,2022.2.1,MacIntel,108.6956522,,,,,,,,,,,,,,,,,,39,,,,,,,,,,0.03,2,2.4369,0,3,3,3,1,deep clean my apartment with all the windows open,play kickball with my co-workers,0.04,0.03,3.3,,,,
,,665fc69fe8d5562ac1294f30,2024-07-04_15h06.16.989,WTP_SM_Choice,2022.2.1,MacIntel,108.6956522,,,,,,,,,,,,,,,,,,40,,,,,,,,,,0.03,2,1.7445,0,4,4,4,1,eat ice cream in my back yard on a hot day,go to music festivals with my friends,0.05,0.03,4.4,,,,
,,665fc69fe8d5562ac1294f30,2024-07-04_15h06.16.989,WTP_SM_Choice,2022.2.1,MacIntel,108.6956522,,,,,,,NAN,,NAN,0.81,5.19,,0,39,39,39,1,40,Riley,Rej,Participant_Images/665fc69fe8d5562ac1294f30/665fc69fe8d5562ac1294f30_Images/665fc69fe8d5562ac1294f30_Image_22.jpeg,did not like,1.672012706,,,,,,,,,,,,,,,,,,,,,
,,665fc69fe8d5562ac1294f30,2024-07-04_15h06.16.989,WTP_SM_Choice,2022.2.1,MacIntel,108.6956522,,,,,space,5.3668,NAN,,NAN,0.81,5.19,,0,40,40,40,1,41,Riley,Rej,Participant_Images/665fc69fe8d5562ac1294f30/665fc69fe8d5562ac1294f30_Images/665fc69fe8d5562ac1294f30_Image_16.jpeg,did not like,4.942172136,,,,,,,,,,,,,,,,,,,,,
,,665fc69fe8d5562ac1294f30,2024-07-04_15h06.16.989,WTP_SM_Choice,2022.2.1,MacIntel,108.6956522,,,,,space,1.9934,NAN,,NAN,0.81,5.19,,0,41,41,41,1,42,Riley,Rej,Participant_Images/665fc69fe8d5562ac1294f30/665fc69fe8d5562ac1294f30_Images/665fc69fe8d5562ac1294f30_Image_1.jpeg,did not like,2.50187214,,,,,,,,,,,,,,,,,,,,,
,,665fc69fe8d5562ac1294f30,2024-07-04_15h06.16.989,WTP_SM_Choice,2022.2.1,MacIntel,108.6956522,,,,,space,3.2919,NAN,,NAN,0.81,5.19,,0,42,42,42,1,43,Riley,Rej,Participant_Images/665fc69fe8d5562ac1294f30/665fc69fe8d5562ac1294f30_Images/665fc69fe8d5562ac1294f30_Image_9.jpeg,liked,2.071164779,,,,,,,,,,,,,,,,,,,,,
,,665fc69fe8d5562ac1294f30,2024-07-04_15h06.16.989,WTP_SM_Choice,2022.2.1,MacIntel,108.6956522,,,,,space,0.7457,NAN,,NAN,0.81,5.19,,0,43,43,43,1,44,Riley,Rej,Participant_Images/665fc69fe8d5562ac1294f30/665fc69fe8d5562ac1294f30_Images/665fc69fe8d5562ac1294f30_Image_8.jpeg,did not like,5.336503566,,,,,,,,,,,,,,,,,,,,,
,,665fc69fe8d5562ac1294f30,2024-07-04_15h06.16.989,WTP_SM_Choice,2022.2.1,MacIntel,108.6956522,,,,,,,,,,,,,,,,,,41,,,,,,space,1.1056,space,2.2321,0.01,1,1.782,0,0,0,0,1,eat ice cream in my back yard on a hot day,cuddle on the couch with my girlfriend,0.01,0.04,1.1,,,,
,,665fc69fe8d5562ac1294f30,2024-07-04_15h06.16.989,WTP_SM_Choice,2022.2.1,MacIntel,108.6956522,,,,,,,,,,,,,,,,,,42,,,,,,,,,,0.02,1,3.2963,0,1,1,1,1,Browse old vintage tee shirts at the thrift store,cook out with my family,0.02,0.04,3.3,,,,
,,665fc69fe8d5562ac1294f30,2024-07-04_15h06.16.989,WTP_SM_Choice,2022.2.1,MacIntel,108.6956522,,,,,,,,,,,,,,,,,,43,,,,,,,,,,0.03,1,1.8936,0,2,2,2,1,re-organize my closet and throw out or donate old things,go to music festivals with my friends,0.03,0.04,1.1,,,,
,,665fc69fe8d5562ac1294f30,2024-07-04_15h06.16.989,WTP_SM_Choice,2022.2.1,MacIntel,108.6956522,,,,,,,,,,,,,,,,,,44,,,,,,,,,,0.04,2,4.3727,0,3,3,3,1,re-organize my closet and throw out or donate old things,go hiking with friends,0.04,0.04,1.1,,,,
,,665fc69fe8d5562ac1294f30,2024-07-04_15h06.16.989,WTP_SM_Choice,2022.2.1,MacIntel,108.6956522,,,,,,,,,,,,,,,,,,45,,,,,,,,,,0.04,2,5.091,0,4,4,4,1,find new recipes and cook them ,play kickball with my co-workers,0.05,0.04,4.4,,,,
,,665fc69fe8d5562ac1294f30,2024-07-04_15h06.16.989,WTP_SM_Choice,2022.2.1,MacIntel,108.6956522,,,,,,,NAN,,NAN,0.95,5.05,,0,44,44,44,1,45,Riley,Rej,Participant_Images/665fc69fe8d5562ac1294f30/665fc69fe8d5562ac1294f30_Images/665fc69fe8d5562ac1294f30_Image_10.jpeg,did not like,2.642157193,,,,,,,,,,,,,,,,,,,,,
,,665fc69fe8d5562ac1294f30,2024-07-04_15h06.16.989,WTP_SM_Choice,2022.2.1,MacIntel,108.6956522,,,,,space,5.2564,NAN,,NAN,0.95,5.05,,0,45,45,45,1,46,Riley,Rej,Participant_Images/665fc69fe8d5562ac1294f30/665fc69fe8d5562ac1294f30_Images/665fc69fe8d5562ac1294f30_Image_15.jpeg,did not like,4.456234322,,,,,,,,,,,,,,,,,,,,,
,,665fc69fe8d5562ac1294f30,2024-07-04_15h06.16.989,WTP_SM_Choice,2022.2.1,MacIntel,108.6956522,,,,,space,2.5599,NAN,,NAN,0.95,5.05,,0,46,46,46,1,47,Riley,Rej,Participant_Images/665fc69fe8d5562ac1294f30/665fc69fe8d5562ac1294f30_Images/665fc69fe8d5562ac1294f30_Image_21.jpeg,did not like,4.438512181,,,,,,,,,,,,,,,,,,,,,
,,665fc69fe8d5562ac1294f30,2024-07-04_15h06.16.989,WTP_SM_Choice,2022.2.1,MacIntel,108.6956522,,,,,space,0.6677,NAN,,NAN,0.95,5.05,,0,47,47,47,1,48,Riley,Rej,Participant_Images/665fc69fe8d5562ac1294f30/665fc69fe8d5562ac1294f30_Images/665fc69fe8d5562ac1294f30_Image_25.jpeg,did not like,2.682944783,,,,,,,,,,,,,,,,,,,,,
,,665fc69fe8d5562ac1294f30,2024-07-04_15h06.16.989,WTP_SM_Choice,2022.2.1,MacIntel,108.6956522,,,,,space,1.5758,NAN,,NAN,0.95,5.05,,0,48,48,48,1,49,Riley,Rej,Participant_Images/665fc69fe8d5562ac1294f30/665fc69fe8d5562ac1294f30_Images/665fc69fe8d5562ac1294f30_Image_5.jpeg,did not like,4.51984296,,,,,,,,,,,,,,,,,,,,,
,,665fc69fe8d5562ac1294f30,2024-07-04_15h06.16.989,WTP_SM_Choice,2022.2.1,MacIntel,108.6956522,,,,,,,,,,,,,,,,,,46,,,,,,space,4.8211,space,0.6263,0.01,1,3.5291,0,0,0,0,1,deep clean my apartment with all the windows open,cook out with my family,0.01,0.05,8.8,,,,
,,665fc69fe8d5562ac1294f30,2024-07-04_15h06.16.989,WTP_SM_Choice,2022.2.1,MacIntel,108.6956522,,,,,,,,,,,,,,,,,,47,,,,,,,,,,0.02,1,4.007,0,1,1,1,1,eat ice cream in my back yard on a hot day,travel to other countries with friends,0.02,0.05,1.1,,,,
,,665fc69fe8d5562ac1294f30,2024-07-04_15h06.16.989,WTP_SM_Choice,2022.2.1,MacIntel,108.6956522,,,,,,,,,,,,,,,,,,48,,,,,,,,,,0.03,1,2.0477,0,2,2,2,1,go on long walks by the train tracks,help my friend out with yard work or moving,0.03,0.05,4.4,,,,
,,665fc69fe8d5562ac1294f30,2024-07-04_15h06.16.989,WTP_SM_Choice,2022.2.1,MacIntel,108.6956522,,,,,,,,,,,,,,,,,,49,,,,,,,,,,0.04,1,8.934,0,3,3,3,1,work on fixing my moped,cook out with my family,0.04,0.05,3.3,,,,
,,665fc69fe8d5562ac1294f30,2024-07-04_15h06.16.989,WTP_SM_Choice,2022.2.1,MacIntel,108.6956522,,,,,,,,,,,,,,,,,,50,,,,,,,,,,0.05,2,7.4984,0,4,4,4,1,shoot basketball free throws,go to music festivals with my friends,0.05,0.05,1.1,,,,
,,665fc69fe8d5562ac1294f30,2024-07-04_15h06.16.989,WTP_SM_Choice,2022.2.1,MacIntel,108.6956522,,,,,,,4,,6,1.1,4.9,,0,49,49,49,1,50,Riley,Rej,Participant_Images/665fc69fe8d5562ac1294f30/665fc69fe8d5562ac1294f30_Images/665fc69fe8d5562ac1294f30_Image_6.jpeg,liked,3.195382774,,,,,,,,,,,,,,,,,,space,2.0735,,
,,665fc69fe8d5562ac1294f30,2024-07-04_15h06.16.989,WTP_SM_Choice,2022.2.1,MacIntel,108.6956522,,,space,4.1065,space,0.9049,NAN,,NAN,1.1,4.9,,0,50,50,50,1,51,Charlie,Acc,Participant_Images/665fc69fe8d5562ac1294f30/665fc69fe8d5562ac1294f30_Images/665fc69fe8d5562ac1294f30_Image_5.jpeg,liked,1.779333479,,,,,,,,,,,,,,,,,,,,,
,,665fc69fe8d5562ac1294f30,2024-07-04_15h06.16.989,WTP_SM_Choice,2022.2.1,MacIntel,108.6956522,,,,,space,0.9343,NAN,,NAN,1.1,4.9,,0,51,51,51,1,52,Charlie,Acc,Participant_Images/665fc69fe8d5562ac1294f30/665fc69fe8d5562ac1294f30_Images/665fc69fe8d5562ac1294f30_Image_10.jpeg,did not like,4.312468682,,,,,,,,,,,,,,,,,,,,,
,,665fc69fe8d5562ac1294f30,2024-07-04_15h06.16.989,WTP_SM_Choice,2022.2.1,MacIntel,108.6956522,,,,,space,1.7272,NAN,,NAN,1.1,4.9,,0,52,52,52,1,53,Charlie,Acc,Participant_Images/665fc69fe8d5562ac1294f30/665fc69fe8d5562ac1294f30_Images/665fc69fe8d5562ac1294f30_Image_1.jpeg,liked,4.940433059,,,,,,,,,,,,,,,,,,,,,
,,665fc69fe8d5562ac1294f30,2024-07-04_15h06.16.989,WTP_SM_Choice,2022.2.1,MacIntel,108.6956522,,,,,space,3.1839,NAN,,NAN,1.1,4.9,,0,53,53,53,1,54,Charlie,Acc,Participant_Images/665fc69fe8d5562ac1294f30/665fc69fe8d5562ac1294f30_Images/665fc69fe8d5562ac1294f30_Image_18.jpeg,liked,2.7105123,,,,,,,,,,,,,,,,,,,,,
,,665fc69fe8d5562ac1294f30,2024-07-04_15h06.16.989,WTP_SM_Choice,2022.2.1,MacIntel,108.6956522,,,,,,,,,,,,,,,,,,51,,,,,,space,1.2222,space,0.7814,0.01,2,7.9625,0,0,0,0,1,blast and danc to music with my dog,explore downtown with friends,0.01,0.01,1.1,,,,
,,665fc69fe8d5562ac1294f30,2024-07-04_15h06.16.989,WTP_SM_Choice,2022.2.1,MacIntel,108.6956522,,,,,,,,,,,,,,,,,,52,,,,,,,,,,0.01,2,3.9207,0,1,1,1,1,shoot basketball free throws,eat fancy dinners with my girlfriend,0.02,0.01,3.3,,,,
,,665fc69fe8d5562ac1294f30,2024-07-04_15h06.16.989,WTP_SM_Choice,2022.2.1,MacIntel,108.6956522,,,,,,,,,,,,,,,,,,53,,,,,,,,,,0.01,2,4.336,0,2,2,2,1,find new recipes and cook them ,explore downtown with friends,0.03,0.01,1.1,,,,
,,665fc69fe8d5562ac1294f30,2024-07-04_15h06.16.989,WTP_SM_Choice,2022.2.1,MacIntel,108.6956522,,,,,,,,,,,,,,,,,,54,,,,,,,,,,0.01,2,1.6697,0,3,3,3,1,re-organize my closet and throw out or donate old things,help my friend out with yard work or moving,0.04,0.01,4.4,,,,
,,665fc69fe8d5562ac1294f30,2024-07-04_15h06.16.989,WTP_SM_Choice,2022.2.1,MacIntel,108.6956522,,,,,,,,,,,,,,,,,,55,,,,,,,,,,0.01,2,2.1847,0,4,4,4,1,eat ice cream in my back yard on a hot day,explore downtown with friends,0.05,0.01,1.1,,,,
,,665fc69fe8d5562ac1294f30,2024-07-04_15h06.16.989,WTP_SM_Choice,2022.2.1,MacIntel,108.6956522,,,,,,,NAN,,NAN,1.15,4.85,,0,54,54,54,1,55,Charlie,Acc,Participant_Images/665fc69fe8d5562ac1294f30/665fc69fe8d5562ac1294f30_Images/665fc69fe8d5562ac1294f30_Image_21.jpeg,liked,3.602308302,,,,,,,,,,,,,,,,,,,,,
,,665fc69fe8d5562ac1294f30,2024-07-04_15h06.16.989,WTP_SM_Choice,2022.2.1,MacIntel,108.6956522,,,,,space,1.3778,NAN,,NAN,1.15,4.85,,0,55,55,55,1,56,Charlie,Acc,Participant_Images/665fc69fe8d5562ac1294f30/665fc69fe8d5562ac1294f30_Images/665fc69fe8d5562ac1294f30_Image_3.jpeg,liked,4.106391878,,,,,,,,,,,,,,,,,,,,,
,,665fc69fe8d5562ac1294f30,2024-07-04_15h06.16.989,WTP_SM_Choice,2022.2.1,MacIntel,108.6956522,,,,,space,1.4264,NAN,,NAN,1.15,4.85,,0,56,56,56,1,57,Charlie,Acc,Participant_Images/665fc69fe8d5562ac1294f30/665fc69fe8d5562ac1294f30_Images/665fc69fe8d5562ac1294f30_Image_14.jpeg,did not like,3.799433026,,,,,,,,,,,,,,,,,,,,,
,,665fc69fe8d5562ac1294f30,2024-07-04_15h06.16.989,WTP_SM_Choice,2022.2.1,MacIntel,108.6956522,,,,,space,0.5799,NAN,,NAN,1.15,4.85,,0,57,57,57,1,58,Charlie,Acc,Participant_Images/665fc69fe8d5562ac1294f30/665fc69fe8d5562ac1294f30_Images/665fc69fe8d5562ac1294f30_Image_16.jpeg,liked,5.246980764,,,,,,,,,,,,,,,,,,,,,
,,665fc69fe8d5562ac1294f30,2024-07-04_15h06.16.989,WTP_SM_Choice,2022.2.1,MacIntel,108.6956522,,,,,space,4.0315,NAN,,NAN,1.15,4.85,,0,58,58,58,1,59,Charlie,Acc,Participant_Images/665fc69fe8d5562ac1294f30/665fc69fe8d5562ac1294f30_Images/665fc69fe8d5562ac1294f30_Image_25.jpeg,liked,3.30081769,,,,,,,,,,,,,,,,,,,,,
,,665fc69fe8d5562ac1294f30,2024-07-04_15h06.16.989,WTP_SM_Choice,2022.2.1,MacIntel,108.6956522,,,,,,,,,,,,,,,,,,56,,,,,,space,7.3329,space,0.9049,0.02,2,5.3372,0,0,0,0,1,work on fixing my moped,go hiking with friends,0.01,0.02,8.8,,,,
,,665fc69fe8d5562ac1294f30,2024-07-04_15h06.16.989,WTP_SM_Choice,2022.2.1,MacIntel,108.6956522,,,,,,,,,,,,,,,,,,57,,,,,,,,,,0.02,2,5.4202,0,1,1,1,1,work on fixing my moped,cuddle on the couch with my girlfriend,0.02,0.02,4.4,,,,
,,665fc69fe8d5562ac1294f30,2024-07-04_15h06.16.989,WTP_SM_Choice,2022.2.1,MacIntel,108.6956522,,,,,,,,,,,,,,,,,,58,,,,,,,,,,0.02,2,3.4684,0,2,2,2,1,blast and danc to music with my dog,play kickball with my co-workers,0.03,0.02,4.4,,,,
,,665fc69fe8d5562ac1294f30,2024-07-04_15h06.16.989,WTP_SM_Choice,2022.2.1,MacIntel,108.6956522,,,,,,,,,,,,,,,,,,59,,,,,,,,,,0.02,2,3.4651,0,3,3,3,1,find new recipes and cook them ,cook out with my family,0.04,0.02,4.4,,,,
,,665fc69fe8d5562ac1294f30,2024-07-04_15h06.16.989,WTP_SM_Choice,2022.2.1,MacIntel,108.6956522,,,,,,,,,,,,,,,,,,60,,,,,,,,,,0.02,2,3.9554,0,4,4,4,1,deep clean my apartment with all the windows open,go hiking with friends,0.05,0.02,1.1,,,,
,,665fc69fe8d5562ac1294f30,2024-07-04_15h06.16.989,WTP_SM_Choice,2022.2.1,MacIntel,108.6956522,,,,,,,NAN,,NAN,1.25,4.75,,0,59,59,59,1,60,Charlie,Acc,Participant_Images/665fc69fe8d5562ac1294f30/665fc69fe8d5562ac1294f30_Images/665fc69fe8d5562ac1294f30_Image_13.jpeg,liked,1.661473164,,,,,,,,,,,,,,,,,,,,,
,,665fc69fe8d5562ac1294f30,2024-07-04_15h06.16.989,WTP_SM_Choice,2022.2.1,MacIntel,108.6956522,,,,,space,3.2219,NAN,,NAN,1.25,4.75,,0,60,60,60,1,61,Charlie,Acc,Participant_Images/665fc69fe8d5562ac1294f30/665fc69fe8d5562ac1294f30_Images/665fc69fe8d5562ac1294f30_Image_11.jpeg,liked,3.613205605,,,,,,,,,,,,,,,,,,,,,
,,665fc69fe8d5562ac1294f30,2024-07-04_15h06.16.989,WTP_SM_Choice,2022.2.1,MacIntel,108.6956522,,,,,space,1.3092,NAN,,NAN,1.25,4.75,,0,61,61,61,1,62,Charlie,Acc,Participant_Images/665fc69fe8d5562ac1294f30/665fc69fe8d5562ac1294f30_Images/665fc69fe8d5562ac1294f30_Image_15.jpeg,liked,4.988446431,,,,,,,,,,,,,,,,,,,,,
,,665fc69fe8d5562ac1294f30,2024-07-04_15h06.16.989,WTP_SM_Choice,2022.2.1,MacIntel,108.6956522,,,,,space,1.9184,NAN,,NAN,1.25,4.75,,0,62,62,62,1,63,Charlie,Acc,Participant_Images/665fc69fe8d5562ac1294f30/665fc69fe8d5562ac1294f30_Images/665fc69fe8d5562ac1294f30_Image_2.jpeg,liked,3.470791822,,,,,,,,,,,,,,,,,,,,,
,,665fc69fe8d5562ac1294f30,2024-07-04_15h06.16.989,WTP_SM_Choice,2022.2.1,MacIntel,108.6956522,,,,,space,3.3168,NAN,,NAN,1.25,4.75,,0,63,63,63,1,64,Charlie,Acc,Participant_Images/665fc69fe8d5562ac1294f30/665fc69fe8d5562ac1294f30_Images/665fc69fe8d5562ac1294f30_Image_23.jpeg,liked,3.820572462,,,,,,,,,,,,,,,,,,,,,
,,665fc69fe8d5562ac1294f30,2024-07-04_15h06.16.989,WTP_SM_Choice,2022.2.1,MacIntel,108.6956522,,,,,,,,,,,,,,,,,,61,,,,,,space,1.8002,space,0.9122,0.01,1,1.8312,0,0,0,0,1,work on fixing my moped,dance with my brother and his friends,0.01,0.03,3.3,,,,
,,665fc69fe8d5562ac1294f30,2024-07-04_15h06.16.989,WTP_SM_Choice,2022.2.1,MacIntel,108.6956522,,,,,,,,,,,,,,,,,,62,,,,,,,,,,0.02,1,3.0979,0,1,1,1,1,re-organize my closet and throw out or donate old things,dance with my brother and his friends,0.02,0.03,3.3,,,,
,,665fc69fe8d5562ac1294f30,2024-07-04_15h06.16.989,WTP_SM_Choice,2022.2.1,MacIntel,108.6956522,,,,,,,,,,,,,,,,,,63,,,,,,,,,,,,,0,2,2,2,1,go on long walks by the train tracks,go to music festivals with my friends,0.03,0.03,3.3,,,,
,,665fc69fe8d5562ac1294f30,2024-07-04_15h06.16.989,WTP_SM_Choice,2022.2.1,MacIntel,108.6956522,,,,,,,,,,,,,,,,,,64,,,,,,,,,,0.03,2,3.6551,0,3,3,3,1,Browse old vintage tee shirts at the thrift store,play kickball with my co-workers,0.04,0.03,1.1,,,,
,,665fc69fe8d5562ac1294f30,2024-07-04_15h06.16.989,WTP_SM_Choice,2022.2.1,MacIntel,108.6956522,,,,,,,,,,,,,,,,,,65,,,,,,,,,,0.03,2,2.7775,0,4,4,4,1,re-organize my closet and throw out or donate old things,travel to other countries with friends,0.05,0.03,1.1,,,,
,,665fc69fe8d5562ac1294f30,2024-07-04_15h06.16.989,WTP_SM_Choice,2022.2.1,MacIntel,108.6956522,,,,,,,NAN,,NAN,1.34,4.66,,0,64,64,64,1,65,Charlie,Acc,Participant_Images/665fc69fe8d5562ac1294f30/665fc69fe8d5562ac1294f30_Images/665fc69fe8d5562ac1294f30_Image_19.jpeg,liked,2.455989137,,,,,,,,,,,,,,,,,,,,,
,,665fc69fe8d5562ac1294f30,2024-07-04_15h06.16.989,WTP_SM_Choice,2022.2.1,MacIntel,108.6956522,,,,,space,7.7961,NAN,,NAN,1.34,4.66,,0,65,65,65,1,66,Charlie,Acc,Participant_Images/665fc69fe8d5562ac1294f30/665fc69fe8d5562ac1294f30_Images/665fc69fe8d5562ac1294f30_Image_6.jpeg,did not like,3.79605092,,,,,,,,,,,,,,,,,,,,,
,,665fc69fe8d5562ac1294f30,2024-07-04_15h06.16.989,WTP_SM_Choice,2022.2.1,MacIntel,108.6956522,,,,,space,1.5536,NAN,,NAN,1.34,4.66,,0,66,66,66,1,67,Charlie,Acc,Participant_Images/665fc69fe8d5562ac1294f30/665fc69fe8d5562ac1294f30_Images/665fc69fe8d5562ac1294f30_Image_7.jpeg,did not like,3.562416326,,,,,,,,,,,,,,,,,,,,,
,,665fc69fe8d5562ac1294f30,2024-07-04_15h06.16.989,WTP_SM_Choice,2022.2.1,MacIntel,108.6956522,,,,,space,1.6517,NAN,,NAN,1.34,4.66,,0,67,67,67,1,68,Charlie,Acc,Participant_Images/665fc69fe8d5562ac1294f30/665fc69fe8d5562ac1294f30_Images/665fc69fe8d5562ac1294f30_Image_9.jpeg,liked,2.843822497,,,,,,,,,,,,,,,,,,,,,
,,665fc69fe8d5562ac1294f30,2024-07-04_15h06.16.989,WTP_SM_Choice,2022.2.1,MacIntel,108.6956522,,,,,space,1.8211,NAN,,NAN,1.34,4.66,,0,68,68,68,1,69,Charlie,Acc,Participant_Images/665fc69fe8d5562ac1294f30/665fc69fe8d5562ac1294f30_Images/665fc69fe8d5562ac1294f30_Image_8.jpeg,liked,3.546495948,,,,,,,,,,,,,,,,,,,,,
,,665fc69fe8d5562ac1294f30,2024-07-04_15h06.16.989,WTP_SM_Choice,2022.2.1,MacIntel,108.6956522,,,,,,,,,,,,,,,,,,66,,,,,,space,2.52,space,1.1205,0.01,1,2.8019,0,0,0,0,1,take my dog to the park to play fetch,eat fancy dinners with my girlfriend,0.01,0.04,1.1,,,,
,,665fc69fe8d5562ac1294f30,2024-07-04_15h06.16.989,WTP_SM_Choice,2022.2.1,MacIntel,108.6956522,,,,,,,,,,,,,,,,,,67,,,,,,,,,,0.02,1,7.1952,0,1,1,1,1,re-organize my closet and throw out or donate old things,play kickball with my co-workers,0.02,0.04,8.8,,,,
,,665fc69fe8d5562ac1294f30,2024-07-04_15h06.16.989,WTP_SM_Choice,2022.2.1,MacIntel,108.6956522,,,,,,,,,,,,,,,,,,68,,,,,,,,,,0.03,1,1.6736,0,2,2,2,1,blast and danc to music with my dog,go to music festivals with my friends,0.03,0.04,4.4,,,,
,,665fc69fe8d5562ac1294f30,2024-07-04_15h06.16.989,WTP_SM_Choice,2022.2.1,MacIntel,108.6956522,,,,,,,,,,,,,,,,,,69,,,,,,,,,,0.04,2,2.7265,0,3,3,3,1,shoot basketball free throws,go hiking with friends,0.04,0.04,1.1,,,,
,,665fc69fe8d5562ac1294f30,2024-07-04_15h06.16.989,WTP_SM_Choice,2022.2.1,MacIntel,108.6956522,,,,,,,,,,,,,,,,,,70,,,,,,,,,,0.04,2,4.6602,0,4,4,4,1,work on fixing my moped,go to music festivals with my friends,0.05,0.04,1.1,,,,
,,665fc69fe8d5562ac1294f30,2024-07-04_15h06.16.989,WTP_SM_Choice,2022.2.1,MacIntel,108.6956522,,,,,,,NAN,,NAN,1.48,4.52,,0,69,69,69,1,70,Charlie,Acc,Participant_Images/665fc69fe8d5562ac1294f30/665fc69fe8d5562ac1294f30_Images/665fc69fe8d5562ac1294f30_Image_20.jpeg,did not like,1.672012706,,,,,,,,,,,,,,,,,,,,,
,,665fc69fe8d5562ac1294f30,2024-07-04_15h06.16.989,WTP_SM_Choice,2022.2.1,MacIntel,108.6956522,,,,,space,1.7168,NAN,,NAN,1.48,4.52,,0,70,70,70,1,71,Charlie,Acc,Participant_Images/665fc69fe8d5562ac1294f30/665fc69fe8d5562ac1294f30_Images/665fc69fe8d5562ac1294f30_Image_12.jpeg,did not like,4.942172136,,,,,,,,,,,,,,,,,,,,,
,,665fc69fe8d5562ac1294f30,2024-07-04_15h06.16.989,WTP_SM_Choice,2022.2.1,MacIntel,108.6956522,,,,,space,6.1665,NAN,,NAN,1.48,4.52,,0,71,71,71,1,72,Charlie,Acc,Participant_Images/665fc69fe8d5562ac1294f30/665fc69fe8d5562ac1294f30_Images/665fc69fe8d5562ac1294f30_Image_17.jpeg,liked,2.50187214,,,,,,,,,,,,,,,,,,,,,
,,665fc69fe8d5562ac1294f30,2024-07-04_15h06.16.989,WTP_SM_Choice,2022.2.1,MacIntel,108.6956522,,,,,space,1.0507,NAN,,NAN,1.48,4.52,,0,72,72,72,1,73,Charlie,Acc,Participant_Images/665fc69fe8d5562ac1294f30/665fc69fe8d5562ac1294f30_Images/665fc69fe8d5562ac1294f30_Image_4.jpeg,liked,2.071164779,,,,,,,,,,,,,,,,,,,,,
,,665fc69fe8d5562ac1294f30,2024-07-04_15h06.16.989,WTP_SM_Choice,2022.2.1,MacIntel,108.6956522,,,,,space,13.54,NAN,,NAN,1.48,4.52,,0,73,73,73,1,74,Charlie,Acc,Participant_Images/665fc69fe8d5562ac1294f30/665fc69fe8d5562ac1294f30_Images/665fc69fe8d5562ac1294f30_Image_22.jpeg,did not like,5.336503566,,,,,,,,,,,,,,,,,,,,,
,,665fc69fe8d5562ac1294f30,2024-07-04_15h06.16.989,WTP_SM_Choice,2022.2.1,MacIntel,108.6956522,,,,,,,,,,,,,,,,,,71,,,,,,space,3.5619,space,0.879,0.01,1,2.2687,0,0,0,0,1,find new recipes and cook them ,help my friend out with yard work or moving,0.01,0.05,3.3,,,,
,,665fc69fe8d5562ac1294f30,2024-07-04_15h06.16.989,WTP_SM_Choice,2022.2.1,MacIntel,108.6956522,,,,,,,,,,,,,,,,,,72,,,,,,,,,,0.02,1,4.0039,0,1,1,1,1,find new recipes and cook them ,eat fancy dinners with my girlfriend,0.02,0.05,8.8,,,,
,,665fc69fe8d5562ac1294f30,2024-07-04_15h06.16.989,WTP_SM_Choice,2022.2.1,MacIntel,108.6956522,,,,,,,,,,,,,,,,,,73,,,,,,,,,,0.03,1,9.0293,0,2,2,2,1,blast and danc to music with my dog,cuddle on the couch with my girlfriend,0.03,0.05,3.3,,,,
,,665fc69fe8d5562ac1294f30,2024-07-04_15h06.16.989,WTP_SM_Choice,2022.2.1,MacIntel,108.6956522,,,,,,,,,,,,,,,,,,74,,,,,,,,,,0.04,1,1.7387,0,3,3,3,1,deep clean my apartment with all the windows open,dance with my brother and his friends,0.04,0.05,4.4,,,,
,,665fc69fe8d5562ac1294f30,2024-07-04_15h06.16.989,WTP_SM_Choice,2022.2.1,MacIntel,108.6956522,,,,,,,,,,,,,,,,,,75,,,,,,,,,,0.05,2,3.1143,0,4,4,4,1,Browse old vintage tee shirts at the thrift store,dance with my brother and his friends,0.05,0.05,3.3,,,,
,,665fc69fe8d5562ac1294f30,2024-07-04_15h06.16.989,WTP_SM_Choice,2022.2.1,MacIntel,108.6956522,,,,,,,4,,6,1.63,4.37,,0,74,74,74,1,75,Charlie,Acc,Participant_Images/665fc69fe8d5562ac1294f30/665fc69fe8d5562ac1294f30_Images/665fc69fe8d5562ac1294f30_Image_24.jpeg,liked,2.642157193,,,,,,,,,,,,,,,,,,space,3.181,,
,,665fc69fe8d5562ac1294f30,2024-07-04_15h06.16.989,WTP_SM_Choice,2022.2.1,MacIntel,108.6956522,,,space,3.9914,space,0.758,NAN,,NAN,1.63,4.37,,0,75,75,75,1,76,Sam,Rej,Participant_Images/665fc69fe8d5562ac1294f30/665fc69fe8d5562ac1294f30_Images/665fc69fe8d5562ac1294f30_Image_11.jpeg,did not like,4.456234322,,,,,,,,,,,,,,,,,,,,,
,,665fc69fe8d5562ac1294f30,2024-07-04_15h06.16.989,WTP_SM_Choice,2022.2.1,MacIntel,108.6956522,,,,,space,1.966,NAN,,NAN,1.63,4.37,,0,76,76,76,1,77,Sam,Rej,Participant_Images/665fc69fe8d5562ac1294f30/665fc69fe8d5562ac1294f30_Images/665fc69fe8d5562ac1294f30_Image_15.jpeg,liked,4.438512181,,,,,,,,,,,,,,,,,,,,,
,,665fc69fe8d5562ac1294f30,2024-07-04_15h06.16.989,WTP_SM_Choice,2022.2.1,MacIntel,108.6956522,,,,,space,4.6594,NAN,,NAN,1.63,4.37,,0,77,77,77,1,78,Sam,Rej,Participant_Images/665fc69fe8d5562ac1294f30/665fc69fe8d5562ac1294f30_Images/665fc69fe8d5562ac1294f30_Image_5.jpeg,did not like,2.682944783,,,,,,,,,,,,,,,,,,,,,
,,665fc69fe8d5562ac1294f30,2024-07-04_15h06.16.989,WTP_SM_Choice,2022.2.1,MacIntel,108.6956522,,,,,space,4.684,NAN,,NAN,1.63,4.37,,0,78,78,78,1,79,Sam,Rej,Participant_Images/665fc69fe8d5562ac1294f30/665fc69fe8d5562ac1294f30_Images/665fc69fe8d5562ac1294f30_Image_22.jpeg,did not like,4.51984296,,,,,,,,,,,,,,,,,,,,,
,,665fc69fe8d5562ac1294f30,2024-07-04_15h06.16.989,WTP_SM_Choice,2022.2.1,MacIntel,108.6956522,,,,,,,,,,,,,,,,,,76,,,,,,space,6.9202,space,8.5638,0.01,2,6.8499,0,0,0,0,1,shoot basketball free throws,explore downtown with friends,0.01,0.01,1.1,,,,
,,665fc69fe8d5562ac1294f30,2024-07-04_15h06.16.989,WTP_SM_Choice,2022.2.1,MacIntel,108.6956522,,,,,,,,,,,,,,,,,,77,,,,,,,,,,0.01,2,2.3562,0,1,1,1,1,go on long walks by the train tracks,explore downtown with friends,0.02,0.01,8.8,,,,
,,665fc69fe8d5562ac1294f30,2024-07-04_15h06.16.989,WTP_SM_Choice,2022.2.1,MacIntel,108.6956522,,,,,,,,,,,,,,,,,,78,,,,,,,,,,0.01,2,2.6094,0,2,2,2,1,re-organize my closet and throw out or donate old things,eat fancy dinners with my girlfriend,0.03,0.01,1.1,,,,
,,665fc69fe8d5562ac1294f30,2024-07-04_15h06.16.989,WTP_SM_Choice,2022.2.1,MacIntel,108.6956522,,,,,,,,,,,,,,,,,,79,,,,,,,,,,0.01,2,5.3668,0,3,3,3,1,shoot basketball free throws,cuddle on the couch with my girlfriend,0.04,0.01,1.1,,,,
,,665fc69fe8d5562ac1294f30,2024-07-04_15h06.16.989,WTP_SM_Choice,2022.2.1,MacIntel,108.6956522,,,,,,,,,,,,,,,,,,80,,,,,,,,,,0.01,2,2.6118,0,4,4,4,1,Browse old vintage tee shirts at the thrift store,help my friend out with yard work or moving,0.05,0.01,4.4,,,,
,,665fc69fe8d5562ac1294f30,2024-07-04_15h06.16.989,WTP_SM_Choice,2022.2.1,MacIntel,108.6956522,,,,,,,NAN,,NAN,1.68,4.32,,0,79,79,79,1,80,Sam,Rej,Participant_Images/665fc69fe8d5562ac1294f30/665fc69fe8d5562ac1294f30_Images/665fc69fe8d5562ac1294f30_Image_12.jpeg,liked,3.195382774,,,,,,,,,,,,,,,,,,,,,
,,665fc69fe8d5562ac1294f30,2024-07-04_15h06.16.989,WTP_SM_Choice,2022.2.1,MacIntel,108.6956522,,,,,space,4.0777,NAN,,NAN,1.68,4.32,,0,80,80,80,1,81,Sam,Rej,Participant_Images/665fc69fe8d5562ac1294f30/665fc69fe8d5562ac1294f30_Images/665fc69fe8d5562ac1294f30_Image_18.jpeg,did not like,1.779333479,,,,,,,,,,,,,,,,,,,,,
,,665fc69fe8d5562ac1294f30,2024-07-04_15h06.16.989,WTP_SM_Choice,2022.2.1,MacIntel,108.6956522,,,,,space,1.4607,NAN,,NAN,1.68,4.32,,0,81,81,81,1,82,Sam,Rej,Participant_Images/665fc69fe8d5562ac1294f30/665fc69fe8d5562ac1294f30_Images/665fc69fe8d5562ac1294f30_Image_21.jpeg,liked,4.312468682,,,,,,,,,,,,,,,,,,,,,
,,665fc69fe8d5562ac1294f30,2024-07-04_15h06.16.989,WTP_SM_Choice,2022.2.1,MacIntel,108.6956522,,,,,space,1.518,NAN,,NAN,1.68,4.32,,0,82,82,82,1,83,Sam,Rej,Participant_Images/665fc69fe8d5562ac1294f30/665fc69fe8d5562ac1294f30_Images/665fc69fe8d5562ac1294f30_Image_1.jpeg,liked,4.940433059,,,,,,,,,,,,,,,,,,,,,
,,665fc69fe8d5562ac1294f30,2024-07-04_15h06.16.989,WTP_SM_Choice,2022.2.1,MacIntel,108.6956522,,,,,space,4.5362,NAN,,NAN,1.68,4.32,,0,83,83,83,1,84,Sam,Rej,Participant_Images/665fc69fe8d5562ac1294f30/665fc69fe8d5562ac1294f30_Images/665fc69fe8d5562ac1294f30_Image_2.jpeg,did not like,2.7105123,,,,,,,,,,,,,,,,,,,,,
,,665fc69fe8d5562ac1294f30,2024-07-04_15h06.16.989,WTP_SM_Choice,2022.2.1,MacIntel,108.6956522,,,,,,,,,,,,,,,,,,81,,,,,,space,1.6803,space,4.2079,0.01,1,1.482,0,0,0,0,1,find new recipes and cook them ,cuddle on the couch with my girlfriend,0.01,0.02,3.3,,,,
,,665fc69fe8d5562ac1294f30,2024-07-04_15h06.16.989,WTP_SM_Choice,2022.2.1,MacIntel,108.6956522,,,,,,,,,,,,,,,,,,82,,,,,,,,,,0.02,2,3.6146,0,1,1,1,1,blast and danc to music with my dog,cook out with my family,0.02,0.02,4.4,,,,
,,665fc69fe8d5562ac1294f30,2024-07-04_15h06.16.989,WTP_SM_Choice,2022.2.1,MacIntel,108.6956522,,,,,,,,,,,,,,,,,,83,,,,,,,,,,0.02,2,3.3807,0,2,2,2,1,deep clean my apartment with all the windows open,help my friend out with yard work or moving,0.03,0.02,1.1,,,,
,,665fc69fe8d5562ac1294f30,2024-07-04_15h06.16.989,WTP_SM_Choice,2022.2.1,MacIntel,108.6956522,,,,,,,,,,,,,,,,,,84,,,,,,,,,,0.02,2,3.7587,0,3,3,3,1,go on long walks by the train tracks,eat fancy dinners with my girlfriend,0.04,0.02,3.3,,,,
,,665fc69fe8d5562ac1294f30,2024-07-04_15h06.16.989,WTP_SM_Choice,2022.2.1,MacIntel,108.6956522,,,,,,,,,,,,,,,,,,85,,,,,,,,,,0.02,2,1.5711,0,4,4,4,1,go on long walks by the train tracks,go hiking with friends,0.05,0.02,3.3,,,,
,,665fc69fe8d5562ac1294f30,2024-07-04_15h06.16.989,WTP_SM_Choice,2022.2.1,MacIntel,108.6956522,,,,,,,NAN,,NAN,1.77,4.23,,0,84,84,84,1,85,Sam,Rej,Participant_Images/665fc69fe8d5562ac1294f30/665fc69fe8d5562ac1294f30_Images/665fc69fe8d5562ac1294f30_Image_3.jpeg,did not like,3.602308302,,,,,,,,,,,,,,,,,,,,,
,,665fc69fe8d5562ac1294f30,2024-07-04_15h06.16.989,WTP_SM_Choice,2022.2.1,MacIntel,108.6956522,,,,,space,0.8474,NAN,,NAN,1.77,4.23,,0,85,85,85,1,86,Sam,Rej,Participant_Images/665fc69fe8d5562ac1294f30/665fc69fe8d5562ac1294f30_Images/665fc69fe8d5562ac1294f30_Image_20.jpeg,did not like,4.106391878,,,,,,,,,,,,,,,,,,,,,
,,665fc69fe8d5562ac1294f30,2024-07-04_15h06.16.989,WTP_SM_Choice,2022.2.1,MacIntel,108.6956522,,,,,space,4.5005,NAN,,NAN,1.77,4.23,,0,86,86,86,1,87,Sam,Rej,Participant_Images/665fc69fe8d5562ac1294f30/665fc69fe8d5562ac1294f30_Images/665fc69fe8d5562ac1294f30_Image_19.jpeg,did not like,3.799433026,,,,,,,,,,,,,,,,,,,,,
,,665fc69fe8d5562ac1294f30,2024-07-04_15h06.16.989,WTP_SM_Choice,2022.2.1,MacIntel,108.6956522,,,,,space,3.0674,NAN,,NAN,1.77,4.23,,0,87,87,87,1,88,Sam,Rej,Participant_Images/665fc69fe8d5562ac1294f30/665fc69fe8d5562ac1294f30_Images/665fc69fe8d5562ac1294f30_Image_16.jpeg,did not like,5.246980764,,,,,,,,,,,,,,,,,,,,,
,,665fc69fe8d5562ac1294f30,2024-07-04_15h06.16.989,WTP_SM_Choice,2022.2.1,MacIntel,108.6956522,,,,,space,1.7524,NAN,,NAN,1.77,4.23,,0,88,88,88,1,89,Sam,Rej,Participant_Images/665fc69fe8d5562ac1294f30/665fc69fe8d5562ac1294f30_Images/665fc69fe8d5562ac1294f30_Image_13.jpeg,did not like,3.30081769,,,,,,,,,,,,,,,,,,,,,
,,665fc69fe8d5562ac1294f30,2024-07-04_15h06.16.989,WTP_SM_Choice,2022.2.1,MacIntel,108.6956522,,,,,,,,,,,,,,,,,,86,,,,,,space,5.1239,space,1.7758,0.01,1,8.0186,0,0,0,0,1,take my dog to the park to play fetch,cuddle on the couch with my girlfriend,0.01,0.03,1.1,,,,
,,665fc69fe8d5562ac1294f30,2024-07-04_15h06.16.989,WTP_SM_Choice,2022.2.1,MacIntel,108.6956522,,,,,,,,,,,,,,,,,,87,,,,,,,,,,0.02,1,1.6987,0,1,1,1,1,find new recipes and cook them ,travel to other countries with friends,0.02,0.03,4.4,,,,
,,665fc69fe8d5562ac1294f30,2024-07-04_15h06.16.989,WTP_SM_Choice,2022.2.1,MacIntel,108.6956522,,,,,,,,,,,,,,,,,,88,,,,,,,,,,0.03,2,3.1703,0,2,2,2,1,re-organize my closet and throw out or donate old things,cook out with my family,0.03,0.03,1.1,,,,
,,665fc69fe8d5562ac1294f30,2024-07-04_15h06.16.989,WTP_SM_Choice,2022.2.1,MacIntel,108.6956522,,,,,,,,,,,,,,,,,,89,,,,,,,,,,0.03,2,3.1973,0,3,3,3,1,find new recipes and cook them ,go to music festivals with my friends,0.04,0.03,3.3,,,,
,,665fc69fe8d5562ac1294f30,2024-07-04_15h06.16.989,WTP_SM_Choice,2022.2.1,MacIntel,108.6956522,,,,,,,,,,,,,,,,,,90,,,,,,,,,,0.03,2,2.3292,0,4,4,4,1,deep clean my apartment with all the windows open,explore downtown with friends,0.05,0.03,8.8,,,,
,,665fc69fe8d5562ac1294f30,2024-07-04_15h06.16.989,WTP_SM_Choice,2022.2.1,MacIntel,108.6956522,,,,,,,NAN,,NAN,1.89,4.11,,0,89,89,89,1,90,Sam,Rej,Participant_Images/665fc69fe8d5562ac1294f30/665fc69fe8d5562ac1294f30_Images/665fc69fe8d5562ac1294f30_Image_25.jpeg,did not like,1.661473164,,,,,,,,,,,,,,,,,,,,,
,,665fc69fe8d5562ac1294f30,2024-07-04_15h06.16.989,WTP_SM_Choice,2022.2.1,MacIntel,108.6956522,,,,,space,1.6493,NAN,,NAN,1.89,4.11,,0,90,90,90,1,91,Sam,Rej,Participant_Images/665fc69fe8d5562ac1294f30/665fc69fe8d5562ac1294f30_Images/665fc69fe8d5562ac1294f30_Image_10.jpeg,did not like,3.613205605,,,,,,,,,,,,,,,,,,,,,
,,665fc69fe8d5562ac1294f30,2024-07-04_15h06.16.989,WTP_SM_Choice,2022.2.1,MacIntel,108.6956522,,,,,space,4.4096,NAN,,NAN,1.89,4.11,,0,91,91,91,1,92,Sam,Rej,Participant_Images/665fc69fe8d5562ac1294f30/665fc69fe8d5562ac1294f30_Images/665fc69fe8d5562ac1294f30_Image_24.jpeg,liked,4.988446431,,,,,,,,,,,,,,,,,,,,,
,,665fc69fe8d5562ac1294f30,2024-07-04_15h06.16.989,WTP_SM_Choice,2022.2.1,MacIntel,108.6956522,,,,,space,1.4503,NAN,,NAN,1.89,4.11,,0,92,92,92,1,93,Sam,Rej,Participant_Images/665fc69fe8d5562ac1294f30/665fc69fe8d5562ac1294f30_Images/665fc69fe8d5562ac1294f30_Image_17.jpeg,liked,3.470791822,,,,,,,,,,,,,,,,,,,,,
,,665fc69fe8d5562ac1294f30,2024-07-04_15h06.16.989,WTP_SM_Choice,2022.2.1,MacIntel,108.6956522,,,,,space,0.727,NAN,,NAN,1.89,4.11,,0,93,93,93,1,94,Sam,Rej,Participant_Images/665fc69fe8d5562ac1294f30/665fc69fe8d5562ac1294f30_Images/665fc69fe8d5562ac1294f30_Image_8.jpeg,did not like,3.820572462,,,,,,,,,,,,,,,,,,,,,
,,665fc69fe8d5562ac1294f30,2024-07-04_15h06.16.989,WTP_SM_Choice,2022.2.1,MacIntel,108.6956522,,,,,,,,,,,,,,,,,,91,,,,,,space,3.905,space,0.4071,0.01,1,1.3176,0,0,0,0,1,take my dog to the park to play fetch,explore downtown with friends,0.01,0.04,3.3,,,,
,,665fc69fe8d5562ac1294f30,2024-07-04_15h06.16.989,WTP_SM_Choice,2022.2.1,MacIntel,108.6956522,,,,,,,,,,,,,,,,,,92,,,,,,,,,,0.02,1,2.8302,0,1,1,1,1,find new recipes and cook them ,dance with my brother and his friends,0.02,0.04,8.8,,,,
,,665fc69fe8d5562ac1294f30,2024-07-04_15h06.16.989,WTP_SM_Choice,2022.2.1,MacIntel,108.6956522,,,,,,,,,,,,,,,,,,93,,,,,,,,,,0.03,1,2.4042,0,2,2,2,1,Browse old vintage tee shirts at the thrift store,explore downtown with friends,0.03,0.04,1.1,,,,
,,665fc69fe8d5562ac1294f30,2024-07-04_15h06.16.989,WTP_SM_Choice,2022.2.1,MacIntel,108.6956522,,,,,,,,,,,,,,,,,,94,,,,,,,,,,0.04,2,3.1572,0,3,3,3,1,work on fixing my moped,play kickball with my co-workers,0.04,0.04,4.4,,,,
,,665fc69fe8d5562ac1294f30,2024-07-04_15h06.16.989,WTP_SM_Choice,2022.2.1,MacIntel,108.6956522,,,,,,,,,,,,,,,,,,95,,,,,,,,,,0.04,2,2.2152,0,4,4,4,1,take my dog to the park to play fetch,go hiking with friends,0.05,0.04,4.4,,,,
,,665fc69fe8d5562ac1294f30,2024-07-04_15h06.16.989,WTP_SM_Choice,2022.2.1,MacIntel,108.6956522,,,,,,,NAN,,NAN,2.03,3.97,,0,94,94,94,1,95,Sam,Rej,Participant_Images/665fc69fe8d5562ac1294f30/665fc69fe8d5562ac1294f30_Images/665fc69fe8d5562ac1294f30_Image_4.jpeg,did not like,2.455989137,,,,,,,,,,,,,,,,,,,,,
,,665fc69fe8d5562ac1294f30,2024-07-04_15h06.16.989,WTP_SM_Choice,2022.2.1,MacIntel,108.6956522,,,,,space,6.5996,NAN,,NAN,2.03,3.97,,0,95,95,95,1,96,Sam,Rej,Participant_Images/665fc69fe8d5562ac1294f30/665fc69fe8d5562ac1294f30_Images/665fc69fe8d5562ac1294f30_Image_23.jpeg,did not like,3.79605092,,,,,,,,,,,,,,,,,,,,,
,,665fc69fe8d5562ac1294f30,2024-07-04_15h06.16.989,WTP_SM_Choice,2022.2.1,MacIntel,108.6956522,,,,,space,1.2707,NAN,,NAN,2.03,3.97,,0,96,96,96,1,97,Sam,Rej,Participant_Images/665fc69fe8d5562ac1294f30/665fc69fe8d5562ac1294f30_Images/665fc69fe8d5562ac1294f30_Image_9.jpeg,did not like,3.562416326,,,,,,,,,,,,,,,,,,,,,
,,665fc69fe8d5562ac1294f30,2024-07-04_15h06.16.989,WTP_SM_Choice,2022.2.1,MacIntel,108.6956522,,,,,space,1.0597,NAN,,NAN,2.03,3.97,,0,97,97,97,1,98,Sam,Rej,Participant_Images/665fc69fe8d5562ac1294f30/665fc69fe8d5562ac1294f30_Images/665fc69fe8d5562ac1294f30_Image_6.jpeg,liked,2.843822497,,,,,,,,,,,,,,,,,,,,,
,,665fc69fe8d5562ac1294f30,2024-07-04_15h06.16.989,WTP_SM_Choice,2022.2.1,MacIntel,108.6956522,,,,,space,0.7013,NAN,,NAN,2.03,3.97,,0,98,98,98,1,99,Sam,Rej,Participant_Images/665fc69fe8d5562ac1294f30/665fc69fe8d5562ac1294f30_Images/665fc69fe8d5562ac1294f30_Image_14.jpeg,did not like,3.546495948,,,,,,,,,,,,,,,,,,,,,
,,665fc69fe8d5562ac1294f30,2024-07-04_15h06.16.989,WTP_SM_Choice,2022.2.1,MacIntel,108.6956522,,,,,,,,,,,,,,,,,,96,,,,,,space,0.6567,space,0.3161,0.01,1,3.0502,0,0,0,0,1,work on fixing my moped,help my friend out with yard work or moving,0.01,0.05,3.3,,,,
,,665fc69fe8d5562ac1294f30,2024-07-04_15h06.16.989,WTP_SM_Choice,2022.2.1,MacIntel,108.6956522,,,,,,,,,,,,,,,,,,97,,,,,,,,,,0.02,1,4.4302,0,1,1,1,1,deep clean my apartment with all the windows open,go to music festivals with my friends,0.02,0.05,1.1,,,,
,,665fc69fe8d5562ac1294f30,2024-07-04_15h06.16.989,WTP_SM_Choice,2022.2.1,MacIntel,108.6956522,,,,,,,,,,,,,,,,,,98,,,,,,,,,,0.03,1,2.5414,0,2,2,2,1,take my dog to the park to play fetch,travel to other countries with friends,0.03,0.05,1.1,,,,
,,665fc69fe8d5562ac1294f30,2024-07-04_15h06.16.989,WTP_SM_Choice,2022.2.1,MacIntel,108.6956522,,,,,,,,,,,,,,,,,,99,,,,,,,,,,0.04,1,3.2058,0,3,3,3,1,take my dog to the park to play fetch,cook out with my family,0.04,0.05,3.3,,,,
,,665fc69fe8d5562ac1294f30,2024-07-04_15h06.16.989,WTP_SM_Choice,2022.2.1,MacIntel,108.6956522,,,,,,,,,,,,,,,,,,100,,,,,,,,,,0.05,2,3.4472,0,4,4,4,1,blast and danc to music with my dog,eat fancy dinners with my girlfriend,0.05,0.05,4.4,,,,
,,665fc69fe8d5562ac1294f30,2024-07-04_15h06.16.989,WTP_SM_Choice,2022.2.1,MacIntel,108.6956522,,,,,,,4,,7,2.18,3.82,,0,99,99,99,1,100,Sam,Rej,Participant_Images/665fc69fe8d5562ac1294f30/665fc69fe8d5562ac1294f30_Images/665fc69fe8d5562ac1294f30_Image_7.jpeg,did not like,1.672012706,,,,,,,,,,,,,,,,,,space,0.8979,,
,,665fc69fe8d5562ac1294f30,2024-07-04_15h06.16.989,WTP_SM_Choice,2022.2.1,MacIntel,108.6956522,,,,,,,,,,,,,,,,,,,,,,,,,,,,,,,,,,,,,,,,,,,space,14.074
