endwelcomescreen_keys.keys,endwelcomescreen_keys.rt,participant,STUDY_ID,SESSION_ID,date,expName,psychopyVersion,OS,frameRate,endinstructionscreen_keys.keys,endinstructionscreen_keys.rt,endpartnermatch_keys.keys,endpartnermatch_keys.rt,sharenextphoto_key.keys,sharenextphoto_key.rt,salience_rating,key_resp.keys,stress_level,subtract_bonus,TOTAL_TASK_BONUS,stresslevel_keypress.keys,entiretaskloop.thisRepN,entiretaskloop.thisTrialN,entiretaskloop.thisN,entiretaskloop.thisIndex,entiretaskloop.ran,TrialNumber,Partner,Condition,Photos,Feedback,FeedbackWait,WTP_ins_keys1.keys,WTP_ins_keys1.rt,WTP_ins_keys2.keys,WTP_ins_keys2.rt,decision_price,responses.keys,responses.rt,WTPTaskLoop.thisRepN,WTPTaskLoop.thisTrialN,WTPTaskLoop.thisN,WTPTaskLoop.thisIndex,WTPTaskLoop.ran,right,left,leftmoney,rightmoney,WTP_ITI,social_left,Resume_keys.keys,Resume_keys.rt,end_screen_keys.keys,end_screen_keys.rt
space,6.2881,6665fb9d3202800c8227cde5,6685aa9113c938e83b4f1ea0,66fecb608a8055870b88e6d4,2024-10-03_11h58.14.843,WTP_SM_Choice,2022.2.1,Win32,60.24096386,,,,,,,,,,,,,,,,,,,,,,,,,,,,,,,,,,,,,,,,,,,,,
,,6665fb9d3202800c8227cde5,6685aa9113c938e83b4f1ea0,66fecb608a8055870b88e6d4,2024-10-03_11h58.14.843,WTP_SM_Choice,2022.2.1,Win32,60.24096386,space,21.0257,,,,,,,,,,,,,,,,,,,,,,,,,,,,,,,,,,,,,,,,,,,
,,6665fb9d3202800c8227cde5,6685aa9113c938e83b4f1ea0,66fecb608a8055870b88e6d4,2024-10-03_11h58.14.843,WTP_SM_Choice,2022.2.1,Win32,60.24096386,,,space,4.9469,space,1.3938,NAN,,NAN,0,6,,0,0,0,0,1,1,Charlie,Rej,Participant_Images/6665fb9d3202800c8227cde5/6665fb9d3202800c8227cde5_Images/6665fb9d3202800c8227cde5_Image_9.jpeg,did not like,3.613205605,,,,,,,,,,,,,,,,,,,,,,
,,6665fb9d3202800c8227cde5,6685aa9113c938e83b4f1ea0,66fecb608a8055870b88e6d4,2024-10-03_11h58.14.843,WTP_SM_Choice,2022.2.1,Win32,60.24096386,,,,,space,1.7847,NAN,,NAN,0,6,,0,1,1,1,1,2,Charlie,Rej,Participant_Images/6665fb9d3202800c8227cde5/6665fb9d3202800c8227cde5_Images/6665fb9d3202800c8227cde5_Image_1.jpeg,did not like,4.988446431,,,,,,,,,,,,,,,,,,,,,,
,,6665fb9d3202800c8227cde5,6685aa9113c938e83b4f1ea0,66fecb608a8055870b88e6d4,2024-10-03_11h58.14.843,WTP_SM_Choice,2022.2.1,Win32,60.24096386,,,,,space,1.2013,NAN,,NAN,0,6,,0,2,2,2,1,3,Charlie,Rej,Participant_Images/6665fb9d3202800c8227cde5/6665fb9d3202800c8227cde5_Images/6665fb9d3202800c8227cde5_Image_8.jpeg,did not like,3.470791822,,,,,,,,,,,,,,,,,,,,,,
,,6665fb9d3202800c8227cde5,6685aa9113c938e83b4f1ea0,66fecb608a8055870b88e6d4,2024-10-03_11h58.14.843,WTP_SM_Choice,2022.2.1,Win32,60.24096386,,,,,space,0.8093,NAN,,NAN,0,6,,0,3,3,3,1,4,Charlie,Rej,Participant_Images/6665fb9d3202800c8227cde5/6665fb9d3202800c8227cde5_Images/6665fb9d3202800c8227cde5_Image_10.jpeg,did not like,3.820572462,,,,,,,,,,,,,,,,,,,,,,
,,6665fb9d3202800c8227cde5,6685aa9113c938e83b4f1ea0,66fecb608a8055870b88e6d4,2024-10-03_11h58.14.843,WTP_SM_Choice,2022.2.1,Win32,60.24096386,,,,,,,,,,,,,,,,,,1,,,,,,space,24.9654,space,11.8681,0.01,1,5.5955,0,0,0,0,1,Go to the park with my kids,Listen to music in earbuds,0.01,0.01,4.4,0,,,,
,,6665fb9d3202800c8227cde5,6685aa9113c938e83b4f1ea0,66fecb608a8055870b88e6d4,2024-10-03_11h58.14.843,WTP_SM_Choice,2022.2.1,Win32,60.24096386,,,,,,,,,,,,,,,,,,2,,,,,,,,,,0.01,2,3.727,0,1,1,1,1,Ride our bikes around the block,Do homework for class,0.02,0.01,8.8,0,,,,
,,6665fb9d3202800c8227cde5,6685aa9113c938e83b4f1ea0,66fecb608a8055870b88e6d4,2024-10-03_11h58.14.843,WTP_SM_Choice,2022.2.1,Win32,60.24096386,,,,,,,,,,,,,,,,,,3,,,,,,,,,,0.01,2,5.0277,0,2,2,2,1,Bake sweet desserts together as family,Do homework for class,0.03,0.01,3.3,0,,,,
,,6665fb9d3202800c8227cde5,6685aa9113c938e83b4f1ea0,66fecb608a8055870b88e6d4,2024-10-03_11h58.14.843,WTP_SM_Choice,2022.2.1,Win32,60.24096386,,,,,,,,,,,,,,,,,,4,,,,,,,,,,0.01,2,2.8633,0,3,3,3,1,Watch a disney movie with kids,Do homework for class,0.04,0.01,1.1,0,,,,
,,6665fb9d3202800c8227cde5,6685aa9113c938e83b4f1ea0,66fecb608a8055870b88e6d4,2024-10-03_11h58.14.843,WTP_SM_Choice,2022.2.1,Win32,60.24096386,,,,,,,,,,,,,,,,,,5,,,,,,,,,,0.01,2,5.789,0,4,4,4,1,Retwist my dreads to make them less frizzy,Watch a disney movie with kids,0.05,0.01,1.1,1,,,,
,,6665fb9d3202800c8227cde5,6685aa9113c938e83b4f1ea0,66fecb608a8055870b88e6d4,2024-10-03_11h58.14.843,WTP_SM_Choice,2022.2.1,Win32,60.24096386,,,,,,,NAN,,NAN,0.05,5.95,,0,4,4,4,1,5,Charlie,Rej,Participant_Images/6665fb9d3202800c8227cde5/6665fb9d3202800c8227cde5_Images/6665fb9d3202800c8227cde5_Image_14.jpeg,did not like,2.455989137,,,,,,,,,,,,,,,,,,,,,,
,,6665fb9d3202800c8227cde5,6685aa9113c938e83b4f1ea0,66fecb608a8055870b88e6d4,2024-10-03_11h58.14.843,WTP_SM_Choice,2022.2.1,Win32,60.24096386,,,,,space,1.551,NAN,,NAN,0.05,5.95,,0,5,5,5,1,6,Charlie,Rej,Participant_Images/6665fb9d3202800c8227cde5/6665fb9d3202800c8227cde5_Images/6665fb9d3202800c8227cde5_Image_21.jpeg,did not like,3.79605092,,,,,,,,,,,,,,,,,,,,,,
,,6665fb9d3202800c8227cde5,6685aa9113c938e83b4f1ea0,66fecb608a8055870b88e6d4,2024-10-03_11h58.14.843,WTP_SM_Choice,2022.2.1,Win32,60.24096386,,,,,space,0.8732,NAN,,NAN,0.05,5.95,,0,6,6,6,1,7,Charlie,Rej,Participant_Images/6665fb9d3202800c8227cde5/6665fb9d3202800c8227cde5_Images/6665fb9d3202800c8227cde5_Image_19.jpeg,did not like,3.562416326,,,,,,,,,,,,,,,,,,,,,,
,,6665fb9d3202800c8227cde5,6685aa9113c938e83b4f1ea0,66fecb608a8055870b88e6d4,2024-10-03_11h58.14.843,WTP_SM_Choice,2022.2.1,Win32,60.24096386,,,,,space,4.0516,NAN,,NAN,0.05,5.95,,0,7,7,7,1,8,Charlie,Rej,Participant_Images/6665fb9d3202800c8227cde5/6665fb9d3202800c8227cde5_Images/6665fb9d3202800c8227cde5_Image_23.jpeg,did not like,2.843822497,,,,,,,,,,,,,,,,,,,,,,
,,6665fb9d3202800c8227cde5,6685aa9113c938e83b4f1ea0,66fecb608a8055870b88e6d4,2024-10-03_11h58.14.843,WTP_SM_Choice,2022.2.1,Win32,60.24096386,,,,,space,0.7257,NAN,,NAN,0.05,5.95,,0,8,8,8,1,9,Charlie,Rej,Participant_Images/6665fb9d3202800c8227cde5/6665fb9d3202800c8227cde5_Images/6665fb9d3202800c8227cde5_Image_3.jpeg,did not like,3.546495948,,,,,,,,,,,,,,,,,,,,,,
,,6665fb9d3202800c8227cde5,6685aa9113c938e83b4f1ea0,66fecb608a8055870b88e6d4,2024-10-03_11h58.14.843,WTP_SM_Choice,2022.2.1,Win32,60.24096386,,,,,,,,,,,,,,,,,,6,,,,,,space,8.1325,space,35.9367,0.01,1,3.9585,0,0,0,0,1,Take a shower with disco lights,Play kickball in the field,0.01,0.02,3.3,1,,,,
,,6665fb9d3202800c8227cde5,6685aa9113c938e83b4f1ea0,66fecb608a8055870b88e6d4,2024-10-03_11h58.14.843,WTP_SM_Choice,2022.2.1,Win32,60.24096386,,,,,,,,,,,,,,,,,,7,,,,,,,,,,0.02,2,4.4948,0,1,1,1,1,Clean the house on weekends,Retwist my dreads to make them less frizzy,0.02,0.02,1.1,0,,,,
,,6665fb9d3202800c8227cde5,6685aa9113c938e83b4f1ea0,66fecb608a8055870b88e6d4,2024-10-03_11h58.14.843,WTP_SM_Choice,2022.2.1,Win32,60.24096386,,,,,,,,,,,,,,,,,,8,,,,,,,,,,0.03,1,4.3582,0,2,2,2,1,Race rc cars on the sidewalk,Play the game in my room,0.03,0.02,1.1,0,,,,
,,6665fb9d3202800c8227cde5,6685aa9113c938e83b4f1ea0,66fecb608a8055870b88e6d4,2024-10-03_11h58.14.843,WTP_SM_Choice,2022.2.1,Win32,60.24096386,,,,,,,,,,,,,,,,,,9,,,,,,,,,,0.02,2,4.8114,0,3,3,3,1,Ride our bikes around the block,Take a shower with disco lights,0.04,0.02,4.4,0,,,,
,,6665fb9d3202800c8227cde5,6685aa9113c938e83b4f1ea0,66fecb608a8055870b88e6d4,2024-10-03_11h58.14.843,WTP_SM_Choice,2022.2.1,Win32,60.24096386,,,,,,,,,,,,,,,,,,10,,,,,,,,,,0.02,2,5.0519,0,4,4,4,1,Read new article with a cup of coffee in the morning,Clean the house on weekends,0.05,0.02,1.1,1,,,,
,,6665fb9d3202800c8227cde5,6685aa9113c938e83b4f1ea0,66fecb608a8055870b88e6d4,2024-10-03_11h58.14.843,WTP_SM_Choice,2022.2.1,Win32,60.24096386,,,,,,,NAN,,NAN,0.15,5.85,,0,9,9,9,1,10,Charlie,Rej,Participant_Images/6665fb9d3202800c8227cde5/6665fb9d3202800c8227cde5_Images/6665fb9d3202800c8227cde5_Image_25.jpeg,did not like,1.672012706,,,,,,,,,,,,,,,,,,,,,,
,,6665fb9d3202800c8227cde5,6685aa9113c938e83b4f1ea0,66fecb608a8055870b88e6d4,2024-10-03_11h58.14.843,WTP_SM_Choice,2022.2.1,Win32,60.24096386,,,,,space,1.2512,NAN,,NAN,0.15,5.85,,0,10,10,10,1,11,Charlie,Rej,Participant_Images/6665fb9d3202800c8227cde5/6665fb9d3202800c8227cde5_Images/6665fb9d3202800c8227cde5_Image_22.jpeg,liked,4.942172136,,,,,,,,,,,,,,,,,,,,,,
,,6665fb9d3202800c8227cde5,6685aa9113c938e83b4f1ea0,66fecb608a8055870b88e6d4,2024-10-03_11h58.14.843,WTP_SM_Choice,2022.2.1,Win32,60.24096386,,,,,space,0.6348,NAN,,NAN,0.15,5.85,,0,11,11,11,1,12,Charlie,Rej,Participant_Images/6665fb9d3202800c8227cde5/6665fb9d3202800c8227cde5_Images/6665fb9d3202800c8227cde5_Image_11.jpeg,did not like,2.50187214,,,,,,,,,,,,,,,,,,,,,,
,,6665fb9d3202800c8227cde5,6685aa9113c938e83b4f1ea0,66fecb608a8055870b88e6d4,2024-10-03_11h58.14.843,WTP_SM_Choice,2022.2.1,Win32,60.24096386,,,,,space,0.7351,NAN,,NAN,0.15,5.85,,0,12,12,12,1,13,Charlie,Rej,Participant_Images/6665fb9d3202800c8227cde5/6665fb9d3202800c8227cde5_Images/6665fb9d3202800c8227cde5_Image_24.jpeg,liked,2.071164779,,,,,,,,,,,,,,,,,,,,,,
,,6665fb9d3202800c8227cde5,6685aa9113c938e83b4f1ea0,66fecb608a8055870b88e6d4,2024-10-03_11h58.14.843,WTP_SM_Choice,2022.2.1,Win32,60.24096386,,,,,space,0.8928,NAN,,NAN,0.15,5.85,,0,13,13,13,1,14,Charlie,Rej,Participant_Images/6665fb9d3202800c8227cde5/6665fb9d3202800c8227cde5_Images/6665fb9d3202800c8227cde5_Image_12.jpeg,liked,5.336503566,,,,,,,,,,,,,,,,,,,,,,
,,6665fb9d3202800c8227cde5,6685aa9113c938e83b4f1ea0,66fecb608a8055870b88e6d4,2024-10-03_11h58.14.843,WTP_SM_Choice,2022.2.1,Win32,60.24096386,,,,,,,,,,,,,,,,,,11,,,,,,space,4.115,space,0.52,0.01,1,4.4651,0,0,0,0,1,Read new article with a cup of coffee in the morning,Race rc cars on the sidewalk,0.01,0.03,3.3,1,,,,
,,6665fb9d3202800c8227cde5,6685aa9113c938e83b4f1ea0,66fecb608a8055870b88e6d4,2024-10-03_11h58.14.843,WTP_SM_Choice,2022.2.1,Win32,60.24096386,,,,,,,,,,,,,,,,,,12,,,,,,,,,,0.02,1,2.51,0,1,1,1,1,Clean the house on weekends,Play the game in my room,0.02,0.03,4.4,0,,,,
,,6665fb9d3202800c8227cde5,6685aa9113c938e83b4f1ea0,66fecb608a8055870b88e6d4,2024-10-03_11h58.14.843,WTP_SM_Choice,2022.2.1,Win32,60.24096386,,,,,,,,,,,,,,,,,,13,,,,,,,,,,0.03,1,3.4954,0,2,2,2,1,Play the game in my room,Draw with chalk on sidewalk,0.03,0.03,1.1,1,,,,
,,6665fb9d3202800c8227cde5,6685aa9113c938e83b4f1ea0,66fecb608a8055870b88e6d4,2024-10-03_11h58.14.843,WTP_SM_Choice,2022.2.1,Win32,60.24096386,,,,,,,,,,,,,,,,,,14,,,,,,,,,,0.03,2,2.7743,0,3,3,3,1,Drive on the country side,Play kickball in the field,0.04,0.03,3.3,1,,,,
,,6665fb9d3202800c8227cde5,6685aa9113c938e83b4f1ea0,66fecb608a8055870b88e6d4,2024-10-03_11h58.14.843,WTP_SM_Choice,2022.2.1,Win32,60.24096386,,,,,,,,,,,,,,,,,,15,,,,,,,,,,0.03,2,3.2741,0,4,4,4,1,Go to the park with my kids,Drive on the country side,0.05,0.03,4.4,0,,,,
,,6665fb9d3202800c8227cde5,6685aa9113c938e83b4f1ea0,66fecb608a8055870b88e6d4,2024-10-03_11h58.14.843,WTP_SM_Choice,2022.2.1,Win32,60.24096386,,,,,,,NAN,,NAN,0.27,5.73,,0,14,14,14,1,15,Charlie,Rej,Participant_Images/6665fb9d3202800c8227cde5/6665fb9d3202800c8227cde5_Images/6665fb9d3202800c8227cde5_Image_17.jpeg,liked,2.642157193,,,,,,,,,,,,,,,,,,,,,,
,,6665fb9d3202800c8227cde5,6685aa9113c938e83b4f1ea0,66fecb608a8055870b88e6d4,2024-10-03_11h58.14.843,WTP_SM_Choice,2022.2.1,Win32,60.24096386,,,,,space,0.7677,NAN,,NAN,0.27,5.73,,0,15,15,15,1,16,Charlie,Rej,Participant_Images/6665fb9d3202800c8227cde5/6665fb9d3202800c8227cde5_Images/6665fb9d3202800c8227cde5_Image_4.jpeg,liked,4.456234322,,,,,,,,,,,,,,,,,,,,,,
,,6665fb9d3202800c8227cde5,6685aa9113c938e83b4f1ea0,66fecb608a8055870b88e6d4,2024-10-03_11h58.14.843,WTP_SM_Choice,2022.2.1,Win32,60.24096386,,,,,space,0.5211,NAN,,NAN,0.27,5.73,,0,16,16,16,1,17,Charlie,Rej,Participant_Images/6665fb9d3202800c8227cde5/6665fb9d3202800c8227cde5_Images/6665fb9d3202800c8227cde5_Image_7.jpeg,did not like,4.438512181,,,,,,,,,,,,,,,,,,,,,,
,,6665fb9d3202800c8227cde5,6685aa9113c938e83b4f1ea0,66fecb608a8055870b88e6d4,2024-10-03_11h58.14.843,WTP_SM_Choice,2022.2.1,Win32,60.24096386,,,,,space,4.1865,NAN,,NAN,0.27,5.73,,0,17,17,17,1,18,Charlie,Rej,Participant_Images/6665fb9d3202800c8227cde5/6665fb9d3202800c8227cde5_Images/6665fb9d3202800c8227cde5_Image_18.jpeg,did not like,2.682944783,,,,,,,,,,,,,,,,,,,,,,
,,6665fb9d3202800c8227cde5,6685aa9113c938e83b4f1ea0,66fecb608a8055870b88e6d4,2024-10-03_11h58.14.843,WTP_SM_Choice,2022.2.1,Win32,60.24096386,,,,,space,5.668,NAN,,NAN,0.27,5.73,,0,18,18,18,1,19,Charlie,Rej,Participant_Images/6665fb9d3202800c8227cde5/6665fb9d3202800c8227cde5_Images/6665fb9d3202800c8227cde5_Image_2.jpeg,did not like,4.51984296,,,,,,,,,,,,,,,,,,,,,,
,,6665fb9d3202800c8227cde5,6685aa9113c938e83b4f1ea0,66fecb608a8055870b88e6d4,2024-10-03_11h58.14.843,WTP_SM_Choice,2022.2.1,Win32,60.24096386,,,,,,,,,,,,,,,,,,16,,,,,,space,16.331,space,0.4847,0.01,1,3.3458,0,0,0,0,1,Drink beer while watching sports,Bake sweet desserts together as family,0.01,0.04,1.1,1,,,,
,,6665fb9d3202800c8227cde5,6685aa9113c938e83b4f1ea0,66fecb608a8055870b88e6d4,2024-10-03_11h58.14.843,WTP_SM_Choice,2022.2.1,Win32,60.24096386,,,,,,,,,,,,,,,,,,17,,,,,,,,,,0.04,2,3.0625,0,1,1,1,1,Read new article with a cup of coffee in the morning,Play kickball in the field,0.02,0.04,8.8,1,,,,
,,6665fb9d3202800c8227cde5,6685aa9113c938e83b4f1ea0,66fecb608a8055870b88e6d4,2024-10-03_11h58.14.843,WTP_SM_Choice,2022.2.1,Win32,60.24096386,,,,,,,,,,,,,,,,,,18,,,,,,,,,,0.03,1,3.9788,0,2,2,2,1,Go to the park with my kids,Write lyrics for a song I'm making,0.03,0.04,3.3,0,,,,
,,6665fb9d3202800c8227cde5,6685aa9113c938e83b4f1ea0,66fecb608a8055870b88e6d4,2024-10-03_11h58.14.843,WTP_SM_Choice,2022.2.1,Win32,60.24096386,,,,,,,,,,,,,,,,,,19,,,,,,,,,,0.04,2,2.5778,0,3,3,3,1,Draw with chalk on sidewalk,Do homework for class,0.04,0.04,3.3,0,,,,
,,6665fb9d3202800c8227cde5,6685aa9113c938e83b4f1ea0,66fecb608a8055870b88e6d4,2024-10-03_11h58.14.843,WTP_SM_Choice,2022.2.1,Win32,60.24096386,,,,,,,,,,,,,,,,,,20,,,,,,,,,,0.04,2,4.0317,0,4,4,4,1,Race rc cars on the sidewalk,Drink beer while watching sports,0.05,0.04,1.1,0,,,,
,,6665fb9d3202800c8227cde5,6685aa9113c938e83b4f1ea0,66fecb608a8055870b88e6d4,2024-10-03_11h58.14.843,WTP_SM_Choice,2022.2.1,Win32,60.24096386,,,,,,,NAN,,NAN,0.43,5.57,,0,19,19,19,1,20,Charlie,Rej,Participant_Images/6665fb9d3202800c8227cde5/6665fb9d3202800c8227cde5_Images/6665fb9d3202800c8227cde5_Image_6.jpeg,did not like,3.195382774,,,,,,,,,,,,,,,,,,,,,,
,,6665fb9d3202800c8227cde5,6685aa9113c938e83b4f1ea0,66fecb608a8055870b88e6d4,2024-10-03_11h58.14.843,WTP_SM_Choice,2022.2.1,Win32,60.24096386,,,,,space,1.9881,NAN,,NAN,0.43,5.57,,0,20,20,20,1,21,Charlie,Rej,Participant_Images/6665fb9d3202800c8227cde5/6665fb9d3202800c8227cde5_Images/6665fb9d3202800c8227cde5_Image_20.jpeg,liked,1.779333479,,,,,,,,,,,,,,,,,,,,,,
,,6665fb9d3202800c8227cde5,6685aa9113c938e83b4f1ea0,66fecb608a8055870b88e6d4,2024-10-03_11h58.14.843,WTP_SM_Choice,2022.2.1,Win32,60.24096386,,,,,space,4.3895,NAN,,NAN,0.43,5.57,,0,21,21,21,1,22,Charlie,Rej,Participant_Images/6665fb9d3202800c8227cde5/6665fb9d3202800c8227cde5_Images/6665fb9d3202800c8227cde5_Image_5.jpeg,did not like,4.312468682,,,,,,,,,,,,,,,,,,,,,,
,,6665fb9d3202800c8227cde5,6685aa9113c938e83b4f1ea0,66fecb608a8055870b88e6d4,2024-10-03_11h58.14.843,WTP_SM_Choice,2022.2.1,Win32,60.24096386,,,,,space,6.1192,NAN,,NAN,0.43,5.57,,0,22,22,22,1,23,Charlie,Rej,Participant_Images/6665fb9d3202800c8227cde5/6665fb9d3202800c8227cde5_Images/6665fb9d3202800c8227cde5_Image_15.jpeg,did not like,4.940433059,,,,,,,,,,,,,,,,,,,,,,
,,6665fb9d3202800c8227cde5,6685aa9113c938e83b4f1ea0,66fecb608a8055870b88e6d4,2024-10-03_11h58.14.843,WTP_SM_Choice,2022.2.1,Win32,60.24096386,,,,,space,1.2678,NAN,,NAN,0.43,5.57,,0,23,23,23,1,24,Charlie,Rej,Participant_Images/6665fb9d3202800c8227cde5/6665fb9d3202800c8227cde5_Images/6665fb9d3202800c8227cde5_Image_13.jpeg,did not like,2.7105123,,,,,,,,,,,,,,,,,,,,,,
,,6665fb9d3202800c8227cde5,6685aa9113c938e83b4f1ea0,66fecb608a8055870b88e6d4,2024-10-03_11h58.14.843,WTP_SM_Choice,2022.2.1,Win32,60.24096386,,,,,,,,,,,,,,,,,,21,,,,,,space,1.4471,space,0.6067,0.01,1,3.4087,0,0,0,0,1,Bake sweet desserts together as family,Retwist my dreads to make them less frizzy,0.01,0.05,8.8,0,,,,
,,6665fb9d3202800c8227cde5,6685aa9113c938e83b4f1ea0,66fecb608a8055870b88e6d4,2024-10-03_11h58.14.843,WTP_SM_Choice,2022.2.1,Win32,60.24096386,,,,,,,,,,,,,,,,,,22,,,,,,,,,,0.02,1,3.2121,0,1,1,1,1,Listen to music in earbuds,Bbq in the back yard,0.02,0.05,4.4,1,,,,
,,6665fb9d3202800c8227cde5,6685aa9113c938e83b4f1ea0,66fecb608a8055870b88e6d4,2024-10-03_11h58.14.843,WTP_SM_Choice,2022.2.1,Win32,60.24096386,,,,,,,,,,,,,,,,,,23,,,,,,,,,,0.05,2,3.3612,0,2,2,2,1,Go to the park with my kids,Color in a coloring book to complete the whole thing,0.03,0.05,1.1,0,,,,
,,6665fb9d3202800c8227cde5,6685aa9113c938e83b4f1ea0,66fecb608a8055870b88e6d4,2024-10-03_11h58.14.843,WTP_SM_Choice,2022.2.1,Win32,60.24096386,,,,,,,,,,,,,,,,,,24,,,,,,,,,,0.05,2,3.9151,0,3,3,3,1,Drink beer while watching sports,Throw the football with the kids,0.04,0.05,4.4,1,,,,
,,6665fb9d3202800c8227cde5,6685aa9113c938e83b4f1ea0,66fecb608a8055870b88e6d4,2024-10-03_11h58.14.843,WTP_SM_Choice,2022.2.1,Win32,60.24096386,,,,,,,,,,,,,,,,,,25,,,,,,,,,,0.05,2,3.4964,0,4,4,4,1,Bake sweet desserts together as family,Read new article with a cup of coffee in the morning,0.05,0.05,3.3,0,,,,
,,6665fb9d3202800c8227cde5,6685aa9113c938e83b4f1ea0,66fecb608a8055870b88e6d4,2024-10-03_11h58.14.843,WTP_SM_Choice,2022.2.1,Win32,60.24096386,,,,,,,3,,9,0.61,5.39,,0,24,24,24,1,25,Charlie,Rej,Participant_Images/6665fb9d3202800c8227cde5/6665fb9d3202800c8227cde5_Images/6665fb9d3202800c8227cde5_Image_16.jpeg,liked,3.602308302,,,,,,,,,,,,,,,,,,,space,1.2929,,
,,6665fb9d3202800c8227cde5,6685aa9113c938e83b4f1ea0,66fecb608a8055870b88e6d4,2024-10-03_11h58.14.843,WTP_SM_Choice,2022.2.1,Win32,60.24096386,,,space,2.4125,space,0.6369,NAN,,NAN,0.61,5.39,,0,25,25,25,1,26,Sam,Rej,Participant_Images/6665fb9d3202800c8227cde5/6665fb9d3202800c8227cde5_Images/6665fb9d3202800c8227cde5_Image_25.jpeg,did not like,4.106391878,,,,,,,,,,,,,,,,,,,,,,
,,6665fb9d3202800c8227cde5,6685aa9113c938e83b4f1ea0,66fecb608a8055870b88e6d4,2024-10-03_11h58.14.843,WTP_SM_Choice,2022.2.1,Win32,60.24096386,,,,,space,1.1515,NAN,,NAN,0.61,5.39,,0,26,26,26,1,27,Sam,Rej,Participant_Images/6665fb9d3202800c8227cde5/6665fb9d3202800c8227cde5_Images/6665fb9d3202800c8227cde5_Image_2.jpeg,did not like,3.799433026,,,,,,,,,,,,,,,,,,,,,,
,,6665fb9d3202800c8227cde5,6685aa9113c938e83b4f1ea0,66fecb608a8055870b88e6d4,2024-10-03_11h58.14.843,WTP_SM_Choice,2022.2.1,Win32,60.24096386,,,,,space,1.025,NAN,,NAN,0.61,5.39,,0,27,27,27,1,28,Sam,Rej,Participant_Images/6665fb9d3202800c8227cde5/6665fb9d3202800c8227cde5_Images/6665fb9d3202800c8227cde5_Image_7.jpeg,liked,5.246980764,,,,,,,,,,,,,,,,,,,,,,
,,6665fb9d3202800c8227cde5,6685aa9113c938e83b4f1ea0,66fecb608a8055870b88e6d4,2024-10-03_11h58.14.843,WTP_SM_Choice,2022.2.1,Win32,60.24096386,,,,,space,1.7232,NAN,,NAN,0.61,5.39,,0,28,28,28,1,29,Sam,Rej,Participant_Images/6665fb9d3202800c8227cde5/6665fb9d3202800c8227cde5_Images/6665fb9d3202800c8227cde5_Image_22.jpeg,did not like,3.30081769,,,,,,,,,,,,,,,,,,,,,,
,,6665fb9d3202800c8227cde5,6685aa9113c938e83b4f1ea0,66fecb608a8055870b88e6d4,2024-10-03_11h58.14.843,WTP_SM_Choice,2022.2.1,Win32,60.24096386,,,,,,,,,,,,,,,,,,26,,,,,,space,0.9751,space,0.6252,0.01,2,3.2806,0,0,0,0,1,Play kickball in the field,Retwist my dreads to make them less frizzy,0.01,0.01,4.4,0,,,,
,,6665fb9d3202800c8227cde5,6685aa9113c938e83b4f1ea0,66fecb608a8055870b88e6d4,2024-10-03_11h58.14.843,WTP_SM_Choice,2022.2.1,Win32,60.24096386,,,,,,,,,,,,,,,,,,27,,,,,,,,,,0.01,2,2.4129,0,1,1,1,1,Race rc cars on the sidewalk,Color in a coloring book to complete the whole thing,0.02,0.01,3.3,0,,,,
,,6665fb9d3202800c8227cde5,6685aa9113c938e83b4f1ea0,66fecb608a8055870b88e6d4,2024-10-03_11h58.14.843,WTP_SM_Choice,2022.2.1,Win32,60.24096386,,,,,,,,,,,,,,,,,,28,,,,,,,,,,0.01,2,4.0752,0,2,2,2,1,Race rc cars on the sidewalk,Listen to music in earbuds,0.03,0.01,3.3,0,,,,
,,6665fb9d3202800c8227cde5,6685aa9113c938e83b4f1ea0,66fecb608a8055870b88e6d4,2024-10-03_11h58.14.843,WTP_SM_Choice,2022.2.1,Win32,60.24096386,,,,,,,,,,,,,,,,,,29,,,,,,,,,,0.04,1,2.4285,0,3,3,3,1,Retwist my dreads to make them less frizzy,Go to the park with my kids,0.04,0.01,4.4,1,,,,
,,6665fb9d3202800c8227cde5,6685aa9113c938e83b4f1ea0,66fecb608a8055870b88e6d4,2024-10-03_11h58.14.843,WTP_SM_Choice,2022.2.1,Win32,60.24096386,,,,,,,,,,,,,,,,,,30,,,,,,,,,,0.01,2,2.8435,0,4,4,4,1,Take a shower with disco lights,Bake sweet desserts together as family,0.05,0.01,8.8,1,,,,
,,6665fb9d3202800c8227cde5,6685aa9113c938e83b4f1ea0,66fecb608a8055870b88e6d4,2024-10-03_11h58.14.843,WTP_SM_Choice,2022.2.1,Win32,60.24096386,,,,,,,NAN,,NAN,0.69,5.31,,0,29,29,29,1,30,Sam,Rej,Participant_Images/6665fb9d3202800c8227cde5/6665fb9d3202800c8227cde5_Images/6665fb9d3202800c8227cde5_Image_4.jpeg,did not like,1.661473164,,,,,,,,,,,,,,,,,,,,,,
,,6665fb9d3202800c8227cde5,6685aa9113c938e83b4f1ea0,66fecb608a8055870b88e6d4,2024-10-03_11h58.14.843,WTP_SM_Choice,2022.2.1,Win32,60.24096386,,,,,space,1.7351,NAN,,NAN,0.69,5.31,,0,30,30,30,1,31,Sam,Rej,Participant_Images/6665fb9d3202800c8227cde5/6665fb9d3202800c8227cde5_Images/6665fb9d3202800c8227cde5_Image_19.jpeg,did not like,3.613205605,,,,,,,,,,,,,,,,,,,,,,
,,6665fb9d3202800c8227cde5,6685aa9113c938e83b4f1ea0,66fecb608a8055870b88e6d4,2024-10-03_11h58.14.843,WTP_SM_Choice,2022.2.1,Win32,60.24096386,,,,,space,1.3909,NAN,,NAN,0.69,5.31,,0,31,31,31,1,32,Sam,Rej,Participant_Images/6665fb9d3202800c8227cde5/6665fb9d3202800c8227cde5_Images/6665fb9d3202800c8227cde5_Image_10.jpeg,did not like,4.988446431,,,,,,,,,,,,,,,,,,,,,,
,,6665fb9d3202800c8227cde5,6685aa9113c938e83b4f1ea0,66fecb608a8055870b88e6d4,2024-10-03_11h58.14.843,WTP_SM_Choice,2022.2.1,Win32,60.24096386,,,,,space,11.3047,NAN,,NAN,0.69,5.31,,0,32,32,32,1,33,Sam,Rej,Participant_Images/6665fb9d3202800c8227cde5/6665fb9d3202800c8227cde5_Images/6665fb9d3202800c8227cde5_Image_20.jpeg,did not like,3.470791822,,,,,,,,,,,,,,,,,,,,,,
,,6665fb9d3202800c8227cde5,6685aa9113c938e83b4f1ea0,66fecb608a8055870b88e6d4,2024-10-03_11h58.14.843,WTP_SM_Choice,2022.2.1,Win32,60.24096386,,,,,space,1.1347,NAN,,NAN,0.69,5.31,,0,33,33,33,1,34,Sam,Rej,Participant_Images/6665fb9d3202800c8227cde5/6665fb9d3202800c8227cde5_Images/6665fb9d3202800c8227cde5_Image_15.jpeg,liked,3.820572462,,,,,,,,,,,,,,,,,,,,,,
,,6665fb9d3202800c8227cde5,6685aa9113c938e83b4f1ea0,66fecb608a8055870b88e6d4,2024-10-03_11h58.14.843,WTP_SM_Choice,2022.2.1,Win32,60.24096386,,,,,,,,,,,,,,,,,,31,,,,,,space,2.8317,space,0.253,0.01,1,2.1742,0,0,0,0,1,Take a shower with disco lights,Throw the football with the kids,0.01,0.02,8.8,1,,,,
,,6665fb9d3202800c8227cde5,6685aa9113c938e83b4f1ea0,66fecb608a8055870b88e6d4,2024-10-03_11h58.14.843,WTP_SM_Choice,2022.2.1,Win32,60.24096386,,,,,,,,,,,,,,,,,,32,,,,,,,,,,0.02,1,2.4817,0,1,1,1,1,Do homework for class,Bbq in the back yard,0.02,0.02,1.1,1,,,,
,,6665fb9d3202800c8227cde5,6685aa9113c938e83b4f1ea0,66fecb608a8055870b88e6d4,2024-10-03_11h58.14.843,WTP_SM_Choice,2022.2.1,Win32,60.24096386,,,,,,,,,,,,,,,,,,33,,,,,,,,,,0.03,1,3.8467,0,2,2,2,1,Throw the football with the kids,Play the game in my room,0.03,0.02,4.4,0,,,,
,,6665fb9d3202800c8227cde5,6685aa9113c938e83b4f1ea0,66fecb608a8055870b88e6d4,2024-10-03_11h58.14.843,WTP_SM_Choice,2022.2.1,Win32,60.24096386,,,,,,,,,,,,,,,,,,34,,,,,,,,,,0.02,2,3.6938,0,3,3,3,1,Draw with chalk on sidewalk,Read new article with a cup of coffee in the morning,0.04,0.02,3.3,0,,,,
,,6665fb9d3202800c8227cde5,6685aa9113c938e83b4f1ea0,66fecb608a8055870b88e6d4,2024-10-03_11h58.14.843,WTP_SM_Choice,2022.2.1,Win32,60.24096386,,,,,,,,,,,,,,,,,,35,,,,,,,,,,0.05,1,3.8522,0,4,4,4,1,Color in a coloring book to complete the whole thing,Bake sweet desserts together as family,0.05,0.02,1.1,1,,,,
,,6665fb9d3202800c8227cde5,6685aa9113c938e83b4f1ea0,66fecb608a8055870b88e6d4,2024-10-03_11h58.14.843,WTP_SM_Choice,2022.2.1,Win32,60.24096386,,,,,,,NAN,,NAN,0.82,5.18,,0,34,34,34,1,35,Sam,Rej,Participant_Images/6665fb9d3202800c8227cde5/6665fb9d3202800c8227cde5_Images/6665fb9d3202800c8227cde5_Image_11.jpeg,did not like,2.455989137,,,,,,,,,,,,,,,,,,,,,,
,,6665fb9d3202800c8227cde5,6685aa9113c938e83b4f1ea0,66fecb608a8055870b88e6d4,2024-10-03_11h58.14.843,WTP_SM_Choice,2022.2.1,Win32,60.24096386,,,,,space,1.8344,NAN,,NAN,0.82,5.18,,0,35,35,35,1,36,Sam,Rej,Participant_Images/6665fb9d3202800c8227cde5/6665fb9d3202800c8227cde5_Images/6665fb9d3202800c8227cde5_Image_8.jpeg,did not like,3.79605092,,,,,,,,,,,,,,,,,,,,,,
,,6665fb9d3202800c8227cde5,6685aa9113c938e83b4f1ea0,66fecb608a8055870b88e6d4,2024-10-03_11h58.14.843,WTP_SM_Choice,2022.2.1,Win32,60.24096386,,,,,space,1.2041,NAN,,NAN,0.82,5.18,,0,36,36,36,1,37,Sam,Rej,Participant_Images/6665fb9d3202800c8227cde5/6665fb9d3202800c8227cde5_Images/6665fb9d3202800c8227cde5_Image_3.jpeg,liked,3.562416326,,,,,,,,,,,,,,,,,,,,,,
,,6665fb9d3202800c8227cde5,6685aa9113c938e83b4f1ea0,66fecb608a8055870b88e6d4,2024-10-03_11h58.14.843,WTP_SM_Choice,2022.2.1,Win32,60.24096386,,,,,space,0.4707,NAN,,NAN,0.82,5.18,,0,37,37,37,1,38,Sam,Rej,Participant_Images/6665fb9d3202800c8227cde5/6665fb9d3202800c8227cde5_Images/6665fb9d3202800c8227cde5_Image_9.jpeg,did not like,2.843822497,,,,,,,,,,,,,,,,,,,,,,
,,6665fb9d3202800c8227cde5,6685aa9113c938e83b4f1ea0,66fecb608a8055870b88e6d4,2024-10-03_11h58.14.843,WTP_SM_Choice,2022.2.1,Win32,60.24096386,,,,,space,1.6942,NAN,,NAN,0.82,5.18,,0,38,38,38,1,39,Sam,Rej,Participant_Images/6665fb9d3202800c8227cde5/6665fb9d3202800c8227cde5_Images/6665fb9d3202800c8227cde5_Image_14.jpeg,did not like,3.546495948,,,,,,,,,,,,,,,,,,,,,,
,,6665fb9d3202800c8227cde5,6685aa9113c938e83b4f1ea0,66fecb608a8055870b88e6d4,2024-10-03_11h58.14.843,WTP_SM_Choice,2022.2.1,Win32,60.24096386,,,,,,,,,,,,,,,,,,36,,,,,,space,3.6137,space,0.4178,0.03,2,2.9248,0,0,0,0,1,Go to the park with my kids,Take a shower with disco lights,0.01,0.03,3.3,0,,,,
,,6665fb9d3202800c8227cde5,6685aa9113c938e83b4f1ea0,66fecb608a8055870b88e6d4,2024-10-03_11h58.14.843,WTP_SM_Choice,2022.2.1,Win32,60.24096386,,,,,,,,,,,,,,,,,,37,,,,,,,,,,0.02,1,1.9284,0,1,1,1,1,Retwist my dreads to make them less frizzy,Bbq in the back yard,0.02,0.03,1.1,1,,,,
,,6665fb9d3202800c8227cde5,6685aa9113c938e83b4f1ea0,66fecb608a8055870b88e6d4,2024-10-03_11h58.14.843,WTP_SM_Choice,2022.2.1,Win32,60.24096386,,,,,,,,,,,,,,,,,,38,,,,,,,,,,0.03,2,2.4608,0,2,2,2,1,Play kickball in the field,Do homework for class,0.03,0.03,1.1,0,,,,
,,6665fb9d3202800c8227cde5,6685aa9113c938e83b4f1ea0,66fecb608a8055870b88e6d4,2024-10-03_11h58.14.843,WTP_SM_Choice,2022.2.1,Win32,60.24096386,,,,,,,,,,,,,,,,,,39,,,,,,,,,,0.03,2,4.5276,0,3,3,3,1,Go to the park with my kids,Drink beer while watching sports,0.04,0.03,3.3,0,,,,
,,6665fb9d3202800c8227cde5,6685aa9113c938e83b4f1ea0,66fecb608a8055870b88e6d4,2024-10-03_11h58.14.843,WTP_SM_Choice,2022.2.1,Win32,60.24096386,,,,,,,,,,,,,,,,,,40,,,,,,,,,,0.03,2,3.7803,0,4,4,4,1,Take a shower with disco lights,Clean the house on weekends,0.05,0.03,4.4,1,,,,
,,6665fb9d3202800c8227cde5,6685aa9113c938e83b4f1ea0,66fecb608a8055870b88e6d4,2024-10-03_11h58.14.843,WTP_SM_Choice,2022.2.1,Win32,60.24096386,,,,,,,NAN,,NAN,0.96,5.04,,0,39,39,39,1,40,Sam,Rej,Participant_Images/6665fb9d3202800c8227cde5/6665fb9d3202800c8227cde5_Images/6665fb9d3202800c8227cde5_Image_5.jpeg,liked,1.672012706,,,,,,,,,,,,,,,,,,,,,,
,,6665fb9d3202800c8227cde5,6685aa9113c938e83b4f1ea0,66fecb608a8055870b88e6d4,2024-10-03_11h58.14.843,WTP_SM_Choice,2022.2.1,Win32,60.24096386,,,,,space,1.7517,NAN,,NAN,0.96,5.04,,0,40,40,40,1,41,Sam,Rej,Participant_Images/6665fb9d3202800c8227cde5/6665fb9d3202800c8227cde5_Images/6665fb9d3202800c8227cde5_Image_23.jpeg,liked,4.942172136,,,,,,,,,,,,,,,,,,,,,,
,,6665fb9d3202800c8227cde5,6685aa9113c938e83b4f1ea0,66fecb608a8055870b88e6d4,2024-10-03_11h58.14.843,WTP_SM_Choice,2022.2.1,Win32,60.24096386,,,,,space,1.3522,NAN,,NAN,0.96,5.04,,0,41,41,41,1,42,Sam,Rej,Participant_Images/6665fb9d3202800c8227cde5/6665fb9d3202800c8227cde5_Images/6665fb9d3202800c8227cde5_Image_1.jpeg,did not like,2.50187214,,,,,,,,,,,,,,,,,,,,,,
,,6665fb9d3202800c8227cde5,6685aa9113c938e83b4f1ea0,66fecb608a8055870b88e6d4,2024-10-03_11h58.14.843,WTP_SM_Choice,2022.2.1,Win32,60.24096386,,,,,space,0.8107,NAN,,NAN,0.96,5.04,,0,42,42,42,1,43,Sam,Rej,Participant_Images/6665fb9d3202800c8227cde5/6665fb9d3202800c8227cde5_Images/6665fb9d3202800c8227cde5_Image_13.jpeg,liked,2.071164779,,,,,,,,,,,,,,,,,,,,,,
,,6665fb9d3202800c8227cde5,6685aa9113c938e83b4f1ea0,66fecb608a8055870b88e6d4,2024-10-03_11h58.14.843,WTP_SM_Choice,2022.2.1,Win32,60.24096386,,,,,space,0.6185,NAN,,NAN,0.96,5.04,,0,43,43,43,1,44,Sam,Rej,Participant_Images/6665fb9d3202800c8227cde5/6665fb9d3202800c8227cde5_Images/6665fb9d3202800c8227cde5_Image_6.jpeg,did not like,5.336503566,,,,,,,,,,,,,,,,,,,,,,
,,6665fb9d3202800c8227cde5,6685aa9113c938e83b4f1ea0,66fecb608a8055870b88e6d4,2024-10-03_11h58.14.843,WTP_SM_Choice,2022.2.1,Win32,60.24096386,,,,,,,,,,,,,,,,,,41,,,,,,space,1.0831,space,0.3899,0.01,1,2.9409,0,0,0,0,1,Go to the park with my kids,Play the game in my room,0.01,0.04,1.1,0,,,,
,,6665fb9d3202800c8227cde5,6685aa9113c938e83b4f1ea0,66fecb608a8055870b88e6d4,2024-10-03_11h58.14.843,WTP_SM_Choice,2022.2.1,Win32,60.24096386,,,,,,,,,,,,,,,,,,42,,,,,,,,,,0.02,1,5.7909,0,1,1,1,1,Listen to music in earbuds,Watch a disney movie with kids,0.02,0.04,3.3,1,,,,
,,6665fb9d3202800c8227cde5,6685aa9113c938e83b4f1ea0,66fecb608a8055870b88e6d4,2024-10-03_11h58.14.843,WTP_SM_Choice,2022.2.1,Win32,60.24096386,,,,,,,,,,,,,,,,,,43,,,,,,,,,,0.03,1,5.8107,0,2,2,2,1,Write lyrics for a song I'm making,Bake sweet desserts together as family,0.03,0.04,1.1,1,,,,
,,6665fb9d3202800c8227cde5,6685aa9113c938e83b4f1ea0,66fecb608a8055870b88e6d4,2024-10-03_11h58.14.843,WTP_SM_Choice,2022.2.1,Win32,60.24096386,,,,,,,,,,,,,,,,,,44,,,,,,,,,,0.04,1,8.3313,0,3,3,3,1,Take a shower with disco lights,Draw with chalk on sidewalk,0.04,0.04,1.1,1,,,,
,,6665fb9d3202800c8227cde5,6685aa9113c938e83b4f1ea0,66fecb608a8055870b88e6d4,2024-10-03_11h58.14.843,WTP_SM_Choice,2022.2.1,Win32,60.24096386,,,,,,,,,,,,,,,,,,45,,,,,,,,,,0.04,2,2.9114,0,4,4,4,1,Drive on the country side,Bbq in the back yard,0.05,0.04,4.4,1,,,,
,,6665fb9d3202800c8227cde5,6685aa9113c938e83b4f1ea0,66fecb608a8055870b88e6d4,2024-10-03_11h58.14.843,WTP_SM_Choice,2022.2.1,Win32,60.24096386,,,,,,,NAN,,NAN,1.1,4.9,,0,44,44,44,1,45,Sam,Rej,Participant_Images/6665fb9d3202800c8227cde5/6665fb9d3202800c8227cde5_Images/6665fb9d3202800c8227cde5_Image_12.jpeg,did not like,2.642157193,,,,,,,,,,,,,,,,,,,,,,
,,6665fb9d3202800c8227cde5,6685aa9113c938e83b4f1ea0,66fecb608a8055870b88e6d4,2024-10-03_11h58.14.843,WTP_SM_Choice,2022.2.1,Win32,60.24096386,,,,,space,0.9622,NAN,,NAN,1.1,4.9,,0,45,45,45,1,46,Sam,Rej,Participant_Images/6665fb9d3202800c8227cde5/6665fb9d3202800c8227cde5_Images/6665fb9d3202800c8227cde5_Image_18.jpeg,did not like,4.456234322,,,,,,,,,,,,,,,,,,,,,,
,,6665fb9d3202800c8227cde5,6685aa9113c938e83b4f1ea0,66fecb608a8055870b88e6d4,2024-10-03_11h58.14.843,WTP_SM_Choice,2022.2.1,Win32,60.24096386,,,,,space,2.0424,NAN,,NAN,1.1,4.9,,0,46,46,46,1,47,Sam,Rej,Participant_Images/6665fb9d3202800c8227cde5/6665fb9d3202800c8227cde5_Images/6665fb9d3202800c8227cde5_Image_24.jpeg,did not like,4.438512181,,,,,,,,,,,,,,,,,,,,,,
,,6665fb9d3202800c8227cde5,6685aa9113c938e83b4f1ea0,66fecb608a8055870b88e6d4,2024-10-03_11h58.14.843,WTP_SM_Choice,2022.2.1,Win32,60.24096386,,,,,space,5.3848,NAN,,NAN,1.1,4.9,,0,47,47,47,1,48,Sam,Rej,Participant_Images/6665fb9d3202800c8227cde5/6665fb9d3202800c8227cde5_Images/6665fb9d3202800c8227cde5_Image_17.jpeg,did not like,2.682944783,,,,,,,,,,,,,,,,,,,,,,
,,6665fb9d3202800c8227cde5,6685aa9113c938e83b4f1ea0,66fecb608a8055870b88e6d4,2024-10-03_11h58.14.843,WTP_SM_Choice,2022.2.1,Win32,60.24096386,,,,,space,0.4848,NAN,,NAN,1.1,4.9,,0,48,48,48,1,49,Sam,Rej,Participant_Images/6665fb9d3202800c8227cde5/6665fb9d3202800c8227cde5_Images/6665fb9d3202800c8227cde5_Image_21.jpeg,did not like,4.51984296,,,,,,,,,,,,,,,,,,,,,,
,,6665fb9d3202800c8227cde5,6685aa9113c938e83b4f1ea0,66fecb608a8055870b88e6d4,2024-10-03_11h58.14.843,WTP_SM_Choice,2022.2.1,Win32,60.24096386,,,,,,,,,,,,,,,,,,46,,,,,,space,12.4587,space,0.826,0.01,1,2.3066,0,0,0,0,1,Throw the football with the kids,Retwist my dreads to make them less frizzy,0.01,0.05,8.8,0,,,,
,,6665fb9d3202800c8227cde5,6685aa9113c938e83b4f1ea0,66fecb608a8055870b88e6d4,2024-10-03_11h58.14.843,WTP_SM_Choice,2022.2.1,Win32,60.24096386,,,,,,,,,,,,,,,,,,47,,,,,,,,,,0.05,2,4.5285,0,1,1,1,1,Watch a disney movie with kids,Write lyrics for a song I'm making,0.02,0.05,1.1,0,,,,
,,6665fb9d3202800c8227cde5,6685aa9113c938e83b4f1ea0,66fecb608a8055870b88e6d4,2024-10-03_11h58.14.843,WTP_SM_Choice,2022.2.1,Win32,60.24096386,,,,,,,,,,,,,,,,,,48,,,,,,,,,,0.05,2,3.6584,0,2,2,2,1,Write lyrics for a song I'm making,Clean the house on weekends,0.03,0.05,4.4,1,,,,
,,6665fb9d3202800c8227cde5,6685aa9113c938e83b4f1ea0,66fecb608a8055870b88e6d4,2024-10-03_11h58.14.843,WTP_SM_Choice,2022.2.1,Win32,60.24096386,,,,,,,,,,,,,,,,,,49,,,,,,,,,,0.04,1,4.6192,0,3,3,3,1,Write lyrics for a song I'm making,Bbq in the back yard,0.04,0.05,3.3,1,,,,
,,6665fb9d3202800c8227cde5,6685aa9113c938e83b4f1ea0,66fecb608a8055870b88e6d4,2024-10-03_11h58.14.843,WTP_SM_Choice,2022.2.1,Win32,60.24096386,,,,,,,,,,,,,,,,,,50,,,,,,,,,,0.05,2,3.5215,0,4,4,4,1,Race rc cars on the sidewalk,Write lyrics for a song I'm making,0.05,0.05,1.1,0,,,,
,,6665fb9d3202800c8227cde5,6685aa9113c938e83b4f1ea0,66fecb608a8055870b88e6d4,2024-10-03_11h58.14.843,WTP_SM_Choice,2022.2.1,Win32,60.24096386,,,,,,,4,,9,1.3,4.7,,0,49,49,49,1,50,Sam,Rej,Participant_Images/6665fb9d3202800c8227cde5/6665fb9d3202800c8227cde5_Images/6665fb9d3202800c8227cde5_Image_16.jpeg,liked,3.195382774,,,,,,,,,,,,,,,,,,,space,1.2102,,
,,6665fb9d3202800c8227cde5,6685aa9113c938e83b4f1ea0,66fecb608a8055870b88e6d4,2024-10-03_11h58.14.843,WTP_SM_Choice,2022.2.1,Win32,60.24096386,,,space,7.3662,space,3.0679,NAN,,NAN,1.3,4.7,,0,50,50,50,1,51,Alex,Acc,Participant_Images/6665fb9d3202800c8227cde5/6665fb9d3202800c8227cde5_Images/6665fb9d3202800c8227cde5_Image_19.jpeg,liked,1.779333479,,,,,,,,,,,,,,,,,,,,,,
,,6665fb9d3202800c8227cde5,6685aa9113c938e83b4f1ea0,66fecb608a8055870b88e6d4,2024-10-03_11h58.14.843,WTP_SM_Choice,2022.2.1,Win32,60.24096386,,,,,space,1.0697,NAN,,NAN,1.3,4.7,,0,51,51,51,1,52,Alex,Acc,Participant_Images/6665fb9d3202800c8227cde5/6665fb9d3202800c8227cde5_Images/6665fb9d3202800c8227cde5_Image_21.jpeg,liked,4.312468682,,,,,,,,,,,,,,,,,,,,,,
,,6665fb9d3202800c8227cde5,6685aa9113c938e83b4f1ea0,66fecb608a8055870b88e6d4,2024-10-03_11h58.14.843,WTP_SM_Choice,2022.2.1,Win32,60.24096386,,,,,space,1.5851,NAN,,NAN,1.3,4.7,,0,52,52,52,1,53,Alex,Acc,Participant_Images/6665fb9d3202800c8227cde5/6665fb9d3202800c8227cde5_Images/6665fb9d3202800c8227cde5_Image_22.jpeg,liked,4.940433059,,,,,,,,,,,,,,,,,,,,,,
,,6665fb9d3202800c8227cde5,6685aa9113c938e83b4f1ea0,66fecb608a8055870b88e6d4,2024-10-03_11h58.14.843,WTP_SM_Choice,2022.2.1,Win32,60.24096386,,,,,space,2.0956,NAN,,NAN,1.3,4.7,,0,53,53,53,1,54,Alex,Acc,Participant_Images/6665fb9d3202800c8227cde5/6665fb9d3202800c8227cde5_Images/6665fb9d3202800c8227cde5_Image_23.jpeg,liked,2.7105123,,,,,,,,,,,,,,,,,,,,,,
,,6665fb9d3202800c8227cde5,6685aa9113c938e83b4f1ea0,66fecb608a8055870b88e6d4,2024-10-03_11h58.14.843,WTP_SM_Choice,2022.2.1,Win32,60.24096386,,,,,,,,,,,,,,,,,,51,,,,,,space,1.7308,space,2.5014,0.01,1,2.5124,0,0,0,0,1,Retwist my dreads to make them less frizzy,Draw with chalk on sidewalk,0.01,0.01,1.1,1,,,,
,,6665fb9d3202800c8227cde5,6685aa9113c938e83b4f1ea0,66fecb608a8055870b88e6d4,2024-10-03_11h58.14.843,WTP_SM_Choice,2022.2.1,Win32,60.24096386,,,,,,,,,,,,,,,,,,52,,,,,,,,,,0.02,1,2.4427,0,1,1,1,1,Do homework for class,Clean the house on weekends,0.02,0.01,3.3,1,,,,
,,6665fb9d3202800c8227cde5,6685aa9113c938e83b4f1ea0,66fecb608a8055870b88e6d4,2024-10-03_11h58.14.843,WTP_SM_Choice,2022.2.1,Win32,60.24096386,,,,,,,,,,,,,,,,,,53,,,,,,,,,,0.01,2,5.5952,0,2,2,2,1,Listen to music in earbuds,Draw with chalk on sidewalk,0.03,0.01,1.1,1,,,,
,,6665fb9d3202800c8227cde5,6685aa9113c938e83b4f1ea0,66fecb608a8055870b88e6d4,2024-10-03_11h58.14.843,WTP_SM_Choice,2022.2.1,Win32,60.24096386,,,,,,,,,,,,,,,,,,54,,,,,,,,,,0.04,1,3.6393,0,3,3,3,1,Retwist my dreads to make them less frizzy,Race rc cars on the sidewalk,0.04,0.01,4.4,1,,,,
,,6665fb9d3202800c8227cde5,6685aa9113c938e83b4f1ea0,66fecb608a8055870b88e6d4,2024-10-03_11h58.14.843,WTP_SM_Choice,2022.2.1,Win32,60.24096386,,,,,,,,,,,,,,,,,,55,,,,,,,,,,0.05,1,3.4462,0,4,4,4,1,Drink beer while watching sports,Bbq in the back yard,0.05,0.01,1.1,1,,,,
,,6665fb9d3202800c8227cde5,6685aa9113c938e83b4f1ea0,66fecb608a8055870b88e6d4,2024-10-03_11h58.14.843,WTP_SM_Choice,2022.2.1,Win32,60.24096386,,,,,,,NAN,,NAN,1.43,4.57,,0,54,54,54,1,55,Alex,Acc,Participant_Images/6665fb9d3202800c8227cde5/6665fb9d3202800c8227cde5_Images/6665fb9d3202800c8227cde5_Image_7.jpeg,did not like,3.602308302,,,,,,,,,,,,,,,,,,,,,,
,,6665fb9d3202800c8227cde5,6685aa9113c938e83b4f1ea0,66fecb608a8055870b88e6d4,2024-10-03_11h58.14.843,WTP_SM_Choice,2022.2.1,Win32,60.24096386,,,,,space,7.3973,NAN,,NAN,1.43,4.57,,0,55,55,55,1,56,Alex,Acc,Participant_Images/6665fb9d3202800c8227cde5/6665fb9d3202800c8227cde5_Images/6665fb9d3202800c8227cde5_Image_1.jpeg,liked,4.106391878,,,,,,,,,,,,,,,,,,,,,,
,,6665fb9d3202800c8227cde5,6685aa9113c938e83b4f1ea0,66fecb608a8055870b88e6d4,2024-10-03_11h58.14.843,WTP_SM_Choice,2022.2.1,Win32,60.24096386,,,,,space,35.871,NAN,,NAN,1.43,4.57,,0,56,56,56,1,57,Alex,Acc,Participant_Images/6665fb9d3202800c8227cde5/6665fb9d3202800c8227cde5_Images/6665fb9d3202800c8227cde5_Image_4.jpeg,liked,3.799433026,,,,,,,,,,,,,,,,,,,,,,
,,6665fb9d3202800c8227cde5,6685aa9113c938e83b4f1ea0,66fecb608a8055870b88e6d4,2024-10-03_11h58.14.843,WTP_SM_Choice,2022.2.1,Win32,60.24096386,,,,,space,2.1511,NAN,,NAN,1.43,4.57,,0,57,57,57,1,58,Alex,Acc,Participant_Images/6665fb9d3202800c8227cde5/6665fb9d3202800c8227cde5_Images/6665fb9d3202800c8227cde5_Image_20.jpeg,liked,5.246980764,,,,,,,,,,,,,,,,,,,,,,
,,6665fb9d3202800c8227cde5,6685aa9113c938e83b4f1ea0,66fecb608a8055870b88e6d4,2024-10-03_11h58.14.843,WTP_SM_Choice,2022.2.1,Win32,60.24096386,,,,,space,19.7239,NAN,,NAN,1.43,4.57,,0,58,58,58,1,59,Alex,Acc,Participant_Images/6665fb9d3202800c8227cde5/6665fb9d3202800c8227cde5_Images/6665fb9d3202800c8227cde5_Image_16.jpeg,liked,3.30081769,,,,,,,,,,,,,,,,,,,,,,
,,6665fb9d3202800c8227cde5,6685aa9113c938e83b4f1ea0,66fecb608a8055870b88e6d4,2024-10-03_11h58.14.843,WTP_SM_Choice,2022.2.1,Win32,60.24096386,,,,,,,,,,,,,,,,,,56,,,,,,space,1.0299,space,0.6335,0.02,2,3.375,0,0,0,0,1,Play the game in my room,Ride our bikes around the block,0.01,0.02,8.8,1,,,,
,,6665fb9d3202800c8227cde5,6685aa9113c938e83b4f1ea0,66fecb608a8055870b88e6d4,2024-10-03_11h58.14.843,WTP_SM_Choice,2022.2.1,Win32,60.24096386,,,,,,,,,,,,,,,,,,57,,,,,,,,,,0.02,2,2.9611,0,1,1,1,1,Bbq in the back yard,Read new article with a cup of coffee in the morning,0.02,0.02,4.4,0,,,,
,,6665fb9d3202800c8227cde5,6685aa9113c938e83b4f1ea0,66fecb608a8055870b88e6d4,2024-10-03_11h58.14.843,WTP_SM_Choice,2022.2.1,Win32,60.24096386,,,,,,,,,,,,,,,,,,58,,,,,,,,,,0.02,2,2.5657,0,2,2,2,1,Listen to music in earbuds,Throw the football with the kids,0.03,0.02,4.4,1,,,,
,,6665fb9d3202800c8227cde5,6685aa9113c938e83b4f1ea0,66fecb608a8055870b88e6d4,2024-10-03_11h58.14.843,WTP_SM_Choice,2022.2.1,Win32,60.24096386,,,,,,,,,,,,,,,,,,59,,,,,,,,,,0.04,1,4.5913,0,3,3,3,1,Color in a coloring book to complete the whole thing,Throw the football with the kids,0.04,0.02,4.4,1,,,,
,,6665fb9d3202800c8227cde5,6685aa9113c938e83b4f1ea0,66fecb608a8055870b88e6d4,2024-10-03_11h58.14.843,WTP_SM_Choice,2022.2.1,Win32,60.24096386,,,,,,,,,,,,,,,,,,60,,,,,,,,,,0.05,1,3.6986,0,4,4,4,1,Do homework for class,Throw the football with the kids,0.05,0.02,1.1,1,,,,
,,6665fb9d3202800c8227cde5,6685aa9113c938e83b4f1ea0,66fecb608a8055870b88e6d4,2024-10-03_11h58.14.843,WTP_SM_Choice,2022.2.1,Win32,60.24096386,,,,,,,NAN,,NAN,1.58,4.42,,0,59,59,59,1,60,Alex,Acc,Participant_Images/6665fb9d3202800c8227cde5/6665fb9d3202800c8227cde5_Images/6665fb9d3202800c8227cde5_Image_24.jpeg,did not like,1.661473164,,,,,,,,,,,,,,,,,,,,,,
,,6665fb9d3202800c8227cde5,6685aa9113c938e83b4f1ea0,66fecb608a8055870b88e6d4,2024-10-03_11h58.14.843,WTP_SM_Choice,2022.2.1,Win32,60.24096386,,,,,space,0.5024,NAN,,NAN,1.58,4.42,,0,60,60,60,1,61,Alex,Acc,Participant_Images/6665fb9d3202800c8227cde5/6665fb9d3202800c8227cde5_Images/6665fb9d3202800c8227cde5_Image_25.jpeg,did not like,3.613205605,,,,,,,,,,,,,,,,,,,,,,
,,6665fb9d3202800c8227cde5,6685aa9113c938e83b4f1ea0,66fecb608a8055870b88e6d4,2024-10-03_11h58.14.843,WTP_SM_Choice,2022.2.1,Win32,60.24096386,,,,,space,0.4524,NAN,,NAN,1.58,4.42,,0,61,61,61,1,62,Alex,Acc,Participant_Images/6665fb9d3202800c8227cde5/6665fb9d3202800c8227cde5_Images/6665fb9d3202800c8227cde5_Image_10.jpeg,did not like,4.988446431,,,,,,,,,,,,,,,,,,,,,,
,,6665fb9d3202800c8227cde5,6685aa9113c938e83b4f1ea0,66fecb608a8055870b88e6d4,2024-10-03_11h58.14.843,WTP_SM_Choice,2022.2.1,Win32,60.24096386,,,,,space,1.2208,NAN,,NAN,1.58,4.42,,0,62,62,62,1,63,Alex,Acc,Participant_Images/6665fb9d3202800c8227cde5/6665fb9d3202800c8227cde5_Images/6665fb9d3202800c8227cde5_Image_18.jpeg,liked,3.470791822,,,,,,,,,,,,,,,,,,,,,,
,,6665fb9d3202800c8227cde5,6685aa9113c938e83b4f1ea0,66fecb608a8055870b88e6d4,2024-10-03_11h58.14.843,WTP_SM_Choice,2022.2.1,Win32,60.24096386,,,,,space,3.2704,NAN,,NAN,1.58,4.42,,0,63,63,63,1,64,Alex,Acc,Participant_Images/6665fb9d3202800c8227cde5/6665fb9d3202800c8227cde5_Images/6665fb9d3202800c8227cde5_Image_6.jpeg,liked,3.820572462,,,,,,,,,,,,,,,,,,,,,,
,,6665fb9d3202800c8227cde5,6685aa9113c938e83b4f1ea0,66fecb608a8055870b88e6d4,2024-10-03_11h58.14.843,WTP_SM_Choice,2022.2.1,Win32,60.24096386,,,,,,,,,,,,,,,,,,61,,,,,,space,0.7685,space,8.3872,0.01,1,4.553,0,0,0,0,1,Drive on the country side,Bake sweet desserts together as family,0.01,0.03,3.3,1,,,,
,,6665fb9d3202800c8227cde5,6685aa9113c938e83b4f1ea0,66fecb608a8055870b88e6d4,2024-10-03_11h58.14.843,WTP_SM_Choice,2022.2.1,Win32,60.24096386,,,,,,,,,,,,,,,,,,62,,,,,,,,,,0.03,2,3.9258,0,1,1,1,1,Listen to music in earbuds,Ride our bikes around the block,0.02,0.03,3.3,1,,,,
,,6665fb9d3202800c8227cde5,6685aa9113c938e83b4f1ea0,66fecb608a8055870b88e6d4,2024-10-03_11h58.14.843,WTP_SM_Choice,2022.2.1,Win32,60.24096386,,,,,,,,,,,,,,,,,,63,,,,,,,,,,0.03,1,3.7569,0,2,2,2,1,Color in a coloring book to complete the whole thing,Clean the house on weekends,0.03,0.03,3.3,1,,,,
,,6665fb9d3202800c8227cde5,6685aa9113c938e83b4f1ea0,66fecb608a8055870b88e6d4,2024-10-03_11h58.14.843,WTP_SM_Choice,2022.2.1,Win32,60.24096386,,,,,,,,,,,,,,,,,,64,,,,,,,,,,0.04,1,2.7832,0,3,3,3,1,Race rc cars on the sidewalk,Drive on the country side,0.04,0.03,1.1,0,,,,
,,6665fb9d3202800c8227cde5,6685aa9113c938e83b4f1ea0,66fecb608a8055870b88e6d4,2024-10-03_11h58.14.843,WTP_SM_Choice,2022.2.1,Win32,60.24096386,,,,,,,,,,,,,,,,,,65,,,,,,,,,,0.05,1,3.5396,0,4,4,4,1,Take a shower with disco lights,Watch a disney movie with kids,0.05,0.03,1.1,1,,,,
,,6665fb9d3202800c8227cde5,6685aa9113c938e83b4f1ea0,66fecb608a8055870b88e6d4,2024-10-03_11h58.14.843,WTP_SM_Choice,2022.2.1,Win32,60.24096386,,,,,,,NAN,,NAN,1.74,4.26,,0,64,64,64,1,65,Alex,Acc,Participant_Images/6665fb9d3202800c8227cde5/6665fb9d3202800c8227cde5_Images/6665fb9d3202800c8227cde5_Image_12.jpeg,liked,2.455989137,,,,,,,,,,,,,,,,,,,,,,
,,6665fb9d3202800c8227cde5,6685aa9113c938e83b4f1ea0,66fecb608a8055870b88e6d4,2024-10-03_11h58.14.843,WTP_SM_Choice,2022.2.1,Win32,60.24096386,,,,,space,1.1179,NAN,,NAN,1.74,4.26,,0,65,65,65,1,66,Alex,Acc,Participant_Images/6665fb9d3202800c8227cde5/6665fb9d3202800c8227cde5_Images/6665fb9d3202800c8227cde5_Image_13.jpeg,liked,3.79605092,,,,,,,,,,,,,,,,,,,,,,
,,6665fb9d3202800c8227cde5,6685aa9113c938e83b4f1ea0,66fecb608a8055870b88e6d4,2024-10-03_11h58.14.843,WTP_SM_Choice,2022.2.1,Win32,60.24096386,,,,,space,0.4686,NAN,,NAN,1.74,4.26,,0,66,66,66,1,67,Alex,Acc,Participant_Images/6665fb9d3202800c8227cde5/6665fb9d3202800c8227cde5_Images/6665fb9d3202800c8227cde5_Image_11.jpeg,liked,3.562416326,,,,,,,,,,,,,,,,,,,,,,
,,6665fb9d3202800c8227cde5,6685aa9113c938e83b4f1ea0,66fecb608a8055870b88e6d4,2024-10-03_11h58.14.843,WTP_SM_Choice,2022.2.1,Win32,60.24096386,,,,,space,2.9184,NAN,,NAN,1.74,4.26,,0,67,67,67,1,68,Alex,Acc,Participant_Images/6665fb9d3202800c8227cde5/6665fb9d3202800c8227cde5_Images/6665fb9d3202800c8227cde5_Image_14.jpeg,liked,2.843822497,,,,,,,,,,,,,,,,,,,,,,
,,6665fb9d3202800c8227cde5,6685aa9113c938e83b4f1ea0,66fecb608a8055870b88e6d4,2024-10-03_11h58.14.843,WTP_SM_Choice,2022.2.1,Win32,60.24096386,,,,,space,0.6015,NAN,,NAN,1.74,4.26,,0,68,68,68,1,69,Alex,Acc,Participant_Images/6665fb9d3202800c8227cde5/6665fb9d3202800c8227cde5_Images/6665fb9d3202800c8227cde5_Image_9.jpeg,liked,3.546495948,,,,,,,,,,,,,,,,,,,,,,
,,6665fb9d3202800c8227cde5,6685aa9113c938e83b4f1ea0,66fecb608a8055870b88e6d4,2024-10-03_11h58.14.843,WTP_SM_Choice,2022.2.1,Win32,60.24096386,,,,,,,,,,,,,,,,,,66,,,,,,space,1.3321,space,2.7506,0.01,1,4.5426,0,0,0,0,1,Ride our bikes around the block,Retwist my dreads to make them less frizzy,0.01,0.04,1.1,0,,,,
,,6665fb9d3202800c8227cde5,6685aa9113c938e83b4f1ea0,66fecb608a8055870b88e6d4,2024-10-03_11h58.14.843,WTP_SM_Choice,2022.2.1,Win32,60.24096386,,,,,,,,,,,,,,,,,,67,,,,,,,,,,0.02,1,3.6088,0,1,1,1,1,Draw with chalk on sidewalk,Drink beer while watching sports,0.02,0.04,8.8,0,,,,
,,6665fb9d3202800c8227cde5,6685aa9113c938e83b4f1ea0,66fecb608a8055870b88e6d4,2024-10-03_11h58.14.843,WTP_SM_Choice,2022.2.1,Win32,60.24096386,,,,,,,,,,,,,,,,,,68,,,,,,,,,,0.04,2,5.1477,0,2,2,2,1,Draw with chalk on sidewalk,Color in a coloring book to complete the whole thing,0.03,0.04,4.4,0,,,,
,,6665fb9d3202800c8227cde5,6685aa9113c938e83b4f1ea0,66fecb608a8055870b88e6d4,2024-10-03_11h58.14.843,WTP_SM_Choice,2022.2.1,Win32,60.24096386,,,,,,,,,,,,,,,,,,69,,,,,,,,,,0.04,1,7.9935,0,3,3,3,1,Take a shower with disco lights,Race rc cars on the sidewalk,0.04,0.04,1.1,1,,,,
,,6665fb9d3202800c8227cde5,6685aa9113c938e83b4f1ea0,66fecb608a8055870b88e6d4,2024-10-03_11h58.14.843,WTP_SM_Choice,2022.2.1,Win32,60.24096386,,,,,,,,,,,,,,,,,,70,,,,,,,,,,0.05,1,4.6188,0,4,4,4,1,Draw with chalk on sidewalk,Drive on the country side,0.05,0.04,1.1,0,,,,
,,6665fb9d3202800c8227cde5,6685aa9113c938e83b4f1ea0,66fecb608a8055870b88e6d4,2024-10-03_11h58.14.843,WTP_SM_Choice,2022.2.1,Win32,60.24096386,,,,,,,NAN,,NAN,1.9,4.1,,0,69,69,69,1,70,Alex,Acc,Participant_Images/6665fb9d3202800c8227cde5/6665fb9d3202800c8227cde5_Images/6665fb9d3202800c8227cde5_Image_3.jpeg,did not like,1.672012706,,,,,,,,,,,,,,,,,,,,,,
,,6665fb9d3202800c8227cde5,6685aa9113c938e83b4f1ea0,66fecb608a8055870b88e6d4,2024-10-03_11h58.14.843,WTP_SM_Choice,2022.2.1,Win32,60.24096386,,,,,space,18.5105,NAN,,NAN,1.9,4.1,,0,70,70,70,1,71,Alex,Acc,Participant_Images/6665fb9d3202800c8227cde5/6665fb9d3202800c8227cde5_Images/6665fb9d3202800c8227cde5_Image_2.jpeg,liked,4.942172136,,,,,,,,,,,,,,,,,,,,,,
,,6665fb9d3202800c8227cde5,6685aa9113c938e83b4f1ea0,66fecb608a8055870b88e6d4,2024-10-03_11h58.14.843,WTP_SM_Choice,2022.2.1,Win32,60.24096386,,,,,space,0.5052,NAN,,NAN,1.9,4.1,,0,71,71,71,1,72,Alex,Acc,Participant_Images/6665fb9d3202800c8227cde5/6665fb9d3202800c8227cde5_Images/6665fb9d3202800c8227cde5_Image_5.jpeg,did not like,2.50187214,,,,,,,,,,,,,,,,,,,,,,
,,6665fb9d3202800c8227cde5,6685aa9113c938e83b4f1ea0,66fecb608a8055870b88e6d4,2024-10-03_11h58.14.843,WTP_SM_Choice,2022.2.1,Win32,60.24096386,,,,,space,0.6857,NAN,,NAN,1.9,4.1,,0,72,72,72,1,73,Alex,Acc,Participant_Images/6665fb9d3202800c8227cde5/6665fb9d3202800c8227cde5_Images/6665fb9d3202800c8227cde5_Image_17.jpeg,liked,2.071164779,,,,,,,,,,,,,,,,,,,,,,
,,6665fb9d3202800c8227cde5,6685aa9113c938e83b4f1ea0,66fecb608a8055870b88e6d4,2024-10-03_11h58.14.843,WTP_SM_Choice,2022.2.1,Win32,60.24096386,,,,,space,0.637,NAN,,NAN,1.9,4.1,,0,73,73,73,1,74,Alex,Acc,Participant_Images/6665fb9d3202800c8227cde5/6665fb9d3202800c8227cde5_Images/6665fb9d3202800c8227cde5_Image_8.jpeg,liked,5.336503566,,,,,,,,,,,,,,,,,,,,,,
,,6665fb9d3202800c8227cde5,6685aa9113c938e83b4f1ea0,66fecb608a8055870b88e6d4,2024-10-03_11h58.14.843,WTP_SM_Choice,2022.2.1,Win32,60.24096386,,,,,,,,,,,,,,,,,,71,,,,,,space,3.3174,space,0.3817,0.01,1,3.8335,0,0,0,0,1,Clean the house on weekends,Drive on the country side,0.01,0.05,3.3,0,,,,
,,6665fb9d3202800c8227cde5,6685aa9113c938e83b4f1ea0,66fecb608a8055870b88e6d4,2024-10-03_11h58.14.843,WTP_SM_Choice,2022.2.1,Win32,60.24096386,,,,,,,,,,,,,,,,,,72,,,,,,,,,,0.05,2,5.177,0,1,1,1,1,Bbq in the back yard,Take a shower with disco lights,0.02,0.05,8.8,0,,,,
,,6665fb9d3202800c8227cde5,6685aa9113c938e83b4f1ea0,66fecb608a8055870b88e6d4,2024-10-03_11h58.14.843,WTP_SM_Choice,2022.2.1,Win32,60.24096386,,,,,,,,,,,,,,,,,,73,,,,,,,,,,0.03,1,2.8809,0,2,2,2,1,Drink beer while watching sports,Watch a disney movie with kids,0.03,0.05,3.3,1,,,,
,,6665fb9d3202800c8227cde5,6685aa9113c938e83b4f1ea0,66fecb608a8055870b88e6d4,2024-10-03_11h58.14.843,WTP_SM_Choice,2022.2.1,Win32,60.24096386,,,,,,,,,,,,,,,,,,74,,,,,,,,,,0.05,2,4.0436,0,3,3,3,1,Ride our bikes around the block,Read new article with a cup of coffee in the morning,0.04,0.05,4.4,0,,,,
,,6665fb9d3202800c8227cde5,6685aa9113c938e83b4f1ea0,66fecb608a8055870b88e6d4,2024-10-03_11h58.14.843,WTP_SM_Choice,2022.2.1,Win32,60.24096386,,,,,,,,,,,,,,,,,,75,,,,,,,,,,0.05,2,4.4692,0,4,4,4,1,Play kickball in the field,Listen to music in earbuds,0.05,0.05,3.3,0,,,,
,,6665fb9d3202800c8227cde5,6685aa9113c938e83b4f1ea0,66fecb608a8055870b88e6d4,2024-10-03_11h58.14.843,WTP_SM_Choice,2022.2.1,Win32,60.24096386,,,,,,,3,,4,2.09,3.91,,0,74,74,74,1,75,Alex,Acc,Participant_Images/6665fb9d3202800c8227cde5/6665fb9d3202800c8227cde5_Images/6665fb9d3202800c8227cde5_Image_15.jpeg,did not like,2.642157193,,,,,,,,,,,,,,,,,,,space,1.2178,,
,,6665fb9d3202800c8227cde5,6685aa9113c938e83b4f1ea0,66fecb608a8055870b88e6d4,2024-10-03_11h58.14.843,WTP_SM_Choice,2022.2.1,Win32,60.24096386,,,space,42.2959,space,5.0381,NAN,,NAN,2.09,3.91,,0,75,75,75,1,76,Riley,Acc,Participant_Images/6665fb9d3202800c8227cde5/6665fb9d3202800c8227cde5_Images/6665fb9d3202800c8227cde5_Image_24.jpeg,did not like,4.456234322,,,,,,,,,,,,,,,,,,,,,,
,,6665fb9d3202800c8227cde5,6685aa9113c938e83b4f1ea0,66fecb608a8055870b88e6d4,2024-10-03_11h58.14.843,WTP_SM_Choice,2022.2.1,Win32,60.24096386,,,,,space,1.7343,NAN,,NAN,2.09,3.91,,0,76,76,76,1,77,Riley,Acc,Participant_Images/6665fb9d3202800c8227cde5/6665fb9d3202800c8227cde5_Images/6665fb9d3202800c8227cde5_Image_22.jpeg,did not like,4.438512181,,,,,,,,,,,,,,,,,,,,,,
,,6665fb9d3202800c8227cde5,6685aa9113c938e83b4f1ea0,66fecb608a8055870b88e6d4,2024-10-03_11h58.14.843,WTP_SM_Choice,2022.2.1,Win32,60.24096386,,,,,space,1.7513,NAN,,NAN,2.09,3.91,,0,77,77,77,1,78,Riley,Acc,Participant_Images/6665fb9d3202800c8227cde5/6665fb9d3202800c8227cde5_Images/6665fb9d3202800c8227cde5_Image_2.jpeg,liked,2.682944783,,,,,,,,,,,,,,,,,,,,,,
,,6665fb9d3202800c8227cde5,6685aa9113c938e83b4f1ea0,66fecb608a8055870b88e6d4,2024-10-03_11h58.14.843,WTP_SM_Choice,2022.2.1,Win32,60.24096386,,,,,space,0.8838,NAN,,NAN,2.09,3.91,,0,78,78,78,1,79,Riley,Acc,Participant_Images/6665fb9d3202800c8227cde5/6665fb9d3202800c8227cde5_Images/6665fb9d3202800c8227cde5_Image_3.jpeg,did not like,4.51984296,,,,,,,,,,,,,,,,,,,,,,
,,6665fb9d3202800c8227cde5,6685aa9113c938e83b4f1ea0,66fecb608a8055870b88e6d4,2024-10-03_11h58.14.843,WTP_SM_Choice,2022.2.1,Win32,60.24096386,,,,,,,,,,,,,,,,,,76,,,,,,space,56.7272,space,0.9917,0.01,2,2.9316,0,0,0,0,1,Watch a disney movie with kids,Read new article with a cup of coffee in the morning,0.01,0.01,1.1,0,,,,
,,6665fb9d3202800c8227cde5,6685aa9113c938e83b4f1ea0,66fecb608a8055870b88e6d4,2024-10-03_11h58.14.843,WTP_SM_Choice,2022.2.1,Win32,60.24096386,,,,,,,,,,,,,,,,,,77,,,,,,,,,,0.01,2,2.5441,0,1,1,1,1,Listen to music in earbuds,Clean the house on weekends,0.02,0.01,8.8,1,,,,
,,6665fb9d3202800c8227cde5,6685aa9113c938e83b4f1ea0,66fecb608a8055870b88e6d4,2024-10-03_11h58.14.843,WTP_SM_Choice,2022.2.1,Win32,60.24096386,,,,,,,,,,,,,,,,,,78,,,,,,,,,,0.03,1,4.5813,0,2,2,2,1,Ride our bikes around the block,Drive on the country side,0.03,0.01,1.1,0,,,,
,,6665fb9d3202800c8227cde5,6685aa9113c938e83b4f1ea0,66fecb608a8055870b88e6d4,2024-10-03_11h58.14.843,WTP_SM_Choice,2022.2.1,Win32,60.24096386,,,,,,,,,,,,,,,,,,79,,,,,,,,,,0.01,2,4.2868,0,3,3,3,1,Play kickball in the field,Write lyrics for a song I'm making,0.04,0.01,1.1,0,,,,
,,6665fb9d3202800c8227cde5,6685aa9113c938e83b4f1ea0,66fecb608a8055870b88e6d4,2024-10-03_11h58.14.843,WTP_SM_Choice,2022.2.1,Win32,60.24096386,,,,,,,,,,,,,,,,,,80,,,,,,,,,,0.01,2,3.2799,0,4,4,4,1,Bbq in the back yard,Play the game in my room,0.05,0.01,4.4,0,,,,
,,6665fb9d3202800c8227cde5,6685aa9113c938e83b4f1ea0,66fecb608a8055870b88e6d4,2024-10-03_11h58.14.843,WTP_SM_Choice,2022.2.1,Win32,60.24096386,,,,,,,NAN,,NAN,2.16,3.84,,0,79,79,79,1,80,Riley,Acc,Participant_Images/6665fb9d3202800c8227cde5/6665fb9d3202800c8227cde5_Images/6665fb9d3202800c8227cde5_Image_7.jpeg,liked,3.195382774,,,,,,,,,,,,,,,,,,,,,,
,,6665fb9d3202800c8227cde5,6685aa9113c938e83b4f1ea0,66fecb608a8055870b88e6d4,2024-10-03_11h58.14.843,WTP_SM_Choice,2022.2.1,Win32,60.24096386,,,,,space,52.7953,NAN,,NAN,2.16,3.84,,0,80,80,80,1,81,Riley,Acc,Participant_Images/6665fb9d3202800c8227cde5/6665fb9d3202800c8227cde5_Images/6665fb9d3202800c8227cde5_Image_14.jpeg,liked,1.779333479,,,,,,,,,,,,,,,,,,,,,,
,,6665fb9d3202800c8227cde5,6685aa9113c938e83b4f1ea0,66fecb608a8055870b88e6d4,2024-10-03_11h58.14.843,WTP_SM_Choice,2022.2.1,Win32,60.24096386,,,,,space,1.9586,NAN,,NAN,2.16,3.84,,0,81,81,81,1,82,Riley,Acc,Participant_Images/6665fb9d3202800c8227cde5/6665fb9d3202800c8227cde5_Images/6665fb9d3202800c8227cde5_Image_21.jpeg,liked,4.312468682,,,,,,,,,,,,,,,,,,,,,,
,,6665fb9d3202800c8227cde5,6685aa9113c938e83b4f1ea0,66fecb608a8055870b88e6d4,2024-10-03_11h58.14.843,WTP_SM_Choice,2022.2.1,Win32,60.24096386,,,,,space,1.0009,NAN,,NAN,2.16,3.84,,0,82,82,82,1,83,Riley,Acc,Participant_Images/6665fb9d3202800c8227cde5/6665fb9d3202800c8227cde5_Images/6665fb9d3202800c8227cde5_Image_19.jpeg,liked,4.940433059,,,,,,,,,,,,,,,,,,,,,,
,,6665fb9d3202800c8227cde5,6685aa9113c938e83b4f1ea0,66fecb608a8055870b88e6d4,2024-10-03_11h58.14.843,WTP_SM_Choice,2022.2.1,Win32,60.24096386,,,,,space,0.6424,NAN,,NAN,2.16,3.84,,0,83,83,83,1,84,Riley,Acc,Participant_Images/6665fb9d3202800c8227cde5/6665fb9d3202800c8227cde5_Images/6665fb9d3202800c8227cde5_Image_12.jpeg,did not like,2.7105123,,,,,,,,,,,,,,,,,,,,,,
,,6665fb9d3202800c8227cde5,6685aa9113c938e83b4f1ea0,66fecb608a8055870b88e6d4,2024-10-03_11h58.14.843,WTP_SM_Choice,2022.2.1,Win32,60.24096386,,,,,,,,,,,,,,,,,,81,,,,,,space,1.7685,space,0.3826,0.02,2,2.4666,0,0,0,0,1,Play the game in my room,Bake sweet desserts together as family,0.01,0.02,3.3,1,,,,
,,6665fb9d3202800c8227cde5,6685aa9113c938e83b4f1ea0,66fecb608a8055870b88e6d4,2024-10-03_11h58.14.843,WTP_SM_Choice,2022.2.1,Win32,60.24096386,,,,,,,,,,,,,,,,,,82,,,,,,,,,,0.02,1,4.8944,0,1,1,1,1,Color in a coloring book to complete the whole thing,Ride our bikes around the block,0.02,0.02,4.4,1,,,,
,,6665fb9d3202800c8227cde5,6685aa9113c938e83b4f1ea0,66fecb608a8055870b88e6d4,2024-10-03_11h58.14.843,WTP_SM_Choice,2022.2.1,Win32,60.24096386,,,,,,,,,,,,,,,,,,83,,,,,,,,,,0.03,1,7.5103,0,2,2,2,1,Do homework for class,Race rc cars on the sidewalk,0.03,0.02,1.1,1,,,,
,,6665fb9d3202800c8227cde5,6685aa9113c938e83b4f1ea0,66fecb608a8055870b88e6d4,2024-10-03_11h58.14.843,WTP_SM_Choice,2022.2.1,Win32,60.24096386,,,,,,,,,,,,,,,,,,84,,,,,,,,,,0.04,1,3.2446,0,3,3,3,1,Drink beer while watching sports,Ride our bikes around the block,0.04,0.02,3.3,1,,,,
,,6665fb9d3202800c8227cde5,6685aa9113c938e83b4f1ea0,66fecb608a8055870b88e6d4,2024-10-03_11h58.14.843,WTP_SM_Choice,2022.2.1,Win32,60.24096386,,,,,,,,,,,,,,,,,,85,,,,,,,,,,0.02,2,6.8626,0,4,4,4,1,Watch a disney movie with kids,Drive on the country side,0.05,0.02,3.3,0,,,,
,,6665fb9d3202800c8227cde5,6685aa9113c938e83b4f1ea0,66fecb608a8055870b88e6d4,2024-10-03_11h58.14.843,WTP_SM_Choice,2022.2.1,Win32,60.24096386,,,,,,,NAN,,NAN,2.29,3.71,,0,84,84,84,1,85,Riley,Acc,Participant_Images/6665fb9d3202800c8227cde5/6665fb9d3202800c8227cde5_Images/6665fb9d3202800c8227cde5_Image_13.jpeg,liked,3.602308302,,,,,,,,,,,,,,,,,,,,,,
,,6665fb9d3202800c8227cde5,6685aa9113c938e83b4f1ea0,66fecb608a8055870b88e6d4,2024-10-03_11h58.14.843,WTP_SM_Choice,2022.2.1,Win32,60.24096386,,,,,space,4.2678,NAN,,NAN,2.29,3.71,,0,85,85,85,1,86,Riley,Acc,Participant_Images/6665fb9d3202800c8227cde5/6665fb9d3202800c8227cde5_Images/6665fb9d3202800c8227cde5_Image_10.jpeg,liked,4.106391878,,,,,,,,,,,,,,,,,,,,,,
,,6665fb9d3202800c8227cde5,6685aa9113c938e83b4f1ea0,66fecb608a8055870b88e6d4,2024-10-03_11h58.14.843,WTP_SM_Choice,2022.2.1,Win32,60.24096386,,,,,space,2.0514,NAN,,NAN,2.29,3.71,,0,86,86,86,1,87,Riley,Acc,Participant_Images/6665fb9d3202800c8227cde5/6665fb9d3202800c8227cde5_Images/6665fb9d3202800c8227cde5_Image_4.jpeg,liked,3.799433026,,,,,,,,,,,,,,,,,,,,,,
,,6665fb9d3202800c8227cde5,6685aa9113c938e83b4f1ea0,66fecb608a8055870b88e6d4,2024-10-03_11h58.14.843,WTP_SM_Choice,2022.2.1,Win32,60.24096386,,,,,space,2.0208,NAN,,NAN,2.29,3.71,,0,87,87,87,1,88,Riley,Acc,Participant_Images/6665fb9d3202800c8227cde5/6665fb9d3202800c8227cde5_Images/6665fb9d3202800c8227cde5_Image_25.jpeg,liked,5.246980764,,,,,,,,,,,,,,,,,,,,,,
,,6665fb9d3202800c8227cde5,6685aa9113c938e83b4f1ea0,66fecb608a8055870b88e6d4,2024-10-03_11h58.14.843,WTP_SM_Choice,2022.2.1,Win32,60.24096386,,,,,space,12.0065,NAN,,NAN,2.29,3.71,,0,88,88,88,1,89,Riley,Acc,Participant_Images/6665fb9d3202800c8227cde5/6665fb9d3202800c8227cde5_Images/6665fb9d3202800c8227cde5_Image_9.jpeg,did not like,3.30081769,,,,,,,,,,,,,,,,,,,,,,
,,6665fb9d3202800c8227cde5,6685aa9113c938e83b4f1ea0,66fecb608a8055870b88e6d4,2024-10-03_11h58.14.843,WTP_SM_Choice,2022.2.1,Win32,60.24096386,,,,,,,,,,,,,,,,,,86,,,,,,space,0.7985,space,0.2737,0.03,2,3.5695,0,0,0,0,1,Play kickball in the field,Drink beer while watching sports,0.01,0.03,1.1,0,,,,
,,6665fb9d3202800c8227cde5,6685aa9113c938e83b4f1ea0,66fecb608a8055870b88e6d4,2024-10-03_11h58.14.843,WTP_SM_Choice,2022.2.1,Win32,60.24096386,,,,,,,,,,,,,,,,,,87,,,,,,,,,,0.03,2,3.2205,0,1,1,1,1,Go to the park with my kids,Do homework for class,0.02,0.03,4.4,0,,,,
,,6665fb9d3202800c8227cde5,6685aa9113c938e83b4f1ea0,66fecb608a8055870b88e6d4,2024-10-03_11h58.14.843,WTP_SM_Choice,2022.2.1,Win32,60.24096386,,,,,,,,,,,,,,,,,,88,,,,,,,,,,0.03,1,4.9068,0,2,2,2,1,Read new article with a cup of coffee in the morning,Go to the park with my kids,0.03,0.03,1.1,1,,,,
,,6665fb9d3202800c8227cde5,6685aa9113c938e83b4f1ea0,66fecb608a8055870b88e6d4,2024-10-03_11h58.14.843,WTP_SM_Choice,2022.2.1,Win32,60.24096386,,,,,,,,,,,,,,,,,,89,,,,,,,,,,0.04,1,2.4072,0,3,3,3,1,Throw the football with the kids,Drive on the country side,0.04,0.03,3.3,0,,,,
,,6665fb9d3202800c8227cde5,6685aa9113c938e83b4f1ea0,66fecb608a8055870b88e6d4,2024-10-03_11h58.14.843,WTP_SM_Choice,2022.2.1,Win32,60.24096386,,,,,,,,,,,,,,,,,,90,,,,,,,,,,0.05,1,3.764,0,4,4,4,1,Color in a coloring book to complete the whole thing,Watch a disney movie with kids,0.05,0.03,8.8,1,,,,
,,6665fb9d3202800c8227cde5,6685aa9113c938e83b4f1ea0,66fecb608a8055870b88e6d4,2024-10-03_11h58.14.843,WTP_SM_Choice,2022.2.1,Win32,60.24096386,,,,,,,NAN,,NAN,2.47,3.53,,0,89,89,89,1,90,Riley,Acc,Participant_Images/6665fb9d3202800c8227cde5/6665fb9d3202800c8227cde5_Images/6665fb9d3202800c8227cde5_Image_20.jpeg,liked,1.661473164,,,,,,,,,,,,,,,,,,,,,,
,,6665fb9d3202800c8227cde5,6685aa9113c938e83b4f1ea0,66fecb608a8055870b88e6d4,2024-10-03_11h58.14.843,WTP_SM_Choice,2022.2.1,Win32,60.24096386,,,,,space,0.9686,NAN,,NAN,2.47,3.53,,0,90,90,90,1,91,Riley,Acc,Participant_Images/6665fb9d3202800c8227cde5/6665fb9d3202800c8227cde5_Images/6665fb9d3202800c8227cde5_Image_15.jpeg,liked,3.613205605,,,,,,,,,,,,,,,,,,,,,,
,,6665fb9d3202800c8227cde5,6685aa9113c938e83b4f1ea0,66fecb608a8055870b88e6d4,2024-10-03_11h58.14.843,WTP_SM_Choice,2022.2.1,Win32,60.24096386,,,,,space,3.6472,NAN,,NAN,2.47,3.53,,0,91,91,91,1,92,Riley,Acc,Participant_Images/6665fb9d3202800c8227cde5/6665fb9d3202800c8227cde5_Images/6665fb9d3202800c8227cde5_Image_11.jpeg,liked,4.988446431,,,,,,,,,,,,,,,,,,,,,,
,,6665fb9d3202800c8227cde5,6685aa9113c938e83b4f1ea0,66fecb608a8055870b88e6d4,2024-10-03_11h58.14.843,WTP_SM_Choice,2022.2.1,Win32,60.24096386,,,,,space,1.6854,NAN,,NAN,2.47,3.53,,0,92,92,92,1,93,Riley,Acc,Participant_Images/6665fb9d3202800c8227cde5/6665fb9d3202800c8227cde5_Images/6665fb9d3202800c8227cde5_Image_16.jpeg,liked,3.470791822,,,,,,,,,,,,,,,,,,,,,,
,,6665fb9d3202800c8227cde5,6685aa9113c938e83b4f1ea0,66fecb608a8055870b88e6d4,2024-10-03_11h58.14.843,WTP_SM_Choice,2022.2.1,Win32,60.24096386,,,,,space,0.6399,NAN,,NAN,2.47,3.53,,0,93,93,93,1,94,Riley,Acc,Participant_Images/6665fb9d3202800c8227cde5/6665fb9d3202800c8227cde5_Images/6665fb9d3202800c8227cde5_Image_17.jpeg,liked,3.820572462,,,,,,,,,,,,,,,,,,,,,,
,,6665fb9d3202800c8227cde5,6685aa9113c938e83b4f1ea0,66fecb608a8055870b88e6d4,2024-10-03_11h58.14.843,WTP_SM_Choice,2022.2.1,Win32,60.24096386,,,,,,,,,,,,,,,,,,91,,,,,,space,0.9339,space,6.9803,0.01,1,2.684,0,0,0,0,1,Write lyrics for a song I'm making,Ride our bikes around the block,0.01,0.04,3.3,1,,,,
,,6665fb9d3202800c8227cde5,6685aa9113c938e83b4f1ea0,66fecb608a8055870b88e6d4,2024-10-03_11h58.14.843,WTP_SM_Choice,2022.2.1,Win32,60.24096386,,,,,,,,,,,,,,,,,,92,,,,,,,,,,0.02,1,3.9078,0,1,1,1,1,Write lyrics for a song I'm making,Throw the football with the kids,0.02,0.04,8.8,1,,,,
,,6665fb9d3202800c8227cde5,6685aa9113c938e83b4f1ea0,66fecb608a8055870b88e6d4,2024-10-03_11h58.14.843,WTP_SM_Choice,2022.2.1,Win32,60.24096386,,,,,,,,,,,,,,,,,,93,,,,,,,,,,0.04,2,3.4948,0,2,2,2,1,Watch a disney movie with kids,Play the game in my room,0.03,0.04,1.1,0,,,,
,,6665fb9d3202800c8227cde5,6685aa9113c938e83b4f1ea0,66fecb608a8055870b88e6d4,2024-10-03_11h58.14.843,WTP_SM_Choice,2022.2.1,Win32,60.24096386,,,,,,,,,,,,,,,,,,94,,,,,,,,,,0.04,1,4.5815,0,3,3,3,1,Play the game in my room,Play kickball in the field,0.04,0.04,4.4,1,,,,
,,6665fb9d3202800c8227cde5,6685aa9113c938e83b4f1ea0,66fecb608a8055870b88e6d4,2024-10-03_11h58.14.843,WTP_SM_Choice,2022.2.1,Win32,60.24096386,,,,,,,,,,,,,,,,,,95,,,,,,,,,,0.04,2,3.641,0,4,4,4,1,Throw the football with the kids,Read new article with a cup of coffee in the morning,0.05,0.04,4.4,0,,,,
,,6665fb9d3202800c8227cde5,6685aa9113c938e83b4f1ea0,66fecb608a8055870b88e6d4,2024-10-03_11h58.14.843,WTP_SM_Choice,2022.2.1,Win32,60.24096386,,,,,,,NAN,,NAN,2.62,3.38,,0,94,94,94,1,95,Riley,Acc,Participant_Images/6665fb9d3202800c8227cde5/6665fb9d3202800c8227cde5_Images/6665fb9d3202800c8227cde5_Image_1.jpeg,liked,2.455989137,,,,,,,,,,,,,,,,,,,,,,
,,6665fb9d3202800c8227cde5,6685aa9113c938e83b4f1ea0,66fecb608a8055870b88e6d4,2024-10-03_11h58.14.843,WTP_SM_Choice,2022.2.1,Win32,60.24096386,,,,,space,0.9011,NAN,,NAN,2.62,3.38,,0,95,95,95,1,96,Riley,Acc,Participant_Images/6665fb9d3202800c8227cde5/6665fb9d3202800c8227cde5_Images/6665fb9d3202800c8227cde5_Image_18.jpeg,liked,3.79605092,,,,,,,,,,,,,,,,,,,,,,
,,6665fb9d3202800c8227cde5,6685aa9113c938e83b4f1ea0,66fecb608a8055870b88e6d4,2024-10-03_11h58.14.843,WTP_SM_Choice,2022.2.1,Win32,60.24096386,,,,,space,1.9182,NAN,,NAN,2.62,3.38,,0,96,96,96,1,97,Riley,Acc,Participant_Images/6665fb9d3202800c8227cde5/6665fb9d3202800c8227cde5_Images/6665fb9d3202800c8227cde5_Image_6.jpeg,liked,3.562416326,,,,,,,,,,,,,,,,,,,,,,
,,6665fb9d3202800c8227cde5,6685aa9113c938e83b4f1ea0,66fecb608a8055870b88e6d4,2024-10-03_11h58.14.843,WTP_SM_Choice,2022.2.1,Win32,60.24096386,,,,,space,1.4691,NAN,,NAN,2.62,3.38,,0,97,97,97,1,98,Riley,Acc,Participant_Images/6665fb9d3202800c8227cde5/6665fb9d3202800c8227cde5_Images/6665fb9d3202800c8227cde5_Image_5.jpeg,did not like,2.843822497,,,,,,,,,,,,,,,,,,,,,,
,,6665fb9d3202800c8227cde5,6685aa9113c938e83b4f1ea0,66fecb608a8055870b88e6d4,2024-10-03_11h58.14.843,WTP_SM_Choice,2022.2.1,Win32,60.24096386,,,,,space,1.2608,NAN,,NAN,2.62,3.38,,0,98,98,98,1,99,Riley,Acc,Participant_Images/6665fb9d3202800c8227cde5/6665fb9d3202800c8227cde5_Images/6665fb9d3202800c8227cde5_Image_8.jpeg,liked,3.546495948,,,,,,,,,,,,,,,,,,,,,,
,,6665fb9d3202800c8227cde5,6685aa9113c938e83b4f1ea0,66fecb608a8055870b88e6d4,2024-10-03_11h58.14.843,WTP_SM_Choice,2022.2.1,Win32,60.24096386,,,,,,,,,,,,,,,,,,96,,,,,,space,1.032,space,5.3226,0.01,1,2.2894,0,0,0,0,1,Clean the house on weekends,Drink beer while watching sports,0.01,0.05,3.3,0,,,,
,,6665fb9d3202800c8227cde5,6685aa9113c938e83b4f1ea0,66fecb608a8055870b88e6d4,2024-10-03_11h58.14.843,WTP_SM_Choice,2022.2.1,Win32,60.24096386,,,,,,,,,,,,,,,,,,97,,,,,,,,,,0.05,2,4.791,0,1,1,1,1,Listen to music in earbuds,Bake sweet desserts together as family,0.02,0.05,1.1,1,,,,
,,6665fb9d3202800c8227cde5,6685aa9113c938e83b4f1ea0,66fecb608a8055870b88e6d4,2024-10-03_11h58.14.843,WTP_SM_Choice,2022.2.1,Win32,60.24096386,,,,,,,,,,,,,,,,,,98,,,,,,,,,,0.05,2,4.345,0,2,2,2,1,Bbq in the back yard,Color in a coloring book to complete the whole thing,0.03,0.05,1.1,0,,,,
,,6665fb9d3202800c8227cde5,6685aa9113c938e83b4f1ea0,66fecb608a8055870b88e6d4,2024-10-03_11h58.14.843,WTP_SM_Choice,2022.2.1,Win32,60.24096386,,,,,,,,,,,,,,,,,,99,,,,,,,,,,0.05,2,6.5659,0,3,3,3,1,Play kickball in the field,Color in a coloring book to complete the whole thing,0.04,0.05,3.3,0,,,,
,,6665fb9d3202800c8227cde5,6685aa9113c938e83b4f1ea0,66fecb608a8055870b88e6d4,2024-10-03_11h58.14.843,WTP_SM_Choice,2022.2.1,Win32,60.24096386,,,,,,,,,,,,,,,,,,100,,,,,,,,,,0.05,1,4.4071,0,4,4,4,1,Write lyrics for a song I'm making,Draw with chalk on sidewalk,0.05,0.05,4.4,1,,,,
,,6665fb9d3202800c8227cde5,6685aa9113c938e83b4f1ea0,66fecb608a8055870b88e6d4,2024-10-03_11h58.14.843,WTP_SM_Choice,2022.2.1,Win32,60.24096386,,,,,,,5,,9,2.83,3.17,,0,99,99,99,1,100,Riley,Acc,Participant_Images/6665fb9d3202800c8227cde5/6665fb9d3202800c8227cde5_Images/6665fb9d3202800c8227cde5_Image_23.jpeg,did not like,1.672012706,,,,,,,,,,,,,,,,,,,space,1.3347,,
,,6665fb9d3202800c8227cde5,6685aa9113c938e83b4f1ea0,66fecb608a8055870b88e6d4,2024-10-03_11h58.14.843,WTP_SM_Choice,2022.2.1,Win32,60.24096386,,,,,,,,,,,,,,,,,,,,,,,,,,,,,,,,,,,,,,,,,,,,space,5.011
