endwelcomescreen_keys.keys,endwelcomescreen_keys.rt,participant,STUDY_ID,SESSION_ID,date,expName,psychopyVersion,OS,frameRate,endinstructionscreen_keys.keys,endinstructionscreen_keys.rt,endpartnermatch_keys.keys,endpartnermatch_keys.rt,sharenextphoto_key.keys,sharenextphoto_key.rt,salience_rating,key_resp.keys,stress_level,subtract_bonus,TOTAL_TASK_BONUS,stresslevel_keypress.keys,entiretaskloop.thisRepN,entiretaskloop.thisTrialN,entiretaskloop.thisN,entiretaskloop.thisIndex,entiretaskloop.ran,TrialNumber,Partner,Condition,Photos,Feedback,FeedbackWait,WTP_ins_keys1.keys,WTP_ins_keys1.rt,WTP_ins_keys2.keys,WTP_ins_keys2.rt,decision_price,responses.keys,responses.rt,WTPTaskLoop.thisRepN,WTPTaskLoop.thisTrialN,WTPTaskLoop.thisN,WTPTaskLoop.thisIndex,WTPTaskLoop.ran,right,left,leftmoney,rightmoney,WTP_ITI,social_left,Resume_keys.keys,Resume_keys.rt,end_screen_keys.keys,end_screen_keys.rt
space,1.48,66661b49621ea96feaf4f6f3,6685aa9113c938e83b4f1ea0,67111e745881133aa3acf3b8,2024-10-17_09h38.01.205,WTP_SM_Choice,2022.2.1,Win32,60.60606061,,,,,,,,,,,,,,,,,,,,,,,,,,,,,,,,,,,,,,,,,,,,,
,,66661b49621ea96feaf4f6f3,6685aa9113c938e83b4f1ea0,67111e745881133aa3acf3b8,2024-10-17_09h38.01.205,WTP_SM_Choice,2022.2.1,Win32,60.60606061,space,16.2843,,,,,,,,,,,,,,,,,,,,,,,,,,,,,,,,,,,,,,,,,,,
,,66661b49621ea96feaf4f6f3,6685aa9113c938e83b4f1ea0,67111e745881133aa3acf3b8,2024-10-17_09h38.01.205,WTP_SM_Choice,2022.2.1,Win32,60.60606061,,,space,4.3898,space,2.9033,NAN,,NAN,0,6,,0,0,0,0,1,1,Riley,Acc,Participant_Images/66661b49621ea96feaf4f6f3/66661b49621ea96feaf4f6f3_Images/66661b49621ea96feaf4f6f3_Image_7.jpeg,liked,3.613205605,,,,,,,,,,,,,,,,,,,,,,
,,66661b49621ea96feaf4f6f3,6685aa9113c938e83b4f1ea0,67111e745881133aa3acf3b8,2024-10-17_09h38.01.205,WTP_SM_Choice,2022.2.1,Win32,60.60606061,,,,,space,0.6147,NAN,,NAN,0,6,,0,1,1,1,1,2,Riley,Acc,Participant_Images/66661b49621ea96feaf4f6f3/66661b49621ea96feaf4f6f3_Images/66661b49621ea96feaf4f6f3_Image_12.jpeg,did not like,4.988446431,,,,,,,,,,,,,,,,,,,,,,
,,66661b49621ea96feaf4f6f3,6685aa9113c938e83b4f1ea0,67111e745881133aa3acf3b8,2024-10-17_09h38.01.205,WTP_SM_Choice,2022.2.1,Win32,60.60606061,,,,,space,1.4205,NAN,,NAN,0,6,,0,2,2,2,1,3,Riley,Acc,Participant_Images/66661b49621ea96feaf4f6f3/66661b49621ea96feaf4f6f3_Images/66661b49621ea96feaf4f6f3_Image_3.jpeg,did not like,3.470791822,,,,,,,,,,,,,,,,,,,,,,
,,66661b49621ea96feaf4f6f3,6685aa9113c938e83b4f1ea0,67111e745881133aa3acf3b8,2024-10-17_09h38.01.205,WTP_SM_Choice,2022.2.1,Win32,60.60606061,,,,,space,1.2583,NAN,,NAN,0,6,,0,3,3,3,1,4,Riley,Acc,Participant_Images/66661b49621ea96feaf4f6f3/66661b49621ea96feaf4f6f3_Images/66661b49621ea96feaf4f6f3_Image_21.jpeg,liked,3.820572462,,,,,,,,,,,,,,,,,,,,,,
,,66661b49621ea96feaf4f6f3,6685aa9113c938e83b4f1ea0,67111e745881133aa3acf3b8,2024-10-17_09h38.01.205,WTP_SM_Choice,2022.2.1,Win32,60.60606061,,,,,,,,,,,,,,,,,,1,,,,,,space,10.5993,space,5.328,0.01,1,4.3133,0,0,0,0,1,Go to dinner with friends,Lay down reading a romance book ,0.01,0.01,4.4,0,,,,
,,66661b49621ea96feaf4f6f3,6685aa9113c938e83b4f1ea0,67111e745881133aa3acf3b8,2024-10-17_09h38.01.205,WTP_SM_Choice,2022.2.1,Win32,60.60606061,,,,,,,,,,,,,,,,,,2,,,,,,,,,,0.02,1,3.4111,0,1,1,1,1,Swing on the swing,Watch movies with friends,0.02,0.01,8.8,1,,,,
,,66661b49621ea96feaf4f6f3,6685aa9113c938e83b4f1ea0,67111e745881133aa3acf3b8,2024-10-17_09h38.01.205,WTP_SM_Choice,2022.2.1,Win32,60.60606061,,,,,,,,,,,,,,,,,,3,,,,,,,,,,0.03,1,2.8609,0,2,2,2,1,Listen to music on spotify,Go to dinner with friends,0.03,0.01,3.3,1,,,,
,,66661b49621ea96feaf4f6f3,6685aa9113c938e83b4f1ea0,67111e745881133aa3acf3b8,2024-10-17_09h38.01.205,WTP_SM_Choice,2022.2.1,Win32,60.60606061,,,,,,,,,,,,,,,,,,4,,,,,,,,,,0.04,1,2.7967,0,3,3,3,1,Walk around the neighborhood,Go to brunch with friends,0.04,0.01,1.1,1,,,,
,,66661b49621ea96feaf4f6f3,6685aa9113c938e83b4f1ea0,67111e745881133aa3acf3b8,2024-10-17_09h38.01.205,WTP_SM_Choice,2022.2.1,Win32,60.60606061,,,,,,,,,,,,,,,,,,5,,,,,,,,,,0.05,1,2.415,0,4,4,4,1,Go to brunch with friends,Have a cocktail in the evening ,0.05,0.01,1.1,0,,,,
,,66661b49621ea96feaf4f6f3,6685aa9113c938e83b4f1ea0,67111e745881133aa3acf3b8,2024-10-17_09h38.01.205,WTP_SM_Choice,2022.2.1,Win32,60.60606061,,,,,,,NAN,,NAN,0.15,5.85,,0,4,4,4,1,5,Riley,Acc,Participant_Images/66661b49621ea96feaf4f6f3/66661b49621ea96feaf4f6f3_Images/66661b49621ea96feaf4f6f3_Image_4.jpeg,liked,2.455989137,,,,,,,,,,,,,,,,,,,,,,
,,66661b49621ea96feaf4f6f3,6685aa9113c938e83b4f1ea0,67111e745881133aa3acf3b8,2024-10-17_09h38.01.205,WTP_SM_Choice,2022.2.1,Win32,60.60606061,,,,,space,1.2221,NAN,,NAN,0.15,5.85,,0,5,5,5,1,6,Riley,Acc,Participant_Images/66661b49621ea96feaf4f6f3/66661b49621ea96feaf4f6f3_Images/66661b49621ea96feaf4f6f3_Image_8.jpeg,did not like,3.79605092,,,,,,,,,,,,,,,,,,,,,,
,,66661b49621ea96feaf4f6f3,6685aa9113c938e83b4f1ea0,67111e745881133aa3acf3b8,2024-10-17_09h38.01.205,WTP_SM_Choice,2022.2.1,Win32,60.60606061,,,,,space,0.6687,NAN,,NAN,0.15,5.85,,0,6,6,6,1,7,Riley,Acc,Participant_Images/66661b49621ea96feaf4f6f3/66661b49621ea96feaf4f6f3_Images/66661b49621ea96feaf4f6f3_Image_11.jpeg,liked,3.562416326,,,,,,,,,,,,,,,,,,,,,,
,,66661b49621ea96feaf4f6f3,6685aa9113c938e83b4f1ea0,67111e745881133aa3acf3b8,2024-10-17_09h38.01.205,WTP_SM_Choice,2022.2.1,Win32,60.60606061,,,,,space,0.6887,NAN,,NAN,0.15,5.85,,0,7,7,7,1,8,Riley,Acc,Participant_Images/66661b49621ea96feaf4f6f3/66661b49621ea96feaf4f6f3_Images/66661b49621ea96feaf4f6f3_Image_5.jpeg,did not like,2.843822497,,,,,,,,,,,,,,,,,,,,,,
,,66661b49621ea96feaf4f6f3,6685aa9113c938e83b4f1ea0,67111e745881133aa3acf3b8,2024-10-17_09h38.01.205,WTP_SM_Choice,2022.2.1,Win32,60.60606061,,,,,space,0.6971,NAN,,NAN,0.15,5.85,,0,8,8,8,1,9,Riley,Acc,Participant_Images/66661b49621ea96feaf4f6f3/66661b49621ea96feaf4f6f3_Images/66661b49621ea96feaf4f6f3_Image_17.jpeg,did not like,3.546495948,,,,,,,,,,,,,,,,,,,,,,
,,66661b49621ea96feaf4f6f3,6685aa9113c938e83b4f1ea0,67111e745881133aa3acf3b8,2024-10-17_09h38.01.205,WTP_SM_Choice,2022.2.1,Win32,60.60606061,,,,,,,,,,,,,,,,,,6,,,,,,space,7.1883,space,2.841,0.01,1,2.8668,0,0,0,0,1,Swing on the swing,Go out at night with friends,0.01,0.02,3.3,1,,,,
,,66661b49621ea96feaf4f6f3,6685aa9113c938e83b4f1ea0,67111e745881133aa3acf3b8,2024-10-17_09h38.01.205,WTP_SM_Choice,2022.2.1,Win32,60.60606061,,,,,,,,,,,,,,,,,,7,,,,,,,,,,0.02,2,2.7016,0,1,1,1,1,Travel with family,Play with the dog,0.02,0.02,1.1,0,,,,
,,66661b49621ea96feaf4f6f3,6685aa9113c938e83b4f1ea0,67111e745881133aa3acf3b8,2024-10-17_09h38.01.205,WTP_SM_Choice,2022.2.1,Win32,60.60606061,,,,,,,,,,,,,,,,,,8,,,,,,,,,,0.03,1,2.6301,0,2,2,2,1,Listen to music on spotify,Go out at night with friends,0.03,0.02,1.1,1,,,,
,,66661b49621ea96feaf4f6f3,6685aa9113c938e83b4f1ea0,67111e745881133aa3acf3b8,2024-10-17_09h38.01.205,WTP_SM_Choice,2022.2.1,Win32,60.60606061,,,,,,,,,,,,,,,,,,9,,,,,,,,,,0.04,1,3.1138,0,3,3,3,1,Drive on a road trip with family,Lay down reading a romance book ,0.04,0.02,4.4,0,,,,
,,66661b49621ea96feaf4f6f3,6685aa9113c938e83b4f1ea0,67111e745881133aa3acf3b8,2024-10-17_09h38.01.205,WTP_SM_Choice,2022.2.1,Win32,60.60606061,,,,,,,,,,,,,,,,,,10,,,,,,,,,,0.05,1,3.2862,0,4,4,4,1,Visit family in California,Drive getting a cold Starbucks Frappuccino,0.05,0.02,1.1,0,,,,
,,66661b49621ea96feaf4f6f3,6685aa9113c938e83b4f1ea0,67111e745881133aa3acf3b8,2024-10-17_09h38.01.205,WTP_SM_Choice,2022.2.1,Win32,60.60606061,,,,,,,NAN,,NAN,0.3,5.7,,0,9,9,9,1,10,Riley,Acc,Participant_Images/66661b49621ea96feaf4f6f3/66661b49621ea96feaf4f6f3_Images/66661b49621ea96feaf4f6f3_Image_20.jpeg,liked,1.672012706,,,,,,,,,,,,,,,,,,,,,,
,,66661b49621ea96feaf4f6f3,6685aa9113c938e83b4f1ea0,67111e745881133aa3acf3b8,2024-10-17_09h38.01.205,WTP_SM_Choice,2022.2.1,Win32,60.60606061,,,,,space,0.7981,NAN,,NAN,0.3,5.7,,0,10,10,10,1,11,Riley,Acc,Participant_Images/66661b49621ea96feaf4f6f3/66661b49621ea96feaf4f6f3_Images/66661b49621ea96feaf4f6f3_Image_24.jpeg,liked,4.942172136,,,,,,,,,,,,,,,,,,,,,,
,,66661b49621ea96feaf4f6f3,6685aa9113c938e83b4f1ea0,67111e745881133aa3acf3b8,2024-10-17_09h38.01.205,WTP_SM_Choice,2022.2.1,Win32,60.60606061,,,,,space,1.0566,NAN,,NAN,0.3,5.7,,0,11,11,11,1,12,Riley,Acc,Participant_Images/66661b49621ea96feaf4f6f3/66661b49621ea96feaf4f6f3_Images/66661b49621ea96feaf4f6f3_Image_9.jpeg,liked,2.50187214,,,,,,,,,,,,,,,,,,,,,,
,,66661b49621ea96feaf4f6f3,6685aa9113c938e83b4f1ea0,67111e745881133aa3acf3b8,2024-10-17_09h38.01.205,WTP_SM_Choice,2022.2.1,Win32,60.60606061,,,,,space,0.5732,NAN,,NAN,0.3,5.7,,0,12,12,12,1,13,Riley,Acc,Participant_Images/66661b49621ea96feaf4f6f3/66661b49621ea96feaf4f6f3_Images/66661b49621ea96feaf4f6f3_Image_23.jpeg,liked,2.071164779,,,,,,,,,,,,,,,,,,,,,,
,,66661b49621ea96feaf4f6f3,6685aa9113c938e83b4f1ea0,67111e745881133aa3acf3b8,2024-10-17_09h38.01.205,WTP_SM_Choice,2022.2.1,Win32,60.60606061,,,,,space,0.7381,NAN,,NAN,0.3,5.7,,0,13,13,13,1,14,Riley,Acc,Participant_Images/66661b49621ea96feaf4f6f3/66661b49621ea96feaf4f6f3_Images/66661b49621ea96feaf4f6f3_Image_25.jpeg,did not like,5.336503566,,,,,,,,,,,,,,,,,,,,,,
,,66661b49621ea96feaf4f6f3,6685aa9113c938e83b4f1ea0,67111e745881133aa3acf3b8,2024-10-17_09h38.01.205,WTP_SM_Choice,2022.2.1,Win32,60.60606061,,,,,,,,,,,,,,,,,,11,,,,,,space,2.1316,space,1.9095,0.01,1,2.2604,0,0,0,0,1,Watch movies with friends,Play with my baby boy,0.01,0.03,3.3,0,,,,
,,66661b49621ea96feaf4f6f3,6685aa9113c938e83b4f1ea0,67111e745881133aa3acf3b8,2024-10-17_09h38.01.205,WTP_SM_Choice,2022.2.1,Win32,60.60606061,,,,,,,,,,,,,,,,,,12,,,,,,,,,,0.02,1,2.5847,0,1,1,1,1,Listen to music on spotify,Travel with family,0.02,0.03,4.4,1,,,,
,,66661b49621ea96feaf4f6f3,6685aa9113c938e83b4f1ea0,67111e745881133aa3acf3b8,2024-10-17_09h38.01.205,WTP_SM_Choice,2022.2.1,Win32,60.60606061,,,,,,,,,,,,,,,,,,13,,,,,,,,,,0.03,1,2.2504,0,2,2,2,1,Drive getting a cold Starbucks Frappuccino,Go to dinner with friends,0.03,0.03,1.1,1,,,,
,,66661b49621ea96feaf4f6f3,6685aa9113c938e83b4f1ea0,67111e745881133aa3acf3b8,2024-10-17_09h38.01.205,WTP_SM_Choice,2022.2.1,Win32,60.60606061,,,,,,,,,,,,,,,,,,14,,,,,,,,,,0.04,1,1.824,0,3,3,3,1,Visit family in California,Read a book outside in the cool breeze,0.04,0.03,3.3,0,,,,
,,66661b49621ea96feaf4f6f3,6685aa9113c938e83b4f1ea0,67111e745881133aa3acf3b8,2024-10-17_09h38.01.205,WTP_SM_Choice,2022.2.1,Win32,60.60606061,,,,,,,,,,,,,,,,,,15,,,,,,,,,,0.05,1,2.4265,0,4,4,4,1,Travel with family,Walk around the neighborhood,0.05,0.03,4.4,0,,,,
,,66661b49621ea96feaf4f6f3,6685aa9113c938e83b4f1ea0,67111e745881133aa3acf3b8,2024-10-17_09h38.01.205,WTP_SM_Choice,2022.2.1,Win32,60.60606061,,,,,,,NAN,,NAN,0.45,5.55,,0,14,14,14,1,15,Riley,Acc,Participant_Images/66661b49621ea96feaf4f6f3/66661b49621ea96feaf4f6f3_Images/66661b49621ea96feaf4f6f3_Image_13.jpeg,liked,2.642157193,,,,,,,,,,,,,,,,,,,,,,
,,66661b49621ea96feaf4f6f3,6685aa9113c938e83b4f1ea0,67111e745881133aa3acf3b8,2024-10-17_09h38.01.205,WTP_SM_Choice,2022.2.1,Win32,60.60606061,,,,,space,1.8882,NAN,,NAN,0.45,5.55,,0,15,15,15,1,16,Riley,Acc,Participant_Images/66661b49621ea96feaf4f6f3/66661b49621ea96feaf4f6f3_Images/66661b49621ea96feaf4f6f3_Image_10.jpeg,liked,4.456234322,,,,,,,,,,,,,,,,,,,,,,
,,66661b49621ea96feaf4f6f3,6685aa9113c938e83b4f1ea0,67111e745881133aa3acf3b8,2024-10-17_09h38.01.205,WTP_SM_Choice,2022.2.1,Win32,60.60606061,,,,,space,0.5014,NAN,,NAN,0.45,5.55,,0,16,16,16,1,17,Riley,Acc,Participant_Images/66661b49621ea96feaf4f6f3/66661b49621ea96feaf4f6f3_Images/66661b49621ea96feaf4f6f3_Image_2.jpeg,liked,4.438512181,,,,,,,,,,,,,,,,,,,,,,
,,66661b49621ea96feaf4f6f3,6685aa9113c938e83b4f1ea0,67111e745881133aa3acf3b8,2024-10-17_09h38.01.205,WTP_SM_Choice,2022.2.1,Win32,60.60606061,,,,,space,0.5815,NAN,,NAN,0.45,5.55,,0,17,17,17,1,18,Riley,Acc,Participant_Images/66661b49621ea96feaf4f6f3/66661b49621ea96feaf4f6f3_Images/66661b49621ea96feaf4f6f3_Image_14.jpeg,liked,2.682944783,,,,,,,,,,,,,,,,,,,,,,
,,66661b49621ea96feaf4f6f3,6685aa9113c938e83b4f1ea0,67111e745881133aa3acf3b8,2024-10-17_09h38.01.205,WTP_SM_Choice,2022.2.1,Win32,60.60606061,,,,,space,0.9537,NAN,,NAN,0.45,5.55,,0,18,18,18,1,19,Riley,Acc,Participant_Images/66661b49621ea96feaf4f6f3/66661b49621ea96feaf4f6f3_Images/66661b49621ea96feaf4f6f3_Image_1.jpeg,liked,4.51984296,,,,,,,,,,,,,,,,,,,,,,
,,66661b49621ea96feaf4f6f3,6685aa9113c938e83b4f1ea0,67111e745881133aa3acf3b8,2024-10-17_09h38.01.205,WTP_SM_Choice,2022.2.1,Win32,60.60606061,,,,,,,,,,,,,,,,,,16,,,,,,space,7.2151,space,5.5348,0.04,2,2.8022,0,0,0,0,1,Go shopping with friends,Look for new books to add to my reading list,0.01,0.04,1.1,0,,,,
,,66661b49621ea96feaf4f6f3,6685aa9113c938e83b4f1ea0,67111e745881133aa3acf3b8,2024-10-17_09h38.01.205,WTP_SM_Choice,2022.2.1,Win32,60.60606061,,,,,,,,,,,,,,,,,,17,,,,,,,,,,0.04,2,2.6042,0,1,1,1,1,Go out at night with friends,Walk around the neighborhood,0.02,0.04,8.8,0,,,,
,,66661b49621ea96feaf4f6f3,6685aa9113c938e83b4f1ea0,67111e745881133aa3acf3b8,2024-10-17_09h38.01.205,WTP_SM_Choice,2022.2.1,Win32,60.60606061,,,,,,,,,,,,,,,,,,18,,,,,,,,,,0.03,1,1.713,0,2,2,2,1,Listen to music on spotify,Watch movies with friends,0.03,0.04,3.3,1,,,,
,,66661b49621ea96feaf4f6f3,6685aa9113c938e83b4f1ea0,67111e745881133aa3acf3b8,2024-10-17_09h38.01.205,WTP_SM_Choice,2022.2.1,Win32,60.60606061,,,,,,,,,,,,,,,,,,19,,,,,,,,,,0.04,2,2.5467,0,3,3,3,1,Have a weekend getaway with friends,Drive getting a cold Starbucks Frappuccino,0.04,0.04,3.3,0,,,,
,,66661b49621ea96feaf4f6f3,6685aa9113c938e83b4f1ea0,67111e745881133aa3acf3b8,2024-10-17_09h38.01.205,WTP_SM_Choice,2022.2.1,Win32,60.60606061,,,,,,,,,,,,,,,,,,20,,,,,,,,,,0.05,1,1.8684,0,4,4,4,1,Look for new books to add to my reading list,Travel with family,0.05,0.04,1.1,1,,,,
,,66661b49621ea96feaf4f6f3,6685aa9113c938e83b4f1ea0,67111e745881133aa3acf3b8,2024-10-17_09h38.01.205,WTP_SM_Choice,2022.2.1,Win32,60.60606061,,,,,,,NAN,,NAN,0.65,5.35,,0,19,19,19,1,20,Riley,Acc,Participant_Images/66661b49621ea96feaf4f6f3/66661b49621ea96feaf4f6f3_Images/66661b49621ea96feaf4f6f3_Image_6.jpeg,liked,3.195382774,,,,,,,,,,,,,,,,,,,,,,
,,66661b49621ea96feaf4f6f3,6685aa9113c938e83b4f1ea0,67111e745881133aa3acf3b8,2024-10-17_09h38.01.205,WTP_SM_Choice,2022.2.1,Win32,60.60606061,,,,,space,0.401,NAN,,NAN,0.65,5.35,,0,20,20,20,1,21,Riley,Acc,Participant_Images/66661b49621ea96feaf4f6f3/66661b49621ea96feaf4f6f3_Images/66661b49621ea96feaf4f6f3_Image_16.jpeg,liked,1.779333479,,,,,,,,,,,,,,,,,,,,,,
,,66661b49621ea96feaf4f6f3,6685aa9113c938e83b4f1ea0,67111e745881133aa3acf3b8,2024-10-17_09h38.01.205,WTP_SM_Choice,2022.2.1,Win32,60.60606061,,,,,space,1.1382,NAN,,NAN,0.65,5.35,,0,21,21,21,1,22,Riley,Acc,Participant_Images/66661b49621ea96feaf4f6f3/66661b49621ea96feaf4f6f3_Images/66661b49621ea96feaf4f6f3_Image_18.jpeg,liked,4.312468682,,,,,,,,,,,,,,,,,,,,,,
,,66661b49621ea96feaf4f6f3,6685aa9113c938e83b4f1ea0,67111e745881133aa3acf3b8,2024-10-17_09h38.01.205,WTP_SM_Choice,2022.2.1,Win32,60.60606061,,,,,space,0.4868,NAN,,NAN,0.65,5.35,,0,22,22,22,1,23,Riley,Acc,Participant_Images/66661b49621ea96feaf4f6f3/66661b49621ea96feaf4f6f3_Images/66661b49621ea96feaf4f6f3_Image_19.jpeg,liked,4.940433059,,,,,,,,,,,,,,,,,,,,,,
,,66661b49621ea96feaf4f6f3,6685aa9113c938e83b4f1ea0,67111e745881133aa3acf3b8,2024-10-17_09h38.01.205,WTP_SM_Choice,2022.2.1,Win32,60.60606061,,,,,space,0.7087,NAN,,NAN,0.65,5.35,,0,23,23,23,1,24,Riley,Acc,Participant_Images/66661b49621ea96feaf4f6f3/66661b49621ea96feaf4f6f3_Images/66661b49621ea96feaf4f6f3_Image_22.jpeg,liked,2.7105123,,,,,,,,,,,,,,,,,,,,,,
,,66661b49621ea96feaf4f6f3,6685aa9113c938e83b4f1ea0,67111e745881133aa3acf3b8,2024-10-17_09h38.01.205,WTP_SM_Choice,2022.2.1,Win32,60.60606061,,,,,,,,,,,,,,,,,,21,,,,,,space,1.7519,space,1.4018,0.05,2,2.8145,0,0,0,0,1,Drive on a road trip with family,Swing on the swing,0.01,0.05,8.8,0,,,,
,,66661b49621ea96feaf4f6f3,6685aa9113c938e83b4f1ea0,67111e745881133aa3acf3b8,2024-10-17_09h38.01.205,WTP_SM_Choice,2022.2.1,Win32,60.60606061,,,,,,,,,,,,,,,,,,22,,,,,,,,,,0.05,2,1.9349,0,1,1,1,1,Visit family in California,Swing on the swing,0.02,0.05,4.4,0,,,,
,,66661b49621ea96feaf4f6f3,6685aa9113c938e83b4f1ea0,67111e745881133aa3acf3b8,2024-10-17_09h38.01.205,WTP_SM_Choice,2022.2.1,Win32,60.60606061,,,,,,,,,,,,,,,,,,23,,,,,,,,,,0.03,1,1.7191,0,2,2,2,1,Have a cocktail in the evening ,Drive on a road trip with family,0.03,0.05,1.1,1,,,,
,,66661b49621ea96feaf4f6f3,6685aa9113c938e83b4f1ea0,67111e745881133aa3acf3b8,2024-10-17_09h38.01.205,WTP_SM_Choice,2022.2.1,Win32,60.60606061,,,,,,,,,,,,,,,,,,24,,,,,,,,,,0.05,2,2.9544,0,3,3,3,1,Play with my baby boy,Get Starbucks with the love of my life,0.04,0.05,4.4,1,,,,
,,66661b49621ea96feaf4f6f3,6685aa9113c938e83b4f1ea0,67111e745881133aa3acf3b8,2024-10-17_09h38.01.205,WTP_SM_Choice,2022.2.1,Win32,60.60606061,,,,,,,,,,,,,,,,,,25,,,,,,,,,,0.05,2,1.8648,0,4,4,4,1,Play with my baby boy,Go to brunch with friends,0.05,0.05,3.3,1,,,,
,,66661b49621ea96feaf4f6f3,6685aa9113c938e83b4f1ea0,67111e745881133aa3acf3b8,2024-10-17_09h38.01.205,WTP_SM_Choice,2022.2.1,Win32,60.60606061,,,,,,,3,,8,0.88,5.12,,0,24,24,24,1,25,Riley,Acc,Participant_Images/66661b49621ea96feaf4f6f3/66661b49621ea96feaf4f6f3_Images/66661b49621ea96feaf4f6f3_Image_15.jpeg,did not like,3.602308302,,,,,,,,,,,,,,,,,,,space,1.2513,,
,,66661b49621ea96feaf4f6f3,6685aa9113c938e83b4f1ea0,67111e745881133aa3acf3b8,2024-10-17_09h38.01.205,WTP_SM_Choice,2022.2.1,Win32,60.60606061,,,space,1.255,space,1.3853,NAN,,NAN,0.88,5.12,,0,25,25,25,1,26,Charlie,Rej,Participant_Images/66661b49621ea96feaf4f6f3/66661b49621ea96feaf4f6f3_Images/66661b49621ea96feaf4f6f3_Image_4.jpeg,did not like,4.106391878,,,,,,,,,,,,,,,,,,,,,,
,,66661b49621ea96feaf4f6f3,6685aa9113c938e83b4f1ea0,67111e745881133aa3acf3b8,2024-10-17_09h38.01.205,WTP_SM_Choice,2022.2.1,Win32,60.60606061,,,,,space,0.7728,NAN,,NAN,0.88,5.12,,0,26,26,26,1,27,Charlie,Rej,Participant_Images/66661b49621ea96feaf4f6f3/66661b49621ea96feaf4f6f3_Images/66661b49621ea96feaf4f6f3_Image_2.jpeg,liked,3.799433026,,,,,,,,,,,,,,,,,,,,,,
,,66661b49621ea96feaf4f6f3,6685aa9113c938e83b4f1ea0,67111e745881133aa3acf3b8,2024-10-17_09h38.01.205,WTP_SM_Choice,2022.2.1,Win32,60.60606061,,,,,space,0.7254,NAN,,NAN,0.88,5.12,,0,27,27,27,1,28,Charlie,Rej,Participant_Images/66661b49621ea96feaf4f6f3/66661b49621ea96feaf4f6f3_Images/66661b49621ea96feaf4f6f3_Image_22.jpeg,did not like,5.246980764,,,,,,,,,,,,,,,,,,,,,,
,,66661b49621ea96feaf4f6f3,6685aa9113c938e83b4f1ea0,67111e745881133aa3acf3b8,2024-10-17_09h38.01.205,WTP_SM_Choice,2022.2.1,Win32,60.60606061,,,,,space,0.7606,NAN,,NAN,0.88,5.12,,0,28,28,28,1,29,Charlie,Rej,Participant_Images/66661b49621ea96feaf4f6f3/66661b49621ea96feaf4f6f3_Images/66661b49621ea96feaf4f6f3_Image_14.jpeg,liked,3.30081769,,,,,,,,,,,,,,,,,,,,,,
,,66661b49621ea96feaf4f6f3,6685aa9113c938e83b4f1ea0,67111e745881133aa3acf3b8,2024-10-17_09h38.01.205,WTP_SM_Choice,2022.2.1,Win32,60.60606061,,,,,,,,,,,,,,,,,,26,,,,,,space,1.1043,space,0.4678,0.01,2,2.7293,0,0,0,0,1,Drive on a road trip with family,Walk around the neighborhood,0.01,0.01,4.4,0,,,,
,,66661b49621ea96feaf4f6f3,6685aa9113c938e83b4f1ea0,67111e745881133aa3acf3b8,2024-10-17_09h38.01.205,WTP_SM_Choice,2022.2.1,Win32,60.60606061,,,,,,,,,,,,,,,,,,27,,,,,,,,,,0.02,1,1.8942,0,1,1,1,1,Swing on the swing,Go shopping with friends,0.02,0.01,3.3,1,,,,
,,66661b49621ea96feaf4f6f3,6685aa9113c938e83b4f1ea0,67111e745881133aa3acf3b8,2024-10-17_09h38.01.205,WTP_SM_Choice,2022.2.1,Win32,60.60606061,,,,,,,,,,,,,,,,,,28,,,,,,,,,,0.01,2,1.6581,0,2,2,2,1,Go out at night with friends,Lay down reading a romance book ,0.03,0.01,3.3,0,,,,
,,66661b49621ea96feaf4f6f3,6685aa9113c938e83b4f1ea0,67111e745881133aa3acf3b8,2024-10-17_09h38.01.205,WTP_SM_Choice,2022.2.1,Win32,60.60606061,,,,,,,,,,,,,,,,,,29,,,,,,,,,,0.01,2,1.6289,0,3,3,3,1,Visit family in California,Play with the dog,0.04,0.01,4.4,0,,,,
,,66661b49621ea96feaf4f6f3,6685aa9113c938e83b4f1ea0,67111e745881133aa3acf3b8,2024-10-17_09h38.01.205,WTP_SM_Choice,2022.2.1,Win32,60.60606061,,,,,,,,,,,,,,,,,,30,,,,,,,,,,0.01,2,1.7483,0,4,4,4,1,Go shopping with friends,Lay down reading a romance book ,0.05,0.01,8.8,0,,,,
,,66661b49621ea96feaf4f6f3,6685aa9113c938e83b4f1ea0,67111e745881133aa3acf3b8,2024-10-17_09h38.01.205,WTP_SM_Choice,2022.2.1,Win32,60.60606061,,,,,,,NAN,,NAN,0.94,5.06,,0,29,29,29,1,30,Charlie,Rej,Participant_Images/66661b49621ea96feaf4f6f3/66661b49621ea96feaf4f6f3_Images/66661b49621ea96feaf4f6f3_Image_21.jpeg,did not like,1.661473164,,,,,,,,,,,,,,,,,,,,,,
,,66661b49621ea96feaf4f6f3,6685aa9113c938e83b4f1ea0,67111e745881133aa3acf3b8,2024-10-17_09h38.01.205,WTP_SM_Choice,2022.2.1,Win32,60.60606061,,,,,space,0.8739,NAN,,NAN,0.94,5.06,,0,30,30,30,1,31,Charlie,Rej,Participant_Images/66661b49621ea96feaf4f6f3/66661b49621ea96feaf4f6f3_Images/66661b49621ea96feaf4f6f3_Image_20.jpeg,did not like,3.613205605,,,,,,,,,,,,,,,,,,,,,,
,,66661b49621ea96feaf4f6f3,6685aa9113c938e83b4f1ea0,67111e745881133aa3acf3b8,2024-10-17_09h38.01.205,WTP_SM_Choice,2022.2.1,Win32,60.60606061,,,,,space,1.2013,NAN,,NAN,0.94,5.06,,0,31,31,31,1,32,Charlie,Rej,Participant_Images/66661b49621ea96feaf4f6f3/66661b49621ea96feaf4f6f3_Images/66661b49621ea96feaf4f6f3_Image_19.jpeg,liked,4.988446431,,,,,,,,,,,,,,,,,,,,,,
,,66661b49621ea96feaf4f6f3,6685aa9113c938e83b4f1ea0,67111e745881133aa3acf3b8,2024-10-17_09h38.01.205,WTP_SM_Choice,2022.2.1,Win32,60.60606061,,,,,space,1.5752,NAN,,NAN,0.94,5.06,,0,32,32,32,1,33,Charlie,Rej,Participant_Images/66661b49621ea96feaf4f6f3/66661b49621ea96feaf4f6f3_Images/66661b49621ea96feaf4f6f3_Image_24.jpeg,did not like,3.470791822,,,,,,,,,,,,,,,,,,,,,,
,,66661b49621ea96feaf4f6f3,6685aa9113c938e83b4f1ea0,67111e745881133aa3acf3b8,2024-10-17_09h38.01.205,WTP_SM_Choice,2022.2.1,Win32,60.60606061,,,,,space,0.8482,NAN,,NAN,0.94,5.06,,0,33,33,33,1,34,Charlie,Rej,Participant_Images/66661b49621ea96feaf4f6f3/66661b49621ea96feaf4f6f3_Images/66661b49621ea96feaf4f6f3_Image_7.jpeg,did not like,3.820572462,,,,,,,,,,,,,,,,,,,,,,
,,66661b49621ea96feaf4f6f3,6685aa9113c938e83b4f1ea0,67111e745881133aa3acf3b8,2024-10-17_09h38.01.205,WTP_SM_Choice,2022.2.1,Win32,60.60606061,,,,,,,,,,,,,,,,,,31,,,,,,space,0.7827,space,0.6497,0.02,2,1.9583,0,0,0,0,1,Visit family in California,Listen to music on spotify,0.01,0.02,8.8,0,,,,
,,66661b49621ea96feaf4f6f3,6685aa9113c938e83b4f1ea0,67111e745881133aa3acf3b8,2024-10-17_09h38.01.205,WTP_SM_Choice,2022.2.1,Win32,60.60606061,,,,,,,,,,,,,,,,,,32,,,,,,,,,,0.02,1,2.3542,0,1,1,1,1,Read a book outside in the cool breeze,Go to brunch with friends,0.02,0.02,1.1,1,,,,
,,66661b49621ea96feaf4f6f3,6685aa9113c938e83b4f1ea0,67111e745881133aa3acf3b8,2024-10-17_09h38.01.205,WTP_SM_Choice,2022.2.1,Win32,60.60606061,,,,,,,,,,,,,,,,,,33,,,,,,,,,,0.03,1,2.8616,0,2,2,2,1,Look for new books to add to my reading list,Go out at night with friends,0.03,0.02,4.4,1,,,,
,,66661b49621ea96feaf4f6f3,6685aa9113c938e83b4f1ea0,67111e745881133aa3acf3b8,2024-10-17_09h38.01.205,WTP_SM_Choice,2022.2.1,Win32,60.60606061,,,,,,,,,,,,,,,,,,34,,,,,,,,,,0.04,1,2.6756,0,3,3,3,1,Walk around the neighborhood,Get Starbucks with the love of my life,0.04,0.02,3.3,1,,,,
,,66661b49621ea96feaf4f6f3,6685aa9113c938e83b4f1ea0,67111e745881133aa3acf3b8,2024-10-17_09h38.01.205,WTP_SM_Choice,2022.2.1,Win32,60.60606061,,,,,,,,,,,,,,,,,,35,,,,,,,,,,0.05,1,2.3967,0,4,4,4,1,Have a cocktail in the evening ,Visit family in California,0.05,0.02,1.1,1,,,,
,,66661b49621ea96feaf4f6f3,6685aa9113c938e83b4f1ea0,67111e745881133aa3acf3b8,2024-10-17_09h38.01.205,WTP_SM_Choice,2022.2.1,Win32,60.60606061,,,,,,,NAN,,NAN,1.1,4.9,,0,34,34,34,1,35,Charlie,Rej,Participant_Images/66661b49621ea96feaf4f6f3/66661b49621ea96feaf4f6f3_Images/66661b49621ea96feaf4f6f3_Image_6.jpeg,did not like,2.455989137,,,,,,,,,,,,,,,,,,,,,,
,,66661b49621ea96feaf4f6f3,6685aa9113c938e83b4f1ea0,67111e745881133aa3acf3b8,2024-10-17_09h38.01.205,WTP_SM_Choice,2022.2.1,Win32,60.60606061,,,,,space,1.2754,NAN,,NAN,1.1,4.9,,0,35,35,35,1,36,Charlie,Rej,Participant_Images/66661b49621ea96feaf4f6f3/66661b49621ea96feaf4f6f3_Images/66661b49621ea96feaf4f6f3_Image_16.jpeg,liked,3.79605092,,,,,,,,,,,,,,,,,,,,,,
,,66661b49621ea96feaf4f6f3,6685aa9113c938e83b4f1ea0,67111e745881133aa3acf3b8,2024-10-17_09h38.01.205,WTP_SM_Choice,2022.2.1,Win32,60.60606061,,,,,space,3.7532,NAN,,NAN,1.1,4.9,,0,36,36,36,1,37,Charlie,Rej,Participant_Images/66661b49621ea96feaf4f6f3/66661b49621ea96feaf4f6f3_Images/66661b49621ea96feaf4f6f3_Image_17.jpeg,did not like,3.562416326,,,,,,,,,,,,,,,,,,,,,,
,,66661b49621ea96feaf4f6f3,6685aa9113c938e83b4f1ea0,67111e745881133aa3acf3b8,2024-10-17_09h38.01.205,WTP_SM_Choice,2022.2.1,Win32,60.60606061,,,,,space,0.7892,NAN,,NAN,1.1,4.9,,0,37,37,37,1,38,Charlie,Rej,Participant_Images/66661b49621ea96feaf4f6f3/66661b49621ea96feaf4f6f3_Images/66661b49621ea96feaf4f6f3_Image_5.jpeg,did not like,2.843822497,,,,,,,,,,,,,,,,,,,,,,
,,66661b49621ea96feaf4f6f3,6685aa9113c938e83b4f1ea0,67111e745881133aa3acf3b8,2024-10-17_09h38.01.205,WTP_SM_Choice,2022.2.1,Win32,60.60606061,,,,,space,0.6792,NAN,,NAN,1.1,4.9,,0,38,38,38,1,39,Charlie,Rej,Participant_Images/66661b49621ea96feaf4f6f3/66661b49621ea96feaf4f6f3_Images/66661b49621ea96feaf4f6f3_Image_1.jpeg,did not like,3.546495948,,,,,,,,,,,,,,,,,,,,,,
,,66661b49621ea96feaf4f6f3,6685aa9113c938e83b4f1ea0,67111e745881133aa3acf3b8,2024-10-17_09h38.01.205,WTP_SM_Choice,2022.2.1,Win32,60.60606061,,,,,,,,,,,,,,,,,,36,,,,,,space,1.229,space,1.5807,0.01,1,1.4874,0,0,0,0,1,Walk around the neighborhood,Visit family in California,0.01,0.03,3.3,1,,,,
,,66661b49621ea96feaf4f6f3,6685aa9113c938e83b4f1ea0,67111e745881133aa3acf3b8,2024-10-17_09h38.01.205,WTP_SM_Choice,2022.2.1,Win32,60.60606061,,,,,,,,,,,,,,,,,,37,,,,,,,,,,0.03,2,2.102,0,1,1,1,1,Play with my baby boy,Visit family in California,0.02,0.03,1.1,1,,,,
,,66661b49621ea96feaf4f6f3,6685aa9113c938e83b4f1ea0,67111e745881133aa3acf3b8,2024-10-17_09h38.01.205,WTP_SM_Choice,2022.2.1,Win32,60.60606061,,,,,,,,,,,,,,,,,,38,,,,,,,,,,0.03,2,1.4862,0,2,2,2,1,Travel with family,Read a book outside in the cool breeze,0.03,0.03,1.1,0,,,,
,,66661b49621ea96feaf4f6f3,6685aa9113c938e83b4f1ea0,67111e745881133aa3acf3b8,2024-10-17_09h38.01.205,WTP_SM_Choice,2022.2.1,Win32,60.60606061,,,,,,,,,,,,,,,,,,39,,,,,,,,,,0.03,2,1.8838,0,3,3,3,1,Visit family in California,Lay down reading a romance book ,0.04,0.03,3.3,0,,,,
,,66661b49621ea96feaf4f6f3,6685aa9113c938e83b4f1ea0,67111e745881133aa3acf3b8,2024-10-17_09h38.01.205,WTP_SM_Choice,2022.2.1,Win32,60.60606061,,,,,,,,,,,,,,,,,,40,,,,,,,,,,0.05,1,4.9104,0,4,4,4,1,Walk around the neighborhood,Go to dinner with friends,0.05,0.03,4.4,1,,,,
,,66661b49621ea96feaf4f6f3,6685aa9113c938e83b4f1ea0,67111e745881133aa3acf3b8,2024-10-17_09h38.01.205,WTP_SM_Choice,2022.2.1,Win32,60.60606061,,,,,,,NAN,,NAN,1.25,4.75,,0,39,39,39,1,40,Charlie,Rej,Participant_Images/66661b49621ea96feaf4f6f3/66661b49621ea96feaf4f6f3_Images/66661b49621ea96feaf4f6f3_Image_11.jpeg,did not like,1.672012706,,,,,,,,,,,,,,,,,,,,,,
,,66661b49621ea96feaf4f6f3,6685aa9113c938e83b4f1ea0,67111e745881133aa3acf3b8,2024-10-17_09h38.01.205,WTP_SM_Choice,2022.2.1,Win32,60.60606061,,,,,space,0.7203,NAN,,NAN,1.25,4.75,,0,40,40,40,1,41,Charlie,Rej,Participant_Images/66661b49621ea96feaf4f6f3/66661b49621ea96feaf4f6f3_Images/66661b49621ea96feaf4f6f3_Image_13.jpeg,did not like,4.942172136,,,,,,,,,,,,,,,,,,,,,,
,,66661b49621ea96feaf4f6f3,6685aa9113c938e83b4f1ea0,67111e745881133aa3acf3b8,2024-10-17_09h38.01.205,WTP_SM_Choice,2022.2.1,Win32,60.60606061,,,,,space,9.1641,NAN,,NAN,1.25,4.75,,0,41,41,41,1,42,Charlie,Rej,Participant_Images/66661b49621ea96feaf4f6f3/66661b49621ea96feaf4f6f3_Images/66661b49621ea96feaf4f6f3_Image_9.jpeg,did not like,2.50187214,,,,,,,,,,,,,,,,,,,,,,
,,66661b49621ea96feaf4f6f3,6685aa9113c938e83b4f1ea0,67111e745881133aa3acf3b8,2024-10-17_09h38.01.205,WTP_SM_Choice,2022.2.1,Win32,60.60606061,,,,,space,2.1036,NAN,,NAN,1.25,4.75,,0,42,42,42,1,43,Charlie,Rej,Participant_Images/66661b49621ea96feaf4f6f3/66661b49621ea96feaf4f6f3_Images/66661b49621ea96feaf4f6f3_Image_23.jpeg,did not like,2.071164779,,,,,,,,,,,,,,,,,,,,,,
,,66661b49621ea96feaf4f6f3,6685aa9113c938e83b4f1ea0,67111e745881133aa3acf3b8,2024-10-17_09h38.01.205,WTP_SM_Choice,2022.2.1,Win32,60.60606061,,,,,space,0.6307,NAN,,NAN,1.25,4.75,,0,43,43,43,1,44,Charlie,Rej,Participant_Images/66661b49621ea96feaf4f6f3/66661b49621ea96feaf4f6f3_Images/66661b49621ea96feaf4f6f3_Image_12.jpeg,did not like,5.336503566,,,,,,,,,,,,,,,,,,,,,,
,,66661b49621ea96feaf4f6f3,6685aa9113c938e83b4f1ea0,67111e745881133aa3acf3b8,2024-10-17_09h38.01.205,WTP_SM_Choice,2022.2.1,Win32,60.60606061,,,,,,,,,,,,,,,,,,41,,,,,,space,1.2305,space,74.483,0.01,1,2.4435,0,0,0,0,1,Look for new books to add to my reading list,Go to dinner with friends,0.01,0.04,1.1,1,,,,
,,66661b49621ea96feaf4f6f3,6685aa9113c938e83b4f1ea0,67111e745881133aa3acf3b8,2024-10-17_09h38.01.205,WTP_SM_Choice,2022.2.1,Win32,60.60606061,,,,,,,,,,,,,,,,,,42,,,,,,,,,,0.02,1,2.7991,0,1,1,1,1,Watch movies with friends,Drive getting a cold Starbucks Frappuccino,0.02,0.04,3.3,0,,,,
,,66661b49621ea96feaf4f6f3,6685aa9113c938e83b4f1ea0,67111e745881133aa3acf3b8,2024-10-17_09h38.01.205,WTP_SM_Choice,2022.2.1,Win32,60.60606061,,,,,,,,,,,,,,,,,,43,,,,,,,,,,0.04,2,2.4316,0,2,2,2,1,Get Starbucks with the love of my life,Play with the dog,0.03,0.04,1.1,0,,,,
,,66661b49621ea96feaf4f6f3,6685aa9113c938e83b4f1ea0,67111e745881133aa3acf3b8,2024-10-17_09h38.01.205,WTP_SM_Choice,2022.2.1,Win32,60.60606061,,,,,,,,,,,,,,,,,,44,,,,,,,,,,0.04,2,7.1916,0,3,3,3,1,Go to dinner with friends,Read a book outside in the cool breeze,0.04,0.04,1.1,0,,,,
,,66661b49621ea96feaf4f6f3,6685aa9113c938e83b4f1ea0,67111e745881133aa3acf3b8,2024-10-17_09h38.01.205,WTP_SM_Choice,2022.2.1,Win32,60.60606061,,,,,,,,,,,,,,,,,,45,,,,,,,,,,0.05,1,5.6343,0,4,4,4,1,Look for new books to add to my reading list,Watch movies with friends,0.05,0.04,4.4,1,,,,
,,66661b49621ea96feaf4f6f3,6685aa9113c938e83b4f1ea0,67111e745881133aa3acf3b8,2024-10-17_09h38.01.205,WTP_SM_Choice,2022.2.1,Win32,60.60606061,,,,,,,NAN,,NAN,1.41,4.59,,0,44,44,44,1,45,Charlie,Rej,Participant_Images/66661b49621ea96feaf4f6f3/66661b49621ea96feaf4f6f3_Images/66661b49621ea96feaf4f6f3_Image_15.jpeg,did not like,2.642157193,,,,,,,,,,,,,,,,,,,,,,
,,66661b49621ea96feaf4f6f3,6685aa9113c938e83b4f1ea0,67111e745881133aa3acf3b8,2024-10-17_09h38.01.205,WTP_SM_Choice,2022.2.1,Win32,60.60606061,,,,,space,3.1668,NAN,,NAN,1.41,4.59,,0,45,45,45,1,46,Charlie,Rej,Participant_Images/66661b49621ea96feaf4f6f3/66661b49621ea96feaf4f6f3_Images/66661b49621ea96feaf4f6f3_Image_10.jpeg,liked,4.456234322,,,,,,,,,,,,,,,,,,,,,,
,,66661b49621ea96feaf4f6f3,6685aa9113c938e83b4f1ea0,67111e745881133aa3acf3b8,2024-10-17_09h38.01.205,WTP_SM_Choice,2022.2.1,Win32,60.60606061,,,,,space,1.3922,NAN,,NAN,1.41,4.59,,0,46,46,46,1,47,Charlie,Rej,Participant_Images/66661b49621ea96feaf4f6f3/66661b49621ea96feaf4f6f3_Images/66661b49621ea96feaf4f6f3_Image_25.jpeg,liked,4.438512181,,,,,,,,,,,,,,,,,,,,,,
,,66661b49621ea96feaf4f6f3,6685aa9113c938e83b4f1ea0,67111e745881133aa3acf3b8,2024-10-17_09h38.01.205,WTP_SM_Choice,2022.2.1,Win32,60.60606061,,,,,space,9.0203,NAN,,NAN,1.41,4.59,,0,47,47,47,1,48,Charlie,Rej,Participant_Images/66661b49621ea96feaf4f6f3/66661b49621ea96feaf4f6f3_Images/66661b49621ea96feaf4f6f3_Image_3.jpeg,did not like,2.682944783,,,,,,,,,,,,,,,,,,,,,,
,,66661b49621ea96feaf4f6f3,6685aa9113c938e83b4f1ea0,67111e745881133aa3acf3b8,2024-10-17_09h38.01.205,WTP_SM_Choice,2022.2.1,Win32,60.60606061,,,,,space,1.5207,NAN,,NAN,1.41,4.59,,0,48,48,48,1,49,Charlie,Rej,Participant_Images/66661b49621ea96feaf4f6f3/66661b49621ea96feaf4f6f3_Images/66661b49621ea96feaf4f6f3_Image_8.jpeg,did not like,4.51984296,,,,,,,,,,,,,,,,,,,,,,
,,66661b49621ea96feaf4f6f3,6685aa9113c938e83b4f1ea0,67111e745881133aa3acf3b8,2024-10-17_09h38.01.205,WTP_SM_Choice,2022.2.1,Win32,60.60606061,,,,,,,,,,,,,,,,,,46,,,,,,space,3.8075,space,1.6519,0.05,2,3.2456,0,0,0,0,1,Go to brunch with friends,Drive getting a cold Starbucks Frappuccino,0.01,0.05,8.8,0,,,,
,,66661b49621ea96feaf4f6f3,6685aa9113c938e83b4f1ea0,67111e745881133aa3acf3b8,2024-10-17_09h38.01.205,WTP_SM_Choice,2022.2.1,Win32,60.60606061,,,,,,,,,,,,,,,,,,47,,,,,,,,,,0.02,1,1.7155,0,1,1,1,1,Swing on the swing,Go to brunch with friends,0.02,0.05,1.1,1,,,,
,,66661b49621ea96feaf4f6f3,6685aa9113c938e83b4f1ea0,67111e745881133aa3acf3b8,2024-10-17_09h38.01.205,WTP_SM_Choice,2022.2.1,Win32,60.60606061,,,,,,,,,,,,,,,,,,48,,,,,,,,,,0.05,2,5.8577,0,2,2,2,1,Drive on a road trip with family,Drive getting a cold Starbucks Frappuccino,0.03,0.05,4.4,0,,,,
,,66661b49621ea96feaf4f6f3,6685aa9113c938e83b4f1ea0,67111e745881133aa3acf3b8,2024-10-17_09h38.01.205,WTP_SM_Choice,2022.2.1,Win32,60.60606061,,,,,,,,,,,,,,,,,,49,,,,,,,,,,0.04,1,2.7317,0,3,3,3,1,Listen to music on spotify,Go shopping with friends,0.04,0.05,3.3,1,,,,
,,66661b49621ea96feaf4f6f3,6685aa9113c938e83b4f1ea0,67111e745881133aa3acf3b8,2024-10-17_09h38.01.205,WTP_SM_Choice,2022.2.1,Win32,60.60606061,,,,,,,,,,,,,,,,,,50,,,,,,,,,,0.05,1,2.4717,0,4,4,4,1,Drive getting a cold Starbucks Frappuccino,Get Starbucks with the love of my life,0.05,0.05,1.1,1,,,,
,,66661b49621ea96feaf4f6f3,6685aa9113c938e83b4f1ea0,67111e745881133aa3acf3b8,2024-10-17_09h38.01.205,WTP_SM_Choice,2022.2.1,Win32,60.60606061,,,,,,,2,,8,1.62,4.38,,0,49,49,49,1,50,Charlie,Rej,Participant_Images/66661b49621ea96feaf4f6f3/66661b49621ea96feaf4f6f3_Images/66661b49621ea96feaf4f6f3_Image_18.jpeg,liked,3.195382774,,,,,,,,,,,,,,,,,,,space,1.6268,,
,,66661b49621ea96feaf4f6f3,6685aa9113c938e83b4f1ea0,67111e745881133aa3acf3b8,2024-10-17_09h38.01.205,WTP_SM_Choice,2022.2.1,Win32,60.60606061,,,space,3.1195,space,1.5854,NAN,,NAN,1.62,4.38,,0,50,50,50,1,51,Alex,Rej,Participant_Images/66661b49621ea96feaf4f6f3/66661b49621ea96feaf4f6f3_Images/66661b49621ea96feaf4f6f3_Image_21.jpeg,did not like,1.779333479,,,,,,,,,,,,,,,,,,,,,,
,,66661b49621ea96feaf4f6f3,6685aa9113c938e83b4f1ea0,67111e745881133aa3acf3b8,2024-10-17_09h38.01.205,WTP_SM_Choice,2022.2.1,Win32,60.60606061,,,,,space,1.1144,NAN,,NAN,1.62,4.38,,0,51,51,51,1,52,Alex,Rej,Participant_Images/66661b49621ea96feaf4f6f3/66661b49621ea96feaf4f6f3_Images/66661b49621ea96feaf4f6f3_Image_23.jpeg,did not like,4.312468682,,,,,,,,,,,,,,,,,,,,,,
,,66661b49621ea96feaf4f6f3,6685aa9113c938e83b4f1ea0,67111e745881133aa3acf3b8,2024-10-17_09h38.01.205,WTP_SM_Choice,2022.2.1,Win32,60.60606061,,,,,space,0.8331,NAN,,NAN,1.62,4.38,,0,52,52,52,1,53,Alex,Rej,Participant_Images/66661b49621ea96feaf4f6f3/66661b49621ea96feaf4f6f3_Images/66661b49621ea96feaf4f6f3_Image_13.jpeg,did not like,4.940433059,,,,,,,,,,,,,,,,,,,,,,
,,66661b49621ea96feaf4f6f3,6685aa9113c938e83b4f1ea0,67111e745881133aa3acf3b8,2024-10-17_09h38.01.205,WTP_SM_Choice,2022.2.1,Win32,60.60606061,,,,,space,2.1354,NAN,,NAN,1.62,4.38,,0,53,53,53,1,54,Alex,Rej,Participant_Images/66661b49621ea96feaf4f6f3/66661b49621ea96feaf4f6f3_Images/66661b49621ea96feaf4f6f3_Image_18.jpeg,did not like,2.7105123,,,,,,,,,,,,,,,,,,,,,,
,,66661b49621ea96feaf4f6f3,6685aa9113c938e83b4f1ea0,67111e745881133aa3acf3b8,2024-10-17_09h38.01.205,WTP_SM_Choice,2022.2.1,Win32,60.60606061,,,,,,,,,,,,,,,,,,51,,,,,,space,29.2869,space,23.81,0.01,2,3.0991,0,0,0,0,1,Go shopping with friends,Drive getting a cold Starbucks Frappuccino,0.01,0.01,1.1,0,,,,
,,66661b49621ea96feaf4f6f3,6685aa9113c938e83b4f1ea0,67111e745881133aa3acf3b8,2024-10-17_09h38.01.205,WTP_SM_Choice,2022.2.1,Win32,60.60606061,,,,,,,,,,,,,,,,,,52,,,,,,,,,,0.01,2,2.5518,0,1,1,1,1,Have a weekend getaway with friends,Have a cocktail in the evening ,0.02,0.01,3.3,0,,,,
,,66661b49621ea96feaf4f6f3,6685aa9113c938e83b4f1ea0,67111e745881133aa3acf3b8,2024-10-17_09h38.01.205,WTP_SM_Choice,2022.2.1,Win32,60.60606061,,,,,,,,,,,,,,,,,,53,,,,,,,,,,0.03,1,2.8835,0,2,2,2,1,Read a book outside in the cool breeze,Go shopping with friends,0.03,0.01,1.1,1,,,,
,,66661b49621ea96feaf4f6f3,6685aa9113c938e83b4f1ea0,67111e745881133aa3acf3b8,2024-10-17_09h38.01.205,WTP_SM_Choice,2022.2.1,Win32,60.60606061,,,,,,,,,,,,,,,,,,54,,,,,,,,,,0.01,2,3.6729,0,3,3,3,1,Drive on a road trip with family,Listen to music on spotify,0.04,0.01,4.4,0,,,,
,,66661b49621ea96feaf4f6f3,6685aa9113c938e83b4f1ea0,67111e745881133aa3acf3b8,2024-10-17_09h38.01.205,WTP_SM_Choice,2022.2.1,Win32,60.60606061,,,,,,,,,,,,,,,,,,55,,,,,,,,,,0.01,2,1.7135,0,4,4,4,1,Travel with family,Drive getting a cold Starbucks Frappuccino,0.05,0.01,1.1,0,,,,
,,66661b49621ea96feaf4f6f3,6685aa9113c938e83b4f1ea0,67111e745881133aa3acf3b8,2024-10-17_09h38.01.205,WTP_SM_Choice,2022.2.1,Win32,60.60606061,,,,,,,NAN,,NAN,1.69,4.31,,0,54,54,54,1,55,Alex,Rej,Participant_Images/66661b49621ea96feaf4f6f3/66661b49621ea96feaf4f6f3_Images/66661b49621ea96feaf4f6f3_Image_20.jpeg,did not like,3.602308302,,,,,,,,,,,,,,,,,,,,,,
,,66661b49621ea96feaf4f6f3,6685aa9113c938e83b4f1ea0,67111e745881133aa3acf3b8,2024-10-17_09h38.01.205,WTP_SM_Choice,2022.2.1,Win32,60.60606061,,,,,space,0.9948,NAN,,NAN,1.69,4.31,,0,55,55,55,1,56,Alex,Rej,Participant_Images/66661b49621ea96feaf4f6f3/66661b49621ea96feaf4f6f3_Images/66661b49621ea96feaf4f6f3_Image_2.jpeg,did not like,4.106391878,,,,,,,,,,,,,,,,,,,,,,
,,66661b49621ea96feaf4f6f3,6685aa9113c938e83b4f1ea0,67111e745881133aa3acf3b8,2024-10-17_09h38.01.205,WTP_SM_Choice,2022.2.1,Win32,60.60606061,,,,,space,1.3677,NAN,,NAN,1.69,4.31,,0,56,56,56,1,57,Alex,Rej,Participant_Images/66661b49621ea96feaf4f6f3/66661b49621ea96feaf4f6f3_Images/66661b49621ea96feaf4f6f3_Image_1.jpeg,did not like,3.799433026,,,,,,,,,,,,,,,,,,,,,,
,,66661b49621ea96feaf4f6f3,6685aa9113c938e83b4f1ea0,67111e745881133aa3acf3b8,2024-10-17_09h38.01.205,WTP_SM_Choice,2022.2.1,Win32,60.60606061,,,,,space,2.2194,NAN,,NAN,1.69,4.31,,0,57,57,57,1,58,Alex,Rej,Participant_Images/66661b49621ea96feaf4f6f3/66661b49621ea96feaf4f6f3_Images/66661b49621ea96feaf4f6f3_Image_8.jpeg,did not like,5.246980764,,,,,,,,,,,,,,,,,,,,,,
,,66661b49621ea96feaf4f6f3,6685aa9113c938e83b4f1ea0,67111e745881133aa3acf3b8,2024-10-17_09h38.01.205,WTP_SM_Choice,2022.2.1,Win32,60.60606061,,,,,space,2.0143,NAN,,NAN,1.69,4.31,,0,58,58,58,1,59,Alex,Rej,Participant_Images/66661b49621ea96feaf4f6f3/66661b49621ea96feaf4f6f3_Images/66661b49621ea96feaf4f6f3_Image_6.jpeg,liked,3.30081769,,,,,,,,,,,,,,,,,,,,,,
,,66661b49621ea96feaf4f6f3,6685aa9113c938e83b4f1ea0,67111e745881133aa3acf3b8,2024-10-17_09h38.01.205,WTP_SM_Choice,2022.2.1,Win32,60.60606061,,,,,,,,,,,,,,,,,,56,,,,,,space,0.8535,space,4.571,0.01,1,2.0974,0,0,0,0,1,Play with the dog,Drive on a road trip with family,0.01,0.02,8.8,1,,,,
,,66661b49621ea96feaf4f6f3,6685aa9113c938e83b4f1ea0,67111e745881133aa3acf3b8,2024-10-17_09h38.01.205,WTP_SM_Choice,2022.2.1,Win32,60.60606061,,,,,,,,,,,,,,,,,,57,,,,,,,,,,0.02,1,2.007,0,1,1,1,1,Read a book outside in the cool breeze,Drive on a road trip with family,0.02,0.02,4.4,1,,,,
,,66661b49621ea96feaf4f6f3,6685aa9113c938e83b4f1ea0,67111e745881133aa3acf3b8,2024-10-17_09h38.01.205,WTP_SM_Choice,2022.2.1,Win32,60.60606061,,,,,,,,,,,,,,,,,,58,,,,,,,,,,0.03,1,2.4028,0,2,2,2,1,Look for new books to add to my reading list,Go to brunch with friends,0.03,0.02,4.4,1,,,,
,,66661b49621ea96feaf4f6f3,6685aa9113c938e83b4f1ea0,67111e745881133aa3acf3b8,2024-10-17_09h38.01.205,WTP_SM_Choice,2022.2.1,Win32,60.60606061,,,,,,,,,,,,,,,,,,59,,,,,,,,,,0.02,2,2.0956,0,3,3,3,1,Go shopping with friends,Walk around the neighborhood,0.04,0.02,4.4,0,,,,
,,66661b49621ea96feaf4f6f3,6685aa9113c938e83b4f1ea0,67111e745881133aa3acf3b8,2024-10-17_09h38.01.205,WTP_SM_Choice,2022.2.1,Win32,60.60606061,,,,,,,,,,,,,,,,,,60,,,,,,,,,,0.05,1,1.8997,0,4,4,4,1,Listen to music on spotify,Go to brunch with friends,0.05,0.02,1.1,1,,,,
,,66661b49621ea96feaf4f6f3,6685aa9113c938e83b4f1ea0,67111e745881133aa3acf3b8,2024-10-17_09h38.01.205,WTP_SM_Choice,2022.2.1,Win32,60.60606061,,,,,,,NAN,,NAN,1.82,4.18,,0,59,59,59,1,60,Alex,Rej,Participant_Images/66661b49621ea96feaf4f6f3/66661b49621ea96feaf4f6f3_Images/66661b49621ea96feaf4f6f3_Image_3.jpeg,liked,1.661473164,,,,,,,,,,,,,,,,,,,,,,
,,66661b49621ea96feaf4f6f3,6685aa9113c938e83b4f1ea0,67111e745881133aa3acf3b8,2024-10-17_09h38.01.205,WTP_SM_Choice,2022.2.1,Win32,60.60606061,,,,,space,1.3015,NAN,,NAN,1.82,4.18,,0,60,60,60,1,61,Alex,Rej,Participant_Images/66661b49621ea96feaf4f6f3/66661b49621ea96feaf4f6f3_Images/66661b49621ea96feaf4f6f3_Image_10.jpeg,liked,3.613205605,,,,,,,,,,,,,,,,,,,,,,
,,66661b49621ea96feaf4f6f3,6685aa9113c938e83b4f1ea0,67111e745881133aa3acf3b8,2024-10-17_09h38.01.205,WTP_SM_Choice,2022.2.1,Win32,60.60606061,,,,,space,0.9359,NAN,,NAN,1.82,4.18,,0,61,61,61,1,62,Alex,Rej,Participant_Images/66661b49621ea96feaf4f6f3/66661b49621ea96feaf4f6f3_Images/66661b49621ea96feaf4f6f3_Image_7.jpeg,did not like,4.988446431,,,,,,,,,,,,,,,,,,,,,,
,,66661b49621ea96feaf4f6f3,6685aa9113c938e83b4f1ea0,67111e745881133aa3acf3b8,2024-10-17_09h38.01.205,WTP_SM_Choice,2022.2.1,Win32,60.60606061,,,,,space,0.9252,NAN,,NAN,1.82,4.18,,0,62,62,62,1,63,Alex,Rej,Participant_Images/66661b49621ea96feaf4f6f3/66661b49621ea96feaf4f6f3_Images/66661b49621ea96feaf4f6f3_Image_16.jpeg,liked,3.470791822,,,,,,,,,,,,,,,,,,,,,,
,,66661b49621ea96feaf4f6f3,6685aa9113c938e83b4f1ea0,67111e745881133aa3acf3b8,2024-10-17_09h38.01.205,WTP_SM_Choice,2022.2.1,Win32,60.60606061,,,,,space,5.4077,NAN,,NAN,1.82,4.18,,0,63,63,63,1,64,Alex,Rej,Participant_Images/66661b49621ea96feaf4f6f3/66661b49621ea96feaf4f6f3_Images/66661b49621ea96feaf4f6f3_Image_17.jpeg,did not like,3.820572462,,,,,,,,,,,,,,,,,,,,,,
,,66661b49621ea96feaf4f6f3,6685aa9113c938e83b4f1ea0,67111e745881133aa3acf3b8,2024-10-17_09h38.01.205,WTP_SM_Choice,2022.2.1,Win32,60.60606061,,,,,,,,,,,,,,,,,,61,,,,,,space,18.6513,space,2.1186,0.03,2,2.1847,0,0,0,0,1,Go to dinner with friends,Swing on the swing,0.01,0.03,3.3,0,,,,
,,66661b49621ea96feaf4f6f3,6685aa9113c938e83b4f1ea0,67111e745881133aa3acf3b8,2024-10-17_09h38.01.205,WTP_SM_Choice,2022.2.1,Win32,60.60606061,,,,,,,,,,,,,,,,,,62,,,,,,,,,,0.02,1,2.2114,0,1,1,1,1,Read a book outside in the cool breeze,Get Starbucks with the love of my life,0.02,0.03,3.3,1,,,,
,,66661b49621ea96feaf4f6f3,6685aa9113c938e83b4f1ea0,67111e745881133aa3acf3b8,2024-10-17_09h38.01.205,WTP_SM_Choice,2022.2.1,Win32,60.60606061,,,,,,,,,,,,,,,,,,63,,,,,,,,,,0.03,2,3.601,0,2,2,2,1,Have a weekend getaway with friends,Listen to music on spotify,0.03,0.03,3.3,0,,,,
,,66661b49621ea96feaf4f6f3,6685aa9113c938e83b4f1ea0,67111e745881133aa3acf3b8,2024-10-17_09h38.01.205,WTP_SM_Choice,2022.2.1,Win32,60.60606061,,,,,,,,,,,,,,,,,,64,,,,,,,,,,0.03,2,3.0802,0,3,3,3,1,Visit family in California,Look for new books to add to my reading list,0.04,0.03,1.1,0,,,,
,,66661b49621ea96feaf4f6f3,6685aa9113c938e83b4f1ea0,67111e745881133aa3acf3b8,2024-10-17_09h38.01.205,WTP_SM_Choice,2022.2.1,Win32,60.60606061,,,,,,,,,,,,,,,,,,65,,,,,,,,,,0.05,1,1.9565,0,4,4,4,1,Lay down reading a romance book ,Travel with family,0.05,0.03,1.1,1,,,,
,,66661b49621ea96feaf4f6f3,6685aa9113c938e83b4f1ea0,67111e745881133aa3acf3b8,2024-10-17_09h38.01.205,WTP_SM_Choice,2022.2.1,Win32,60.60606061,,,,,,,NAN,,NAN,1.98,4.02,,0,64,64,64,1,65,Alex,Rej,Participant_Images/66661b49621ea96feaf4f6f3/66661b49621ea96feaf4f6f3_Images/66661b49621ea96feaf4f6f3_Image_25.jpeg,did not like,2.455989137,,,,,,,,,,,,,,,,,,,,,,
,,66661b49621ea96feaf4f6f3,6685aa9113c938e83b4f1ea0,67111e745881133aa3acf3b8,2024-10-17_09h38.01.205,WTP_SM_Choice,2022.2.1,Win32,60.60606061,,,,,space,2.5217,NAN,,NAN,1.98,4.02,,0,65,65,65,1,66,Alex,Rej,Participant_Images/66661b49621ea96feaf4f6f3/66661b49621ea96feaf4f6f3_Images/66661b49621ea96feaf4f6f3_Image_14.jpeg,liked,3.79605092,,,,,,,,,,,,,,,,,,,,,,
,,66661b49621ea96feaf4f6f3,6685aa9113c938e83b4f1ea0,67111e745881133aa3acf3b8,2024-10-17_09h38.01.205,WTP_SM_Choice,2022.2.1,Win32,60.60606061,,,,,space,1.6246,NAN,,NAN,1.98,4.02,,0,66,66,66,1,67,Alex,Rej,Participant_Images/66661b49621ea96feaf4f6f3/66661b49621ea96feaf4f6f3_Images/66661b49621ea96feaf4f6f3_Image_24.jpeg,did not like,3.562416326,,,,,,,,,,,,,,,,,,,,,,
,,66661b49621ea96feaf4f6f3,6685aa9113c938e83b4f1ea0,67111e745881133aa3acf3b8,2024-10-17_09h38.01.205,WTP_SM_Choice,2022.2.1,Win32,60.60606061,,,,,space,1.9689,NAN,,NAN,1.98,4.02,,0,67,67,67,1,68,Alex,Rej,Participant_Images/66661b49621ea96feaf4f6f3/66661b49621ea96feaf4f6f3_Images/66661b49621ea96feaf4f6f3_Image_5.jpeg,liked,2.843822497,,,,,,,,,,,,,,,,,,,,,,
,,66661b49621ea96feaf4f6f3,6685aa9113c938e83b4f1ea0,67111e745881133aa3acf3b8,2024-10-17_09h38.01.205,WTP_SM_Choice,2022.2.1,Win32,60.60606061,,,,,space,1.2258,NAN,,NAN,1.98,4.02,,0,68,68,68,1,69,Alex,Rej,Participant_Images/66661b49621ea96feaf4f6f3/66661b49621ea96feaf4f6f3_Images/66661b49621ea96feaf4f6f3_Image_9.jpeg,liked,3.546495948,,,,,,,,,,,,,,,,,,,,,,
,,66661b49621ea96feaf4f6f3,6685aa9113c938e83b4f1ea0,67111e745881133aa3acf3b8,2024-10-17_09h38.01.205,WTP_SM_Choice,2022.2.1,Win32,60.60606061,,,,,,,,,,,,,,,,,,66,,,,,,space,1.0681,space,0.5371,0.01,1,2.0032,0,0,0,0,1,Lay down reading a romance book ,Watch movies with friends,0.01,0.04,1.1,1,,,,
,,66661b49621ea96feaf4f6f3,6685aa9113c938e83b4f1ea0,67111e745881133aa3acf3b8,2024-10-17_09h38.01.205,WTP_SM_Choice,2022.2.1,Win32,60.60606061,,,,,,,,,,,,,,,,,,67,,,,,,,,,,0.04,2,2.1019,0,1,1,1,1,Play with my baby boy,Go shopping with friends,0.02,0.04,8.8,1,,,,
,,66661b49621ea96feaf4f6f3,6685aa9113c938e83b4f1ea0,67111e745881133aa3acf3b8,2024-10-17_09h38.01.205,WTP_SM_Choice,2022.2.1,Win32,60.60606061,,,,,,,,,,,,,,,,,,68,,,,,,,,,,0.04,2,1.747,0,2,2,2,1,Have a weekend getaway with friends,Swing on the swing,0.03,0.04,4.4,0,,,,
,,66661b49621ea96feaf4f6f3,6685aa9113c938e83b4f1ea0,67111e745881133aa3acf3b8,2024-10-17_09h38.01.205,WTP_SM_Choice,2022.2.1,Win32,60.60606061,,,,,,,,,,,,,,,,,,69,,,,,,,,,,0.04,1,3.5212,0,3,3,3,1,Have a cocktail in the evening ,Travel with family,0.04,0.04,1.1,1,,,,
,,66661b49621ea96feaf4f6f3,6685aa9113c938e83b4f1ea0,67111e745881133aa3acf3b8,2024-10-17_09h38.01.205,WTP_SM_Choice,2022.2.1,Win32,60.60606061,,,,,,,,,,,,,,,,,,70,,,,,,,,,,0.05,1,5.7014,0,4,4,4,1,Lay down reading a romance book ,Go to brunch with friends,0.05,0.04,1.1,1,,,,
,,66661b49621ea96feaf4f6f3,6685aa9113c938e83b4f1ea0,67111e745881133aa3acf3b8,2024-10-17_09h38.01.205,WTP_SM_Choice,2022.2.1,Win32,60.60606061,,,,,,,NAN,,NAN,2.16,3.84,,0,69,69,69,1,70,Alex,Rej,Participant_Images/66661b49621ea96feaf4f6f3/66661b49621ea96feaf4f6f3_Images/66661b49621ea96feaf4f6f3_Image_22.jpeg,did not like,1.672012706,,,,,,,,,,,,,,,,,,,,,,
,,66661b49621ea96feaf4f6f3,6685aa9113c938e83b4f1ea0,67111e745881133aa3acf3b8,2024-10-17_09h38.01.205,WTP_SM_Choice,2022.2.1,Win32,60.60606061,,,,,space,0.7042,NAN,,NAN,2.16,3.84,,0,70,70,70,1,71,Alex,Rej,Participant_Images/66661b49621ea96feaf4f6f3/66661b49621ea96feaf4f6f3_Images/66661b49621ea96feaf4f6f3_Image_19.jpeg,did not like,4.942172136,,,,,,,,,,,,,,,,,,,,,,
,,66661b49621ea96feaf4f6f3,6685aa9113c938e83b4f1ea0,67111e745881133aa3acf3b8,2024-10-17_09h38.01.205,WTP_SM_Choice,2022.2.1,Win32,60.60606061,,,,,space,2.6729,NAN,,NAN,2.16,3.84,,0,71,71,71,1,72,Alex,Rej,Participant_Images/66661b49621ea96feaf4f6f3/66661b49621ea96feaf4f6f3_Images/66661b49621ea96feaf4f6f3_Image_11.jpeg,did not like,2.50187214,,,,,,,,,,,,,,,,,,,,,,
,,66661b49621ea96feaf4f6f3,6685aa9113c938e83b4f1ea0,67111e745881133aa3acf3b8,2024-10-17_09h38.01.205,WTP_SM_Choice,2022.2.1,Win32,60.60606061,,,,,space,6.4917,NAN,,NAN,2.16,3.84,,0,72,72,72,1,73,Alex,Rej,Participant_Images/66661b49621ea96feaf4f6f3/66661b49621ea96feaf4f6f3_Images/66661b49621ea96feaf4f6f3_Image_15.jpeg,did not like,2.071164779,,,,,,,,,,,,,,,,,,,,,,
,,66661b49621ea96feaf4f6f3,6685aa9113c938e83b4f1ea0,67111e745881133aa3acf3b8,2024-10-17_09h38.01.205,WTP_SM_Choice,2022.2.1,Win32,60.60606061,,,,,space,0.835,NAN,,NAN,2.16,3.84,,0,73,73,73,1,74,Alex,Rej,Participant_Images/66661b49621ea96feaf4f6f3/66661b49621ea96feaf4f6f3_Images/66661b49621ea96feaf4f6f3_Image_12.jpeg,did not like,5.336503566,,,,,,,,,,,,,,,,,,,,,,
,,66661b49621ea96feaf4f6f3,6685aa9113c938e83b4f1ea0,67111e745881133aa3acf3b8,2024-10-17_09h38.01.205,WTP_SM_Choice,2022.2.1,Win32,60.60606061,,,,,,,,,,,,,,,,,,71,,,,,,space,2.235,space,0.6679,0.01,1,3.7911,0,0,0,0,1,Get Starbucks with the love of my life,Look for new books to add to my reading list,0.01,0.05,3.3,0,,,,
,,66661b49621ea96feaf4f6f3,6685aa9113c938e83b4f1ea0,67111e745881133aa3acf3b8,2024-10-17_09h38.01.205,WTP_SM_Choice,2022.2.1,Win32,60.60606061,,,,,,,,,,,,,,,,,,72,,,,,,,,,,0.02,1,2.9847,0,1,1,1,1,Have a cocktail in the evening ,Go to dinner with friends,0.02,0.05,8.8,1,,,,
,,66661b49621ea96feaf4f6f3,6685aa9113c938e83b4f1ea0,67111e745881133aa3acf3b8,2024-10-17_09h38.01.205,WTP_SM_Choice,2022.2.1,Win32,60.60606061,,,,,,,,,,,,,,,,,,73,,,,,,,,,,0.03,1,1.8641,0,2,2,2,1,Play with the dog,Have a weekend getaway with friends,0.03,0.05,3.3,1,,,,
,,66661b49621ea96feaf4f6f3,6685aa9113c938e83b4f1ea0,67111e745881133aa3acf3b8,2024-10-17_09h38.01.205,WTP_SM_Choice,2022.2.1,Win32,60.60606061,,,,,,,,,,,,,,,,,,74,,,,,,,,,,0.04,1,2.5022,0,3,3,3,1,Play with the dog,Go out at night with friends,0.04,0.05,4.4,1,,,,
,,66661b49621ea96feaf4f6f3,6685aa9113c938e83b4f1ea0,67111e745881133aa3acf3b8,2024-10-17_09h38.01.205,WTP_SM_Choice,2022.2.1,Win32,60.60606061,,,,,,,,,,,,,,,,,,75,,,,,,,,,,0.05,1,1.8992,0,4,4,4,1,Have a weekend getaway with friends,Play with my baby boy,0.05,0.05,3.3,0,,,,
,,66661b49621ea96feaf4f6f3,6685aa9113c938e83b4f1ea0,67111e745881133aa3acf3b8,2024-10-17_09h38.01.205,WTP_SM_Choice,2022.2.1,Win32,60.60606061,,,,,,,2,,8,2.31,3.69,,0,74,74,74,1,75,Alex,Rej,Participant_Images/66661b49621ea96feaf4f6f3/66661b49621ea96feaf4f6f3_Images/66661b49621ea96feaf4f6f3_Image_4.jpeg,did not like,2.642157193,,,,,,,,,,,,,,,,,,,space,2.2984,,
,,66661b49621ea96feaf4f6f3,6685aa9113c938e83b4f1ea0,67111e745881133aa3acf3b8,2024-10-17_09h38.01.205,WTP_SM_Choice,2022.2.1,Win32,60.60606061,,,space,1.1185,space,1.2734,NAN,,NAN,2.31,3.69,,0,75,75,75,1,76,Sam,Acc,Participant_Images/66661b49621ea96feaf4f6f3/66661b49621ea96feaf4f6f3_Images/66661b49621ea96feaf4f6f3_Image_21.jpeg,liked,4.456234322,,,,,,,,,,,,,,,,,,,,,,
,,66661b49621ea96feaf4f6f3,6685aa9113c938e83b4f1ea0,67111e745881133aa3acf3b8,2024-10-17_09h38.01.205,WTP_SM_Choice,2022.2.1,Win32,60.60606061,,,,,space,2.8861,NAN,,NAN,2.31,3.69,,0,76,76,76,1,77,Sam,Acc,Participant_Images/66661b49621ea96feaf4f6f3/66661b49621ea96feaf4f6f3_Images/66661b49621ea96feaf4f6f3_Image_12.jpeg,liked,4.438512181,,,,,,,,,,,,,,,,,,,,,,
,,66661b49621ea96feaf4f6f3,6685aa9113c938e83b4f1ea0,67111e745881133aa3acf3b8,2024-10-17_09h38.01.205,WTP_SM_Choice,2022.2.1,Win32,60.60606061,,,,,space,5.2682,NAN,,NAN,2.31,3.69,,0,77,77,77,1,78,Sam,Acc,Participant_Images/66661b49621ea96feaf4f6f3/66661b49621ea96feaf4f6f3_Images/66661b49621ea96feaf4f6f3_Image_23.jpeg,liked,2.682944783,,,,,,,,,,,,,,,,,,,,,,
,,66661b49621ea96feaf4f6f3,6685aa9113c938e83b4f1ea0,67111e745881133aa3acf3b8,2024-10-17_09h38.01.205,WTP_SM_Choice,2022.2.1,Win32,60.60606061,,,,,space,8.3728,NAN,,NAN,2.31,3.69,,0,78,78,78,1,79,Sam,Acc,Participant_Images/66661b49621ea96feaf4f6f3/66661b49621ea96feaf4f6f3_Images/66661b49621ea96feaf4f6f3_Image_4.jpeg,liked,4.51984296,,,,,,,,,,,,,,,,,,,,,,
,,66661b49621ea96feaf4f6f3,6685aa9113c938e83b4f1ea0,67111e745881133aa3acf3b8,2024-10-17_09h38.01.205,WTP_SM_Choice,2022.2.1,Win32,60.60606061,,,,,,,,,,,,,,,,,,76,,,,,,space,247.3503,space,2.3638,0.01,1,1.9582,0,0,0,0,1,Lay down reading a romance book ,Have a weekend getaway with friends,0.01,0.01,1.1,1,,,,
,,66661b49621ea96feaf4f6f3,6685aa9113c938e83b4f1ea0,67111e745881133aa3acf3b8,2024-10-17_09h38.01.205,WTP_SM_Choice,2022.2.1,Win32,60.60606061,,,,,,,,,,,,,,,,,,77,,,,,,,,,,0.01,2,2.3667,0,1,1,1,1,Go shopping with friends,Have a cocktail in the evening ,0.02,0.01,8.8,0,,,,
,,66661b49621ea96feaf4f6f3,6685aa9113c938e83b4f1ea0,67111e745881133aa3acf3b8,2024-10-17_09h38.01.205,WTP_SM_Choice,2022.2.1,Win32,60.60606061,,,,,,,,,,,,,,,,,,78,,,,,,,,,,0.01,2,1.6492,0,2,2,2,1,Go to dinner with friends,Play with the dog,0.03,0.01,1.1,0,,,,
,,66661b49621ea96feaf4f6f3,6685aa9113c938e83b4f1ea0,67111e745881133aa3acf3b8,2024-10-17_09h38.01.205,WTP_SM_Choice,2022.2.1,Win32,60.60606061,,,,,,,,,,,,,,,,,,79,,,,,,,,,,0.01,2,7.755,0,3,3,3,1,Watch movies with friends,Have a cocktail in the evening ,0.04,0.01,1.1,0,,,,
,,66661b49621ea96feaf4f6f3,6685aa9113c938e83b4f1ea0,67111e745881133aa3acf3b8,2024-10-17_09h38.01.205,WTP_SM_Choice,2022.2.1,Win32,60.60606061,,,,,,,,,,,,,,,,,,80,,,,,,,,,,0.01,2,7.0941,0,4,4,4,1,Watch movies with friends,Read a book outside in the cool breeze,0.05,0.01,4.4,0,,,,
,,66661b49621ea96feaf4f6f3,6685aa9113c938e83b4f1ea0,67111e745881133aa3acf3b8,2024-10-17_09h38.01.205,WTP_SM_Choice,2022.2.1,Win32,60.60606061,,,,,,,NAN,,NAN,2.36,3.64,,0,79,79,79,1,80,Sam,Acc,Participant_Images/66661b49621ea96feaf4f6f3/66661b49621ea96feaf4f6f3_Images/66661b49621ea96feaf4f6f3_Image_24.jpeg,liked,3.195382774,,,,,,,,,,,,,,,,,,,,,,
,,66661b49621ea96feaf4f6f3,6685aa9113c938e83b4f1ea0,67111e745881133aa3acf3b8,2024-10-17_09h38.01.205,WTP_SM_Choice,2022.2.1,Win32,60.60606061,,,,,space,1.7126,NAN,,NAN,2.36,3.64,,0,80,80,80,1,81,Sam,Acc,Participant_Images/66661b49621ea96feaf4f6f3/66661b49621ea96feaf4f6f3_Images/66661b49621ea96feaf4f6f3_Image_7.jpeg,liked,1.779333479,,,,,,,,,,,,,,,,,,,,,,
,,66661b49621ea96feaf4f6f3,6685aa9113c938e83b4f1ea0,67111e745881133aa3acf3b8,2024-10-17_09h38.01.205,WTP_SM_Choice,2022.2.1,Win32,60.60606061,,,,,space,4.9711,NAN,,NAN,2.36,3.64,,0,81,81,81,1,82,Sam,Acc,Participant_Images/66661b49621ea96feaf4f6f3/66661b49621ea96feaf4f6f3_Images/66661b49621ea96feaf4f6f3_Image_3.jpeg,did not like,4.312468682,,,,,,,,,,,,,,,,,,,,,,
,,66661b49621ea96feaf4f6f3,6685aa9113c938e83b4f1ea0,67111e745881133aa3acf3b8,2024-10-17_09h38.01.205,WTP_SM_Choice,2022.2.1,Win32,60.60606061,,,,,space,5.3125,NAN,,NAN,2.36,3.64,,0,82,82,82,1,83,Sam,Acc,Participant_Images/66661b49621ea96feaf4f6f3/66661b49621ea96feaf4f6f3_Images/66661b49621ea96feaf4f6f3_Image_11.jpeg,liked,4.940433059,,,,,,,,,,,,,,,,,,,,,,
,,66661b49621ea96feaf4f6f3,6685aa9113c938e83b4f1ea0,67111e745881133aa3acf3b8,2024-10-17_09h38.01.205,WTP_SM_Choice,2022.2.1,Win32,60.60606061,,,,,space,8.6224,NAN,,NAN,2.36,3.64,,0,83,83,83,1,84,Sam,Acc,Participant_Images/66661b49621ea96feaf4f6f3/66661b49621ea96feaf4f6f3_Images/66661b49621ea96feaf4f6f3_Image_20.jpeg,liked,2.7105123,,,,,,,,,,,,,,,,,,,,,,
,,66661b49621ea96feaf4f6f3,6685aa9113c938e83b4f1ea0,67111e745881133aa3acf3b8,2024-10-17_09h38.01.205,WTP_SM_Choice,2022.2.1,Win32,60.60606061,,,,,,,,,,,,,,,,,,81,,,,,,space,0.6511,space,5.0041,0.01,1,2.0664,0,0,0,0,1,Look for new books to add to my reading list,Drive on a road trip with family,0.01,0.02,3.3,1,,,,
,,66661b49621ea96feaf4f6f3,6685aa9113c938e83b4f1ea0,67111e745881133aa3acf3b8,2024-10-17_09h38.01.205,WTP_SM_Choice,2022.2.1,Win32,60.60606061,,,,,,,,,,,,,,,,,,82,,,,,,,,,,0.02,2,1.8498,0,1,1,1,1,Play with my baby boy,Go out at night with friends,0.02,0.02,4.4,1,,,,
,,66661b49621ea96feaf4f6f3,6685aa9113c938e83b4f1ea0,67111e745881133aa3acf3b8,2024-10-17_09h38.01.205,WTP_SM_Choice,2022.2.1,Win32,60.60606061,,,,,,,,,,,,,,,,,,83,,,,,,,,,,0.03,1,1.8989,0,2,2,2,1,Play with the dog,Go to brunch with friends,0.03,0.02,1.1,1,,,,
,,66661b49621ea96feaf4f6f3,6685aa9113c938e83b4f1ea0,67111e745881133aa3acf3b8,2024-10-17_09h38.01.205,WTP_SM_Choice,2022.2.1,Win32,60.60606061,,,,,,,,,,,,,,,,,,84,,,,,,,,,,0.04,1,1.9184,0,3,3,3,1,Go to dinner with friends,Play with my baby boy,0.04,0.02,3.3,0,,,,
,,66661b49621ea96feaf4f6f3,6685aa9113c938e83b4f1ea0,67111e745881133aa3acf3b8,2024-10-17_09h38.01.205,WTP_SM_Choice,2022.2.1,Win32,60.60606061,,,,,,,,,,,,,,,,,,85,,,,,,,,,,0.02,2,6.7407,0,4,4,4,1,Get Starbucks with the love of my life,Have a cocktail in the evening ,0.05,0.02,3.3,0,,,,
,,66661b49621ea96feaf4f6f3,6685aa9113c938e83b4f1ea0,67111e745881133aa3acf3b8,2024-10-17_09h38.01.205,WTP_SM_Choice,2022.2.1,Win32,60.60606061,,,,,,,NAN,,NAN,2.48,3.52,,0,84,84,84,1,85,Sam,Acc,Participant_Images/66661b49621ea96feaf4f6f3/66661b49621ea96feaf4f6f3_Images/66661b49621ea96feaf4f6f3_Image_19.jpeg,liked,3.602308302,,,,,,,,,,,,,,,,,,,,,,
,,66661b49621ea96feaf4f6f3,6685aa9113c938e83b4f1ea0,67111e745881133aa3acf3b8,2024-10-17_09h38.01.205,WTP_SM_Choice,2022.2.1,Win32,60.60606061,,,,,space,1.5979,NAN,,NAN,2.48,3.52,,0,85,85,85,1,86,Sam,Acc,Participant_Images/66661b49621ea96feaf4f6f3/66661b49621ea96feaf4f6f3_Images/66661b49621ea96feaf4f6f3_Image_6.jpeg,liked,4.106391878,,,,,,,,,,,,,,,,,,,,,,
,,66661b49621ea96feaf4f6f3,6685aa9113c938e83b4f1ea0,67111e745881133aa3acf3b8,2024-10-17_09h38.01.205,WTP_SM_Choice,2022.2.1,Win32,60.60606061,,,,,space,20.031,NAN,,NAN,2.48,3.52,,0,86,86,86,1,87,Sam,Acc,Participant_Images/66661b49621ea96feaf4f6f3/66661b49621ea96feaf4f6f3_Images/66661b49621ea96feaf4f6f3_Image_22.jpeg,did not like,3.799433026,,,,,,,,,,,,,,,,,,,,,,
,,66661b49621ea96feaf4f6f3,6685aa9113c938e83b4f1ea0,67111e745881133aa3acf3b8,2024-10-17_09h38.01.205,WTP_SM_Choice,2022.2.1,Win32,60.60606061,,,,,space,4.5877,NAN,,NAN,2.48,3.52,,0,87,87,87,1,88,Sam,Acc,Participant_Images/66661b49621ea96feaf4f6f3/66661b49621ea96feaf4f6f3_Images/66661b49621ea96feaf4f6f3_Image_8.jpeg,did not like,5.246980764,,,,,,,,,,,,,,,,,,,,,,
,,66661b49621ea96feaf4f6f3,6685aa9113c938e83b4f1ea0,67111e745881133aa3acf3b8,2024-10-17_09h38.01.205,WTP_SM_Choice,2022.2.1,Win32,60.60606061,,,,,space,4.3533,NAN,,NAN,2.48,3.52,,0,88,88,88,1,89,Sam,Acc,Participant_Images/66661b49621ea96feaf4f6f3/66661b49621ea96feaf4f6f3_Images/66661b49621ea96feaf4f6f3_Image_16.jpeg,did not like,3.30081769,,,,,,,,,,,,,,,,,,,,,,
,,66661b49621ea96feaf4f6f3,6685aa9113c938e83b4f1ea0,67111e745881133aa3acf3b8,2024-10-17_09h38.01.205,WTP_SM_Choice,2022.2.1,Win32,60.60606061,,,,,,,,,,,,,,,,,,86,,,,,,space,5.4041,space,2.4352,0.01,1,2.0393,0,0,0,0,1,Play with the dog,Go shopping with friends,0.01,0.03,1.1,1,,,,
,,66661b49621ea96feaf4f6f3,6685aa9113c938e83b4f1ea0,67111e745881133aa3acf3b8,2024-10-17_09h38.01.205,WTP_SM_Choice,2022.2.1,Win32,60.60606061,,,,,,,,,,,,,,,,,,87,,,,,,,,,,0.03,2,9.4208,0,1,1,1,1,Watch movies with friends,Play with the dog,0.02,0.03,4.4,0,,,,
,,66661b49621ea96feaf4f6f3,6685aa9113c938e83b4f1ea0,67111e745881133aa3acf3b8,2024-10-17_09h38.01.205,WTP_SM_Choice,2022.2.1,Win32,60.60606061,,,,,,,,,,,,,,,,,,88,,,,,,,,,,0.03,1,3.4759,0,2,2,2,1,Read a book outside in the cool breeze,Go out at night with friends,0.03,0.03,1.1,1,,,,
,,66661b49621ea96feaf4f6f3,6685aa9113c938e83b4f1ea0,67111e745881133aa3acf3b8,2024-10-17_09h38.01.205,WTP_SM_Choice,2022.2.1,Win32,60.60606061,,,,,,,,,,,,,,,,,,89,,,,,,,,,,0.03,2,3.5506,0,3,3,3,1,Go out at night with friends,Drive getting a cold Starbucks Frappuccino,0.04,0.03,3.3,0,,,,
,,66661b49621ea96feaf4f6f3,6685aa9113c938e83b4f1ea0,67111e745881133aa3acf3b8,2024-10-17_09h38.01.205,WTP_SM_Choice,2022.2.1,Win32,60.60606061,,,,,,,,,,,,,,,,,,90,,,,,,,,,,0.03,2,2.34,0,4,4,4,1,Walk around the neighborhood,Watch movies with friends,0.05,0.03,8.8,1,,,,
,,66661b49621ea96feaf4f6f3,6685aa9113c938e83b4f1ea0,67111e745881133aa3acf3b8,2024-10-17_09h38.01.205,WTP_SM_Choice,2022.2.1,Win32,60.60606061,,,,,,,NAN,,NAN,2.61,3.39,,0,89,89,89,1,90,Sam,Acc,Participant_Images/66661b49621ea96feaf4f6f3/66661b49621ea96feaf4f6f3_Images/66661b49621ea96feaf4f6f3_Image_18.jpeg,liked,1.661473164,,,,,,,,,,,,,,,,,,,,,,
,,66661b49621ea96feaf4f6f3,6685aa9113c938e83b4f1ea0,67111e745881133aa3acf3b8,2024-10-17_09h38.01.205,WTP_SM_Choice,2022.2.1,Win32,60.60606061,,,,,space,1.3602,NAN,,NAN,2.61,3.39,,0,90,90,90,1,91,Sam,Acc,Participant_Images/66661b49621ea96feaf4f6f3/66661b49621ea96feaf4f6f3_Images/66661b49621ea96feaf4f6f3_Image_9.jpeg,did not like,3.613205605,,,,,,,,,,,,,,,,,,,,,,
,,66661b49621ea96feaf4f6f3,6685aa9113c938e83b4f1ea0,67111e745881133aa3acf3b8,2024-10-17_09h38.01.205,WTP_SM_Choice,2022.2.1,Win32,60.60606061,,,,,space,7.1418,NAN,,NAN,2.61,3.39,,0,91,91,91,1,92,Sam,Acc,Participant_Images/66661b49621ea96feaf4f6f3/66661b49621ea96feaf4f6f3_Images/66661b49621ea96feaf4f6f3_Image_2.jpeg,liked,4.988446431,,,,,,,,,,,,,,,,,,,,,,
,,66661b49621ea96feaf4f6f3,6685aa9113c938e83b4f1ea0,67111e745881133aa3acf3b8,2024-10-17_09h38.01.205,WTP_SM_Choice,2022.2.1,Win32,60.60606061,,,,,space,5.2043,NAN,,NAN,2.61,3.39,,0,92,92,92,1,93,Sam,Acc,Participant_Images/66661b49621ea96feaf4f6f3/66661b49621ea96feaf4f6f3_Images/66661b49621ea96feaf4f6f3_Image_13.jpeg,liked,3.470791822,,,,,,,,,,,,,,,,,,,,,,
,,66661b49621ea96feaf4f6f3,6685aa9113c938e83b4f1ea0,67111e745881133aa3acf3b8,2024-10-17_09h38.01.205,WTP_SM_Choice,2022.2.1,Win32,60.60606061,,,,,space,5.1549,NAN,,NAN,2.61,3.39,,0,93,93,93,1,94,Sam,Acc,Participant_Images/66661b49621ea96feaf4f6f3/66661b49621ea96feaf4f6f3_Images/66661b49621ea96feaf4f6f3_Image_17.jpeg,liked,3.820572462,,,,,,,,,,,,,,,,,,,,,,
,,66661b49621ea96feaf4f6f3,6685aa9113c938e83b4f1ea0,67111e745881133aa3acf3b8,2024-10-17_09h38.01.205,WTP_SM_Choice,2022.2.1,Win32,60.60606061,,,,,,,,,,,,,,,,,,91,,,,,,space,131.0688,space,1.4014,0.01,1,2.9335,0,0,0,0,1,Read a book outside in the cool breeze,Have a weekend getaway with friends,0.01,0.04,3.3,1,,,,
,,66661b49621ea96feaf4f6f3,6685aa9113c938e83b4f1ea0,67111e745881133aa3acf3b8,2024-10-17_09h38.01.205,WTP_SM_Choice,2022.2.1,Win32,60.60606061,,,,,,,,,,,,,,,,,,92,,,,,,,,,,0.02,1,4.0169,0,1,1,1,1,Lay down reading a romance book ,Get Starbucks with the love of my life,0.02,0.04,8.8,1,,,,
,,66661b49621ea96feaf4f6f3,6685aa9113c938e83b4f1ea0,67111e745881133aa3acf3b8,2024-10-17_09h38.01.205,WTP_SM_Choice,2022.2.1,Win32,60.60606061,,,,,,,,,,,,,,,,,,93,,,,,,,,,,0.03,1,5.7018,0,2,2,2,1,Drive on a road trip with family,Play with my baby boy,0.03,0.04,1.1,0,,,,
,,66661b49621ea96feaf4f6f3,6685aa9113c938e83b4f1ea0,67111e745881133aa3acf3b8,2024-10-17_09h38.01.205,WTP_SM_Choice,2022.2.1,Win32,60.60606061,,,,,,,,,,,,,,,,,,94,,,,,,,,,,0.04,2,5.001,0,3,3,3,1,Get Starbucks with the love of my life,Listen to music on spotify,0.04,0.04,4.4,0,,,,
,,66661b49621ea96feaf4f6f3,6685aa9113c938e83b4f1ea0,67111e745881133aa3acf3b8,2024-10-17_09h38.01.205,WTP_SM_Choice,2022.2.1,Win32,60.60606061,,,,,,,,,,,,,,,,,,95,,,,,,,,,,0.04,2,4.8874,0,4,4,4,1,Get Starbucks with the love of my life,Swing on the swing,0.05,0.04,4.4,0,,,,
,,66661b49621ea96feaf4f6f3,6685aa9113c938e83b4f1ea0,67111e745881133aa3acf3b8,2024-10-17_09h38.01.205,WTP_SM_Choice,2022.2.1,Win32,60.60606061,,,,,,,NAN,,NAN,2.75,3.25,,0,94,94,94,1,95,Sam,Acc,Participant_Images/66661b49621ea96feaf4f6f3/66661b49621ea96feaf4f6f3_Images/66661b49621ea96feaf4f6f3_Image_10.jpeg,liked,2.455989137,,,,,,,,,,,,,,,,,,,,,,
,,66661b49621ea96feaf4f6f3,6685aa9113c938e83b4f1ea0,67111e745881133aa3acf3b8,2024-10-17_09h38.01.205,WTP_SM_Choice,2022.2.1,Win32,60.60606061,,,,,space,1.5804,NAN,,NAN,2.75,3.25,,0,95,95,95,1,96,Sam,Acc,Participant_Images/66661b49621ea96feaf4f6f3/66661b49621ea96feaf4f6f3_Images/66661b49621ea96feaf4f6f3_Image_1.jpeg,liked,3.79605092,,,,,,,,,,,,,,,,,,,,,,
,,66661b49621ea96feaf4f6f3,6685aa9113c938e83b4f1ea0,67111e745881133aa3acf3b8,2024-10-17_09h38.01.205,WTP_SM_Choice,2022.2.1,Win32,60.60606061,,,,,space,1.1483,NAN,,NAN,2.75,3.25,,0,96,96,96,1,97,Sam,Acc,Participant_Images/66661b49621ea96feaf4f6f3/66661b49621ea96feaf4f6f3_Images/66661b49621ea96feaf4f6f3_Image_15.jpeg,liked,3.562416326,,,,,,,,,,,,,,,,,,,,,,
,,66661b49621ea96feaf4f6f3,6685aa9113c938e83b4f1ea0,67111e745881133aa3acf3b8,2024-10-17_09h38.01.205,WTP_SM_Choice,2022.2.1,Win32,60.60606061,,,,,space,5.4958,NAN,,NAN,2.75,3.25,,0,97,97,97,1,98,Sam,Acc,Participant_Images/66661b49621ea96feaf4f6f3/66661b49621ea96feaf4f6f3_Images/66661b49621ea96feaf4f6f3_Image_14.jpeg,did not like,2.843822497,,,,,,,,,,,,,,,,,,,,,,
,,66661b49621ea96feaf4f6f3,6685aa9113c938e83b4f1ea0,67111e745881133aa3acf3b8,2024-10-17_09h38.01.205,WTP_SM_Choice,2022.2.1,Win32,60.60606061,,,,,space,0.6943,NAN,,NAN,2.75,3.25,,0,98,98,98,1,99,Sam,Acc,Participant_Images/66661b49621ea96feaf4f6f3/66661b49621ea96feaf4f6f3_Images/66661b49621ea96feaf4f6f3_Image_25.jpeg,did not like,3.546495948,,,,,,,,,,,,,,,,,,,,,,
,,66661b49621ea96feaf4f6f3,6685aa9113c938e83b4f1ea0,67111e745881133aa3acf3b8,2024-10-17_09h38.01.205,WTP_SM_Choice,2022.2.1,Win32,60.60606061,,,,,,,,,,,,,,,,,,96,,,,,,space,152.0481,space,11.4255,0.01,1,2.2512,0,0,0,0,1,Look for new books to add to my reading list,Have a weekend getaway with friends,0.01,0.05,3.3,1,,,,
,,66661b49621ea96feaf4f6f3,6685aa9113c938e83b4f1ea0,67111e745881133aa3acf3b8,2024-10-17_09h38.01.205,WTP_SM_Choice,2022.2.1,Win32,60.60606061,,,,,,,,,,,,,,,,,,97,,,,,,,,,,0.05,2,3.7322,0,1,1,1,1,Have a weekend getaway with friends,Walk around the neighborhood,0.02,0.05,1.1,0,,,,
,,66661b49621ea96feaf4f6f3,6685aa9113c938e83b4f1ea0,67111e745881133aa3acf3b8,2024-10-17_09h38.01.205,WTP_SM_Choice,2022.2.1,Win32,60.60606061,,,,,,,,,,,,,,,,,,98,,,,,,,,,,0.03,1,4.4156,0,2,2,2,1,Go out at night with friends,Have a cocktail in the evening ,0.03,0.05,1.1,0,,,,
,,66661b49621ea96feaf4f6f3,6685aa9113c938e83b4f1ea0,67111e745881133aa3acf3b8,2024-10-17_09h38.01.205,WTP_SM_Choice,2022.2.1,Win32,60.60606061,,,,,,,,,,,,,,,,,,99,,,,,,,,,,0.04,1,4.1174,0,3,3,3,1,Travel with family,Play with my baby boy,0.04,0.05,3.3,0,,,,
,,66661b49621ea96feaf4f6f3,6685aa9113c938e83b4f1ea0,67111e745881133aa3acf3b8,2024-10-17_09h38.01.205,WTP_SM_Choice,2022.2.1,Win32,60.60606061,,,,,,,,,,,,,,,,,,100,,,,,,,,,,0.05,1,6.3859,0,4,4,4,1,Swing on the swing,Travel with family,0.05,0.05,4.4,1,,,,
,,66661b49621ea96feaf4f6f3,6685aa9113c938e83b4f1ea0,67111e745881133aa3acf3b8,2024-10-17_09h38.01.205,WTP_SM_Choice,2022.2.1,Win32,60.60606061,,,,,,,2,,8,2.93,3.07,,0,99,99,99,1,100,Sam,Acc,Participant_Images/66661b49621ea96feaf4f6f3/66661b49621ea96feaf4f6f3_Images/66661b49621ea96feaf4f6f3_Image_5.jpeg,liked,1.672012706,,,,,,,,,,,,,,,,,,,space,4.1538,,
,,66661b49621ea96feaf4f6f3,6685aa9113c938e83b4f1ea0,67111e745881133aa3acf3b8,2024-10-17_09h38.01.205,WTP_SM_Choice,2022.2.1,Win32,60.60606061,,,,,,,,,,,,,,,,,,,,,,,,,,,,,,,,,,,,,,,,,,,,space,3.1501
