endwelcomescreen_keys.keys,endwelcomescreen_keys.rt,participant,STUDY_ID,SESSION_ID,date,expName,psychopyVersion,OS,frameRate,endinstructionscreen_keys.keys,endinstructionscreen_keys.rt,endpartnermatch_keys.keys,endpartnermatch_keys.rt,sharenextphoto_key.keys,sharenextphoto_key.rt,salience_rating,key_resp.keys,stress_level,subtract_bonus,TOTAL_TASK_BONUS,stresslevel_keypress.keys,entiretaskloop.thisRepN,entiretaskloop.thisTrialN,entiretaskloop.thisN,entiretaskloop.thisIndex,entiretaskloop.ran,TrialNumber,Partner,Condition,Photos,Feedback,FeedbackWait,WTP_ins_keys1.keys,WTP_ins_keys1.rt,WTP_ins_keys2.keys,WTP_ins_keys2.rt,decision_price,responses.keys,responses.rt,WTPTaskLoop.thisRepN,WTPTaskLoop.thisTrialN,WTPTaskLoop.thisN,WTPTaskLoop.thisIndex,WTPTaskLoop.ran,right,left,leftmoney,rightmoney,WTP_ITI,social_left,Resume_keys.keys,Resume_keys.rt,key_resp.rt,end_screen_keys.keys,end_screen_keys.rt
space,7.2831,6669a122ab60c120f94b3aa5,6685aa9113c938e83b4f1ea0,66c69948277b42d678ad7f0e,2024-08-21_23h05.49.900,WTP_SM_Choice,2022.2.1,Linux x86_64,29.94011976,,,,,,,,,,,,,,,,,,,,,,,,,,,,,,,,,,,,,,,,,,,,,,
,,6669a122ab60c120f94b3aa5,6685aa9113c938e83b4f1ea0,66c69948277b42d678ad7f0e,2024-08-21_23h05.49.900,WTP_SM_Choice,2022.2.1,Linux x86_64,29.94011976,space,14.1456,,,,,,,,,,,,,,,,,,,,,,,,,,,,,,,,,,,,,,,,,,,,
,,6669a122ab60c120f94b3aa5,6685aa9113c938e83b4f1ea0,66c69948277b42d678ad7f0e,2024-08-21_23h05.49.900,WTP_SM_Choice,2022.2.1,Linux x86_64,29.94011976,,,space,2.2138,space,1.3898,NAN,,NAN,0,6,,0,0,0,0,1,1,Charlie,Acc,Participant_Images/6669a122ab60c120f94b3aa5/6669a122ab60c120f94b3aa5_Images/6669a122ab60c120f94b3aa5_Image_25.jpeg,liked,3.613205605,,,,,,,,,,,,,,,,,,,,,,,
,,6669a122ab60c120f94b3aa5,6685aa9113c938e83b4f1ea0,66c69948277b42d678ad7f0e,2024-08-21_23h05.49.900,WTP_SM_Choice,2022.2.1,Linux x86_64,29.94011976,,,,,space,2.0015,NAN,,NAN,0,6,,0,1,1,1,1,2,Charlie,Acc,Participant_Images/6669a122ab60c120f94b3aa5/6669a122ab60c120f94b3aa5_Images/6669a122ab60c120f94b3aa5_Image_10.jpeg,liked,4.988446431,,,,,,,,,,,,,,,,,,,,,,,
,,6669a122ab60c120f94b3aa5,6685aa9113c938e83b4f1ea0,66c69948277b42d678ad7f0e,2024-08-21_23h05.49.900,WTP_SM_Choice,2022.2.1,Linux x86_64,29.94011976,,,,,space,1.2393,NAN,,NAN,0,6,,0,2,2,2,1,3,Charlie,Acc,Participant_Images/6669a122ab60c120f94b3aa5/6669a122ab60c120f94b3aa5_Images/6669a122ab60c120f94b3aa5_Image_3.jpeg,did not like,3.470791822,,,,,,,,,,,,,,,,,,,,,,,
,,6669a122ab60c120f94b3aa5,6685aa9113c938e83b4f1ea0,66c69948277b42d678ad7f0e,2024-08-21_23h05.49.900,WTP_SM_Choice,2022.2.1,Linux x86_64,29.94011976,,,,,space,1.065,NAN,,NAN,0,6,,0,3,3,3,1,4,Charlie,Acc,Participant_Images/6669a122ab60c120f94b3aa5/6669a122ab60c120f94b3aa5_Images/6669a122ab60c120f94b3aa5_Image_23.jpeg,liked,3.820572462,,,,,,,,,,,,,,,,,,,,,,,
,,6669a122ab60c120f94b3aa5,6685aa9113c938e83b4f1ea0,66c69948277b42d678ad7f0e,2024-08-21_23h05.49.900,WTP_SM_Choice,2022.2.1,Linux x86_64,29.94011976,,,,,,,,,,,,,,,,,,1,,,,,,space,33.5288,space,9.2752,0.01,1,1.7907,0,0,0,0,1,share reels with friends,play computer games,0.01,0.01,4.4,0,,,,,
,,6669a122ab60c120f94b3aa5,6685aa9113c938e83b4f1ea0,66c69948277b42d678ad7f0e,2024-08-21_23h05.49.900,WTP_SM_Choice,2022.2.1,Linux x86_64,29.94011976,,,,,,,,,,,,,,,,,,2,,,,,,,,,,0.01,2,2.8352,0,1,1,1,1,cook for my siblings,watch a movie in my room ,0.02,0.01,8.8,0,,,,,
,,6669a122ab60c120f94b3aa5,6685aa9113c938e83b4f1ea0,66c69948277b42d678ad7f0e,2024-08-21_23h05.49.900,WTP_SM_Choice,2022.2.1,Linux x86_64,29.94011976,,,,,,,,,,,,,,,,,,3,,,,,,,,,,0.03,1,1.9069,0,2,2,2,1,play musical chairs,start a book club,0.03,0.01,3.3,1,,,,,
,,6669a122ab60c120f94b3aa5,6685aa9113c938e83b4f1ea0,66c69948277b42d678ad7f0e,2024-08-21_23h05.49.900,WTP_SM_Choice,2022.2.1,Linux x86_64,29.94011976,,,,,,,,,,,,,,,,,,4,,,,,,,,,,0.01,2,1.6072,0,3,3,3,1,share reels with friends,sleep in my bed,0.04,0.01,1.1,0,,,,,
,,6669a122ab60c120f94b3aa5,6685aa9113c938e83b4f1ea0,66c69948277b42d678ad7f0e,2024-08-21_23h05.49.900,WTP_SM_Choice,2022.2.1,Linux x86_64,29.94011976,,,,,,,,,,,,,,,,,,5,,,,,,,,,,0.01,2,1.2301,0,4,4,4,1,eat a banana,walk to the store with friends,0.05,0.01,1.1,1,,,,,
,,6669a122ab60c120f94b3aa5,6685aa9113c938e83b4f1ea0,66c69948277b42d678ad7f0e,2024-08-21_23h05.49.900,WTP_SM_Choice,2022.2.1,Linux x86_64,29.94011976,,,,,,,NAN,,NAN,0.07,5.93,,0,4,4,4,1,5,Charlie,Acc,Participant_Images/6669a122ab60c120f94b3aa5/6669a122ab60c120f94b3aa5_Images/6669a122ab60c120f94b3aa5_Image_6.jpeg,did not like,2.455989137,,,,,,,,,,,,,,,,,,,,,,,
,,6669a122ab60c120f94b3aa5,6685aa9113c938e83b4f1ea0,66c69948277b42d678ad7f0e,2024-08-21_23h05.49.900,WTP_SM_Choice,2022.2.1,Linux x86_64,29.94011976,,,,,space,0.9736,NAN,,NAN,0.07,5.93,,0,5,5,5,1,6,Charlie,Acc,Participant_Images/6669a122ab60c120f94b3aa5/6669a122ab60c120f94b3aa5_Images/6669a122ab60c120f94b3aa5_Image_18.jpeg,liked,3.79605092,,,,,,,,,,,,,,,,,,,,,,,
,,6669a122ab60c120f94b3aa5,6685aa9113c938e83b4f1ea0,66c69948277b42d678ad7f0e,2024-08-21_23h05.49.900,WTP_SM_Choice,2022.2.1,Linux x86_64,29.94011976,,,,,space,1.4001,NAN,,NAN,0.07,5.93,,0,6,6,6,1,7,Charlie,Acc,Participant_Images/6669a122ab60c120f94b3aa5/6669a122ab60c120f94b3aa5_Images/6669a122ab60c120f94b3aa5_Image_4.jpeg,liked,3.562416326,,,,,,,,,,,,,,,,,,,,,,,
,,6669a122ab60c120f94b3aa5,6685aa9113c938e83b4f1ea0,66c69948277b42d678ad7f0e,2024-08-21_23h05.49.900,WTP_SM_Choice,2022.2.1,Linux x86_64,29.94011976,,,,,space,1.7103,NAN,,NAN,0.07,5.93,,0,7,7,7,1,8,Charlie,Acc,Participant_Images/6669a122ab60c120f94b3aa5/6669a122ab60c120f94b3aa5_Images/6669a122ab60c120f94b3aa5_Image_14.jpeg,did not like,2.843822497,,,,,,,,,,,,,,,,,,,,,,,
,,6669a122ab60c120f94b3aa5,6685aa9113c938e83b4f1ea0,66c69948277b42d678ad7f0e,2024-08-21_23h05.49.900,WTP_SM_Choice,2022.2.1,Linux x86_64,29.94011976,,,,,space,0.4995,NAN,,NAN,0.07,5.93,,0,8,8,8,1,9,Charlie,Acc,Participant_Images/6669a122ab60c120f94b3aa5/6669a122ab60c120f94b3aa5_Images/6669a122ab60c120f94b3aa5_Image_1.jpeg,liked,3.546495948,,,,,,,,,,,,,,,,,,,,,,,
,,6669a122ab60c120f94b3aa5,6685aa9113c938e83b4f1ea0,66c69948277b42d678ad7f0e,2024-08-21_23h05.49.900,WTP_SM_Choice,2022.2.1,Linux x86_64,29.94011976,,,,,,,,,,,,,,,,,,6,,,,,,space,6.8713,space,1.3401,0.01,1,1.2553,0,0,0,0,1,watch a crime documentary with my boyfriend,run on track,0.01,0.02,3.3,0,,,,,
,,6669a122ab60c120f94b3aa5,6685aa9113c938e83b4f1ea0,66c69948277b42d678ad7f0e,2024-08-21_23h05.49.900,WTP_SM_Choice,2022.2.1,Linux x86_64,29.94011976,,,,,,,,,,,,,,,,,,7,,,,,,,,,,0.02,1,2.9848,0,1,1,1,1,sleep in my bed,bake cookies with my boyfriend,0.02,0.02,1.1,1,,,,,
,,6669a122ab60c120f94b3aa5,6685aa9113c938e83b4f1ea0,66c69948277b42d678ad7f0e,2024-08-21_23h05.49.900,WTP_SM_Choice,2022.2.1,Linux x86_64,29.94011976,,,,,,,,,,,,,,,,,,8,,,,,,,,,,0.02,2,3.3835,0,2,2,2,1,sleep in my bed,play tag with my siblings,0.03,0.02,1.1,1,,,,,
,,6669a122ab60c120f94b3aa5,6685aa9113c938e83b4f1ea0,66c69948277b42d678ad7f0e,2024-08-21_23h05.49.900,WTP_SM_Choice,2022.2.1,Linux x86_64,29.94011976,,,,,,,,,,,,,,,,,,9,,,,,,,,,,0.02,2,2.1522,0,3,3,3,1,share reels with friends,play musical chairs,0.04,0.02,4.4,0,,,,,
,,6669a122ab60c120f94b3aa5,6685aa9113c938e83b4f1ea0,66c69948277b42d678ad7f0e,2024-08-21_23h05.49.900,WTP_SM_Choice,2022.2.1,Linux x86_64,29.94011976,,,,,,,,,,,,,,,,,,10,,,,,,,,,,0.02,2,1.8263,0,4,4,4,1,play tag with my siblings,eat a banana,0.05,0.02,1.1,0,,,,,
,,6669a122ab60c120f94b3aa5,6685aa9113c938e83b4f1ea0,66c69948277b42d678ad7f0e,2024-08-21_23h05.49.900,WTP_SM_Choice,2022.2.1,Linux x86_64,29.94011976,,,,,,,NAN,,NAN,0.16,5.84,,0,9,9,9,1,10,Charlie,Acc,Participant_Images/6669a122ab60c120f94b3aa5/6669a122ab60c120f94b3aa5_Images/6669a122ab60c120f94b3aa5_Image_19.jpeg,did not like,1.672012706,,,,,,,,,,,,,,,,,,,,,,,
,,6669a122ab60c120f94b3aa5,6685aa9113c938e83b4f1ea0,66c69948277b42d678ad7f0e,2024-08-21_23h05.49.900,WTP_SM_Choice,2022.2.1,Linux x86_64,29.94011976,,,,,space,2.2029,NAN,,NAN,0.16,5.84,,0,10,10,10,1,11,Charlie,Acc,Participant_Images/6669a122ab60c120f94b3aa5/6669a122ab60c120f94b3aa5_Images/6669a122ab60c120f94b3aa5_Image_21.jpeg,liked,4.942172136,,,,,,,,,,,,,,,,,,,,,,,
,,6669a122ab60c120f94b3aa5,6685aa9113c938e83b4f1ea0,66c69948277b42d678ad7f0e,2024-08-21_23h05.49.900,WTP_SM_Choice,2022.2.1,Linux x86_64,29.94011976,,,,,space,0.6494,NAN,,NAN,0.16,5.84,,0,11,11,11,1,12,Charlie,Acc,Participant_Images/6669a122ab60c120f94b3aa5/6669a122ab60c120f94b3aa5_Images/6669a122ab60c120f94b3aa5_Image_15.jpeg,liked,2.50187214,,,,,,,,,,,,,,,,,,,,,,,
,,6669a122ab60c120f94b3aa5,6685aa9113c938e83b4f1ea0,66c69948277b42d678ad7f0e,2024-08-21_23h05.49.900,WTP_SM_Choice,2022.2.1,Linux x86_64,29.94011976,,,,,space,0.4431,NAN,,NAN,0.16,5.84,,0,12,12,12,1,13,Charlie,Acc,Participant_Images/6669a122ab60c120f94b3aa5/6669a122ab60c120f94b3aa5_Images/6669a122ab60c120f94b3aa5_Image_17.jpeg,liked,2.071164779,,,,,,,,,,,,,,,,,,,,,,,
,,6669a122ab60c120f94b3aa5,6685aa9113c938e83b4f1ea0,66c69948277b42d678ad7f0e,2024-08-21_23h05.49.900,WTP_SM_Choice,2022.2.1,Linux x86_64,29.94011976,,,,,space,0.6876,NAN,,NAN,0.16,5.84,,0,13,13,13,1,14,Charlie,Acc,Participant_Images/6669a122ab60c120f94b3aa5/6669a122ab60c120f94b3aa5_Images/6669a122ab60c120f94b3aa5_Image_2.jpeg,liked,5.336503566,,,,,,,,,,,,,,,,,,,,,,,
,,6669a122ab60c120f94b3aa5,6685aa9113c938e83b4f1ea0,66c69948277b42d678ad7f0e,2024-08-21_23h05.49.900,WTP_SM_Choice,2022.2.1,Linux x86_64,29.94011976,,,,,,,,,,,,,,,,,,11,,,,,,space,5.8603,space,0.9386,0.01,1,1.036,0,0,0,0,1,run on track,eat pizza with my friends,0.01,0.03,3.3,1,,,,,
,,6669a122ab60c120f94b3aa5,6685aa9113c938e83b4f1ea0,66c69948277b42d678ad7f0e,2024-08-21_23h05.49.900,WTP_SM_Choice,2022.2.1,Linux x86_64,29.94011976,,,,,,,,,,,,,,,,,,12,,,,,,,,,,0.02,1,1.4694,0,1,1,1,1,listen to music after classes,sleep in my bed,0.02,0.03,4.4,0,,,,,
,,6669a122ab60c120f94b3aa5,6685aa9113c938e83b4f1ea0,66c69948277b42d678ad7f0e,2024-08-21_23h05.49.900,WTP_SM_Choice,2022.2.1,Linux x86_64,29.94011976,,,,,,,,,,,,,,,,,,13,,,,,,,,,,0.03,1,2.5387,0,2,2,2,1,sleep in my bed,cook for my siblings,0.03,0.03,1.1,1,,,,,
,,6669a122ab60c120f94b3aa5,6685aa9113c938e83b4f1ea0,66c69948277b42d678ad7f0e,2024-08-21_23h05.49.900,WTP_SM_Choice,2022.2.1,Linux x86_64,29.94011976,,,,,,,,,,,,,,,,,,14,,,,,,,,,,0.03,2,1.4912,0,3,3,3,1,read a book,play tag with my siblings,0.04,0.03,3.3,1,,,,,
,,6669a122ab60c120f94b3aa5,6685aa9113c938e83b4f1ea0,66c69948277b42d678ad7f0e,2024-08-21_23h05.49.900,WTP_SM_Choice,2022.2.1,Linux x86_64,29.94011976,,,,,,,,,,,,,,,,,,15,,,,,,,,,,0.03,2,1.3946,0,4,4,4,1,bake cookies with my boyfriend,play musical chairs,0.05,0.03,4.4,0,,,,,
,,6669a122ab60c120f94b3aa5,6685aa9113c938e83b4f1ea0,66c69948277b42d678ad7f0e,2024-08-21_23h05.49.900,WTP_SM_Choice,2022.2.1,Linux x86_64,29.94011976,,,,,,,NAN,,NAN,0.28,5.72,,0,14,14,14,1,15,Charlie,Acc,Participant_Images/6669a122ab60c120f94b3aa5/6669a122ab60c120f94b3aa5_Images/6669a122ab60c120f94b3aa5_Image_13.jpeg,liked,2.642157193,,,,,,,,,,,,,,,,,,,,,,,
,,6669a122ab60c120f94b3aa5,6685aa9113c938e83b4f1ea0,66c69948277b42d678ad7f0e,2024-08-21_23h05.49.900,WTP_SM_Choice,2022.2.1,Linux x86_64,29.94011976,,,,,space,0.7275,NAN,,NAN,0.28,5.72,,0,15,15,15,1,16,Charlie,Acc,Participant_Images/6669a122ab60c120f94b3aa5/6669a122ab60c120f94b3aa5_Images/6669a122ab60c120f94b3aa5_Image_7.jpeg,liked,4.456234322,,,,,,,,,,,,,,,,,,,,,,,
,,6669a122ab60c120f94b3aa5,6685aa9113c938e83b4f1ea0,66c69948277b42d678ad7f0e,2024-08-21_23h05.49.900,WTP_SM_Choice,2022.2.1,Linux x86_64,29.94011976,,,,,space,0.6109,NAN,,NAN,0.28,5.72,,0,16,16,16,1,17,Charlie,Acc,Participant_Images/6669a122ab60c120f94b3aa5/6669a122ab60c120f94b3aa5_Images/6669a122ab60c120f94b3aa5_Image_24.jpeg,liked,4.438512181,,,,,,,,,,,,,,,,,,,,,,,
,,6669a122ab60c120f94b3aa5,6685aa9113c938e83b4f1ea0,66c69948277b42d678ad7f0e,2024-08-21_23h05.49.900,WTP_SM_Choice,2022.2.1,Linux x86_64,29.94011976,,,,,space,0.7208,NAN,,NAN,0.28,5.72,,0,17,17,17,1,18,Charlie,Acc,Participant_Images/6669a122ab60c120f94b3aa5/6669a122ab60c120f94b3aa5_Images/6669a122ab60c120f94b3aa5_Image_8.jpeg,liked,2.682944783,,,,,,,,,,,,,,,,,,,,,,,
,,6669a122ab60c120f94b3aa5,6685aa9113c938e83b4f1ea0,66c69948277b42d678ad7f0e,2024-08-21_23h05.49.900,WTP_SM_Choice,2022.2.1,Linux x86_64,29.94011976,,,,,space,0.6071,NAN,,NAN,0.28,5.72,,0,18,18,18,1,19,Charlie,Acc,Participant_Images/6669a122ab60c120f94b3aa5/6669a122ab60c120f94b3aa5_Images/6669a122ab60c120f94b3aa5_Image_16.jpeg,liked,4.51984296,,,,,,,,,,,,,,,,,,,,,,,
,,6669a122ab60c120f94b3aa5,6685aa9113c938e83b4f1ea0,66c69948277b42d678ad7f0e,2024-08-21_23h05.49.900,WTP_SM_Choice,2022.2.1,Linux x86_64,29.94011976,,,,,,,,,,,,,,,,,,16,,,,,,space,3.2991,space,2.2334,0.01,1,1.2216,0,0,0,0,1,play tag with my siblings,watch a movie in my room ,0.01,0.04,1.1,0,,,,,
,,6669a122ab60c120f94b3aa5,6685aa9113c938e83b4f1ea0,66c69948277b42d678ad7f0e,2024-08-21_23h05.49.900,WTP_SM_Choice,2022.2.1,Linux x86_64,29.94011976,,,,,,,,,,,,,,,,,,17,,,,,,,,,,0.02,1,1.1977,0,1,1,1,1,draw an apple in charcol,eat pizza with my friends,0.02,0.04,8.8,1,,,,,
,,6669a122ab60c120f94b3aa5,6685aa9113c938e83b4f1ea0,66c69948277b42d678ad7f0e,2024-08-21_23h05.49.900,WTP_SM_Choice,2022.2.1,Linux x86_64,29.94011976,,,,,,,,,,,,,,,,,,18,,,,,,,,,,0.03,1,1.5801,0,2,2,2,1,start a book club,sleep in my bed,0.03,0.04,3.3,0,,,,,
,,6669a122ab60c120f94b3aa5,6685aa9113c938e83b4f1ea0,66c69948277b42d678ad7f0e,2024-08-21_23h05.49.900,WTP_SM_Choice,2022.2.1,Linux x86_64,29.94011976,,,,,,,,,,,,,,,,,,19,,,,,,,,,,0.04,1,1.8075,0,3,3,3,1,play computer games,cook for my siblings,0.04,0.04,3.3,1,,,,,
,,6669a122ab60c120f94b3aa5,6685aa9113c938e83b4f1ea0,66c69948277b42d678ad7f0e,2024-08-21_23h05.49.900,WTP_SM_Choice,2022.2.1,Linux x86_64,29.94011976,,,,,,,,,,,,,,,,,,20,,,,,,,,,,0.04,2,1.5283,0,4,4,4,1,play a card game with friends,watch a movie in my room ,0.05,0.04,1.1,0,,,,,
,,6669a122ab60c120f94b3aa5,6685aa9113c938e83b4f1ea0,66c69948277b42d678ad7f0e,2024-08-21_23h05.49.900,WTP_SM_Choice,2022.2.1,Linux x86_64,29.94011976,,,,,,,NAN,,NAN,0.42,5.58,,0,19,19,19,1,20,Charlie,Acc,Participant_Images/6669a122ab60c120f94b3aa5/6669a122ab60c120f94b3aa5_Images/6669a122ab60c120f94b3aa5_Image_22.jpeg,did not like,3.195382774,,,,,,,,,,,,,,,,,,,,,,,
,,6669a122ab60c120f94b3aa5,6685aa9113c938e83b4f1ea0,66c69948277b42d678ad7f0e,2024-08-21_23h05.49.900,WTP_SM_Choice,2022.2.1,Linux x86_64,29.94011976,,,,,space,1.47,NAN,,NAN,0.42,5.58,,0,20,20,20,1,21,Charlie,Acc,Participant_Images/6669a122ab60c120f94b3aa5/6669a122ab60c120f94b3aa5_Images/6669a122ab60c120f94b3aa5_Image_5.jpeg,liked,1.779333479,,,,,,,,,,,,,,,,,,,,,,,
,,6669a122ab60c120f94b3aa5,6685aa9113c938e83b4f1ea0,66c69948277b42d678ad7f0e,2024-08-21_23h05.49.900,WTP_SM_Choice,2022.2.1,Linux x86_64,29.94011976,,,,,space,1.0147,NAN,,NAN,0.42,5.58,,0,21,21,21,1,22,Charlie,Acc,Participant_Images/6669a122ab60c120f94b3aa5/6669a122ab60c120f94b3aa5_Images/6669a122ab60c120f94b3aa5_Image_20.jpeg,did not like,4.312468682,,,,,,,,,,,,,,,,,,,,,,,
,,6669a122ab60c120f94b3aa5,6685aa9113c938e83b4f1ea0,66c69948277b42d678ad7f0e,2024-08-21_23h05.49.900,WTP_SM_Choice,2022.2.1,Linux x86_64,29.94011976,,,,,space,0.4069,NAN,,NAN,0.42,5.58,,0,22,22,22,1,23,Charlie,Acc,Participant_Images/6669a122ab60c120f94b3aa5/6669a122ab60c120f94b3aa5_Images/6669a122ab60c120f94b3aa5_Image_9.jpeg,liked,4.940433059,,,,,,,,,,,,,,,,,,,,,,,
,,6669a122ab60c120f94b3aa5,6685aa9113c938e83b4f1ea0,66c69948277b42d678ad7f0e,2024-08-21_23h05.49.900,WTP_SM_Choice,2022.2.1,Linux x86_64,29.94011976,,,,,space,3.0778,NAN,,NAN,0.42,5.58,,0,23,23,23,1,24,Charlie,Acc,Participant_Images/6669a122ab60c120f94b3aa5/6669a122ab60c120f94b3aa5_Images/6669a122ab60c120f94b3aa5_Image_11.jpeg,did not like,2.7105123,,,,,,,,,,,,,,,,,,,,,,,
,,6669a122ab60c120f94b3aa5,6685aa9113c938e83b4f1ea0,66c69948277b42d678ad7f0e,2024-08-21_23h05.49.900,WTP_SM_Choice,2022.2.1,Linux x86_64,29.94011976,,,,,,,,,,,,,,,,,,21,,,,,,space,2.0669,space,0.5898,0.01,1,0.7377,0,0,0,0,1,play computer games,bake cookies with my boyfriend,0.01,0.05,8.8,1,,,,,
,,6669a122ab60c120f94b3aa5,6685aa9113c938e83b4f1ea0,66c69948277b42d678ad7f0e,2024-08-21_23h05.49.900,WTP_SM_Choice,2022.2.1,Linux x86_64,29.94011976,,,,,,,,,,,,,,,,,,22,,,,,,,,,,0.02,1,2.0448,0,1,1,1,1,paint a picture of my friend,start a book club,0.02,0.05,4.4,1,,,,,
,,6669a122ab60c120f94b3aa5,6685aa9113c938e83b4f1ea0,66c69948277b42d678ad7f0e,2024-08-21_23h05.49.900,WTP_SM_Choice,2022.2.1,Linux x86_64,29.94011976,,,,,,,,,,,,,,,,,,23,,,,,,,,,,0.03,1,1.3136,0,2,2,2,1,cook for my siblings,draw an apple in charcol,0.03,0.05,1.1,0,,,,,
,,6669a122ab60c120f94b3aa5,6685aa9113c938e83b4f1ea0,66c69948277b42d678ad7f0e,2024-08-21_23h05.49.900,WTP_SM_Choice,2022.2.1,Linux x86_64,29.94011976,,,,,,,,,,,,,,,,,,24,,,,,,,,,,0.04,1,1.4465,0,3,3,3,1,run on track,play tag with my siblings,0.04,0.05,4.4,1,,,,,
,,6669a122ab60c120f94b3aa5,6685aa9113c938e83b4f1ea0,66c69948277b42d678ad7f0e,2024-08-21_23h05.49.900,WTP_SM_Choice,2022.2.1,Linux x86_64,29.94011976,,,,,,,,,,,,,,,,,,25,,,,,,,,,,0.05,1,2.023,0,4,4,4,1,paint a picture of my friend,cook for my siblings,0.05,0.05,3.3,1,,,,,
,,6669a122ab60c120f94b3aa5,6685aa9113c938e83b4f1ea0,66c69948277b42d678ad7f0e,2024-08-21_23h05.49.900,WTP_SM_Choice,2022.2.1,Linux x86_64,29.94011976,,,,,,,2,space,4,0.57,5.43,,0,24,24,24,1,25,Charlie,Acc,Participant_Images/6669a122ab60c120f94b3aa5/6669a122ab60c120f94b3aa5_Images/6669a122ab60c120f94b3aa5_Image_12.jpeg,liked,3.602308302,,,,,,,,,,,,,,,,,,,space,1.7651,8.4333,,
,,6669a122ab60c120f94b3aa5,6685aa9113c938e83b4f1ea0,66c69948277b42d678ad7f0e,2024-08-21_23h05.49.900,WTP_SM_Choice,2022.2.1,Linux x86_64,29.94011976,,,space,1.0785,space,0.8983,NAN,,NAN,0.57,5.43,,0,25,25,25,1,26,Riley,Rej,Participant_Images/6669a122ab60c120f94b3aa5/6669a122ab60c120f94b3aa5_Images/6669a122ab60c120f94b3aa5_Image_1.jpeg,did not like,4.106391878,,,,,,,,,,,,,,,,,,,,,,,
,,6669a122ab60c120f94b3aa5,6685aa9113c938e83b4f1ea0,66c69948277b42d678ad7f0e,2024-08-21_23h05.49.900,WTP_SM_Choice,2022.2.1,Linux x86_64,29.94011976,,,,,space,0.9333,NAN,,NAN,0.57,5.43,,0,26,26,26,1,27,Riley,Rej,Participant_Images/6669a122ab60c120f94b3aa5/6669a122ab60c120f94b3aa5_Images/6669a122ab60c120f94b3aa5_Image_13.jpeg,did not like,3.799433026,,,,,,,,,,,,,,,,,,,,,,,
,,6669a122ab60c120f94b3aa5,6685aa9113c938e83b4f1ea0,66c69948277b42d678ad7f0e,2024-08-21_23h05.49.900,WTP_SM_Choice,2022.2.1,Linux x86_64,29.94011976,,,,,space,0.9138,NAN,,NAN,0.57,5.43,,0,27,27,27,1,28,Riley,Rej,Participant_Images/6669a122ab60c120f94b3aa5/6669a122ab60c120f94b3aa5_Images/6669a122ab60c120f94b3aa5_Image_11.jpeg,liked,5.246980764,,,,,,,,,,,,,,,,,,,,,,,
,,6669a122ab60c120f94b3aa5,6685aa9113c938e83b4f1ea0,66c69948277b42d678ad7f0e,2024-08-21_23h05.49.900,WTP_SM_Choice,2022.2.1,Linux x86_64,29.94011976,,,,,space,0.9305,NAN,,NAN,0.57,5.43,,0,28,28,28,1,29,Riley,Rej,Participant_Images/6669a122ab60c120f94b3aa5/6669a122ab60c120f94b3aa5_Images/6669a122ab60c120f94b3aa5_Image_24.jpeg,did not like,3.30081769,,,,,,,,,,,,,,,,,,,,,,,
,,6669a122ab60c120f94b3aa5,6685aa9113c938e83b4f1ea0,66c69948277b42d678ad7f0e,2024-08-21_23h05.49.900,WTP_SM_Choice,2022.2.1,Linux x86_64,29.94011976,,,,,,,,,,,,,,,,,,26,,,,,,space,1.6404,space,0.9365,0.01,1,1.5505,0,0,0,0,1,read a book,share reels with friends,0.01,0.01,4.4,1,,,,,
,,6669a122ab60c120f94b3aa5,6685aa9113c938e83b4f1ea0,66c69948277b42d678ad7f0e,2024-08-21_23h05.49.900,WTP_SM_Choice,2022.2.1,Linux x86_64,29.94011976,,,,,,,,,,,,,,,,,,27,,,,,,,,,,0.01,2,1.6454,0,1,1,1,1,play computer games,watch a crime documentary with my boyfriend,0.02,0.01,3.3,1,,,,,
,,6669a122ab60c120f94b3aa5,6685aa9113c938e83b4f1ea0,66c69948277b42d678ad7f0e,2024-08-21_23h05.49.900,WTP_SM_Choice,2022.2.1,Linux x86_64,29.94011976,,,,,,,,,,,,,,,,,,28,,,,,,,,,,0.01,2,1.2597,0,2,2,2,1,watch a movie in my room ,listen to music after classes,0.03,0.01,3.3,1,,,,,
,,6669a122ab60c120f94b3aa5,6685aa9113c938e83b4f1ea0,66c69948277b42d678ad7f0e,2024-08-21_23h05.49.900,WTP_SM_Choice,2022.2.1,Linux x86_64,29.94011976,,,,,,,,,,,,,,,,,,29,,,,,,,,,,0.01,2,1.0372,0,3,3,3,1,cook for my siblings,read a book,0.04,0.01,4.4,0,,,,,
,,6669a122ab60c120f94b3aa5,6685aa9113c938e83b4f1ea0,66c69948277b42d678ad7f0e,2024-08-21_23h05.49.900,WTP_SM_Choice,2022.2.1,Linux x86_64,29.94011976,,,,,,,,,,,,,,,,,,30,,,,,,,,,,0.01,2,0.9823,0,4,4,4,1,eat a banana,listen to music after classes,0.05,0.01,8.8,1,,,,,
,,6669a122ab60c120f94b3aa5,6685aa9113c938e83b4f1ea0,66c69948277b42d678ad7f0e,2024-08-21_23h05.49.900,WTP_SM_Choice,2022.2.1,Linux x86_64,29.94011976,,,,,,,NAN,,NAN,0.62,5.38,,0,29,29,29,1,30,Riley,Rej,Participant_Images/6669a122ab60c120f94b3aa5/6669a122ab60c120f94b3aa5_Images/6669a122ab60c120f94b3aa5_Image_6.jpeg,liked,1.661473164,,,,,,,,,,,,,,,,,,,,,,,
,,6669a122ab60c120f94b3aa5,6685aa9113c938e83b4f1ea0,66c69948277b42d678ad7f0e,2024-08-21_23h05.49.900,WTP_SM_Choice,2022.2.1,Linux x86_64,29.94011976,,,,,space,3.2211,NAN,,NAN,0.62,5.38,,0,30,30,30,1,31,Riley,Rej,Participant_Images/6669a122ab60c120f94b3aa5/6669a122ab60c120f94b3aa5_Images/6669a122ab60c120f94b3aa5_Image_7.jpeg,did not like,3.613205605,,,,,,,,,,,,,,,,,,,,,,,
,,6669a122ab60c120f94b3aa5,6685aa9113c938e83b4f1ea0,66c69948277b42d678ad7f0e,2024-08-21_23h05.49.900,WTP_SM_Choice,2022.2.1,Linux x86_64,29.94011976,,,,,space,0.9465,NAN,,NAN,0.62,5.38,,0,31,31,31,1,32,Riley,Rej,Participant_Images/6669a122ab60c120f94b3aa5/6669a122ab60c120f94b3aa5_Images/6669a122ab60c120f94b3aa5_Image_15.jpeg,liked,4.988446431,,,,,,,,,,,,,,,,,,,,,,,
,,6669a122ab60c120f94b3aa5,6685aa9113c938e83b4f1ea0,66c69948277b42d678ad7f0e,2024-08-21_23h05.49.900,WTP_SM_Choice,2022.2.1,Linux x86_64,29.94011976,,,,,space,1.1337,NAN,,NAN,0.62,5.38,,0,32,32,32,1,33,Riley,Rej,Participant_Images/6669a122ab60c120f94b3aa5/6669a122ab60c120f94b3aa5_Images/6669a122ab60c120f94b3aa5_Image_4.jpeg,liked,3.470791822,,,,,,,,,,,,,,,,,,,,,,,
,,6669a122ab60c120f94b3aa5,6685aa9113c938e83b4f1ea0,66c69948277b42d678ad7f0e,2024-08-21_23h05.49.900,WTP_SM_Choice,2022.2.1,Linux x86_64,29.94011976,,,,,space,1.0328,NAN,,NAN,0.62,5.38,,0,33,33,33,1,34,Riley,Rej,Participant_Images/6669a122ab60c120f94b3aa5/6669a122ab60c120f94b3aa5_Images/6669a122ab60c120f94b3aa5_Image_17.jpeg,did not like,3.820572462,,,,,,,,,,,,,,,,,,,,,,,
,,6669a122ab60c120f94b3aa5,6685aa9113c938e83b4f1ea0,66c69948277b42d678ad7f0e,2024-08-21_23h05.49.900,WTP_SM_Choice,2022.2.1,Linux x86_64,29.94011976,,,,,,,,,,,,,,,,,,31,,,,,,space,2.0336,space,0.6272,0.01,1,1.7792,0,0,0,0,1,play tag with my siblings,cook lunch,0.01,0.02,8.8,0,,,,,
,,6669a122ab60c120f94b3aa5,6685aa9113c938e83b4f1ea0,66c69948277b42d678ad7f0e,2024-08-21_23h05.49.900,WTP_SM_Choice,2022.2.1,Linux x86_64,29.94011976,,,,,,,,,,,,,,,,,,32,,,,,,,,,,0.02,1,2.1008,0,1,1,1,1,cook lunch,walk to the store with friends,0.02,0.02,1.1,1,,,,,
,,6669a122ab60c120f94b3aa5,6685aa9113c938e83b4f1ea0,66c69948277b42d678ad7f0e,2024-08-21_23h05.49.900,WTP_SM_Choice,2022.2.1,Linux x86_64,29.94011976,,,,,,,,,,,,,,,,,,33,,,,,,,,,,0.02,2,3.2866,0,2,2,2,1,eat pizza with my friends,watch a movie in my room ,0.03,0.02,4.4,0,,,,,
,,6669a122ab60c120f94b3aa5,6685aa9113c938e83b4f1ea0,66c69948277b42d678ad7f0e,2024-08-21_23h05.49.900,WTP_SM_Choice,2022.2.1,Linux x86_64,29.94011976,,,,,,,,,,,,,,,,,,34,,,,,,,,,,0.02,2,1.304,0,3,3,3,1,draw an apple in charcol,bake cookies with my boyfriend,0.04,0.02,3.3,1,,,,,
,,6669a122ab60c120f94b3aa5,6685aa9113c938e83b4f1ea0,66c69948277b42d678ad7f0e,2024-08-21_23h05.49.900,WTP_SM_Choice,2022.2.1,Linux x86_64,29.94011976,,,,,,,,,,,,,,,,,,35,,,,,,,,,,0.02,2,1.336,0,4,4,4,1,paint a picture of my friend,bake cookies with my boyfriend,0.05,0.02,1.1,1,,,,,
,,6669a122ab60c120f94b3aa5,6685aa9113c938e83b4f1ea0,66c69948277b42d678ad7f0e,2024-08-21_23h05.49.900,WTP_SM_Choice,2022.2.1,Linux x86_64,29.94011976,,,,,,,NAN,,NAN,0.71,5.29,,0,34,34,34,1,35,Riley,Rej,Participant_Images/6669a122ab60c120f94b3aa5/6669a122ab60c120f94b3aa5_Images/6669a122ab60c120f94b3aa5_Image_14.jpeg,liked,2.455989137,,,,,,,,,,,,,,,,,,,,,,,
,,6669a122ab60c120f94b3aa5,6685aa9113c938e83b4f1ea0,66c69948277b42d678ad7f0e,2024-08-21_23h05.49.900,WTP_SM_Choice,2022.2.1,Linux x86_64,29.94011976,,,,,space,0.9463,NAN,,NAN,0.71,5.29,,0,35,35,35,1,36,Riley,Rej,Participant_Images/6669a122ab60c120f94b3aa5/6669a122ab60c120f94b3aa5_Images/6669a122ab60c120f94b3aa5_Image_21.jpeg,did not like,3.79605092,,,,,,,,,,,,,,,,,,,,,,,
,,6669a122ab60c120f94b3aa5,6685aa9113c938e83b4f1ea0,66c69948277b42d678ad7f0e,2024-08-21_23h05.49.900,WTP_SM_Choice,2022.2.1,Linux x86_64,29.94011976,,,,,space,1.3904,NAN,,NAN,0.71,5.29,,0,36,36,36,1,37,Riley,Rej,Participant_Images/6669a122ab60c120f94b3aa5/6669a122ab60c120f94b3aa5_Images/6669a122ab60c120f94b3aa5_Image_12.jpeg,did not like,3.562416326,,,,,,,,,,,,,,,,,,,,,,,
,,6669a122ab60c120f94b3aa5,6685aa9113c938e83b4f1ea0,66c69948277b42d678ad7f0e,2024-08-21_23h05.49.900,WTP_SM_Choice,2022.2.1,Linux x86_64,29.94011976,,,,,space,0.5467,NAN,,NAN,0.71,5.29,,0,37,37,37,1,38,Riley,Rej,Participant_Images/6669a122ab60c120f94b3aa5/6669a122ab60c120f94b3aa5_Images/6669a122ab60c120f94b3aa5_Image_22.jpeg,did not like,2.843822497,,,,,,,,,,,,,,,,,,,,,,,
,,6669a122ab60c120f94b3aa5,6685aa9113c938e83b4f1ea0,66c69948277b42d678ad7f0e,2024-08-21_23h05.49.900,WTP_SM_Choice,2022.2.1,Linux x86_64,29.94011976,,,,,space,0.57,NAN,,NAN,0.71,5.29,,0,38,38,38,1,39,Riley,Rej,Participant_Images/6669a122ab60c120f94b3aa5/6669a122ab60c120f94b3aa5_Images/6669a122ab60c120f94b3aa5_Image_19.jpeg,liked,3.546495948,,,,,,,,,,,,,,,,,,,,,,,
,,6669a122ab60c120f94b3aa5,6685aa9113c938e83b4f1ea0,66c69948277b42d678ad7f0e,2024-08-21_23h05.49.900,WTP_SM_Choice,2022.2.1,Linux x86_64,29.94011976,,,,,,,,,,,,,,,,,,36,,,,,,space,0.6724,space,1.444,0.01,1,1.0967,0,0,0,0,1,play musical chairs,cook for my siblings,0.01,0.03,3.3,1,,,,,
,,6669a122ab60c120f94b3aa5,6685aa9113c938e83b4f1ea0,66c69948277b42d678ad7f0e,2024-08-21_23h05.49.900,WTP_SM_Choice,2022.2.1,Linux x86_64,29.94011976,,,,,,,,,,,,,,,,,,37,,,,,,,,,,0.02,1,1.0684,0,1,1,1,1,draw an apple in charcol,listen to music after classes,0.02,0.03,1.1,1,,,,,
,,6669a122ab60c120f94b3aa5,6685aa9113c938e83b4f1ea0,66c69948277b42d678ad7f0e,2024-08-21_23h05.49.900,WTP_SM_Choice,2022.2.1,Linux x86_64,29.94011976,,,,,,,,,,,,,,,,,,38,,,,,,,,,,0.03,1,3.4,0,2,2,2,1,listen to music after classes,run on track,0.03,0.03,1.1,0,,,,,
,,6669a122ab60c120f94b3aa5,6685aa9113c938e83b4f1ea0,66c69948277b42d678ad7f0e,2024-08-21_23h05.49.900,WTP_SM_Choice,2022.2.1,Linux x86_64,29.94011976,,,,,,,,,,,,,,,,,,39,,,,,,,,,,0.03,2,2.1154,0,3,3,3,1,paint a picture of my friend,share reels with friends,0.04,0.03,3.3,1,,,,,
,,6669a122ab60c120f94b3aa5,6685aa9113c938e83b4f1ea0,66c69948277b42d678ad7f0e,2024-08-21_23h05.49.900,WTP_SM_Choice,2022.2.1,Linux x86_64,29.94011976,,,,,,,,,,,,,,,,,,40,,,,,,,,,,0.03,2,1.3407,0,4,4,4,1,play tag with my siblings,draw an apple in charcol,0.05,0.03,4.4,0,,,,,
,,6669a122ab60c120f94b3aa5,6685aa9113c938e83b4f1ea0,66c69948277b42d678ad7f0e,2024-08-21_23h05.49.900,WTP_SM_Choice,2022.2.1,Linux x86_64,29.94011976,,,,,,,NAN,,NAN,0.83,5.17,,0,39,39,39,1,40,Riley,Rej,Participant_Images/6669a122ab60c120f94b3aa5/6669a122ab60c120f94b3aa5_Images/6669a122ab60c120f94b3aa5_Image_10.jpeg,did not like,1.672012706,,,,,,,,,,,,,,,,,,,,,,,
,,6669a122ab60c120f94b3aa5,6685aa9113c938e83b4f1ea0,66c69948277b42d678ad7f0e,2024-08-21_23h05.49.900,WTP_SM_Choice,2022.2.1,Linux x86_64,29.94011976,,,,,space,0.7842,NAN,,NAN,0.83,5.17,,0,40,40,40,1,41,Riley,Rej,Participant_Images/6669a122ab60c120f94b3aa5/6669a122ab60c120f94b3aa5_Images/6669a122ab60c120f94b3aa5_Image_3.jpeg,did not like,4.942172136,,,,,,,,,,,,,,,,,,,,,,,
,,6669a122ab60c120f94b3aa5,6685aa9113c938e83b4f1ea0,66c69948277b42d678ad7f0e,2024-08-21_23h05.49.900,WTP_SM_Choice,2022.2.1,Linux x86_64,29.94011976,,,,,space,1.068,NAN,,NAN,0.83,5.17,,0,41,41,41,1,42,Riley,Rej,Participant_Images/6669a122ab60c120f94b3aa5/6669a122ab60c120f94b3aa5_Images/6669a122ab60c120f94b3aa5_Image_16.jpeg,liked,2.50187214,,,,,,,,,,,,,,,,,,,,,,,
,,6669a122ab60c120f94b3aa5,6685aa9113c938e83b4f1ea0,66c69948277b42d678ad7f0e,2024-08-21_23h05.49.900,WTP_SM_Choice,2022.2.1,Linux x86_64,29.94011976,,,,,space,1.0194,NAN,,NAN,0.83,5.17,,0,42,42,42,1,43,Riley,Rej,Participant_Images/6669a122ab60c120f94b3aa5/6669a122ab60c120f94b3aa5_Images/6669a122ab60c120f94b3aa5_Image_20.jpeg,did not like,2.071164779,,,,,,,,,,,,,,,,,,,,,,,
,,6669a122ab60c120f94b3aa5,6685aa9113c938e83b4f1ea0,66c69948277b42d678ad7f0e,2024-08-21_23h05.49.900,WTP_SM_Choice,2022.2.1,Linux x86_64,29.94011976,,,,,space,0.7449,NAN,,NAN,0.83,5.17,,0,43,43,43,1,44,Riley,Rej,Participant_Images/6669a122ab60c120f94b3aa5/6669a122ab60c120f94b3aa5_Images/6669a122ab60c120f94b3aa5_Image_5.jpeg,did not like,5.336503566,,,,,,,,,,,,,,,,,,,,,,,
,,6669a122ab60c120f94b3aa5,6685aa9113c938e83b4f1ea0,66c69948277b42d678ad7f0e,2024-08-21_23h05.49.900,WTP_SM_Choice,2022.2.1,Linux x86_64,29.94011976,,,,,,,,,,,,,,,,,,41,,,,,,space,0.7713,space,2.2362,0.01,1,1.1055,0,0,0,0,1,eat a banana,start a book club,0.01,0.04,1.1,1,,,,,
,,6669a122ab60c120f94b3aa5,6685aa9113c938e83b4f1ea0,66c69948277b42d678ad7f0e,2024-08-21_23h05.49.900,WTP_SM_Choice,2022.2.1,Linux x86_64,29.94011976,,,,,,,,,,,,,,,,,,42,,,,,,,,,,0.02,1,1.2652,0,1,1,1,1,eat a banana,watch a crime documentary with my boyfriend,0.02,0.04,3.3,1,,,,,
,,6669a122ab60c120f94b3aa5,6685aa9113c938e83b4f1ea0,66c69948277b42d678ad7f0e,2024-08-21_23h05.49.900,WTP_SM_Choice,2022.2.1,Linux x86_64,29.94011976,,,,,,,,,,,,,,,,,,43,,,,,,,,,,0.03,1,1.8722,0,2,2,2,1,eat pizza with my friends,play computer games,0.03,0.04,1.1,0,,,,,
,,6669a122ab60c120f94b3aa5,6685aa9113c938e83b4f1ea0,66c69948277b42d678ad7f0e,2024-08-21_23h05.49.900,WTP_SM_Choice,2022.2.1,Linux x86_64,29.94011976,,,,,,,,,,,,,,,,,,44,,,,,,,,,,0.04,1,1.9486,0,3,3,3,1,watch a crime documentary with my boyfriend,sleep in my bed,0.04,0.04,1.1,0,,,,,
,,6669a122ab60c120f94b3aa5,6685aa9113c938e83b4f1ea0,66c69948277b42d678ad7f0e,2024-08-21_23h05.49.900,WTP_SM_Choice,2022.2.1,Linux x86_64,29.94011976,,,,,,,,,,,,,,,,,,45,,,,,,,,,,0.04,2,1.4838,0,4,4,4,1,cook lunch,listen to music after classes,0.05,0.04,4.4,1,,,,,
,,6669a122ab60c120f94b3aa5,6685aa9113c938e83b4f1ea0,66c69948277b42d678ad7f0e,2024-08-21_23h05.49.900,WTP_SM_Choice,2022.2.1,Linux x86_64,29.94011976,,,,,,,NAN,,NAN,0.97,5.03,,0,44,44,44,1,45,Riley,Rej,Participant_Images/6669a122ab60c120f94b3aa5/6669a122ab60c120f94b3aa5_Images/6669a122ab60c120f94b3aa5_Image_25.jpeg,did not like,2.642157193,,,,,,,,,,,,,,,,,,,,,,,
,,6669a122ab60c120f94b3aa5,6685aa9113c938e83b4f1ea0,66c69948277b42d678ad7f0e,2024-08-21_23h05.49.900,WTP_SM_Choice,2022.2.1,Linux x86_64,29.94011976,,,,,space,1.6149,NAN,,NAN,0.97,5.03,,0,45,45,45,1,46,Riley,Rej,Participant_Images/6669a122ab60c120f94b3aa5/6669a122ab60c120f94b3aa5_Images/6669a122ab60c120f94b3aa5_Image_8.jpeg,did not like,4.456234322,,,,,,,,,,,,,,,,,,,,,,,
,,6669a122ab60c120f94b3aa5,6685aa9113c938e83b4f1ea0,66c69948277b42d678ad7f0e,2024-08-21_23h05.49.900,WTP_SM_Choice,2022.2.1,Linux x86_64,29.94011976,,,,,space,1.0024,NAN,,NAN,0.97,5.03,,0,46,46,46,1,47,Riley,Rej,Participant_Images/6669a122ab60c120f94b3aa5/6669a122ab60c120f94b3aa5_Images/6669a122ab60c120f94b3aa5_Image_9.jpeg,did not like,4.438512181,,,,,,,,,,,,,,,,,,,,,,,
,,6669a122ab60c120f94b3aa5,6685aa9113c938e83b4f1ea0,66c69948277b42d678ad7f0e,2024-08-21_23h05.49.900,WTP_SM_Choice,2022.2.1,Linux x86_64,29.94011976,,,,,space,1.0177,NAN,,NAN,0.97,5.03,,0,47,47,47,1,48,Riley,Rej,Participant_Images/6669a122ab60c120f94b3aa5/6669a122ab60c120f94b3aa5_Images/6669a122ab60c120f94b3aa5_Image_2.jpeg,did not like,2.682944783,,,,,,,,,,,,,,,,,,,,,,,
,,6669a122ab60c120f94b3aa5,6685aa9113c938e83b4f1ea0,66c69948277b42d678ad7f0e,2024-08-21_23h05.49.900,WTP_SM_Choice,2022.2.1,Linux x86_64,29.94011976,,,,,space,0.6341,NAN,,NAN,0.97,5.03,,0,48,48,48,1,49,Riley,Rej,Participant_Images/6669a122ab60c120f94b3aa5/6669a122ab60c120f94b3aa5_Images/6669a122ab60c120f94b3aa5_Image_23.jpeg,did not like,4.51984296,,,,,,,,,,,,,,,,,,,,,,,
,,6669a122ab60c120f94b3aa5,6685aa9113c938e83b4f1ea0,66c69948277b42d678ad7f0e,2024-08-21_23h05.49.900,WTP_SM_Choice,2022.2.1,Linux x86_64,29.94011976,,,,,,,,,,,,,,,,,,46,,,,,,space,1.9287,space,0.5392,0.01,1,0.9962,0,0,0,0,1,run on track,bake cookies with my boyfriend,0.01,0.05,8.8,1,,,,,
,,6669a122ab60c120f94b3aa5,6685aa9113c938e83b4f1ea0,66c69948277b42d678ad7f0e,2024-08-21_23h05.49.900,WTP_SM_Choice,2022.2.1,Linux x86_64,29.94011976,,,,,,,,,,,,,,,,,,47,,,,,,,,,,0.02,1,1.2016,0,1,1,1,1,walk to the store with friends,play musical chairs,0.02,0.05,1.1,0,,,,,
,,6669a122ab60c120f94b3aa5,6685aa9113c938e83b4f1ea0,66c69948277b42d678ad7f0e,2024-08-21_23h05.49.900,WTP_SM_Choice,2022.2.1,Linux x86_64,29.94011976,,,,,,,,,,,,,,,,,,48,,,,,,,,,,0.03,1,1.2923,0,2,2,2,1,walk to the store with friends,paint a picture of my friend,0.03,0.05,4.4,0,,,,,
,,6669a122ab60c120f94b3aa5,6685aa9113c938e83b4f1ea0,66c69948277b42d678ad7f0e,2024-08-21_23h05.49.900,WTP_SM_Choice,2022.2.1,Linux x86_64,29.94011976,,,,,,,,,,,,,,,,,,49,,,,,,,,,,0.04,1,1.4403,0,3,3,3,1,share reels with friends,watch a movie in my room ,0.04,0.05,3.3,0,,,,,
,,6669a122ab60c120f94b3aa5,6685aa9113c938e83b4f1ea0,66c69948277b42d678ad7f0e,2024-08-21_23h05.49.900,WTP_SM_Choice,2022.2.1,Linux x86_64,29.94011976,,,,,,,,,,,,,,,,,,50,,,,,,,,,,0.05,1,1.9039,0,4,4,4,1,sleep in my bed,eat pizza with my friends,0.05,0.05,1.1,1,,,,,
,,6669a122ab60c120f94b3aa5,6685aa9113c938e83b4f1ea0,66c69948277b42d678ad7f0e,2024-08-21_23h05.49.900,WTP_SM_Choice,2022.2.1,Linux x86_64,29.94011976,,,,,,,3,space,4,1.12,4.88,,0,49,49,49,1,50,Riley,Rej,Participant_Images/6669a122ab60c120f94b3aa5/6669a122ab60c120f94b3aa5_Images/6669a122ab60c120f94b3aa5_Image_18.jpeg,did not like,3.195382774,,,,,,,,,,,,,,,,,,,space,2.1641,4.9846,,
,,6669a122ab60c120f94b3aa5,6685aa9113c938e83b4f1ea0,66c69948277b42d678ad7f0e,2024-08-21_23h05.49.900,WTP_SM_Choice,2022.2.1,Linux x86_64,29.94011976,,,space,1.2325,space,0.4314,NAN,,NAN,1.12,4.88,,0,50,50,50,1,51,Alex,Acc,Participant_Images/6669a122ab60c120f94b3aa5/6669a122ab60c120f94b3aa5_Images/6669a122ab60c120f94b3aa5_Image_10.jpeg,liked,1.779333479,,,,,,,,,,,,,,,,,,,,,,,
,,6669a122ab60c120f94b3aa5,6685aa9113c938e83b4f1ea0,66c69948277b42d678ad7f0e,2024-08-21_23h05.49.900,WTP_SM_Choice,2022.2.1,Linux x86_64,29.94011976,,,,,space,0.6718,NAN,,NAN,1.12,4.88,,0,51,51,51,1,52,Alex,Acc,Participant_Images/6669a122ab60c120f94b3aa5/6669a122ab60c120f94b3aa5_Images/6669a122ab60c120f94b3aa5_Image_22.jpeg,liked,4.312468682,,,,,,,,,,,,,,,,,,,,,,,
,,6669a122ab60c120f94b3aa5,6685aa9113c938e83b4f1ea0,66c69948277b42d678ad7f0e,2024-08-21_23h05.49.900,WTP_SM_Choice,2022.2.1,Linux x86_64,29.94011976,,,,,space,0.7372,NAN,,NAN,1.12,4.88,,0,52,52,52,1,53,Alex,Acc,Participant_Images/6669a122ab60c120f94b3aa5/6669a122ab60c120f94b3aa5_Images/6669a122ab60c120f94b3aa5_Image_20.jpeg,liked,4.940433059,,,,,,,,,,,,,,,,,,,,,,,
,,6669a122ab60c120f94b3aa5,6685aa9113c938e83b4f1ea0,66c69948277b42d678ad7f0e,2024-08-21_23h05.49.900,WTP_SM_Choice,2022.2.1,Linux x86_64,29.94011976,,,,,space,0.6208,NAN,,NAN,1.12,4.88,,0,53,53,53,1,54,Alex,Acc,Participant_Images/6669a122ab60c120f94b3aa5/6669a122ab60c120f94b3aa5_Images/6669a122ab60c120f94b3aa5_Image_13.jpeg,liked,2.7105123,,,,,,,,,,,,,,,,,,,,,,,
,,6669a122ab60c120f94b3aa5,6685aa9113c938e83b4f1ea0,66c69948277b42d678ad7f0e,2024-08-21_23h05.49.900,WTP_SM_Choice,2022.2.1,Linux x86_64,29.94011976,,,,,,,,,,,,,,,,,,51,,,,,,space,0.7108,space,2.3327,0.01,1,0.9499,0,0,0,0,1,eat pizza with my friends,paint a picture of my friend,0.01,0.01,1.1,0,,,,,
,,6669a122ab60c120f94b3aa5,6685aa9113c938e83b4f1ea0,66c69948277b42d678ad7f0e,2024-08-21_23h05.49.900,WTP_SM_Choice,2022.2.1,Linux x86_64,29.94011976,,,,,,,,,,,,,,,,,,52,,,,,,,,,,0.01,2,1.2348,0,1,1,1,1,watch a crime documentary with my boyfriend,watch a movie in my room ,0.02,0.01,3.3,0,,,,,
,,6669a122ab60c120f94b3aa5,6685aa9113c938e83b4f1ea0,66c69948277b42d678ad7f0e,2024-08-21_23h05.49.900,WTP_SM_Choice,2022.2.1,Linux x86_64,29.94011976,,,,,,,,,,,,,,,,,,53,,,,,,,,,,0.01,2,1.3707,0,2,2,2,1,watch a movie in my room ,walk to the store with friends,0.03,0.01,1.1,1,,,,,
,,6669a122ab60c120f94b3aa5,6685aa9113c938e83b4f1ea0,66c69948277b42d678ad7f0e,2024-08-21_23h05.49.900,WTP_SM_Choice,2022.2.1,Linux x86_64,29.94011976,,,,,,,,,,,,,,,,,,54,,,,,,,,,,0.01,2,1.8496,0,3,3,3,1,watch a crime documentary with my boyfriend,cook lunch,0.04,0.01,4.4,0,,,,,
,,6669a122ab60c120f94b3aa5,6685aa9113c938e83b4f1ea0,66c69948277b42d678ad7f0e,2024-08-21_23h05.49.900,WTP_SM_Choice,2022.2.1,Linux x86_64,29.94011976,,,,,,,,,,,,,,,,,,55,,,,,,,,,,0.01,2,1.519,0,4,4,4,1,bake cookies with my boyfriend,watch a movie in my room ,0.05,0.01,1.1,0,,,,,
,,6669a122ab60c120f94b3aa5,6685aa9113c938e83b4f1ea0,66c69948277b42d678ad7f0e,2024-08-21_23h05.49.900,WTP_SM_Choice,2022.2.1,Linux x86_64,29.94011976,,,,,,,NAN,,NAN,1.17,4.83,,0,54,54,54,1,55,Alex,Acc,Participant_Images/6669a122ab60c120f94b3aa5/6669a122ab60c120f94b3aa5_Images/6669a122ab60c120f94b3aa5_Image_5.jpeg,did not like,3.602308302,,,,,,,,,,,,,,,,,,,,,,,
,,6669a122ab60c120f94b3aa5,6685aa9113c938e83b4f1ea0,66c69948277b42d678ad7f0e,2024-08-21_23h05.49.900,WTP_SM_Choice,2022.2.1,Linux x86_64,29.94011976,,,,,space,2.1031,NAN,,NAN,1.17,4.83,,0,55,55,55,1,56,Alex,Acc,Participant_Images/6669a122ab60c120f94b3aa5/6669a122ab60c120f94b3aa5_Images/6669a122ab60c120f94b3aa5_Image_25.jpeg,liked,4.106391878,,,,,,,,,,,,,,,,,,,,,,,
,,6669a122ab60c120f94b3aa5,6685aa9113c938e83b4f1ea0,66c69948277b42d678ad7f0e,2024-08-21_23h05.49.900,WTP_SM_Choice,2022.2.1,Linux x86_64,29.94011976,,,,,space,0.8186,NAN,,NAN,1.17,4.83,,0,56,56,56,1,57,Alex,Acc,Participant_Images/6669a122ab60c120f94b3aa5/6669a122ab60c120f94b3aa5_Images/6669a122ab60c120f94b3aa5_Image_18.jpeg,liked,3.799433026,,,,,,,,,,,,,,,,,,,,,,,
,,6669a122ab60c120f94b3aa5,6685aa9113c938e83b4f1ea0,66c69948277b42d678ad7f0e,2024-08-21_23h05.49.900,WTP_SM_Choice,2022.2.1,Linux x86_64,29.94011976,,,,,space,0.9212,NAN,,NAN,1.17,4.83,,0,57,57,57,1,58,Alex,Acc,Participant_Images/6669a122ab60c120f94b3aa5/6669a122ab60c120f94b3aa5_Images/6669a122ab60c120f94b3aa5_Image_15.jpeg,did not like,5.246980764,,,,,,,,,,,,,,,,,,,,,,,
,,6669a122ab60c120f94b3aa5,6685aa9113c938e83b4f1ea0,66c69948277b42d678ad7f0e,2024-08-21_23h05.49.900,WTP_SM_Choice,2022.2.1,Linux x86_64,29.94011976,,,,,space,0.7116,NAN,,NAN,1.17,4.83,,0,58,58,58,1,59,Alex,Acc,Participant_Images/6669a122ab60c120f94b3aa5/6669a122ab60c120f94b3aa5_Images/6669a122ab60c120f94b3aa5_Image_4.jpeg,liked,3.30081769,,,,,,,,,,,,,,,,,,,,,,,
,,6669a122ab60c120f94b3aa5,6685aa9113c938e83b4f1ea0,66c69948277b42d678ad7f0e,2024-08-21_23h05.49.900,WTP_SM_Choice,2022.2.1,Linux x86_64,29.94011976,,,,,,,,,,,,,,,,,,56,,,,,,space,1.9742,space,0.3925,0.01,1,0.7788,0,0,0,0,1,play a card game with friends,sleep in my bed,0.01,0.02,8.8,0,,,,,
,,6669a122ab60c120f94b3aa5,6685aa9113c938e83b4f1ea0,66c69948277b42d678ad7f0e,2024-08-21_23h05.49.900,WTP_SM_Choice,2022.2.1,Linux x86_64,29.94011976,,,,,,,,,,,,,,,,,,57,,,,,,,,,,0.02,1,1.8767,0,1,1,1,1,bake cookies with my boyfriend,eat a banana,0.02,0.02,4.4,0,,,,,
,,6669a122ab60c120f94b3aa5,6685aa9113c938e83b4f1ea0,66c69948277b42d678ad7f0e,2024-08-21_23h05.49.900,WTP_SM_Choice,2022.2.1,Linux x86_64,29.94011976,,,,,,,,,,,,,,,,,,58,,,,,,,,,,0.02,2,1.7812,0,2,2,2,1,watch a crime documentary with my boyfriend,paint a picture of my friend,0.03,0.02,4.4,0,,,,,
,,6669a122ab60c120f94b3aa5,6685aa9113c938e83b4f1ea0,66c69948277b42d678ad7f0e,2024-08-21_23h05.49.900,WTP_SM_Choice,2022.2.1,Linux x86_64,29.94011976,,,,,,,,,,,,,,,,,,59,,,,,,,,,,0.02,2,2.1338,0,3,3,3,1,share reels with friends,run on track,0.04,0.02,4.4,0,,,,,
,,6669a122ab60c120f94b3aa5,6685aa9113c938e83b4f1ea0,66c69948277b42d678ad7f0e,2024-08-21_23h05.49.900,WTP_SM_Choice,2022.2.1,Linux x86_64,29.94011976,,,,,,,,,,,,,,,,,,60,,,,,,,,,,0.02,2,1.0736,0,4,4,4,1,draw an apple in charcol,start a book club,0.05,0.02,1.1,1,,,,,
,,6669a122ab60c120f94b3aa5,6685aa9113c938e83b4f1ea0,66c69948277b42d678ad7f0e,2024-08-21_23h05.49.900,WTP_SM_Choice,2022.2.1,Linux x86_64,29.94011976,,,,,,,NAN,,NAN,1.26,4.74,,0,59,59,59,1,60,Alex,Acc,Participant_Images/6669a122ab60c120f94b3aa5/6669a122ab60c120f94b3aa5_Images/6669a122ab60c120f94b3aa5_Image_14.jpeg,did not like,1.661473164,,,,,,,,,,,,,,,,,,,,,,,
,,6669a122ab60c120f94b3aa5,6685aa9113c938e83b4f1ea0,66c69948277b42d678ad7f0e,2024-08-21_23h05.49.900,WTP_SM_Choice,2022.2.1,Linux x86_64,29.94011976,,,,,space,1.1389,NAN,,NAN,1.26,4.74,,0,60,60,60,1,61,Alex,Acc,Participant_Images/6669a122ab60c120f94b3aa5/6669a122ab60c120f94b3aa5_Images/6669a122ab60c120f94b3aa5_Image_19.jpeg,liked,3.613205605,,,,,,,,,,,,,,,,,,,,,,,
,,6669a122ab60c120f94b3aa5,6685aa9113c938e83b4f1ea0,66c69948277b42d678ad7f0e,2024-08-21_23h05.49.900,WTP_SM_Choice,2022.2.1,Linux x86_64,29.94011976,,,,,space,0.7687,NAN,,NAN,1.26,4.74,,0,61,61,61,1,62,Alex,Acc,Participant_Images/6669a122ab60c120f94b3aa5/6669a122ab60c120f94b3aa5_Images/6669a122ab60c120f94b3aa5_Image_21.jpeg,liked,4.988446431,,,,,,,,,,,,,,,,,,,,,,,
,,6669a122ab60c120f94b3aa5,6685aa9113c938e83b4f1ea0,66c69948277b42d678ad7f0e,2024-08-21_23h05.49.900,WTP_SM_Choice,2022.2.1,Linux x86_64,29.94011976,,,,,space,0.8814,NAN,,NAN,1.26,4.74,,0,62,62,62,1,63,Alex,Acc,Participant_Images/6669a122ab60c120f94b3aa5/6669a122ab60c120f94b3aa5_Images/6669a122ab60c120f94b3aa5_Image_2.jpeg,liked,3.470791822,,,,,,,,,,,,,,,,,,,,,,,
,,6669a122ab60c120f94b3aa5,6685aa9113c938e83b4f1ea0,66c69948277b42d678ad7f0e,2024-08-21_23h05.49.900,WTP_SM_Choice,2022.2.1,Linux x86_64,29.94011976,,,,,space,1.3106,NAN,,NAN,1.26,4.74,,0,63,63,63,1,64,Alex,Acc,Participant_Images/6669a122ab60c120f94b3aa5/6669a122ab60c120f94b3aa5_Images/6669a122ab60c120f94b3aa5_Image_8.jpeg,did not like,3.820572462,,,,,,,,,,,,,,,,,,,,,,,
,,6669a122ab60c120f94b3aa5,6685aa9113c938e83b4f1ea0,66c69948277b42d678ad7f0e,2024-08-21_23h05.49.900,WTP_SM_Choice,2022.2.1,Linux x86_64,29.94011976,,,,,,,,,,,,,,,,,,61,,,,,,space,1.9423,space,0.7756,0.01,1,0.9551,0,0,0,0,1,run on track,play a card game with friends,0.01,0.03,3.3,1,,,,,
,,6669a122ab60c120f94b3aa5,6685aa9113c938e83b4f1ea0,66c69948277b42d678ad7f0e,2024-08-21_23h05.49.900,WTP_SM_Choice,2022.2.1,Linux x86_64,29.94011976,,,,,,,,,,,,,,,,,,62,,,,,,,,,,0.02,1,1.2535,0,1,1,1,1,play tag with my siblings,paint a picture of my friend,0.02,0.03,3.3,0,,,,,
,,6669a122ab60c120f94b3aa5,6685aa9113c938e83b4f1ea0,66c69948277b42d678ad7f0e,2024-08-21_23h05.49.900,WTP_SM_Choice,2022.2.1,Linux x86_64,29.94011976,,,,,,,,,,,,,,,,,,63,,,,,,,,,,0.03,1,1.4489,0,2,2,2,1,read a book,start a book club,0.03,0.03,3.3,1,,,,,
,,6669a122ab60c120f94b3aa5,6685aa9113c938e83b4f1ea0,66c69948277b42d678ad7f0e,2024-08-21_23h05.49.900,WTP_SM_Choice,2022.2.1,Linux x86_64,29.94011976,,,,,,,,,,,,,,,,,,64,,,,,,,,,,0.03,2,1.7762,0,3,3,3,1,play computer games,play a card game with friends,0.04,0.03,1.1,1,,,,,
,,6669a122ab60c120f94b3aa5,6685aa9113c938e83b4f1ea0,66c69948277b42d678ad7f0e,2024-08-21_23h05.49.900,WTP_SM_Choice,2022.2.1,Linux x86_64,29.94011976,,,,,,,,,,,,,,,,,,65,,,,,,,,,,0.03,2,1.39,0,4,4,4,1,play a card game with friends,paint a picture of my friend,0.05,0.03,1.1,0,,,,,
,,6669a122ab60c120f94b3aa5,6685aa9113c938e83b4f1ea0,66c69948277b42d678ad7f0e,2024-08-21_23h05.49.900,WTP_SM_Choice,2022.2.1,Linux x86_64,29.94011976,,,,,,,NAN,,NAN,1.38,4.62,,0,64,64,64,1,65,Alex,Acc,Participant_Images/6669a122ab60c120f94b3aa5/6669a122ab60c120f94b3aa5_Images/6669a122ab60c120f94b3aa5_Image_11.jpeg,did not like,2.455989137,,,,,,,,,,,,,,,,,,,,,,,
,,6669a122ab60c120f94b3aa5,6685aa9113c938e83b4f1ea0,66c69948277b42d678ad7f0e,2024-08-21_23h05.49.900,WTP_SM_Choice,2022.2.1,Linux x86_64,29.94011976,,,,,space,1.4703,NAN,,NAN,1.38,4.62,,0,65,65,65,1,66,Alex,Acc,Participant_Images/6669a122ab60c120f94b3aa5/6669a122ab60c120f94b3aa5_Images/6669a122ab60c120f94b3aa5_Image_9.jpeg,liked,3.79605092,,,,,,,,,,,,,,,,,,,,,,,
,,6669a122ab60c120f94b3aa5,6685aa9113c938e83b4f1ea0,66c69948277b42d678ad7f0e,2024-08-21_23h05.49.900,WTP_SM_Choice,2022.2.1,Linux x86_64,29.94011976,,,,,space,0.7663,NAN,,NAN,1.38,4.62,,0,66,66,66,1,67,Alex,Acc,Participant_Images/6669a122ab60c120f94b3aa5/6669a122ab60c120f94b3aa5_Images/6669a122ab60c120f94b3aa5_Image_3.jpeg,did not like,3.562416326,,,,,,,,,,,,,,,,,,,,,,,
,,6669a122ab60c120f94b3aa5,6685aa9113c938e83b4f1ea0,66c69948277b42d678ad7f0e,2024-08-21_23h05.49.900,WTP_SM_Choice,2022.2.1,Linux x86_64,29.94011976,,,,,space,0.749,NAN,,NAN,1.38,4.62,,0,67,67,67,1,68,Alex,Acc,Participant_Images/6669a122ab60c120f94b3aa5/6669a122ab60c120f94b3aa5_Images/6669a122ab60c120f94b3aa5_Image_6.jpeg,liked,2.843822497,,,,,,,,,,,,,,,,,,,,,,,
,,6669a122ab60c120f94b3aa5,6685aa9113c938e83b4f1ea0,66c69948277b42d678ad7f0e,2024-08-21_23h05.49.900,WTP_SM_Choice,2022.2.1,Linux x86_64,29.94011976,,,,,space,0.9705,NAN,,NAN,1.38,4.62,,0,68,68,68,1,69,Alex,Acc,Participant_Images/6669a122ab60c120f94b3aa5/6669a122ab60c120f94b3aa5_Images/6669a122ab60c120f94b3aa5_Image_1.jpeg,liked,3.546495948,,,,,,,,,,,,,,,,,,,,,,,
,,6669a122ab60c120f94b3aa5,6685aa9113c938e83b4f1ea0,66c69948277b42d678ad7f0e,2024-08-21_23h05.49.900,WTP_SM_Choice,2022.2.1,Linux x86_64,29.94011976,,,,,,,,,,,,,,,,,,66,,,,,,space,0.3325,space,0.5336,0.01,1,0.6476,0,0,0,0,1,play musical chairs,play tag with my siblings,0.01,0.04,1.1,1,,,,,
,,6669a122ab60c120f94b3aa5,6685aa9113c938e83b4f1ea0,66c69948277b42d678ad7f0e,2024-08-21_23h05.49.900,WTP_SM_Choice,2022.2.1,Linux x86_64,29.94011976,,,,,,,,,,,,,,,,,,67,,,,,,,,,,0.02,1,1.4558,0,1,1,1,1,run on track,cook for my siblings,0.02,0.04,8.8,1,,,,,
,,6669a122ab60c120f94b3aa5,6685aa9113c938e83b4f1ea0,66c69948277b42d678ad7f0e,2024-08-21_23h05.49.900,WTP_SM_Choice,2022.2.1,Linux x86_64,29.94011976,,,,,,,,,,,,,,,,,,68,,,,,,,,,,0.03,1,2.063,0,2,2,2,1,read a book,eat pizza with my friends,0.03,0.04,4.4,1,,,,,
,,6669a122ab60c120f94b3aa5,6685aa9113c938e83b4f1ea0,66c69948277b42d678ad7f0e,2024-08-21_23h05.49.900,WTP_SM_Choice,2022.2.1,Linux x86_64,29.94011976,,,,,,,,,,,,,,,,,,69,,,,,,,,,,0.04,1,1.9899,0,3,3,3,1,walk to the store with friends,play computer games,0.04,0.04,1.1,0,,,,,
,,6669a122ab60c120f94b3aa5,6685aa9113c938e83b4f1ea0,66c69948277b42d678ad7f0e,2024-08-21_23h05.49.900,WTP_SM_Choice,2022.2.1,Linux x86_64,29.94011976,,,,,,,,,,,,,,,,,,70,,,,,,,,,,0.04,2,1.4195,0,4,4,4,1,listen to music after classes,read a book,0.05,0.04,1.1,0,,,,,
,,6669a122ab60c120f94b3aa5,6685aa9113c938e83b4f1ea0,66c69948277b42d678ad7f0e,2024-08-21_23h05.49.900,WTP_SM_Choice,2022.2.1,Linux x86_64,29.94011976,,,,,,,NAN,,NAN,1.52,4.48,,0,69,69,69,1,70,Alex,Acc,Participant_Images/6669a122ab60c120f94b3aa5/6669a122ab60c120f94b3aa5_Images/6669a122ab60c120f94b3aa5_Image_23.jpeg,liked,1.672012706,,,,,,,,,,,,,,,,,,,,,,,
,,6669a122ab60c120f94b3aa5,6685aa9113c938e83b4f1ea0,66c69948277b42d678ad7f0e,2024-08-21_23h05.49.900,WTP_SM_Choice,2022.2.1,Linux x86_64,29.94011976,,,,,space,0.3175,NAN,,NAN,1.52,4.48,,0,70,70,70,1,71,Alex,Acc,Participant_Images/6669a122ab60c120f94b3aa5/6669a122ab60c120f94b3aa5_Images/6669a122ab60c120f94b3aa5_Image_17.jpeg,liked,4.942172136,,,,,,,,,,,,,,,,,,,,,,,
,,6669a122ab60c120f94b3aa5,6685aa9113c938e83b4f1ea0,66c69948277b42d678ad7f0e,2024-08-21_23h05.49.900,WTP_SM_Choice,2022.2.1,Linux x86_64,29.94011976,,,,,space,1.6073,NAN,,NAN,1.52,4.48,,0,71,71,71,1,72,Alex,Acc,Participant_Images/6669a122ab60c120f94b3aa5/6669a122ab60c120f94b3aa5_Images/6669a122ab60c120f94b3aa5_Image_12.jpeg,liked,2.50187214,,,,,,,,,,,,,,,,,,,,,,,
,,6669a122ab60c120f94b3aa5,6685aa9113c938e83b4f1ea0,66c69948277b42d678ad7f0e,2024-08-21_23h05.49.900,WTP_SM_Choice,2022.2.1,Linux x86_64,29.94011976,,,,,space,1.021,NAN,,NAN,1.52,4.48,,0,72,72,72,1,73,Alex,Acc,Participant_Images/6669a122ab60c120f94b3aa5/6669a122ab60c120f94b3aa5_Images/6669a122ab60c120f94b3aa5_Image_24.jpeg,did not like,2.071164779,,,,,,,,,,,,,,,,,,,,,,,
,,6669a122ab60c120f94b3aa5,6685aa9113c938e83b4f1ea0,66c69948277b42d678ad7f0e,2024-08-21_23h05.49.900,WTP_SM_Choice,2022.2.1,Linux x86_64,29.94011976,,,,,space,1.0155,NAN,,NAN,1.52,4.48,,0,73,73,73,1,74,Alex,Acc,Participant_Images/6669a122ab60c120f94b3aa5/6669a122ab60c120f94b3aa5_Images/6669a122ab60c120f94b3aa5_Image_7.jpeg,liked,5.336503566,,,,,,,,,,,,,,,,,,,,,,,
,,6669a122ab60c120f94b3aa5,6685aa9113c938e83b4f1ea0,66c69948277b42d678ad7f0e,2024-08-21_23h05.49.900,WTP_SM_Choice,2022.2.1,Linux x86_64,29.94011976,,,,,,,,,,,,,,,,,,71,,,,,,space,0.5562,space,0.4294,0.01,1,0.678,0,0,0,0,1,cook for my siblings,cook lunch,0.01,0.05,3.3,0,,,,,
,,6669a122ab60c120f94b3aa5,6685aa9113c938e83b4f1ea0,66c69948277b42d678ad7f0e,2024-08-21_23h05.49.900,WTP_SM_Choice,2022.2.1,Linux x86_64,29.94011976,,,,,,,,,,,,,,,,,,72,,,,,,,,,,0.02,1,1.3861,0,1,1,1,1,bake cookies with my boyfriend,cook lunch,0.02,0.05,8.8,0,,,,,
,,6669a122ab60c120f94b3aa5,6685aa9113c938e83b4f1ea0,66c69948277b42d678ad7f0e,2024-08-21_23h05.49.900,WTP_SM_Choice,2022.2.1,Linux x86_64,29.94011976,,,,,,,,,,,,,,,,,,73,,,,,,,,,,0.03,1,1.1728,0,2,2,2,1,walk to the store with friends,draw an apple in charcol,0.03,0.05,3.3,0,,,,,
,,6669a122ab60c120f94b3aa5,6685aa9113c938e83b4f1ea0,66c69948277b42d678ad7f0e,2024-08-21_23h05.49.900,WTP_SM_Choice,2022.2.1,Linux x86_64,29.94011976,,,,,,,,,,,,,,,,,,74,,,,,,,,,,0.04,1,2.2242,0,3,3,3,1,walk to the store with friends,sleep in my bed,0.04,0.05,4.4,0,,,,,
,,6669a122ab60c120f94b3aa5,6685aa9113c938e83b4f1ea0,66c69948277b42d678ad7f0e,2024-08-21_23h05.49.900,WTP_SM_Choice,2022.2.1,Linux x86_64,29.94011976,,,,,,,,,,,,,,,,,,75,,,,,,,,,,0.05,1,1.2495,0,4,4,4,1,listen to music after classes,play computer games,0.05,0.05,3.3,0,,,,,
,,6669a122ab60c120f94b3aa5,6685aa9113c938e83b4f1ea0,66c69948277b42d678ad7f0e,2024-08-21_23h05.49.900,WTP_SM_Choice,2022.2.1,Linux x86_64,29.94011976,,,,,,,3,space,4,1.67,4.33,,0,74,74,74,1,75,Alex,Acc,Participant_Images/6669a122ab60c120f94b3aa5/6669a122ab60c120f94b3aa5_Images/6669a122ab60c120f94b3aa5_Image_16.jpeg,liked,2.642157193,,,,,,,,,,,,,,,,,,,space,1.9175,5.8369,,
,,6669a122ab60c120f94b3aa5,6685aa9113c938e83b4f1ea0,66c69948277b42d678ad7f0e,2024-08-21_23h05.49.900,WTP_SM_Choice,2022.2.1,Linux x86_64,29.94011976,,,space,1.258,space,0.0774,NAN,,NAN,1.67,4.33,,0,75,75,75,1,76,Sam,Rej,Participant_Images/6669a122ab60c120f94b3aa5/6669a122ab60c120f94b3aa5_Images/6669a122ab60c120f94b3aa5_Image_12.jpeg,liked,4.456234322,,,,,,,,,,,,,,,,,,,,,,,
,,6669a122ab60c120f94b3aa5,6685aa9113c938e83b4f1ea0,66c69948277b42d678ad7f0e,2024-08-21_23h05.49.900,WTP_SM_Choice,2022.2.1,Linux x86_64,29.94011976,,,,,space,0.1428,NAN,,NAN,1.67,4.33,,0,76,76,76,1,77,Sam,Rej,Participant_Images/6669a122ab60c120f94b3aa5/6669a122ab60c120f94b3aa5_Images/6669a122ab60c120f94b3aa5_Image_11.jpeg,did not like,4.438512181,,,,,,,,,,,,,,,,,,,,,,,
,,6669a122ab60c120f94b3aa5,6685aa9113c938e83b4f1ea0,66c69948277b42d678ad7f0e,2024-08-21_23h05.49.900,WTP_SM_Choice,2022.2.1,Linux x86_64,29.94011976,,,,,space,0.2342,NAN,,NAN,1.67,4.33,,0,77,77,77,1,78,Sam,Rej,Participant_Images/6669a122ab60c120f94b3aa5/6669a122ab60c120f94b3aa5_Images/6669a122ab60c120f94b3aa5_Image_8.jpeg,did not like,2.682944783,,,,,,,,,,,,,,,,,,,,,,,
,,6669a122ab60c120f94b3aa5,6685aa9113c938e83b4f1ea0,66c69948277b42d678ad7f0e,2024-08-21_23h05.49.900,WTP_SM_Choice,2022.2.1,Linux x86_64,29.94011976,,,,,space,0.2015,NAN,,NAN,1.67,4.33,,0,78,78,78,1,79,Sam,Rej,Participant_Images/6669a122ab60c120f94b3aa5/6669a122ab60c120f94b3aa5_Images/6669a122ab60c120f94b3aa5_Image_20.jpeg,did not like,4.51984296,,,,,,,,,,,,,,,,,,,,,,,
,,6669a122ab60c120f94b3aa5,6685aa9113c938e83b4f1ea0,66c69948277b42d678ad7f0e,2024-08-21_23h05.49.900,WTP_SM_Choice,2022.2.1,Linux x86_64,29.94011976,,,,,,,,,,,,,,,,,,76,,,,,,space,0.2042,space,1.8674,0.01,1,0.7128,0,0,0,0,1,read a book,play a card game with friends,0.01,0.01,1.1,1,,,,,
,,6669a122ab60c120f94b3aa5,6685aa9113c938e83b4f1ea0,66c69948277b42d678ad7f0e,2024-08-21_23h05.49.900,WTP_SM_Choice,2022.2.1,Linux x86_64,29.94011976,,,,,,,,,,,,,,,,,,77,,,,,,,,,,0.01,2,1.3794,0,1,1,1,1,start a book club,watch a movie in my room ,0.02,0.01,8.8,0,,,,,
,,6669a122ab60c120f94b3aa5,6685aa9113c938e83b4f1ea0,66c69948277b42d678ad7f0e,2024-08-21_23h05.49.900,WTP_SM_Choice,2022.2.1,Linux x86_64,29.94011976,,,,,,,,,,,,,,,,,,78,,,,,,,,,,0.01,2,1.1705,0,2,2,2,1,start a book club,cook lunch,0.03,0.01,1.1,0,,,,,
,,6669a122ab60c120f94b3aa5,6685aa9113c938e83b4f1ea0,66c69948277b42d678ad7f0e,2024-08-21_23h05.49.900,WTP_SM_Choice,2022.2.1,Linux x86_64,29.94011976,,,,,,,,,,,,,,,,,,79,,,,,,,,,,0.01,2,1.1487,0,3,3,3,1,eat a banana,cook for my siblings,0.04,0.01,1.1,1,,,,,
,,6669a122ab60c120f94b3aa5,6685aa9113c938e83b4f1ea0,66c69948277b42d678ad7f0e,2024-08-21_23h05.49.900,WTP_SM_Choice,2022.2.1,Linux x86_64,29.94011976,,,,,,,,,,,,,,,,,,80,,,,,,,,,,0.01,2,1.077,0,4,4,4,1,cook lunch,share reels with friends,0.05,0.01,4.4,1,,,,,
,,6669a122ab60c120f94b3aa5,6685aa9113c938e83b4f1ea0,66c69948277b42d678ad7f0e,2024-08-21_23h05.49.900,WTP_SM_Choice,2022.2.1,Linux x86_64,29.94011976,,,,,,,NAN,,NAN,1.72,4.28,,0,79,79,79,1,80,Sam,Rej,Participant_Images/6669a122ab60c120f94b3aa5/6669a122ab60c120f94b3aa5_Images/6669a122ab60c120f94b3aa5_Image_7.jpeg,liked,3.195382774,,,,,,,,,,,,,,,,,,,,,,,
,,6669a122ab60c120f94b3aa5,6685aa9113c938e83b4f1ea0,66c69948277b42d678ad7f0e,2024-08-21_23h05.49.900,WTP_SM_Choice,2022.2.1,Linux x86_64,29.94011976,,,,,space,0.0054,NAN,,NAN,1.72,4.28,,0,80,80,80,1,81,Sam,Rej,Participant_Images/6669a122ab60c120f94b3aa5/6669a122ab60c120f94b3aa5_Images/6669a122ab60c120f94b3aa5_Image_24.jpeg,liked,1.779333479,,,,,,,,,,,,,,,,,,,,,,,
,,6669a122ab60c120f94b3aa5,6685aa9113c938e83b4f1ea0,66c69948277b42d678ad7f0e,2024-08-21_23h05.49.900,WTP_SM_Choice,2022.2.1,Linux x86_64,29.94011976,,,,,space,0.1483,NAN,,NAN,1.72,4.28,,0,81,81,81,1,82,Sam,Rej,Participant_Images/6669a122ab60c120f94b3aa5/6669a122ab60c120f94b3aa5_Images/6669a122ab60c120f94b3aa5_Image_1.jpeg,did not like,4.312468682,,,,,,,,,,,,,,,,,,,,,,,
,,6669a122ab60c120f94b3aa5,6685aa9113c938e83b4f1ea0,66c69948277b42d678ad7f0e,2024-08-21_23h05.49.900,WTP_SM_Choice,2022.2.1,Linux x86_64,29.94011976,,,,,space,0.2013,NAN,,NAN,1.72,4.28,,0,82,82,82,1,83,Sam,Rej,Participant_Images/6669a122ab60c120f94b3aa5/6669a122ab60c120f94b3aa5_Images/6669a122ab60c120f94b3aa5_Image_13.jpeg,did not like,4.940433059,,,,,,,,,,,,,,,,,,,,,,,
,,6669a122ab60c120f94b3aa5,6685aa9113c938e83b4f1ea0,66c69948277b42d678ad7f0e,2024-08-21_23h05.49.900,WTP_SM_Choice,2022.2.1,Linux x86_64,29.94011976,,,,,space,0.2573,NAN,,NAN,1.72,4.28,,0,83,83,83,1,84,Sam,Rej,Participant_Images/6669a122ab60c120f94b3aa5/6669a122ab60c120f94b3aa5_Images/6669a122ab60c120f94b3aa5_Image_4.jpeg,did not like,2.7105123,,,,,,,,,,,,,,,,,,,,,,,
,,6669a122ab60c120f94b3aa5,6685aa9113c938e83b4f1ea0,66c69948277b42d678ad7f0e,2024-08-21_23h05.49.900,WTP_SM_Choice,2022.2.1,Linux x86_64,29.94011976,,,,,,,,,,,,,,,,,,81,,,,,,space,0.8424,space,1.6441,0.01,1,0.9878,0,0,0,0,1,play tag with my siblings,play computer games,0.01,0.02,3.3,0,,,,,
,,6669a122ab60c120f94b3aa5,6685aa9113c938e83b4f1ea0,66c69948277b42d678ad7f0e,2024-08-21_23h05.49.900,WTP_SM_Choice,2022.2.1,Linux x86_64,29.94011976,,,,,,,,,,,,,,,,,,82,,,,,,,,,,0.02,1,1.8488,0,1,1,1,1,share reels with friends,draw an apple in charcol,0.02,0.02,4.4,0,,,,,
,,6669a122ab60c120f94b3aa5,6685aa9113c938e83b4f1ea0,66c69948277b42d678ad7f0e,2024-08-21_23h05.49.900,WTP_SM_Choice,2022.2.1,Linux x86_64,29.94011976,,,,,,,,,,,,,,,,,,83,,,,,,,,,,0.02,2,1.0916,0,2,2,2,1,draw an apple in charcol,play a card game with friends,0.03,0.02,1.1,1,,,,,
,,6669a122ab60c120f94b3aa5,6685aa9113c938e83b4f1ea0,66c69948277b42d678ad7f0e,2024-08-21_23h05.49.900,WTP_SM_Choice,2022.2.1,Linux x86_64,29.94011976,,,,,,,,,,,,,,,,,,84,,,,,,,,,,0.02,2,1.8621,0,3,3,3,1,walk to the store with friends,run on track,0.04,0.02,3.3,0,,,,,
,,6669a122ab60c120f94b3aa5,6685aa9113c938e83b4f1ea0,66c69948277b42d678ad7f0e,2024-08-21_23h05.49.900,WTP_SM_Choice,2022.2.1,Linux x86_64,29.94011976,,,,,,,,,,,,,,,,,,85,,,,,,,,,,0.02,2,1.4155,0,4,4,4,1,eat pizza with my friends,eat a banana,0.05,0.02,3.3,0,,,,,
,,6669a122ab60c120f94b3aa5,6685aa9113c938e83b4f1ea0,66c69948277b42d678ad7f0e,2024-08-21_23h05.49.900,WTP_SM_Choice,2022.2.1,Linux x86_64,29.94011976,,,,,,,NAN,,NAN,1.81,4.19,,0,84,84,84,1,85,Sam,Rej,Participant_Images/6669a122ab60c120f94b3aa5/6669a122ab60c120f94b3aa5_Images/6669a122ab60c120f94b3aa5_Image_21.jpeg,did not like,3.602308302,,,,,,,,,,,,,,,,,,,,,,,
,,6669a122ab60c120f94b3aa5,6685aa9113c938e83b4f1ea0,66c69948277b42d678ad7f0e,2024-08-21_23h05.49.900,WTP_SM_Choice,2022.2.1,Linux x86_64,29.94011976,,,,,space,0.2026,NAN,,NAN,1.81,4.19,,0,85,85,85,1,86,Sam,Rej,Participant_Images/6669a122ab60c120f94b3aa5/6669a122ab60c120f94b3aa5_Images/6669a122ab60c120f94b3aa5_Image_23.jpeg,did not like,4.106391878,,,,,,,,,,,,,,,,,,,,,,,
,,6669a122ab60c120f94b3aa5,6685aa9113c938e83b4f1ea0,66c69948277b42d678ad7f0e,2024-08-21_23h05.49.900,WTP_SM_Choice,2022.2.1,Linux x86_64,29.94011976,,,,,space,0.1513,NAN,,NAN,1.81,4.19,,0,86,86,86,1,87,Sam,Rej,Participant_Images/6669a122ab60c120f94b3aa5/6669a122ab60c120f94b3aa5_Images/6669a122ab60c120f94b3aa5_Image_15.jpeg,did not like,3.799433026,,,,,,,,,,,,,,,,,,,,,,,
,,6669a122ab60c120f94b3aa5,6685aa9113c938e83b4f1ea0,66c69948277b42d678ad7f0e,2024-08-21_23h05.49.900,WTP_SM_Choice,2022.2.1,Linux x86_64,29.94011976,,,,,space,0.1145,NAN,,NAN,1.81,4.19,,0,87,87,87,1,88,Sam,Rej,Participant_Images/6669a122ab60c120f94b3aa5/6669a122ab60c120f94b3aa5_Images/6669a122ab60c120f94b3aa5_Image_25.jpeg,did not like,5.246980764,,,,,,,,,,,,,,,,,,,,,,,
,,6669a122ab60c120f94b3aa5,6685aa9113c938e83b4f1ea0,66c69948277b42d678ad7f0e,2024-08-21_23h05.49.900,WTP_SM_Choice,2022.2.1,Linux x86_64,29.94011976,,,,,space,2.3146,NAN,,NAN,1.81,4.19,,0,88,88,88,1,89,Sam,Rej,Participant_Images/6669a122ab60c120f94b3aa5/6669a122ab60c120f94b3aa5_Images/6669a122ab60c120f94b3aa5_Image_3.jpeg,did not like,3.30081769,,,,,,,,,,,,,,,,,,,,,,,
,,6669a122ab60c120f94b3aa5,6685aa9113c938e83b4f1ea0,66c69948277b42d678ad7f0e,2024-08-21_23h05.49.900,WTP_SM_Choice,2022.2.1,Linux x86_64,29.94011976,,,,,,,,,,,,,,,,,,86,,,,,,space,0.6161,space,0.3489,0.01,1,1.3067,0,0,0,0,1,read a book,watch a crime documentary with my boyfriend,0.01,0.03,1.1,1,,,,,
,,6669a122ab60c120f94b3aa5,6685aa9113c938e83b4f1ea0,66c69948277b42d678ad7f0e,2024-08-21_23h05.49.900,WTP_SM_Choice,2022.2.1,Linux x86_64,29.94011976,,,,,,,,,,,,,,,,,,87,,,,,,,,,,0.02,1,1.0255,0,1,1,1,1,cook lunch,play a card game with friends,0.02,0.03,4.4,1,,,,,
,,6669a122ab60c120f94b3aa5,6685aa9113c938e83b4f1ea0,66c69948277b42d678ad7f0e,2024-08-21_23h05.49.900,WTP_SM_Choice,2022.2.1,Linux x86_64,29.94011976,,,,,,,,,,,,,,,,,,88,,,,,,,,,,0.03,1,1.1612,0,2,2,2,1,play a card game with friends,eat a banana,0.03,0.03,1.1,0,,,,,
,,6669a122ab60c120f94b3aa5,6685aa9113c938e83b4f1ea0,66c69948277b42d678ad7f0e,2024-08-21_23h05.49.900,WTP_SM_Choice,2022.2.1,Linux x86_64,29.94011976,,,,,,,,,,,,,,,,,,89,,,,,,,,,,0.03,2,1.5366,0,3,3,3,1,play computer games,start a book club,0.04,0.03,3.3,1,,,,,
,,6669a122ab60c120f94b3aa5,6685aa9113c938e83b4f1ea0,66c69948277b42d678ad7f0e,2024-08-21_23h05.49.900,WTP_SM_Choice,2022.2.1,Linux x86_64,29.94011976,,,,,,,,,,,,,,,,,,90,,,,,,,,,,0.05,1,1.9899,0,4,4,4,1,cook lunch,eat pizza with my friends,0.05,0.03,8.8,1,,,,,
,,6669a122ab60c120f94b3aa5,6685aa9113c938e83b4f1ea0,66c69948277b42d678ad7f0e,2024-08-21_23h05.49.900,WTP_SM_Choice,2022.2.1,Linux x86_64,29.94011976,,,,,,,NAN,,NAN,1.95,4.05,,0,89,89,89,1,90,Sam,Rej,Participant_Images/6669a122ab60c120f94b3aa5/6669a122ab60c120f94b3aa5_Images/6669a122ab60c120f94b3aa5_Image_5.jpeg,liked,1.661473164,,,,,,,,,,,,,,,,,,,,,,,
,,6669a122ab60c120f94b3aa5,6685aa9113c938e83b4f1ea0,66c69948277b42d678ad7f0e,2024-08-21_23h05.49.900,WTP_SM_Choice,2022.2.1,Linux x86_64,29.94011976,,,,,space,0.8448,NAN,,NAN,1.95,4.05,,0,90,90,90,1,91,Sam,Rej,Participant_Images/6669a122ab60c120f94b3aa5/6669a122ab60c120f94b3aa5_Images/6669a122ab60c120f94b3aa5_Image_16.jpeg,did not like,3.613205605,,,,,,,,,,,,,,,,,,,,,,,
,,6669a122ab60c120f94b3aa5,6685aa9113c938e83b4f1ea0,66c69948277b42d678ad7f0e,2024-08-21_23h05.49.900,WTP_SM_Choice,2022.2.1,Linux x86_64,29.94011976,,,,,space,1.0031,NAN,,NAN,1.95,4.05,,0,91,91,91,1,92,Sam,Rej,Participant_Images/6669a122ab60c120f94b3aa5/6669a122ab60c120f94b3aa5_Images/6669a122ab60c120f94b3aa5_Image_9.jpeg,liked,4.988446431,,,,,,,,,,,,,,,,,,,,,,,
,,6669a122ab60c120f94b3aa5,6685aa9113c938e83b4f1ea0,66c69948277b42d678ad7f0e,2024-08-21_23h05.49.900,WTP_SM_Choice,2022.2.1,Linux x86_64,29.94011976,,,,,space,0.2341,NAN,,NAN,1.95,4.05,,0,92,92,92,1,93,Sam,Rej,Participant_Images/6669a122ab60c120f94b3aa5/6669a122ab60c120f94b3aa5_Images/6669a122ab60c120f94b3aa5_Image_18.jpeg,did not like,3.470791822,,,,,,,,,,,,,,,,,,,,,,,
,,6669a122ab60c120f94b3aa5,6685aa9113c938e83b4f1ea0,66c69948277b42d678ad7f0e,2024-08-21_23h05.49.900,WTP_SM_Choice,2022.2.1,Linux x86_64,29.94011976,,,,,space,0.1414,NAN,,NAN,1.95,4.05,,0,93,93,93,1,94,Sam,Rej,Participant_Images/6669a122ab60c120f94b3aa5/6669a122ab60c120f94b3aa5_Images/6669a122ab60c120f94b3aa5_Image_14.jpeg,did not like,3.820572462,,,,,,,,,,,,,,,,,,,,,,,
,,6669a122ab60c120f94b3aa5,6685aa9113c938e83b4f1ea0,66c69948277b42d678ad7f0e,2024-08-21_23h05.49.900,WTP_SM_Choice,2022.2.1,Linux x86_64,29.94011976,,,,,,,,,,,,,,,,,,91,,,,,,space,0.1501,space,0.2324,0.01,1,1.7138,0,0,0,0,1,play musical chairs,eat pizza with my friends,0.01,0.04,3.3,1,,,,,
,,6669a122ab60c120f94b3aa5,6685aa9113c938e83b4f1ea0,66c69948277b42d678ad7f0e,2024-08-21_23h05.49.900,WTP_SM_Choice,2022.2.1,Linux x86_64,29.94011976,,,,,,,,,,,,,,,,,,92,,,,,,,,,,0.02,1,1.0581,0,1,1,1,1,walk to the store with friends,read a book,0.02,0.04,8.8,0,,,,,
,,6669a122ab60c120f94b3aa5,6685aa9113c938e83b4f1ea0,66c69948277b42d678ad7f0e,2024-08-21_23h05.49.900,WTP_SM_Choice,2022.2.1,Linux x86_64,29.94011976,,,,,,,,,,,,,,,,,,93,,,,,,,,,,0.04,2,2.2375,0,2,2,2,1,watch a crime documentary with my boyfriend,draw an apple in charcol,0.03,0.04,1.1,0,,,,,
,,6669a122ab60c120f94b3aa5,6685aa9113c938e83b4f1ea0,66c69948277b42d678ad7f0e,2024-08-21_23h05.49.900,WTP_SM_Choice,2022.2.1,Linux x86_64,29.94011976,,,,,,,,,,,,,,,,,,94,,,,,,,,,,0.04,1,2.4343,0,3,3,3,1,read a book,bake cookies with my boyfriend,0.04,0.04,4.4,1,,,,,
,,6669a122ab60c120f94b3aa5,6685aa9113c938e83b4f1ea0,66c69948277b42d678ad7f0e,2024-08-21_23h05.49.900,WTP_SM_Choice,2022.2.1,Linux x86_64,29.94011976,,,,,,,,,,,,,,,,,,95,,,,,,,,,,0.04,2,2.036,0,4,4,4,1,play a card game with friends,play musical chairs,0.05,0.04,4.4,0,,,,,
,,6669a122ab60c120f94b3aa5,6685aa9113c938e83b4f1ea0,66c69948277b42d678ad7f0e,2024-08-21_23h05.49.900,WTP_SM_Choice,2022.2.1,Linux x86_64,29.94011976,,,,,,,NAN,,NAN,2.1,3.9,,0,94,94,94,1,95,Sam,Rej,Participant_Images/6669a122ab60c120f94b3aa5/6669a122ab60c120f94b3aa5_Images/6669a122ab60c120f94b3aa5_Image_2.jpeg,did not like,2.455989137,,,,,,,,,,,,,,,,,,,,,,,
,,6669a122ab60c120f94b3aa5,6685aa9113c938e83b4f1ea0,66c69948277b42d678ad7f0e,2024-08-21_23h05.49.900,WTP_SM_Choice,2022.2.1,Linux x86_64,29.94011976,,,,,space,0.0145,NAN,,NAN,2.1,3.9,,0,95,95,95,1,96,Sam,Rej,Participant_Images/6669a122ab60c120f94b3aa5/6669a122ab60c120f94b3aa5_Images/6669a122ab60c120f94b3aa5_Image_19.jpeg,did not like,3.79605092,,,,,,,,,,,,,,,,,,,,,,,
,,6669a122ab60c120f94b3aa5,6685aa9113c938e83b4f1ea0,66c69948277b42d678ad7f0e,2024-08-21_23h05.49.900,WTP_SM_Choice,2022.2.1,Linux x86_64,29.94011976,,,,,space,0.1079,NAN,,NAN,2.1,3.9,,0,96,96,96,1,97,Sam,Rej,Participant_Images/6669a122ab60c120f94b3aa5/6669a122ab60c120f94b3aa5_Images/6669a122ab60c120f94b3aa5_Image_22.jpeg,did not like,3.562416326,,,,,,,,,,,,,,,,,,,,,,,
,,6669a122ab60c120f94b3aa5,6685aa9113c938e83b4f1ea0,66c69948277b42d678ad7f0e,2024-08-21_23h05.49.900,WTP_SM_Choice,2022.2.1,Linux x86_64,29.94011976,,,,,space,0.9814,NAN,,NAN,2.1,3.9,,0,97,97,97,1,98,Sam,Rej,Participant_Images/6669a122ab60c120f94b3aa5/6669a122ab60c120f94b3aa5_Images/6669a122ab60c120f94b3aa5_Image_17.jpeg,liked,2.843822497,,,,,,,,,,,,,,,,,,,,,,,
,,6669a122ab60c120f94b3aa5,6685aa9113c938e83b4f1ea0,66c69948277b42d678ad7f0e,2024-08-21_23h05.49.900,WTP_SM_Choice,2022.2.1,Linux x86_64,29.94011976,,,,,space,0.1386,NAN,,NAN,2.1,3.9,,0,98,98,98,1,99,Sam,Rej,Participant_Images/6669a122ab60c120f94b3aa5/6669a122ab60c120f94b3aa5_Images/6669a122ab60c120f94b3aa5_Image_10.jpeg,liked,3.546495948,,,,,,,,,,,,,,,,,,,,,,,
,,6669a122ab60c120f94b3aa5,6685aa9113c938e83b4f1ea0,66c69948277b42d678ad7f0e,2024-08-21_23h05.49.900,WTP_SM_Choice,2022.2.1,Linux x86_64,29.94011976,,,,,,,,,,,,,,,,,,96,,,,,,space,0.0008,space,0.1767,0.01,1,1.517,0,0,0,0,1,start a book club,run on track,0.01,0.05,3.3,0,,,,,
,,6669a122ab60c120f94b3aa5,6685aa9113c938e83b4f1ea0,66c69948277b42d678ad7f0e,2024-08-21_23h05.49.900,WTP_SM_Choice,2022.2.1,Linux x86_64,29.94011976,,,,,,,,,,,,,,,,,,97,,,,,,,,,,0.02,1,1.2622,0,1,1,1,1,eat a banana,share reels with friends,0.02,0.05,1.1,1,,,,,
,,6669a122ab60c120f94b3aa5,6685aa9113c938e83b4f1ea0,66c69948277b42d678ad7f0e,2024-08-21_23h05.49.900,WTP_SM_Choice,2022.2.1,Linux x86_64,29.94011976,,,,,,,,,,,,,,,,,,98,,,,,,,,,,0.03,1,1.3372,0,2,2,2,1,play musical chairs,listen to music after classes,0.03,0.05,1.1,1,,,,,
,,6669a122ab60c120f94b3aa5,6685aa9113c938e83b4f1ea0,66c69948277b42d678ad7f0e,2024-08-21_23h05.49.900,WTP_SM_Choice,2022.2.1,Linux x86_64,29.94011976,,,,,,,,,,,,,,,,,,99,,,,,,,,,,0.04,1,1.4075,0,3,3,3,1,paint a picture of my friend,listen to music after classes,0.04,0.05,3.3,1,,,,,
,,6669a122ab60c120f94b3aa5,6685aa9113c938e83b4f1ea0,66c69948277b42d678ad7f0e,2024-08-21_23h05.49.900,WTP_SM_Choice,2022.2.1,Linux x86_64,29.94011976,,,,,,,,,,,,,,,,,,100,,,,,,,,,,0.05,1,1.8015,0,4,4,4,1,play musical chairs,watch a crime documentary with my boyfriend,0.05,0.05,4.4,1,,,,,
,,6669a122ab60c120f94b3aa5,6685aa9113c938e83b4f1ea0,66c69948277b42d678ad7f0e,2024-08-21_23h05.49.900,WTP_SM_Choice,2022.2.1,Linux x86_64,29.94011976,,,,,,,3,space,4,2.25,3.75,,0,99,99,99,1,100,Sam,Rej,Participant_Images/6669a122ab60c120f94b3aa5/6669a122ab60c120f94b3aa5_Images/6669a122ab60c120f94b3aa5_Image_6.jpeg,did not like,1.672012706,,,,,,,,,,,,,,,,,,,space,0.9287,5.5124,,
,,6669a122ab60c120f94b3aa5,6685aa9113c938e83b4f1ea0,66c69948277b42d678ad7f0e,2024-08-21_23h05.49.900,WTP_SM_Choice,2022.2.1,Linux x86_64,29.94011976,,,,,,,,,,,,,,,,,,,,,,,,,,,,,,,,,,,,,,,,,,,,,space,3.822
