endwelcomescreen_keys.keys,endwelcomescreen_keys.rt,participant,STUDY_ID,SESSION_ID,date,expName,psychopyVersion,OS,frameRate,endinstructionscreen_keys.keys,endinstructionscreen_keys.rt,endpartnermatch_keys.keys,endpartnermatch_keys.rt,sharenextphoto_key.keys,sharenextphoto_key.rt,salience_rating,key_resp.keys,stress_level,subtract_bonus,TOTAL_TASK_BONUS,stresslevel_keypress.keys,entiretaskloop.thisRepN,entiretaskloop.thisTrialN,entiretaskloop.thisN,entiretaskloop.thisIndex,entiretaskloop.ran,TrialNumber,Partner,Condition,Photos,Feedback,FeedbackWait,WTP_ins_keys1.keys,WTP_ins_keys1.rt,WTP_ins_keys2.keys,WTP_ins_keys2.rt,decision_price,responses.keys,responses.rt,WTPTaskLoop.thisRepN,WTPTaskLoop.thisTrialN,WTPTaskLoop.thisN,WTPTaskLoop.thisIndex,WTPTaskLoop.ran,right,left,leftmoney,rightmoney,WTP_ITI,social_left,Resume_keys.keys,Resume_keys.rt,end_screen_keys.keys,end_screen_keys.rt
space,1.1233,666e123eb6aff45cf5be575e,6685aa9113c938e83b4f1ea0,66fb44014f70bb1f34598d71,2024-09-30_20h38.46.925,WTP_SM_Choice,2022.2.1,Linux x86_64,60.24096386,,,,,,,,,,,,,,,,,,,,,,,,,,,,,,,,,,,,,,,,,,,,,
,,666e123eb6aff45cf5be575e,6685aa9113c938e83b4f1ea0,66fb44014f70bb1f34598d71,2024-09-30_20h38.46.925,WTP_SM_Choice,2022.2.1,Linux x86_64,60.24096386,space,5.5159,,,,,,,,,,,,,,,,,,,,,,,,,,,,,,,,,,,,,,,,,,,
,,666e123eb6aff45cf5be575e,6685aa9113c938e83b4f1ea0,66fb44014f70bb1f34598d71,2024-09-30_20h38.46.925,WTP_SM_Choice,2022.2.1,Linux x86_64,60.24096386,,,space,3.204,space,1.5239,NAN,,NAN,0,6,,0,0,0,0,1,1,Sam,Rej,Participant_Images/666e123eb6aff45cf5be575e/666e123eb6aff45cf5be575e_Images/666e123eb6aff45cf5be575e_Image_6.jpeg,liked,3.613205605,,,,,,,,,,,,,,,,,,,,,,
,,666e123eb6aff45cf5be575e,6685aa9113c938e83b4f1ea0,66fb44014f70bb1f34598d71,2024-09-30_20h38.46.925,WTP_SM_Choice,2022.2.1,Linux x86_64,60.24096386,,,,,space,0.9142,NAN,,NAN,0,6,,0,1,1,1,1,2,Sam,Rej,Participant_Images/666e123eb6aff45cf5be575e/666e123eb6aff45cf5be575e_Images/666e123eb6aff45cf5be575e_Image_10.jpeg,did not like,4.988446431,,,,,,,,,,,,,,,,,,,,,,
,,666e123eb6aff45cf5be575e,6685aa9113c938e83b4f1ea0,66fb44014f70bb1f34598d71,2024-09-30_20h38.46.925,WTP_SM_Choice,2022.2.1,Linux x86_64,60.24096386,,,,,space,1.2411,NAN,,NAN,0,6,,0,2,2,2,1,3,Sam,Rej,Participant_Images/666e123eb6aff45cf5be575e/666e123eb6aff45cf5be575e_Images/666e123eb6aff45cf5be575e_Image_17.jpeg,did not like,3.470791822,,,,,,,,,,,,,,,,,,,,,,
,,666e123eb6aff45cf5be575e,6685aa9113c938e83b4f1ea0,66fb44014f70bb1f34598d71,2024-09-30_20h38.46.925,WTP_SM_Choice,2022.2.1,Linux x86_64,60.24096386,,,,,space,0.9219,NAN,,NAN,0,6,,0,3,3,3,1,4,Sam,Rej,Participant_Images/666e123eb6aff45cf5be575e/666e123eb6aff45cf5be575e_Images/666e123eb6aff45cf5be575e_Image_24.jpeg,did not like,3.820572462,,,,,,,,,,,,,,,,,,,,,,
,,666e123eb6aff45cf5be575e,6685aa9113c938e83b4f1ea0,66fb44014f70bb1f34598d71,2024-09-30_20h38.46.925,WTP_SM_Choice,2022.2.1,Linux x86_64,60.24096386,,,,,,,,,,,,,,,,,,1,,,,,,space,8.3091,space,7.5937,0.01,2,3.6441,0,0,0,0,1,Watch reality television shows on a thursday night with my mother,Read a book in my living room on a rainy day,0.01,0.01,4.4,0,,,,
,,666e123eb6aff45cf5be575e,6685aa9113c938e83b4f1ea0,66fb44014f70bb1f34598d71,2024-09-30_20h38.46.925,WTP_SM_Choice,2022.2.1,Linux x86_64,60.24096386,,,,,,,,,,,,,,,,,,2,,,,,,,,,,0.01,2,3.2995,0,1,1,1,1,Do a strength training workout in the gym on a mild weathered day,Attend an indoor gym class with my friend on a rainy day,0.02,0.01,8.8,1,,,,
,,666e123eb6aff45cf5be575e,6685aa9113c938e83b4f1ea0,66fb44014f70bb1f34598d71,2024-09-30_20h38.46.925,WTP_SM_Choice,2022.2.1,Linux x86_64,60.24096386,,,,,,,,,,,,,,,,,,3,,,,,,,,,,0.03,1,1.4315,0,2,2,2,1,Watching football on a Sunday morning with my father.,Do yoga outdoors on the beach on a sunny day,0.03,0.01,3.3,0,,,,
,,666e123eb6aff45cf5be575e,6685aa9113c938e83b4f1ea0,66fb44014f70bb1f34598d71,2024-09-30_20h38.46.925,WTP_SM_Choice,2022.2.1,Linux x86_64,60.24096386,,,,,,,,,,,,,,,,,,4,,,,,,,,,,0.04,1,1.7501,0,3,3,3,1,Attend an outdoor gym fitness class on a sunny day,Do yoga outdoors on the beach on a sunny day,0.04,0.01,1.1,0,,,,
,,666e123eb6aff45cf5be575e,6685aa9113c938e83b4f1ea0,66fb44014f70bb1f34598d71,2024-09-30_20h38.46.925,WTP_SM_Choice,2022.2.1,Linux x86_64,60.24096386,,,,,,,,,,,,,,,,,,5,,,,,,,,,,0.05,1,2.0243,0,4,4,4,1,Watch a movie on a sunday night with my family,Do yoga outdoors on the beach on a sunny day,0.05,0.01,1.1,0,,,,
,,666e123eb6aff45cf5be575e,6685aa9113c938e83b4f1ea0,66fb44014f70bb1f34598d71,2024-09-30_20h38.46.925,WTP_SM_Choice,2022.2.1,Linux x86_64,60.24096386,,,,,,,NAN,,NAN,0.14,5.86,,0,4,4,4,1,5,Sam,Rej,Participant_Images/666e123eb6aff45cf5be575e/666e123eb6aff45cf5be575e_Images/666e123eb6aff45cf5be575e_Image_23.jpeg,did not like,2.455989137,,,,,,,,,,,,,,,,,,,,,,
,,666e123eb6aff45cf5be575e,6685aa9113c938e83b4f1ea0,66fb44014f70bb1f34598d71,2024-09-30_20h38.46.925,WTP_SM_Choice,2022.2.1,Linux x86_64,60.24096386,,,,,space,2.2286,NAN,,NAN,0.14,5.86,,0,5,5,5,1,6,Sam,Rej,Participant_Images/666e123eb6aff45cf5be575e/666e123eb6aff45cf5be575e_Images/666e123eb6aff45cf5be575e_Image_21.jpeg,liked,3.79605092,,,,,,,,,,,,,,,,,,,,,,
,,666e123eb6aff45cf5be575e,6685aa9113c938e83b4f1ea0,66fb44014f70bb1f34598d71,2024-09-30_20h38.46.925,WTP_SM_Choice,2022.2.1,Linux x86_64,60.24096386,,,,,space,1.0115,NAN,,NAN,0.14,5.86,,0,6,6,6,1,7,Sam,Rej,Participant_Images/666e123eb6aff45cf5be575e/666e123eb6aff45cf5be575e_Images/666e123eb6aff45cf5be575e_Image_2.jpeg,did not like,3.562416326,,,,,,,,,,,,,,,,,,,,,,
,,666e123eb6aff45cf5be575e,6685aa9113c938e83b4f1ea0,66fb44014f70bb1f34598d71,2024-09-30_20h38.46.925,WTP_SM_Choice,2022.2.1,Linux x86_64,60.24096386,,,,,space,0.9556,NAN,,NAN,0.14,5.86,,0,7,7,7,1,8,Sam,Rej,Participant_Images/666e123eb6aff45cf5be575e/666e123eb6aff45cf5be575e_Images/666e123eb6aff45cf5be575e_Image_12.jpeg,liked,2.843822497,,,,,,,,,,,,,,,,,,,,,,
,,666e123eb6aff45cf5be575e,6685aa9113c938e83b4f1ea0,66fb44014f70bb1f34598d71,2024-09-30_20h38.46.925,WTP_SM_Choice,2022.2.1,Linux x86_64,60.24096386,,,,,space,1.0187,NAN,,NAN,0.14,5.86,,0,8,8,8,1,9,Sam,Rej,Participant_Images/666e123eb6aff45cf5be575e/666e123eb6aff45cf5be575e_Images/666e123eb6aff45cf5be575e_Image_15.jpeg,did not like,3.546495948,,,,,,,,,,,,,,,,,,,,,,
,,666e123eb6aff45cf5be575e,6685aa9113c938e83b4f1ea0,66fb44014f70bb1f34598d71,2024-09-30_20h38.46.925,WTP_SM_Choice,2022.2.1,Linux x86_64,60.24096386,,,,,,,,,,,,,,,,,,6,,,,,,space,2.3283,space,2.9145,0.02,2,2.4304,0,0,0,0,1,Watching football on a Sunday morning with my father.,Read a book in the park on a beach towel,0.01,0.02,3.3,0,,,,
,,666e123eb6aff45cf5be575e,6685aa9113c938e83b4f1ea0,66fb44014f70bb1f34598d71,2024-09-30_20h38.46.925,WTP_SM_Choice,2022.2.1,Linux x86_64,60.24096386,,,,,,,,,,,,,,,,,,7,,,,,,,,,,0.02,2,2.5944,0,1,1,1,1,Attend an outdoor gym fitness class on a sunny day,Do a strength training workout in the gym on a mild weathered day,0.02,0.02,1.1,0,,,,
,,666e123eb6aff45cf5be575e,6685aa9113c938e83b4f1ea0,66fb44014f70bb1f34598d71,2024-09-30_20h38.46.925,WTP_SM_Choice,2022.2.1,Linux x86_64,60.24096386,,,,,,,,,,,,,,,,,,8,,,,,,,,,,0.03,1,2.2059,0,2,2,2,1,Watch a movie on a sunday night with my family,Organize future travel plans in my room on a windy day,0.03,0.02,1.1,0,,,,
,,666e123eb6aff45cf5be575e,6685aa9113c938e83b4f1ea0,66fb44014f70bb1f34598d71,2024-09-30_20h38.46.925,WTP_SM_Choice,2022.2.1,Linux x86_64,60.24096386,,,,,,,,,,,,,,,,,,9,,,,,,,,,,0.04,1,1.5499,0,3,3,3,1,Read a book in the park on a beach towel,Go for a walk on the beach on a sunny day with my family,0.04,0.02,4.4,1,,,,
,,666e123eb6aff45cf5be575e,6685aa9113c938e83b4f1ea0,66fb44014f70bb1f34598d71,2024-09-30_20h38.46.925,WTP_SM_Choice,2022.2.1,Linux x86_64,60.24096386,,,,,,,,,,,,,,,,,,10,,,,,,,,,,0.02,2,1.948,0,4,4,4,1,Go to a sushi restaraunt with my best friend on a friday evening,Read a book in the park on a beach towel,0.05,0.02,1.1,0,,,,
,,666e123eb6aff45cf5be575e,6685aa9113c938e83b4f1ea0,66fb44014f70bb1f34598d71,2024-09-30_20h38.46.925,WTP_SM_Choice,2022.2.1,Linux x86_64,60.24096386,,,,,,,NAN,,NAN,0.27,5.73,,0,9,9,9,1,10,Sam,Rej,Participant_Images/666e123eb6aff45cf5be575e/666e123eb6aff45cf5be575e_Images/666e123eb6aff45cf5be575e_Image_3.jpeg,liked,1.672012706,,,,,,,,,,,,,,,,,,,,,,
,,666e123eb6aff45cf5be575e,6685aa9113c938e83b4f1ea0,66fb44014f70bb1f34598d71,2024-09-30_20h38.46.925,WTP_SM_Choice,2022.2.1,Linux x86_64,60.24096386,,,,,space,7.0267,NAN,,NAN,0.27,5.73,,0,10,10,10,1,11,Sam,Rej,Participant_Images/666e123eb6aff45cf5be575e/666e123eb6aff45cf5be575e_Images/666e123eb6aff45cf5be575e_Image_25.jpeg,did not like,4.942172136,,,,,,,,,,,,,,,,,,,,,,
,,666e123eb6aff45cf5be575e,6685aa9113c938e83b4f1ea0,66fb44014f70bb1f34598d71,2024-09-30_20h38.46.925,WTP_SM_Choice,2022.2.1,Linux x86_64,60.24096386,,,,,space,1.8723,NAN,,NAN,0.27,5.73,,0,11,11,11,1,12,Sam,Rej,Participant_Images/666e123eb6aff45cf5be575e/666e123eb6aff45cf5be575e_Images/666e123eb6aff45cf5be575e_Image_19.jpeg,did not like,2.50187214,,,,,,,,,,,,,,,,,,,,,,
,,666e123eb6aff45cf5be575e,6685aa9113c938e83b4f1ea0,66fb44014f70bb1f34598d71,2024-09-30_20h38.46.925,WTP_SM_Choice,2022.2.1,Linux x86_64,60.24096386,,,,,space,0.93,NAN,,NAN,0.27,5.73,,0,12,12,12,1,13,Sam,Rej,Participant_Images/666e123eb6aff45cf5be575e/666e123eb6aff45cf5be575e_Images/666e123eb6aff45cf5be575e_Image_16.jpeg,did not like,2.071164779,,,,,,,,,,,,,,,,,,,,,,
,,666e123eb6aff45cf5be575e,6685aa9113c938e83b4f1ea0,66fb44014f70bb1f34598d71,2024-09-30_20h38.46.925,WTP_SM_Choice,2022.2.1,Linux x86_64,60.24096386,,,,,space,0.8517,NAN,,NAN,0.27,5.73,,0,13,13,13,1,14,Sam,Rej,Participant_Images/666e123eb6aff45cf5be575e/666e123eb6aff45cf5be575e_Images/666e123eb6aff45cf5be575e_Image_20.jpeg,did not like,5.336503566,,,,,,,,,,,,,,,,,,,,,,
,,666e123eb6aff45cf5be575e,6685aa9113c938e83b4f1ea0,66fb44014f70bb1f34598d71,2024-09-30_20h38.46.925,WTP_SM_Choice,2022.2.1,Linux x86_64,60.24096386,,,,,,,,,,,,,,,,,,11,,,,,,space,3.0975,space,1.0497,0.03,2,2.706,0,0,0,0,1,Go for a walk on the beach on a sunny day with my family,Have a pampering self-care session on a rainy night in my living room,0.01,0.03,3.3,0,,,,
,,666e123eb6aff45cf5be575e,6685aa9113c938e83b4f1ea0,66fb44014f70bb1f34598d71,2024-09-30_20h38.46.925,WTP_SM_Choice,2022.2.1,Linux x86_64,60.24096386,,,,,,,,,,,,,,,,,,12,,,,,,,,,,0.02,1,1.722,0,1,1,1,1,Go to a sushi restaraunt with my best friend on a friday evening,Watch a new Netflix crime documentary in my living room on a rainy day ,0.02,0.03,4.4,0,,,,
,,666e123eb6aff45cf5be575e,6685aa9113c938e83b4f1ea0,66fb44014f70bb1f34598d71,2024-09-30_20h38.46.925,WTP_SM_Choice,2022.2.1,Linux x86_64,60.24096386,,,,,,,,,,,,,,,,,,13,,,,,,,,,,0.03,1,1.5284,0,2,2,2,1,Watching football on a Sunday morning with my father.,Watch a new Netflix crime documentary in my living room on a rainy day ,0.03,0.03,1.1,0,,,,
,,666e123eb6aff45cf5be575e,6685aa9113c938e83b4f1ea0,66fb44014f70bb1f34598d71,2024-09-30_20h38.46.925,WTP_SM_Choice,2022.2.1,Linux x86_64,60.24096386,,,,,,,,,,,,,,,,,,14,,,,,,,,,,0.04,1,2.4112,0,3,3,3,1,Play video games with my brother on a chilly day,Watch a new Netflix crime documentary in my living room on a rainy day ,0.04,0.03,3.3,0,,,,
,,666e123eb6aff45cf5be575e,6685aa9113c938e83b4f1ea0,66fb44014f70bb1f34598d71,2024-09-30_20h38.46.925,WTP_SM_Choice,2022.2.1,Linux x86_64,60.24096386,,,,,,,,,,,,,,,,,,15,,,,,,,,,,0.03,2,1.9689,0,4,4,4,1,Do a strength training workout in the gym on a mild weathered day,Watch a movie on a sunday night with my family,0.05,0.03,4.4,1,,,,
,,666e123eb6aff45cf5be575e,6685aa9113c938e83b4f1ea0,66fb44014f70bb1f34598d71,2024-09-30_20h38.46.925,WTP_SM_Choice,2022.2.1,Linux x86_64,60.24096386,,,,,,,NAN,,NAN,0.42,5.58,,0,14,14,14,1,15,Sam,Rej,Participant_Images/666e123eb6aff45cf5be575e/666e123eb6aff45cf5be575e_Images/666e123eb6aff45cf5be575e_Image_5.jpeg,did not like,2.642157193,,,,,,,,,,,,,,,,,,,,,,
,,666e123eb6aff45cf5be575e,6685aa9113c938e83b4f1ea0,66fb44014f70bb1f34598d71,2024-09-30_20h38.46.925,WTP_SM_Choice,2022.2.1,Linux x86_64,60.24096386,,,,,space,1.1398,NAN,,NAN,0.42,5.58,,0,15,15,15,1,16,Sam,Rej,Participant_Images/666e123eb6aff45cf5be575e/666e123eb6aff45cf5be575e_Images/666e123eb6aff45cf5be575e_Image_14.jpeg,did not like,4.456234322,,,,,,,,,,,,,,,,,,,,,,
,,666e123eb6aff45cf5be575e,6685aa9113c938e83b4f1ea0,66fb44014f70bb1f34598d71,2024-09-30_20h38.46.925,WTP_SM_Choice,2022.2.1,Linux x86_64,60.24096386,,,,,space,1.7283,NAN,,NAN,0.42,5.58,,0,16,16,16,1,17,Sam,Rej,Participant_Images/666e123eb6aff45cf5be575e/666e123eb6aff45cf5be575e_Images/666e123eb6aff45cf5be575e_Image_7.jpeg,did not like,4.438512181,,,,,,,,,,,,,,,,,,,,,,
,,666e123eb6aff45cf5be575e,6685aa9113c938e83b4f1ea0,66fb44014f70bb1f34598d71,2024-09-30_20h38.46.925,WTP_SM_Choice,2022.2.1,Linux x86_64,60.24096386,,,,,space,1.1451,NAN,,NAN,0.42,5.58,,0,17,17,17,1,18,Sam,Rej,Participant_Images/666e123eb6aff45cf5be575e/666e123eb6aff45cf5be575e_Images/666e123eb6aff45cf5be575e_Image_8.jpeg,liked,2.682944783,,,,,,,,,,,,,,,,,,,,,,
,,666e123eb6aff45cf5be575e,6685aa9113c938e83b4f1ea0,66fb44014f70bb1f34598d71,2024-09-30_20h38.46.925,WTP_SM_Choice,2022.2.1,Linux x86_64,60.24096386,,,,,space,3.6451,NAN,,NAN,0.42,5.58,,0,18,18,18,1,19,Sam,Rej,Participant_Images/666e123eb6aff45cf5be575e/666e123eb6aff45cf5be575e_Images/666e123eb6aff45cf5be575e_Image_4.jpeg,did not like,4.51984296,,,,,,,,,,,,,,,,,,,,,,
,,666e123eb6aff45cf5be575e,6685aa9113c938e83b4f1ea0,66fb44014f70bb1f34598d71,2024-09-30_20h38.46.925,WTP_SM_Choice,2022.2.1,Linux x86_64,60.24096386,,,,,,,,,,,,,,,,,,16,,,,,,space,1.7791,space,0.7588,0.01,1,2.2395,0,0,0,0,1,Have a pampering self-care session on a rainy night in my living room,Attend an outdoor gym fitness class on a sunny day,0.01,0.04,1.1,1,,,,
,,666e123eb6aff45cf5be575e,6685aa9113c938e83b4f1ea0,66fb44014f70bb1f34598d71,2024-09-30_20h38.46.925,WTP_SM_Choice,2022.2.1,Linux x86_64,60.24096386,,,,,,,,,,,,,,,,,,17,,,,,,,,,,0.02,1,2.5451,0,1,1,1,1,Organize future travel plans in my room on a windy day,Go for a picnic on the beach with my friends,0.02,0.04,8.8,1,,,,
,,666e123eb6aff45cf5be575e,6685aa9113c938e83b4f1ea0,66fb44014f70bb1f34598d71,2024-09-30_20h38.46.925,WTP_SM_Choice,2022.2.1,Linux x86_64,60.24096386,,,,,,,,,,,,,,,,,,18,,,,,,,,,,0.04,2,1.6673,0,2,2,2,1,Read a book in the park on a beach towel,Watch a movie on a sunday night with my family,0.03,0.04,3.3,1,,,,
,,666e123eb6aff45cf5be575e,6685aa9113c938e83b4f1ea0,66fb44014f70bb1f34598d71,2024-09-30_20h38.46.925,WTP_SM_Choice,2022.2.1,Linux x86_64,60.24096386,,,,,,,,,,,,,,,,,,19,,,,,,,,,,0.04,1,2.723,0,3,3,3,1,Have a pampering self-care session on a rainy night in my living room,Go to a sushi restaraunt with my best friend on a friday evening,0.04,0.04,3.3,1,,,,
,,666e123eb6aff45cf5be575e,6685aa9113c938e83b4f1ea0,66fb44014f70bb1f34598d71,2024-09-30_20h38.46.925,WTP_SM_Choice,2022.2.1,Linux x86_64,60.24096386,,,,,,,,,,,,,,,,,,20,,,,,,,,,,0.04,2,2.0305,0,4,4,4,1,Go for an outdoor group hike around a national park on a sunny day,Have a netflix movie night on a saturday night with my friends,0.05,0.04,1.1,1,,,,
,,666e123eb6aff45cf5be575e,6685aa9113c938e83b4f1ea0,66fb44014f70bb1f34598d71,2024-09-30_20h38.46.925,WTP_SM_Choice,2022.2.1,Linux x86_64,60.24096386,,,,,,,NAN,,NAN,0.57,5.43,,0,19,19,19,1,20,Sam,Rej,Participant_Images/666e123eb6aff45cf5be575e/666e123eb6aff45cf5be575e_Images/666e123eb6aff45cf5be575e_Image_1.jpeg,did not like,3.195382774,,,,,,,,,,,,,,,,,,,,,,
,,666e123eb6aff45cf5be575e,6685aa9113c938e83b4f1ea0,66fb44014f70bb1f34598d71,2024-09-30_20h38.46.925,WTP_SM_Choice,2022.2.1,Linux x86_64,60.24096386,,,,,space,6.2056,NAN,,NAN,0.57,5.43,,0,20,20,20,1,21,Sam,Rej,Participant_Images/666e123eb6aff45cf5be575e/666e123eb6aff45cf5be575e_Images/666e123eb6aff45cf5be575e_Image_11.jpeg,liked,1.779333479,,,,,,,,,,,,,,,,,,,,,,
,,666e123eb6aff45cf5be575e,6685aa9113c938e83b4f1ea0,66fb44014f70bb1f34598d71,2024-09-30_20h38.46.925,WTP_SM_Choice,2022.2.1,Linux x86_64,60.24096386,,,,,space,1.2989,NAN,,NAN,0.57,5.43,,0,21,21,21,1,22,Sam,Rej,Participant_Images/666e123eb6aff45cf5be575e/666e123eb6aff45cf5be575e_Images/666e123eb6aff45cf5be575e_Image_22.jpeg,liked,4.312468682,,,,,,,,,,,,,,,,,,,,,,
,,666e123eb6aff45cf5be575e,6685aa9113c938e83b4f1ea0,66fb44014f70bb1f34598d71,2024-09-30_20h38.46.925,WTP_SM_Choice,2022.2.1,Linux x86_64,60.24096386,,,,,space,1.4219,NAN,,NAN,0.57,5.43,,0,22,22,22,1,23,Sam,Rej,Participant_Images/666e123eb6aff45cf5be575e/666e123eb6aff45cf5be575e_Images/666e123eb6aff45cf5be575e_Image_9.jpeg,did not like,4.940433059,,,,,,,,,,,,,,,,,,,,,,
,,666e123eb6aff45cf5be575e,6685aa9113c938e83b4f1ea0,66fb44014f70bb1f34598d71,2024-09-30_20h38.46.925,WTP_SM_Choice,2022.2.1,Linux x86_64,60.24096386,,,,,space,1.4008,NAN,,NAN,0.57,5.43,,0,23,23,23,1,24,Sam,Rej,Participant_Images/666e123eb6aff45cf5be575e/666e123eb6aff45cf5be575e_Images/666e123eb6aff45cf5be575e_Image_18.jpeg,did not like,2.7105123,,,,,,,,,,,,,,,,,,,,,,
,,666e123eb6aff45cf5be575e,6685aa9113c938e83b4f1ea0,66fb44014f70bb1f34598d71,2024-09-30_20h38.46.925,WTP_SM_Choice,2022.2.1,Linux x86_64,60.24096386,,,,,,,,,,,,,,,,,,21,,,,,,space,1.7073,space,1.0204,0.01,1,1.529,0,0,0,0,1,Have a netflix movie night on a saturday night with my friends,Sunbathe on the beach on a deckchair,0.01,0.05,8.8,0,,,,
,,666e123eb6aff45cf5be575e,6685aa9113c938e83b4f1ea0,66fb44014f70bb1f34598d71,2024-09-30_20h38.46.925,WTP_SM_Choice,2022.2.1,Linux x86_64,60.24096386,,,,,,,,,,,,,,,,,,22,,,,,,,,,,0.02,1,3.2278,0,1,1,1,1,Attend a group fitness class at the gym on a mild weathered day,Attend an outdoor gym fitness class on a sunny day,0.02,0.05,4.4,1,,,,
,,666e123eb6aff45cf5be575e,6685aa9113c938e83b4f1ea0,66fb44014f70bb1f34598d71,2024-09-30_20h38.46.925,WTP_SM_Choice,2022.2.1,Linux x86_64,60.24096386,,,,,,,,,,,,,,,,,,23,,,,,,,,,,0.05,2,3.0199,0,2,2,2,1,Attend an indoor gym class with my friend on a rainy day,Watch a new Netflix crime documentary in my living room on a rainy day ,0.03,0.05,1.1,0,,,,
,,666e123eb6aff45cf5be575e,6685aa9113c938e83b4f1ea0,66fb44014f70bb1f34598d71,2024-09-30_20h38.46.925,WTP_SM_Choice,2022.2.1,Linux x86_64,60.24096386,,,,,,,,,,,,,,,,,,24,,,,,,,,,,0.05,2,1.8657,0,3,3,3,1,Go for an outdoor group hike around a national park on a sunny day,Play video games with my brother on a chilly day,0.04,0.05,4.4,1,,,,
,,666e123eb6aff45cf5be575e,6685aa9113c938e83b4f1ea0,66fb44014f70bb1f34598d71,2024-09-30_20h38.46.925,WTP_SM_Choice,2022.2.1,Linux x86_64,60.24096386,,,,,,,,,,,,,,,,,,25,,,,,,,,,,0.05,1,1.4492,0,4,4,4,1,Go for a walk on the beach on a sunny day with my family,Do yoga outdoors on the beach on a sunny day,0.05,0.05,3.3,0,,,,
,,666e123eb6aff45cf5be575e,6685aa9113c938e83b4f1ea0,66fb44014f70bb1f34598d71,2024-09-30_20h38.46.925,WTP_SM_Choice,2022.2.1,Linux x86_64,60.24096386,,,,,,,1,,4,0.75,5.25,,0,24,24,24,1,25,Sam,Rej,Participant_Images/666e123eb6aff45cf5be575e/666e123eb6aff45cf5be575e_Images/666e123eb6aff45cf5be575e_Image_13.jpeg,did not like,3.602308302,,,,,,,,,,,,,,,,,,,space,1.6691,,
,,666e123eb6aff45cf5be575e,6685aa9113c938e83b4f1ea0,66fb44014f70bb1f34598d71,2024-09-30_20h38.46.925,WTP_SM_Choice,2022.2.1,Linux x86_64,60.24096386,,,space,1.8851,space,1.0483,NAN,,NAN,0.75,5.25,,0,25,25,25,1,26,Charlie,Acc,Participant_Images/666e123eb6aff45cf5be575e/666e123eb6aff45cf5be575e_Images/666e123eb6aff45cf5be575e_Image_14.jpeg,did not like,4.106391878,,,,,,,,,,,,,,,,,,,,,,
,,666e123eb6aff45cf5be575e,6685aa9113c938e83b4f1ea0,66fb44014f70bb1f34598d71,2024-09-30_20h38.46.925,WTP_SM_Choice,2022.2.1,Linux x86_64,60.24096386,,,,,space,0.9889,NAN,,NAN,0.75,5.25,,0,26,26,26,1,27,Charlie,Acc,Participant_Images/666e123eb6aff45cf5be575e/666e123eb6aff45cf5be575e_Images/666e123eb6aff45cf5be575e_Image_9.jpeg,did not like,3.799433026,,,,,,,,,,,,,,,,,,,,,,
,,666e123eb6aff45cf5be575e,6685aa9113c938e83b4f1ea0,66fb44014f70bb1f34598d71,2024-09-30_20h38.46.925,WTP_SM_Choice,2022.2.1,Linux x86_64,60.24096386,,,,,space,1.2749,NAN,,NAN,0.75,5.25,,0,27,27,27,1,28,Charlie,Acc,Participant_Images/666e123eb6aff45cf5be575e/666e123eb6aff45cf5be575e_Images/666e123eb6aff45cf5be575e_Image_19.jpeg,liked,5.246980764,,,,,,,,,,,,,,,,,,,,,,
,,666e123eb6aff45cf5be575e,6685aa9113c938e83b4f1ea0,66fb44014f70bb1f34598d71,2024-09-30_20h38.46.925,WTP_SM_Choice,2022.2.1,Linux x86_64,60.24096386,,,,,space,1.5572,NAN,,NAN,0.75,5.25,,0,28,28,28,1,29,Charlie,Acc,Participant_Images/666e123eb6aff45cf5be575e/666e123eb6aff45cf5be575e_Images/666e123eb6aff45cf5be575e_Image_6.jpeg,liked,3.30081769,,,,,,,,,,,,,,,,,,,,,,
,,666e123eb6aff45cf5be575e,6685aa9113c938e83b4f1ea0,66fb44014f70bb1f34598d71,2024-09-30_20h38.46.925,WTP_SM_Choice,2022.2.1,Linux x86_64,60.24096386,,,,,,,,,,,,,,,,,,26,,,,,,space,2.3903,space,19.2921,0.01,1,2.9502,0,0,0,0,1,Go for a walk on the beach on a sunny day with my family,Sunbathe on the beach on a deckchair,0.01,0.01,4.4,0,,,,
,,666e123eb6aff45cf5be575e,6685aa9113c938e83b4f1ea0,66fb44014f70bb1f34598d71,2024-09-30_20h38.46.925,WTP_SM_Choice,2022.2.1,Linux x86_64,60.24096386,,,,,,,,,,,,,,,,,,27,,,,,,,,,,0.01,2,2.086,0,1,1,1,1,Go for a picnic on the beach with my friends,Read a book in my living room on a rainy day,0.02,0.01,3.3,0,,,,
,,666e123eb6aff45cf5be575e,6685aa9113c938e83b4f1ea0,66fb44014f70bb1f34598d71,2024-09-30_20h38.46.925,WTP_SM_Choice,2022.2.1,Linux x86_64,60.24096386,,,,,,,,,,,,,,,,,,28,,,,,,,,,,0.03,1,2.2865,0,2,2,2,1,Read a book in my living room on a rainy day,Have a netflix movie night on a saturday night with my friends,0.03,0.01,3.3,1,,,,
,,666e123eb6aff45cf5be575e,6685aa9113c938e83b4f1ea0,66fb44014f70bb1f34598d71,2024-09-30_20h38.46.925,WTP_SM_Choice,2022.2.1,Linux x86_64,60.24096386,,,,,,,,,,,,,,,,,,29,,,,,,,,,,0.01,2,2.581,0,3,3,3,1,Go for an outdoor group hike around a national park on a sunny day,Go for a picnic on the beach with my friends,0.04,0.01,4.4,1,,,,
,,666e123eb6aff45cf5be575e,6685aa9113c938e83b4f1ea0,66fb44014f70bb1f34598d71,2024-09-30_20h38.46.925,WTP_SM_Choice,2022.2.1,Linux x86_64,60.24096386,,,,,,,,,,,,,,,,,,30,,,,,,,,,,0.01,2,2.5085,0,4,4,4,1,Sunbathe on the beach on a deckchair,Attend an indoor gym class with my friend on a rainy day,0.05,0.01,8.8,1,,,,
,,666e123eb6aff45cf5be575e,6685aa9113c938e83b4f1ea0,66fb44014f70bb1f34598d71,2024-09-30_20h38.46.925,WTP_SM_Choice,2022.2.1,Linux x86_64,60.24096386,,,,,,,NAN,,NAN,0.82,5.18,,0,29,29,29,1,30,Charlie,Acc,Participant_Images/666e123eb6aff45cf5be575e/666e123eb6aff45cf5be575e_Images/666e123eb6aff45cf5be575e_Image_18.jpeg,liked,1.661473164,,,,,,,,,,,,,,,,,,,,,,
,,666e123eb6aff45cf5be575e,6685aa9113c938e83b4f1ea0,66fb44014f70bb1f34598d71,2024-09-30_20h38.46.925,WTP_SM_Choice,2022.2.1,Linux x86_64,60.24096386,,,,,space,1.7306,NAN,,NAN,0.82,5.18,,0,30,30,30,1,31,Charlie,Acc,Participant_Images/666e123eb6aff45cf5be575e/666e123eb6aff45cf5be575e_Images/666e123eb6aff45cf5be575e_Image_2.jpeg,did not like,3.613205605,,,,,,,,,,,,,,,,,,,,,,
,,666e123eb6aff45cf5be575e,6685aa9113c938e83b4f1ea0,66fb44014f70bb1f34598d71,2024-09-30_20h38.46.925,WTP_SM_Choice,2022.2.1,Linux x86_64,60.24096386,,,,,space,5.3067,NAN,,NAN,0.82,5.18,,0,31,31,31,1,32,Charlie,Acc,Participant_Images/666e123eb6aff45cf5be575e/666e123eb6aff45cf5be575e_Images/666e123eb6aff45cf5be575e_Image_21.jpeg,did not like,4.988446431,,,,,,,,,,,,,,,,,,,,,,
,,666e123eb6aff45cf5be575e,6685aa9113c938e83b4f1ea0,66fb44014f70bb1f34598d71,2024-09-30_20h38.46.925,WTP_SM_Choice,2022.2.1,Linux x86_64,60.24096386,,,,,space,0.8273,NAN,,NAN,0.82,5.18,,0,32,32,32,1,33,Charlie,Acc,Participant_Images/666e123eb6aff45cf5be575e/666e123eb6aff45cf5be575e_Images/666e123eb6aff45cf5be575e_Image_23.jpeg,liked,3.470791822,,,,,,,,,,,,,,,,,,,,,,
,,666e123eb6aff45cf5be575e,6685aa9113c938e83b4f1ea0,66fb44014f70bb1f34598d71,2024-09-30_20h38.46.925,WTP_SM_Choice,2022.2.1,Linux x86_64,60.24096386,,,,,space,1.8865,NAN,,NAN,0.82,5.18,,0,33,33,33,1,34,Charlie,Acc,Participant_Images/666e123eb6aff45cf5be575e/666e123eb6aff45cf5be575e_Images/666e123eb6aff45cf5be575e_Image_17.jpeg,liked,3.820572462,,,,,,,,,,,,,,,,,,,,,,
,,666e123eb6aff45cf5be575e,6685aa9113c938e83b4f1ea0,66fb44014f70bb1f34598d71,2024-09-30_20h38.46.925,WTP_SM_Choice,2022.2.1,Linux x86_64,60.24096386,,,,,,,,,,,,,,,,,,31,,,,,,space,0.9062,space,1.9956,0.01,1,2.2451,0,0,0,0,1,Read a book in the park on a beach towel,Watch reality television shows on a thursday night with my mother,0.01,0.02,8.8,1,,,,
,,666e123eb6aff45cf5be575e,6685aa9113c938e83b4f1ea0,66fb44014f70bb1f34598d71,2024-09-30_20h38.46.925,WTP_SM_Choice,2022.2.1,Linux x86_64,60.24096386,,,,,,,,,,,,,,,,,,32,,,,,,,,,,0.02,1,2.7937,0,1,1,1,1,Watch a movie on a sunday night with my family,Have a pampering self-care session on a rainy night in my living room,0.02,0.02,1.1,0,,,,
,,666e123eb6aff45cf5be575e,6685aa9113c938e83b4f1ea0,66fb44014f70bb1f34598d71,2024-09-30_20h38.46.925,WTP_SM_Choice,2022.2.1,Linux x86_64,60.24096386,,,,,,,,,,,,,,,,,,33,,,,,,,,,,0.02,2,2.762,0,2,2,2,1,Do yoga outdoors on the beach on a sunny day,Have a netflix movie night on a saturday night with my friends,0.03,0.02,4.4,1,,,,
,,666e123eb6aff45cf5be575e,6685aa9113c938e83b4f1ea0,66fb44014f70bb1f34598d71,2024-09-30_20h38.46.925,WTP_SM_Choice,2022.2.1,Linux x86_64,60.24096386,,,,,,,,,,,,,,,,,,34,,,,,,,,,,0.04,1,1.9301,0,3,3,3,1,Play video games with my brother on a chilly day,Sunbathe on the beach on a deckchair,0.04,0.02,3.3,0,,,,
,,666e123eb6aff45cf5be575e,6685aa9113c938e83b4f1ea0,66fb44014f70bb1f34598d71,2024-09-30_20h38.46.925,WTP_SM_Choice,2022.2.1,Linux x86_64,60.24096386,,,,,,,,,,,,,,,,,,35,,,,,,,,,,0.02,2,2.4471,0,4,4,4,1,Go for a walk on the beach on a sunny day with my family,Do a strength training workout in the gym on a mild weathered day,0.05,0.02,1.1,0,,,,
,,666e123eb6aff45cf5be575e,6685aa9113c938e83b4f1ea0,66fb44014f70bb1f34598d71,2024-09-30_20h38.46.925,WTP_SM_Choice,2022.2.1,Linux x86_64,60.24096386,,,,,,,NAN,,NAN,0.93,5.07,,0,34,34,34,1,35,Charlie,Acc,Participant_Images/666e123eb6aff45cf5be575e/666e123eb6aff45cf5be575e_Images/666e123eb6aff45cf5be575e_Image_4.jpeg,liked,2.455989137,,,,,,,,,,,,,,,,,,,,,,
,,666e123eb6aff45cf5be575e,6685aa9113c938e83b4f1ea0,66fb44014f70bb1f34598d71,2024-09-30_20h38.46.925,WTP_SM_Choice,2022.2.1,Linux x86_64,60.24096386,,,,,space,1.5022,NAN,,NAN,0.93,5.07,,0,35,35,35,1,36,Charlie,Acc,Participant_Images/666e123eb6aff45cf5be575e/666e123eb6aff45cf5be575e_Images/666e123eb6aff45cf5be575e_Image_13.jpeg,liked,3.79605092,,,,,,,,,,,,,,,,,,,,,,
,,666e123eb6aff45cf5be575e,6685aa9113c938e83b4f1ea0,66fb44014f70bb1f34598d71,2024-09-30_20h38.46.925,WTP_SM_Choice,2022.2.1,Linux x86_64,60.24096386,,,,,space,1.5851,NAN,,NAN,0.93,5.07,,0,36,36,36,1,37,Charlie,Acc,Participant_Images/666e123eb6aff45cf5be575e/666e123eb6aff45cf5be575e_Images/666e123eb6aff45cf5be575e_Image_15.jpeg,liked,3.562416326,,,,,,,,,,,,,,,,,,,,,,
,,666e123eb6aff45cf5be575e,6685aa9113c938e83b4f1ea0,66fb44014f70bb1f34598d71,2024-09-30_20h38.46.925,WTP_SM_Choice,2022.2.1,Linux x86_64,60.24096386,,,,,space,1.145,NAN,,NAN,0.93,5.07,,0,37,37,37,1,38,Charlie,Acc,Participant_Images/666e123eb6aff45cf5be575e/666e123eb6aff45cf5be575e_Images/666e123eb6aff45cf5be575e_Image_3.jpeg,liked,2.843822497,,,,,,,,,,,,,,,,,,,,,,
,,666e123eb6aff45cf5be575e,6685aa9113c938e83b4f1ea0,66fb44014f70bb1f34598d71,2024-09-30_20h38.46.925,WTP_SM_Choice,2022.2.1,Linux x86_64,60.24096386,,,,,space,2.4359,NAN,,NAN,0.93,5.07,,0,38,38,38,1,39,Charlie,Acc,Participant_Images/666e123eb6aff45cf5be575e/666e123eb6aff45cf5be575e_Images/666e123eb6aff45cf5be575e_Image_24.jpeg,liked,3.546495948,,,,,,,,,,,,,,,,,,,,,,
,,666e123eb6aff45cf5be575e,6685aa9113c938e83b4f1ea0,66fb44014f70bb1f34598d71,2024-09-30_20h38.46.925,WTP_SM_Choice,2022.2.1,Linux x86_64,60.24096386,,,,,,,,,,,,,,,,,,36,,,,,,space,1.8943,space,1.2461,0.01,1,1.453,0,0,0,0,1,Read a book in my living room on a rainy day,Attend an outdoor gym fitness class on a sunny day,0.01,0.03,3.3,1,,,,
,,666e123eb6aff45cf5be575e,6685aa9113c938e83b4f1ea0,66fb44014f70bb1f34598d71,2024-09-30_20h38.46.925,WTP_SM_Choice,2022.2.1,Linux x86_64,60.24096386,,,,,,,,,,,,,,,,,,37,,,,,,,,,,0.03,2,1.5213,0,1,1,1,1,Attend a group fitness class at the gym on a mild weathered day,Watching football on a Sunday morning with my father.,0.02,0.03,1.1,1,,,,
,,666e123eb6aff45cf5be575e,6685aa9113c938e83b4f1ea0,66fb44014f70bb1f34598d71,2024-09-30_20h38.46.925,WTP_SM_Choice,2022.2.1,Linux x86_64,60.24096386,,,,,,,,,,,,,,,,,,38,,,,,,,,,,0.03,1,2.1744,0,2,2,2,1,Watching football on a Sunday morning with my father.,Organize future travel plans in my room on a windy day,0.03,0.03,1.1,0,,,,
,,666e123eb6aff45cf5be575e,6685aa9113c938e83b4f1ea0,66fb44014f70bb1f34598d71,2024-09-30_20h38.46.925,WTP_SM_Choice,2022.2.1,Linux x86_64,60.24096386,,,,,,,,,,,,,,,,,,39,,,,,,,,,,0.03,2,1.5641,0,3,3,3,1,Go to a sushi restaraunt with my best friend on a friday evening,Read a book in my living room on a rainy day,0.04,0.03,3.3,0,,,,
,,666e123eb6aff45cf5be575e,6685aa9113c938e83b4f1ea0,66fb44014f70bb1f34598d71,2024-09-30_20h38.46.925,WTP_SM_Choice,2022.2.1,Linux x86_64,60.24096386,,,,,,,,,,,,,,,,,,40,,,,,,,,,,0.05,1,1.0241,0,4,4,4,1,Attend an indoor gym class with my friend on a rainy day,Do yoga outdoors on the beach on a sunny day,0.05,0.03,4.4,0,,,,
,,666e123eb6aff45cf5be575e,6685aa9113c938e83b4f1ea0,66fb44014f70bb1f34598d71,2024-09-30_20h38.46.925,WTP_SM_Choice,2022.2.1,Linux x86_64,60.24096386,,,,,,,NAN,,NAN,1.08,4.92,,0,39,39,39,1,40,Charlie,Acc,Participant_Images/666e123eb6aff45cf5be575e/666e123eb6aff45cf5be575e_Images/666e123eb6aff45cf5be575e_Image_25.jpeg,liked,1.672012706,,,,,,,,,,,,,,,,,,,,,,
,,666e123eb6aff45cf5be575e,6685aa9113c938e83b4f1ea0,66fb44014f70bb1f34598d71,2024-09-30_20h38.46.925,WTP_SM_Choice,2022.2.1,Linux x86_64,60.24096386,,,,,space,2.2821,NAN,,NAN,1.08,4.92,,0,40,40,40,1,41,Charlie,Acc,Participant_Images/666e123eb6aff45cf5be575e/666e123eb6aff45cf5be575e_Images/666e123eb6aff45cf5be575e_Image_20.jpeg,liked,4.942172136,,,,,,,,,,,,,,,,,,,,,,
,,666e123eb6aff45cf5be575e,6685aa9113c938e83b4f1ea0,66fb44014f70bb1f34598d71,2024-09-30_20h38.46.925,WTP_SM_Choice,2022.2.1,Linux x86_64,60.24096386,,,,,space,1.772,NAN,,NAN,1.08,4.92,,0,41,41,41,1,42,Charlie,Acc,Participant_Images/666e123eb6aff45cf5be575e/666e123eb6aff45cf5be575e_Images/666e123eb6aff45cf5be575e_Image_16.jpeg,liked,2.50187214,,,,,,,,,,,,,,,,,,,,,,
,,666e123eb6aff45cf5be575e,6685aa9113c938e83b4f1ea0,66fb44014f70bb1f34598d71,2024-09-30_20h38.46.925,WTP_SM_Choice,2022.2.1,Linux x86_64,60.24096386,,,,,space,1.0609,NAN,,NAN,1.08,4.92,,0,42,42,42,1,43,Charlie,Acc,Participant_Images/666e123eb6aff45cf5be575e/666e123eb6aff45cf5be575e_Images/666e123eb6aff45cf5be575e_Image_22.jpeg,liked,2.071164779,,,,,,,,,,,,,,,,,,,,,,
,,666e123eb6aff45cf5be575e,6685aa9113c938e83b4f1ea0,66fb44014f70bb1f34598d71,2024-09-30_20h38.46.925,WTP_SM_Choice,2022.2.1,Linux x86_64,60.24096386,,,,,space,1.2113,NAN,,NAN,1.08,4.92,,0,43,43,43,1,44,Charlie,Acc,Participant_Images/666e123eb6aff45cf5be575e/666e123eb6aff45cf5be575e_Images/666e123eb6aff45cf5be575e_Image_10.jpeg,liked,5.336503566,,,,,,,,,,,,,,,,,,,,,,
,,666e123eb6aff45cf5be575e,6685aa9113c938e83b4f1ea0,66fb44014f70bb1f34598d71,2024-09-30_20h38.46.925,WTP_SM_Choice,2022.2.1,Linux x86_64,60.24096386,,,,,,,,,,,,,,,,,,41,,,,,,space,1.0064,space,0.8189,0.04,2,2.1971,0,0,0,0,1,Organize future travel plans in my room on a windy day,Attend an indoor gym class with my friend on a rainy day,0.01,0.04,1.1,1,,,,
,,666e123eb6aff45cf5be575e,6685aa9113c938e83b4f1ea0,66fb44014f70bb1f34598d71,2024-09-30_20h38.46.925,WTP_SM_Choice,2022.2.1,Linux x86_64,60.24096386,,,,,,,,,,,,,,,,,,42,,,,,,,,,,0.04,2,1.8563,0,1,1,1,1,Watch a movie on a sunday night with my family,Read a book in my living room on a rainy day,0.02,0.04,3.3,0,,,,
,,666e123eb6aff45cf5be575e,6685aa9113c938e83b4f1ea0,66fb44014f70bb1f34598d71,2024-09-30_20h38.46.925,WTP_SM_Choice,2022.2.1,Linux x86_64,60.24096386,,,,,,,,,,,,,,,,,,43,,,,,,,,,,0.04,2,2.1911,0,2,2,2,1,Attend an indoor gym class with my friend on a rainy day,Read a book in my living room on a rainy day,0.03,0.04,1.1,0,,,,
,,666e123eb6aff45cf5be575e,6685aa9113c938e83b4f1ea0,66fb44014f70bb1f34598d71,2024-09-30_20h38.46.925,WTP_SM_Choice,2022.2.1,Linux x86_64,60.24096386,,,,,,,,,,,,,,,,,,44,,,,,,,,,,0.04,2,2.0545,0,3,3,3,1,Sunbathe on the beach on a deckchair,Watch reality television shows on a thursday night with my mother,0.04,0.04,1.1,1,,,,
,,666e123eb6aff45cf5be575e,6685aa9113c938e83b4f1ea0,66fb44014f70bb1f34598d71,2024-09-30_20h38.46.925,WTP_SM_Choice,2022.2.1,Linux x86_64,60.24096386,,,,,,,,,,,,,,,,,,45,,,,,,,,,,0.05,1,2.2296,0,4,4,4,1,Read a book in my living room on a rainy day,Watching football on a Sunday morning with my father.,0.05,0.04,4.4,1,,,,
,,666e123eb6aff45cf5be575e,6685aa9113c938e83b4f1ea0,66fb44014f70bb1f34598d71,2024-09-30_20h38.46.925,WTP_SM_Choice,2022.2.1,Linux x86_64,60.24096386,,,,,,,NAN,,NAN,1.29,4.71,,0,44,44,44,1,45,Charlie,Acc,Participant_Images/666e123eb6aff45cf5be575e/666e123eb6aff45cf5be575e_Images/666e123eb6aff45cf5be575e_Image_11.jpeg,did not like,2.642157193,,,,,,,,,,,,,,,,,,,,,,
,,666e123eb6aff45cf5be575e,6685aa9113c938e83b4f1ea0,66fb44014f70bb1f34598d71,2024-09-30_20h38.46.925,WTP_SM_Choice,2022.2.1,Linux x86_64,60.24096386,,,,,space,3.7017,NAN,,NAN,1.29,4.71,,0,45,45,45,1,46,Charlie,Acc,Participant_Images/666e123eb6aff45cf5be575e/666e123eb6aff45cf5be575e_Images/666e123eb6aff45cf5be575e_Image_5.jpeg,liked,4.456234322,,,,,,,,,,,,,,,,,,,,,,
,,666e123eb6aff45cf5be575e,6685aa9113c938e83b4f1ea0,66fb44014f70bb1f34598d71,2024-09-30_20h38.46.925,WTP_SM_Choice,2022.2.1,Linux x86_64,60.24096386,,,,,space,1.2536,NAN,,NAN,1.29,4.71,,0,46,46,46,1,47,Charlie,Acc,Participant_Images/666e123eb6aff45cf5be575e/666e123eb6aff45cf5be575e_Images/666e123eb6aff45cf5be575e_Image_12.jpeg,did not like,4.438512181,,,,,,,,,,,,,,,,,,,,,,
,,666e123eb6aff45cf5be575e,6685aa9113c938e83b4f1ea0,66fb44014f70bb1f34598d71,2024-09-30_20h38.46.925,WTP_SM_Choice,2022.2.1,Linux x86_64,60.24096386,,,,,space,1.2473,NAN,,NAN,1.29,4.71,,0,47,47,47,1,48,Charlie,Acc,Participant_Images/666e123eb6aff45cf5be575e/666e123eb6aff45cf5be575e_Images/666e123eb6aff45cf5be575e_Image_1.jpeg,liked,2.682944783,,,,,,,,,,,,,,,,,,,,,,
,,666e123eb6aff45cf5be575e,6685aa9113c938e83b4f1ea0,66fb44014f70bb1f34598d71,2024-09-30_20h38.46.925,WTP_SM_Choice,2022.2.1,Linux x86_64,60.24096386,,,,,space,0.5677,NAN,,NAN,1.29,4.71,,0,48,48,48,1,49,Charlie,Acc,Participant_Images/666e123eb6aff45cf5be575e/666e123eb6aff45cf5be575e_Images/666e123eb6aff45cf5be575e_Image_7.jpeg,liked,4.51984296,,,,,,,,,,,,,,,,,,,,,,
,,666e123eb6aff45cf5be575e,6685aa9113c938e83b4f1ea0,66fb44014f70bb1f34598d71,2024-09-30_20h38.46.925,WTP_SM_Choice,2022.2.1,Linux x86_64,60.24096386,,,,,,,,,,,,,,,,,,46,,,,,,space,1.1679,space,0.8775,0.05,2,1.6889,0,0,0,0,1,Go for an outdoor group hike around a national park on a sunny day,Watch reality television shows on a thursday night with my mother,0.01,0.05,8.8,1,,,,
,,666e123eb6aff45cf5be575e,6685aa9113c938e83b4f1ea0,66fb44014f70bb1f34598d71,2024-09-30_20h38.46.925,WTP_SM_Choice,2022.2.1,Linux x86_64,60.24096386,,,,,,,,,,,,,,,,,,47,,,,,,,,,,0.05,2,1.9662,0,1,1,1,1,Attend a group fitness class at the gym on a mild weathered day,Play video games with my brother on a chilly day,0.02,0.05,1.1,1,,,,
,,666e123eb6aff45cf5be575e,6685aa9113c938e83b4f1ea0,66fb44014f70bb1f34598d71,2024-09-30_20h38.46.925,WTP_SM_Choice,2022.2.1,Linux x86_64,60.24096386,,,,,,,,,,,,,,,,,,48,,,,,,,,,,0.05,2,2.5126,0,2,2,2,1,Attend a group fitness class at the gym on a mild weathered day,Watch reality television shows on a thursday night with my mother,0.03,0.05,4.4,1,,,,
,,666e123eb6aff45cf5be575e,6685aa9113c938e83b4f1ea0,66fb44014f70bb1f34598d71,2024-09-30_20h38.46.925,WTP_SM_Choice,2022.2.1,Linux x86_64,60.24096386,,,,,,,,,,,,,,,,,,49,,,,,,,,,,0.05,2,1.9311,0,3,3,3,1,Organize future travel plans in my room on a windy day,Have a netflix movie night on a saturday night with my friends,0.04,0.05,3.3,1,,,,
,,666e123eb6aff45cf5be575e,6685aa9113c938e83b4f1ea0,66fb44014f70bb1f34598d71,2024-09-30_20h38.46.925,WTP_SM_Choice,2022.2.1,Linux x86_64,60.24096386,,,,,,,,,,,,,,,,,,50,,,,,,,,,,0.05,2,2.1965,0,4,4,4,1,Go for a picnic on the beach with my friends,Attend a group fitness class at the gym on a mild weathered day,0.05,0.05,1.1,0,,,,
,,666e123eb6aff45cf5be575e,6685aa9113c938e83b4f1ea0,66fb44014f70bb1f34598d71,2024-09-30_20h38.46.925,WTP_SM_Choice,2022.2.1,Linux x86_64,60.24096386,,,,,,,1,,5,1.54,4.46,,0,49,49,49,1,50,Charlie,Acc,Participant_Images/666e123eb6aff45cf5be575e/666e123eb6aff45cf5be575e_Images/666e123eb6aff45cf5be575e_Image_8.jpeg,did not like,3.195382774,,,,,,,,,,,,,,,,,,,space,1.0447,,
,,666e123eb6aff45cf5be575e,6685aa9113c938e83b4f1ea0,66fb44014f70bb1f34598d71,2024-09-30_20h38.46.925,WTP_SM_Choice,2022.2.1,Linux x86_64,60.24096386,,,space,1.4624,space,0.6577,NAN,,NAN,1.54,4.46,,0,50,50,50,1,51,Riley,Rej,Participant_Images/666e123eb6aff45cf5be575e/666e123eb6aff45cf5be575e_Images/666e123eb6aff45cf5be575e_Image_9.jpeg,did not like,1.779333479,,,,,,,,,,,,,,,,,,,,,,
,,666e123eb6aff45cf5be575e,6685aa9113c938e83b4f1ea0,66fb44014f70bb1f34598d71,2024-09-30_20h38.46.925,WTP_SM_Choice,2022.2.1,Linux x86_64,60.24096386,,,,,space,1.8069,NAN,,NAN,1.54,4.46,,0,51,51,51,1,52,Riley,Rej,Participant_Images/666e123eb6aff45cf5be575e/666e123eb6aff45cf5be575e_Images/666e123eb6aff45cf5be575e_Image_21.jpeg,did not like,4.312468682,,,,,,,,,,,,,,,,,,,,,,
,,666e123eb6aff45cf5be575e,6685aa9113c938e83b4f1ea0,66fb44014f70bb1f34598d71,2024-09-30_20h38.46.925,WTP_SM_Choice,2022.2.1,Linux x86_64,60.24096386,,,,,space,1.9127,NAN,,NAN,1.54,4.46,,0,52,52,52,1,53,Riley,Rej,Participant_Images/666e123eb6aff45cf5be575e/666e123eb6aff45cf5be575e_Images/666e123eb6aff45cf5be575e_Image_23.jpeg,did not like,4.940433059,,,,,,,,,,,,,,,,,,,,,,
,,666e123eb6aff45cf5be575e,6685aa9113c938e83b4f1ea0,66fb44014f70bb1f34598d71,2024-09-30_20h38.46.925,WTP_SM_Choice,2022.2.1,Linux x86_64,60.24096386,,,,,space,0.7603,NAN,,NAN,1.54,4.46,,0,53,53,53,1,54,Riley,Rej,Participant_Images/666e123eb6aff45cf5be575e/666e123eb6aff45cf5be575e_Images/666e123eb6aff45cf5be575e_Image_1.jpeg,liked,2.7105123,,,,,,,,,,,,,,,,,,,,,,
,,666e123eb6aff45cf5be575e,6685aa9113c938e83b4f1ea0,66fb44014f70bb1f34598d71,2024-09-30_20h38.46.925,WTP_SM_Choice,2022.2.1,Linux x86_64,60.24096386,,,,,,,,,,,,,,,,,,51,,,,,,space,1.6105,space,0.918,0.01,2,1.3007,0,0,0,0,1,Organize future travel plans in my room on a windy day,Play video games with my brother on a chilly day,0.01,0.01,1.1,1,,,,
,,666e123eb6aff45cf5be575e,6685aa9113c938e83b4f1ea0,66fb44014f70bb1f34598d71,2024-09-30_20h38.46.925,WTP_SM_Choice,2022.2.1,Linux x86_64,60.24096386,,,,,,,,,,,,,,,,,,52,,,,,,,,,,0.01,2,1.8834,0,1,1,1,1,Go for a picnic on the beach with my friends,Have a pampering self-care session on a rainy night in my living room,0.02,0.01,3.3,0,,,,
,,666e123eb6aff45cf5be575e,6685aa9113c938e83b4f1ea0,66fb44014f70bb1f34598d71,2024-09-30_20h38.46.925,WTP_SM_Choice,2022.2.1,Linux x86_64,60.24096386,,,,,,,,,,,,,,,,,,53,,,,,,,,,,0.01,2,1.6476,0,2,2,2,1,Go for an outdoor group hike around a national park on a sunny day,Watch a movie on a sunday night with my family,0.03,0.01,1.1,1,,,,
,,666e123eb6aff45cf5be575e,6685aa9113c938e83b4f1ea0,66fb44014f70bb1f34598d71,2024-09-30_20h38.46.925,WTP_SM_Choice,2022.2.1,Linux x86_64,60.24096386,,,,,,,,,,,,,,,,,,54,,,,,,,,,,0.04,1,1.7127,0,3,3,3,1,Watching football on a Sunday morning with my father.,Have a pampering self-care session on a rainy night in my living room,0.04,0.01,4.4,0,,,,
,,666e123eb6aff45cf5be575e,6685aa9113c938e83b4f1ea0,66fb44014f70bb1f34598d71,2024-09-30_20h38.46.925,WTP_SM_Choice,2022.2.1,Linux x86_64,60.24096386,,,,,,,,,,,,,,,,,,55,,,,,,,,,,0.01,2,2.8769,0,4,4,4,1,Attend an outdoor gym fitness class on a sunny day,Organize future travel plans in my room on a windy day,0.05,0.01,1.1,0,,,,
,,666e123eb6aff45cf5be575e,6685aa9113c938e83b4f1ea0,66fb44014f70bb1f34598d71,2024-09-30_20h38.46.925,WTP_SM_Choice,2022.2.1,Linux x86_64,60.24096386,,,,,,,NAN,,NAN,1.62,4.38,,0,54,54,54,1,55,Riley,Rej,Participant_Images/666e123eb6aff45cf5be575e/666e123eb6aff45cf5be575e_Images/666e123eb6aff45cf5be575e_Image_4.jpeg,did not like,3.602308302,,,,,,,,,,,,,,,,,,,,,,
,,666e123eb6aff45cf5be575e,6685aa9113c938e83b4f1ea0,66fb44014f70bb1f34598d71,2024-09-30_20h38.46.925,WTP_SM_Choice,2022.2.1,Linux x86_64,60.24096386,,,,,space,6.6373,NAN,,NAN,1.62,4.38,,0,55,55,55,1,56,Riley,Rej,Participant_Images/666e123eb6aff45cf5be575e/666e123eb6aff45cf5be575e_Images/666e123eb6aff45cf5be575e_Image_25.jpeg,liked,4.106391878,,,,,,,,,,,,,,,,,,,,,,
,,666e123eb6aff45cf5be575e,6685aa9113c938e83b4f1ea0,66fb44014f70bb1f34598d71,2024-09-30_20h38.46.925,WTP_SM_Choice,2022.2.1,Linux x86_64,60.24096386,,,,,space,4.3339,NAN,,NAN,1.62,4.38,,0,56,56,56,1,57,Riley,Rej,Participant_Images/666e123eb6aff45cf5be575e/666e123eb6aff45cf5be575e_Images/666e123eb6aff45cf5be575e_Image_24.jpeg,did not like,3.799433026,,,,,,,,,,,,,,,,,,,,,,
,,666e123eb6aff45cf5be575e,6685aa9113c938e83b4f1ea0,66fb44014f70bb1f34598d71,2024-09-30_20h38.46.925,WTP_SM_Choice,2022.2.1,Linux x86_64,60.24096386,,,,,space,3.3968,NAN,,NAN,1.62,4.38,,0,57,57,57,1,58,Riley,Rej,Participant_Images/666e123eb6aff45cf5be575e/666e123eb6aff45cf5be575e_Images/666e123eb6aff45cf5be575e_Image_14.jpeg,did not like,5.246980764,,,,,,,,,,,,,,,,,,,,,,
,,666e123eb6aff45cf5be575e,6685aa9113c938e83b4f1ea0,66fb44014f70bb1f34598d71,2024-09-30_20h38.46.925,WTP_SM_Choice,2022.2.1,Linux x86_64,60.24096386,,,,,space,1.4007,NAN,,NAN,1.62,4.38,,0,58,58,58,1,59,Riley,Rej,Participant_Images/666e123eb6aff45cf5be575e/666e123eb6aff45cf5be575e_Images/666e123eb6aff45cf5be575e_Image_13.jpeg,liked,3.30081769,,,,,,,,,,,,,,,,,,,,,,
,,666e123eb6aff45cf5be575e,6685aa9113c938e83b4f1ea0,66fb44014f70bb1f34598d71,2024-09-30_20h38.46.925,WTP_SM_Choice,2022.2.1,Linux x86_64,60.24096386,,,,,,,,,,,,,,,,,,56,,,,,,space,1.7276,space,0.8193,0.02,2,2.047,0,0,0,0,1,Go for an outdoor group hike around a national park on a sunny day,Watching football on a Sunday morning with my father.,0.01,0.02,8.8,1,,,,
,,666e123eb6aff45cf5be575e,6685aa9113c938e83b4f1ea0,66fb44014f70bb1f34598d71,2024-09-30_20h38.46.925,WTP_SM_Choice,2022.2.1,Linux x86_64,60.24096386,,,,,,,,,,,,,,,,,,57,,,,,,,,,,0.02,2,1.1918,0,1,1,1,1,Have a pampering self-care session on a rainy night in my living room,Have a netflix movie night on a saturday night with my friends,0.02,0.02,4.4,1,,,,
,,666e123eb6aff45cf5be575e,6685aa9113c938e83b4f1ea0,66fb44014f70bb1f34598d71,2024-09-30_20h38.46.925,WTP_SM_Choice,2022.2.1,Linux x86_64,60.24096386,,,,,,,,,,,,,,,,,,58,,,,,,,,,,0.03,1,2.7453,0,2,2,2,1,Watch a new Netflix crime documentary in my living room on a rainy day ,Have a netflix movie night on a saturday night with my friends,0.03,0.02,4.4,1,,,,
,,666e123eb6aff45cf5be575e,6685aa9113c938e83b4f1ea0,66fb44014f70bb1f34598d71,2024-09-30_20h38.46.925,WTP_SM_Choice,2022.2.1,Linux x86_64,60.24096386,,,,,,,,,,,,,,,,,,59,,,,,,,,,,0.02,2,1.7529,0,3,3,3,1,Go for an outdoor group hike around a national park on a sunny day,Attend an outdoor gym fitness class on a sunny day,0.04,0.02,4.4,1,,,,
,,666e123eb6aff45cf5be575e,6685aa9113c938e83b4f1ea0,66fb44014f70bb1f34598d71,2024-09-30_20h38.46.925,WTP_SM_Choice,2022.2.1,Linux x86_64,60.24096386,,,,,,,,,,,,,,,,,,60,,,,,,,,,,0.02,2,1.1424,0,4,4,4,1,Do yoga outdoors on the beach on a sunny day,Watch reality television shows on a thursday night with my mother,0.05,0.02,1.1,1,,,,
,,666e123eb6aff45cf5be575e,6685aa9113c938e83b4f1ea0,66fb44014f70bb1f34598d71,2024-09-30_20h38.46.925,WTP_SM_Choice,2022.2.1,Linux x86_64,60.24096386,,,,,,,NAN,,NAN,1.73,4.27,,0,59,59,59,1,60,Riley,Rej,Participant_Images/666e123eb6aff45cf5be575e/666e123eb6aff45cf5be575e_Images/666e123eb6aff45cf5be575e_Image_19.jpeg,did not like,1.661473164,,,,,,,,,,,,,,,,,,,,,,
,,666e123eb6aff45cf5be575e,6685aa9113c938e83b4f1ea0,66fb44014f70bb1f34598d71,2024-09-30_20h38.46.925,WTP_SM_Choice,2022.2.1,Linux x86_64,60.24096386,,,,,space,1.3006,NAN,,NAN,1.73,4.27,,0,60,60,60,1,61,Riley,Rej,Participant_Images/666e123eb6aff45cf5be575e/666e123eb6aff45cf5be575e_Images/666e123eb6aff45cf5be575e_Image_17.jpeg,liked,3.613205605,,,,,,,,,,,,,,,,,,,,,,
,,666e123eb6aff45cf5be575e,6685aa9113c938e83b4f1ea0,66fb44014f70bb1f34598d71,2024-09-30_20h38.46.925,WTP_SM_Choice,2022.2.1,Linux x86_64,60.24096386,,,,,space,2.0987,NAN,,NAN,1.73,4.27,,0,61,61,61,1,62,Riley,Rej,Participant_Images/666e123eb6aff45cf5be575e/666e123eb6aff45cf5be575e_Images/666e123eb6aff45cf5be575e_Image_5.jpeg,did not like,4.988446431,,,,,,,,,,,,,,,,,,,,,,
,,666e123eb6aff45cf5be575e,6685aa9113c938e83b4f1ea0,66fb44014f70bb1f34598d71,2024-09-30_20h38.46.925,WTP_SM_Choice,2022.2.1,Linux x86_64,60.24096386,,,,,space,1.1859,NAN,,NAN,1.73,4.27,,0,62,62,62,1,63,Riley,Rej,Participant_Images/666e123eb6aff45cf5be575e/666e123eb6aff45cf5be575e_Images/666e123eb6aff45cf5be575e_Image_8.jpeg,did not like,3.470791822,,,,,,,,,,,,,,,,,,,,,,
,,666e123eb6aff45cf5be575e,6685aa9113c938e83b4f1ea0,66fb44014f70bb1f34598d71,2024-09-30_20h38.46.925,WTP_SM_Choice,2022.2.1,Linux x86_64,60.24096386,,,,,space,1.936,NAN,,NAN,1.73,4.27,,0,63,63,63,1,64,Riley,Rej,Participant_Images/666e123eb6aff45cf5be575e/666e123eb6aff45cf5be575e_Images/666e123eb6aff45cf5be575e_Image_11.jpeg,liked,3.820572462,,,,,,,,,,,,,,,,,,,,,,
,,666e123eb6aff45cf5be575e,6685aa9113c938e83b4f1ea0,66fb44014f70bb1f34598d71,2024-09-30_20h38.46.925,WTP_SM_Choice,2022.2.1,Linux x86_64,60.24096386,,,,,,,,,,,,,,,,,,61,,,,,,space,1.2061,space,0.6607,0.03,2,1.3197,0,0,0,0,1,Do yoga outdoors on the beach on a sunny day,Play video games with my brother on a chilly day,0.01,0.03,3.3,1,,,,
,,666e123eb6aff45cf5be575e,6685aa9113c938e83b4f1ea0,66fb44014f70bb1f34598d71,2024-09-30_20h38.46.925,WTP_SM_Choice,2022.2.1,Linux x86_64,60.24096386,,,,,,,,,,,,,,,,,,62,,,,,,,,,,0.03,2,2.1927,0,1,1,1,1,Go for a picnic on the beach with my friends,Do a strength training workout in the gym on a mild weathered day,0.02,0.03,3.3,0,,,,
,,666e123eb6aff45cf5be575e,6685aa9113c938e83b4f1ea0,66fb44014f70bb1f34598d71,2024-09-30_20h38.46.925,WTP_SM_Choice,2022.2.1,Linux x86_64,60.24096386,,,,,,,,,,,,,,,,,,63,,,,,,,,,,0.03,2,2.5486,0,2,2,2,1,Attend an indoor gym class with my friend on a rainy day,Read a book in the park on a beach towel,0.03,0.03,3.3,0,,,,
,,666e123eb6aff45cf5be575e,6685aa9113c938e83b4f1ea0,66fb44014f70bb1f34598d71,2024-09-30_20h38.46.925,WTP_SM_Choice,2022.2.1,Linux x86_64,60.24096386,,,,,,,,,,,,,,,,,,64,,,,,,,,,,0.04,1,2.0509,0,3,3,3,1,Have a netflix movie night on a saturday night with my friends,Attend a group fitness class at the gym on a mild weathered day,0.04,0.03,1.1,0,,,,
,,666e123eb6aff45cf5be575e,6685aa9113c938e83b4f1ea0,66fb44014f70bb1f34598d71,2024-09-30_20h38.46.925,WTP_SM_Choice,2022.2.1,Linux x86_64,60.24096386,,,,,,,,,,,,,,,,,,65,,,,,,,,,,0.03,2,2.3829,0,4,4,4,1,Watch reality television shows on a thursday night with my mother,Have a pampering self-care session on a rainy night in my living room,0.05,0.03,1.1,0,,,,
,,666e123eb6aff45cf5be575e,6685aa9113c938e83b4f1ea0,66fb44014f70bb1f34598d71,2024-09-30_20h38.46.925,WTP_SM_Choice,2022.2.1,Linux x86_64,60.24096386,,,,,,,NAN,,NAN,1.89,4.11,,0,64,64,64,1,65,Riley,Rej,Participant_Images/666e123eb6aff45cf5be575e/666e123eb6aff45cf5be575e_Images/666e123eb6aff45cf5be575e_Image_7.jpeg,did not like,2.455989137,,,,,,,,,,,,,,,,,,,,,,
,,666e123eb6aff45cf5be575e,6685aa9113c938e83b4f1ea0,66fb44014f70bb1f34598d71,2024-09-30_20h38.46.925,WTP_SM_Choice,2022.2.1,Linux x86_64,60.24096386,,,,,space,1.5188,NAN,,NAN,1.89,4.11,,0,65,65,65,1,66,Riley,Rej,Participant_Images/666e123eb6aff45cf5be575e/666e123eb6aff45cf5be575e_Images/666e123eb6aff45cf5be575e_Image_3.jpeg,did not like,3.79605092,,,,,,,,,,,,,,,,,,,,,,
,,666e123eb6aff45cf5be575e,6685aa9113c938e83b4f1ea0,66fb44014f70bb1f34598d71,2024-09-30_20h38.46.925,WTP_SM_Choice,2022.2.1,Linux x86_64,60.24096386,,,,,space,1.4504,NAN,,NAN,1.89,4.11,,0,66,66,66,1,67,Riley,Rej,Participant_Images/666e123eb6aff45cf5be575e/666e123eb6aff45cf5be575e_Images/666e123eb6aff45cf5be575e_Image_6.jpeg,did not like,3.562416326,,,,,,,,,,,,,,,,,,,,,,
,,666e123eb6aff45cf5be575e,6685aa9113c938e83b4f1ea0,66fb44014f70bb1f34598d71,2024-09-30_20h38.46.925,WTP_SM_Choice,2022.2.1,Linux x86_64,60.24096386,,,,,space,1.1022,NAN,,NAN,1.89,4.11,,0,67,67,67,1,68,Riley,Rej,Participant_Images/666e123eb6aff45cf5be575e/666e123eb6aff45cf5be575e_Images/666e123eb6aff45cf5be575e_Image_12.jpeg,did not like,2.843822497,,,,,,,,,,,,,,,,,,,,,,
,,666e123eb6aff45cf5be575e,6685aa9113c938e83b4f1ea0,66fb44014f70bb1f34598d71,2024-09-30_20h38.46.925,WTP_SM_Choice,2022.2.1,Linux x86_64,60.24096386,,,,,space,0.974,NAN,,NAN,1.89,4.11,,0,68,68,68,1,69,Riley,Rej,Participant_Images/666e123eb6aff45cf5be575e/666e123eb6aff45cf5be575e_Images/666e123eb6aff45cf5be575e_Image_22.jpeg,did not like,3.546495948,,,,,,,,,,,,,,,,,,,,,,
,,666e123eb6aff45cf5be575e,6685aa9113c938e83b4f1ea0,66fb44014f70bb1f34598d71,2024-09-30_20h38.46.925,WTP_SM_Choice,2022.2.1,Linux x86_64,60.24096386,,,,,,,,,,,,,,,,,,66,,,,,,space,0.9679,space,0.9308,0.04,2,1.9176,0,0,0,0,1,Go for a walk on the beach on a sunny day with my family,Attend a group fitness class at the gym on a mild weathered day,0.01,0.04,1.1,0,,,,
,,666e123eb6aff45cf5be575e,6685aa9113c938e83b4f1ea0,66fb44014f70bb1f34598d71,2024-09-30_20h38.46.925,WTP_SM_Choice,2022.2.1,Linux x86_64,60.24096386,,,,,,,,,,,,,,,,,,67,,,,,,,,,,0.04,2,3.7442,0,1,1,1,1,Watch a new Netflix crime documentary in my living room on a rainy day ,Watch a movie on a sunday night with my family,0.02,0.04,8.8,1,,,,
,,666e123eb6aff45cf5be575e,6685aa9113c938e83b4f1ea0,66fb44014f70bb1f34598d71,2024-09-30_20h38.46.925,WTP_SM_Choice,2022.2.1,Linux x86_64,60.24096386,,,,,,,,,,,,,,,,,,68,,,,,,,,,,0.03,1,1.7841,0,2,2,2,1,Watch a movie on a sunday night with my family,Sunbathe on the beach on a deckchair,0.03,0.04,4.4,0,,,,
,,666e123eb6aff45cf5be575e,6685aa9113c938e83b4f1ea0,66fb44014f70bb1f34598d71,2024-09-30_20h38.46.925,WTP_SM_Choice,2022.2.1,Linux x86_64,60.24096386,,,,,,,,,,,,,,,,,,69,,,,,,,,,,0.04,2,2.0494,0,3,3,3,1,Attend an outdoor gym fitness class on a sunny day,Read a book in the park on a beach towel,0.04,0.04,1.1,0,,,,
,,666e123eb6aff45cf5be575e,6685aa9113c938e83b4f1ea0,66fb44014f70bb1f34598d71,2024-09-30_20h38.46.925,WTP_SM_Choice,2022.2.1,Linux x86_64,60.24096386,,,,,,,,,,,,,,,,,,70,,,,,,,,,,0.04,2,1.4797,0,4,4,4,1,Sunbathe on the beach on a deckchair,Watching football on a Sunday morning with my father.,0.05,0.04,1.1,1,,,,
,,666e123eb6aff45cf5be575e,6685aa9113c938e83b4f1ea0,66fb44014f70bb1f34598d71,2024-09-30_20h38.46.925,WTP_SM_Choice,2022.2.1,Linux x86_64,60.24096386,,,,,,,NAN,,NAN,2.08,3.92,,0,69,69,69,1,70,Riley,Rej,Participant_Images/666e123eb6aff45cf5be575e/666e123eb6aff45cf5be575e_Images/666e123eb6aff45cf5be575e_Image_10.jpeg,liked,1.672012706,,,,,,,,,,,,,,,,,,,,,,
,,666e123eb6aff45cf5be575e,6685aa9113c938e83b4f1ea0,66fb44014f70bb1f34598d71,2024-09-30_20h38.46.925,WTP_SM_Choice,2022.2.1,Linux x86_64,60.24096386,,,,,space,0.9996,NAN,,NAN,2.08,3.92,,0,70,70,70,1,71,Riley,Rej,Participant_Images/666e123eb6aff45cf5be575e/666e123eb6aff45cf5be575e_Images/666e123eb6aff45cf5be575e_Image_18.jpeg,did not like,4.942172136,,,,,,,,,,,,,,,,,,,,,,
,,666e123eb6aff45cf5be575e,6685aa9113c938e83b4f1ea0,66fb44014f70bb1f34598d71,2024-09-30_20h38.46.925,WTP_SM_Choice,2022.2.1,Linux x86_64,60.24096386,,,,,space,0.9461,NAN,,NAN,2.08,3.92,,0,71,71,71,1,72,Riley,Rej,Participant_Images/666e123eb6aff45cf5be575e/666e123eb6aff45cf5be575e_Images/666e123eb6aff45cf5be575e_Image_16.jpeg,did not like,2.50187214,,,,,,,,,,,,,,,,,,,,,,
,,666e123eb6aff45cf5be575e,6685aa9113c938e83b4f1ea0,66fb44014f70bb1f34598d71,2024-09-30_20h38.46.925,WTP_SM_Choice,2022.2.1,Linux x86_64,60.24096386,,,,,space,1.0152,NAN,,NAN,2.08,3.92,,0,72,72,72,1,73,Riley,Rej,Participant_Images/666e123eb6aff45cf5be575e/666e123eb6aff45cf5be575e_Images/666e123eb6aff45cf5be575e_Image_2.jpeg,did not like,2.071164779,,,,,,,,,,,,,,,,,,,,,,
,,666e123eb6aff45cf5be575e,6685aa9113c938e83b4f1ea0,66fb44014f70bb1f34598d71,2024-09-30_20h38.46.925,WTP_SM_Choice,2022.2.1,Linux x86_64,60.24096386,,,,,space,0.9469,NAN,,NAN,2.08,3.92,,0,73,73,73,1,74,Riley,Rej,Participant_Images/666e123eb6aff45cf5be575e/666e123eb6aff45cf5be575e_Images/666e123eb6aff45cf5be575e_Image_20.jpeg,did not like,5.336503566,,,,,,,,,,,,,,,,,,,,,,
,,666e123eb6aff45cf5be575e,6685aa9113c938e83b4f1ea0,66fb44014f70bb1f34598d71,2024-09-30_20h38.46.925,WTP_SM_Choice,2022.2.1,Linux x86_64,60.24096386,,,,,,,,,,,,,,,,,,71,,,,,,space,2.2093,space,3.2154,0.05,2,2.0261,0,0,0,0,1,Go for a picnic on the beach with my friends,Read a book in the park on a beach towel,0.01,0.05,3.3,0,,,,
,,666e123eb6aff45cf5be575e,6685aa9113c938e83b4f1ea0,66fb44014f70bb1f34598d71,2024-09-30_20h38.46.925,WTP_SM_Choice,2022.2.1,Linux x86_64,60.24096386,,,,,,,,,,,,,,,,,,72,,,,,,,,,,0.02,1,1.4144,0,1,1,1,1,Watch a new Netflix crime documentary in my living room on a rainy day ,Attend an outdoor gym fitness class on a sunny day,0.02,0.05,8.8,1,,,,
,,666e123eb6aff45cf5be575e,6685aa9113c938e83b4f1ea0,66fb44014f70bb1f34598d71,2024-09-30_20h38.46.925,WTP_SM_Choice,2022.2.1,Linux x86_64,60.24096386,,,,,,,,,,,,,,,,,,73,,,,,,,,,,0.03,1,2.6712,0,2,2,2,1,Have a pampering self-care session on a rainy night in my living room,Attend an indoor gym class with my friend on a rainy day,0.03,0.05,3.3,1,,,,
,,666e123eb6aff45cf5be575e,6685aa9113c938e83b4f1ea0,66fb44014f70bb1f34598d71,2024-09-30_20h38.46.925,WTP_SM_Choice,2022.2.1,Linux x86_64,60.24096386,,,,,,,,,,,,,,,,,,74,,,,,,,,,,0.05,2,1.4556,0,3,3,3,1,Attend a group fitness class at the gym on a mild weathered day,Watch a movie on a sunday night with my family,0.04,0.05,4.4,1,,,,
,,666e123eb6aff45cf5be575e,6685aa9113c938e83b4f1ea0,66fb44014f70bb1f34598d71,2024-09-30_20h38.46.925,WTP_SM_Choice,2022.2.1,Linux x86_64,60.24096386,,,,,,,,,,,,,,,,,,75,,,,,,,,,,0.05,2,1.7695,0,4,4,4,1,Do a strength training workout in the gym on a mild weathered day,Watching football on a Sunday morning with my father.,0.05,0.05,3.3,1,,,,
,,666e123eb6aff45cf5be575e,6685aa9113c938e83b4f1ea0,66fb44014f70bb1f34598d71,2024-09-30_20h38.46.925,WTP_SM_Choice,2022.2.1,Linux x86_64,60.24096386,,,,,,,1,,5,2.28,3.72,,0,74,74,74,1,75,Riley,Rej,Participant_Images/666e123eb6aff45cf5be575e/666e123eb6aff45cf5be575e_Images/666e123eb6aff45cf5be575e_Image_15.jpeg,liked,2.642157193,,,,,,,,,,,,,,,,,,,space,1.0043,,
,,666e123eb6aff45cf5be575e,6685aa9113c938e83b4f1ea0,66fb44014f70bb1f34598d71,2024-09-30_20h38.46.925,WTP_SM_Choice,2022.2.1,Linux x86_64,60.24096386,,,space,1.245,space,1.981,NAN,,NAN,2.28,3.72,,0,75,75,75,1,76,Alex,Acc,Participant_Images/666e123eb6aff45cf5be575e/666e123eb6aff45cf5be575e_Images/666e123eb6aff45cf5be575e_Image_7.jpeg,liked,4.456234322,,,,,,,,,,,,,,,,,,,,,,
,,666e123eb6aff45cf5be575e,6685aa9113c938e83b4f1ea0,66fb44014f70bb1f34598d71,2024-09-30_20h38.46.925,WTP_SM_Choice,2022.2.1,Linux x86_64,60.24096386,,,,,space,1.9342,NAN,,NAN,2.28,3.72,,0,76,76,76,1,77,Alex,Acc,Participant_Images/666e123eb6aff45cf5be575e/666e123eb6aff45cf5be575e_Images/666e123eb6aff45cf5be575e_Image_25.jpeg,liked,4.438512181,,,,,,,,,,,,,,,,,,,,,,
,,666e123eb6aff45cf5be575e,6685aa9113c938e83b4f1ea0,66fb44014f70bb1f34598d71,2024-09-30_20h38.46.925,WTP_SM_Choice,2022.2.1,Linux x86_64,60.24096386,,,,,space,0.9659,NAN,,NAN,2.28,3.72,,0,77,77,77,1,78,Alex,Acc,Participant_Images/666e123eb6aff45cf5be575e/666e123eb6aff45cf5be575e_Images/666e123eb6aff45cf5be575e_Image_16.jpeg,did not like,2.682944783,,,,,,,,,,,,,,,,,,,,,,
,,666e123eb6aff45cf5be575e,6685aa9113c938e83b4f1ea0,66fb44014f70bb1f34598d71,2024-09-30_20h38.46.925,WTP_SM_Choice,2022.2.1,Linux x86_64,60.24096386,,,,,space,0.7622,NAN,,NAN,2.28,3.72,,0,78,78,78,1,79,Alex,Acc,Participant_Images/666e123eb6aff45cf5be575e/666e123eb6aff45cf5be575e_Images/666e123eb6aff45cf5be575e_Image_9.jpeg,did not like,4.51984296,,,,,,,,,,,,,,,,,,,,,,
,,666e123eb6aff45cf5be575e,6685aa9113c938e83b4f1ea0,66fb44014f70bb1f34598d71,2024-09-30_20h38.46.925,WTP_SM_Choice,2022.2.1,Linux x86_64,60.24096386,,,,,,,,,,,,,,,,,,76,,,,,,space,0.6179,space,0.5273,0.01,1,1.3063,0,0,0,0,1,Watch a new Netflix crime documentary in my living room on a rainy day ,Go for a picnic on the beach with my friends,0.01,0.01,1.1,1,,,,
,,666e123eb6aff45cf5be575e,6685aa9113c938e83b4f1ea0,66fb44014f70bb1f34598d71,2024-09-30_20h38.46.925,WTP_SM_Choice,2022.2.1,Linux x86_64,60.24096386,,,,,,,,,,,,,,,,,,77,,,,,,,,,,0.02,1,1.9398,0,1,1,1,1,Watch reality television shows on a thursday night with my mother,Watch a new Netflix crime documentary in my living room on a rainy day ,0.02,0.01,8.8,0,,,,
,,666e123eb6aff45cf5be575e,6685aa9113c938e83b4f1ea0,66fb44014f70bb1f34598d71,2024-09-30_20h38.46.925,WTP_SM_Choice,2022.2.1,Linux x86_64,60.24096386,,,,,,,,,,,,,,,,,,78,,,,,,,,,,0.01,2,2.6108,0,2,2,2,1,Do a strength training workout in the gym on a mild weathered day,Watch reality television shows on a thursday night with my mother,0.03,0.01,1.1,1,,,,
,,666e123eb6aff45cf5be575e,6685aa9113c938e83b4f1ea0,66fb44014f70bb1f34598d71,2024-09-30_20h38.46.925,WTP_SM_Choice,2022.2.1,Linux x86_64,60.24096386,,,,,,,,,,,,,,,,,,79,,,,,,,,,,0.04,1,1.7044,0,3,3,3,1,Play video games with my brother on a chilly day,Have a pampering self-care session on a rainy night in my living room,0.04,0.01,1.1,0,,,,
,,666e123eb6aff45cf5be575e,6685aa9113c938e83b4f1ea0,66fb44014f70bb1f34598d71,2024-09-30_20h38.46.925,WTP_SM_Choice,2022.2.1,Linux x86_64,60.24096386,,,,,,,,,,,,,,,,,,80,,,,,,,,,,0.05,1,1.2843,0,4,4,4,1,Go to a sushi restaraunt with my best friend on a friday evening,Go for an outdoor group hike around a national park on a sunny day,0.05,0.01,4.4,0,,,,
,,666e123eb6aff45cf5be575e,6685aa9113c938e83b4f1ea0,66fb44014f70bb1f34598d71,2024-09-30_20h38.46.925,WTP_SM_Choice,2022.2.1,Linux x86_64,60.24096386,,,,,,,NAN,,NAN,2.41,3.59,,0,79,79,79,1,80,Alex,Acc,Participant_Images/666e123eb6aff45cf5be575e/666e123eb6aff45cf5be575e_Images/666e123eb6aff45cf5be575e_Image_24.jpeg,liked,3.195382774,,,,,,,,,,,,,,,,,,,,,,
,,666e123eb6aff45cf5be575e,6685aa9113c938e83b4f1ea0,66fb44014f70bb1f34598d71,2024-09-30_20h38.46.925,WTP_SM_Choice,2022.2.1,Linux x86_64,60.24096386,,,,,space,1.1797,NAN,,NAN,2.41,3.59,,0,80,80,80,1,81,Alex,Acc,Participant_Images/666e123eb6aff45cf5be575e/666e123eb6aff45cf5be575e_Images/666e123eb6aff45cf5be575e_Image_19.jpeg,did not like,1.779333479,,,,,,,,,,,,,,,,,,,,,,
,,666e123eb6aff45cf5be575e,6685aa9113c938e83b4f1ea0,66fb44014f70bb1f34598d71,2024-09-30_20h38.46.925,WTP_SM_Choice,2022.2.1,Linux x86_64,60.24096386,,,,,space,2.5874,NAN,,NAN,2.41,3.59,,0,81,81,81,1,82,Alex,Acc,Participant_Images/666e123eb6aff45cf5be575e/666e123eb6aff45cf5be575e_Images/666e123eb6aff45cf5be575e_Image_8.jpeg,liked,4.312468682,,,,,,,,,,,,,,,,,,,,,,
,,666e123eb6aff45cf5be575e,6685aa9113c938e83b4f1ea0,66fb44014f70bb1f34598d71,2024-09-30_20h38.46.925,WTP_SM_Choice,2022.2.1,Linux x86_64,60.24096386,,,,,space,0.6767,NAN,,NAN,2.41,3.59,,0,82,82,82,1,83,Alex,Acc,Participant_Images/666e123eb6aff45cf5be575e/666e123eb6aff45cf5be575e_Images/666e123eb6aff45cf5be575e_Image_23.jpeg,liked,4.940433059,,,,,,,,,,,,,,,,,,,,,,
,,666e123eb6aff45cf5be575e,6685aa9113c938e83b4f1ea0,66fb44014f70bb1f34598d71,2024-09-30_20h38.46.925,WTP_SM_Choice,2022.2.1,Linux x86_64,60.24096386,,,,,space,4.1325,NAN,,NAN,2.41,3.59,,0,83,83,83,1,84,Alex,Acc,Participant_Images/666e123eb6aff45cf5be575e/666e123eb6aff45cf5be575e_Images/666e123eb6aff45cf5be575e_Image_10.jpeg,liked,2.7105123,,,,,,,,,,,,,,,,,,,,,,
,,666e123eb6aff45cf5be575e,6685aa9113c938e83b4f1ea0,66fb44014f70bb1f34598d71,2024-09-30_20h38.46.925,WTP_SM_Choice,2022.2.1,Linux x86_64,60.24096386,,,,,,,,,,,,,,,,,,81,,,,,,space,1.0029,space,0.6457,0.02,2,2.0076,0,0,0,0,1,Do yoga outdoors on the beach on a sunny day,Go to a sushi restaraunt with my best friend on a friday evening,0.01,0.02,3.3,1,,,,
,,666e123eb6aff45cf5be575e,6685aa9113c938e83b4f1ea0,66fb44014f70bb1f34598d71,2024-09-30_20h38.46.925,WTP_SM_Choice,2022.2.1,Linux x86_64,60.24096386,,,,,,,,,,,,,,,,,,82,,,,,,,,,,0.02,2,1.3818,0,1,1,1,1,Organize future travel plans in my room on a windy day,Watch reality television shows on a thursday night with my mother,0.02,0.02,4.4,1,,,,
,,666e123eb6aff45cf5be575e,6685aa9113c938e83b4f1ea0,66fb44014f70bb1f34598d71,2024-09-30_20h38.46.925,WTP_SM_Choice,2022.2.1,Linux x86_64,60.24096386,,,,,,,,,,,,,,,,,,83,,,,,,,,,,0.02,2,1.1796,0,2,2,2,1,Read a book in the park on a beach towel,Have a netflix movie night on a saturday night with my friends,0.03,0.02,1.1,1,,,,
,,666e123eb6aff45cf5be575e,6685aa9113c938e83b4f1ea0,66fb44014f70bb1f34598d71,2024-09-30_20h38.46.925,WTP_SM_Choice,2022.2.1,Linux x86_64,60.24096386,,,,,,,,,,,,,,,,,,84,,,,,,,,,,0.02,2,2.7593,0,3,3,3,1,Attend an outdoor gym fitness class on a sunny day,Sunbathe on the beach on a deckchair,0.04,0.02,3.3,0,,,,
,,666e123eb6aff45cf5be575e,6685aa9113c938e83b4f1ea0,66fb44014f70bb1f34598d71,2024-09-30_20h38.46.925,WTP_SM_Choice,2022.2.1,Linux x86_64,60.24096386,,,,,,,,,,,,,,,,,,85,,,,,,,,,,0.02,2,1.7157,0,4,4,4,1,Attend a group fitness class at the gym on a mild weathered day,Attend an indoor gym class with my friend on a rainy day,0.05,0.02,3.3,1,,,,
,,666e123eb6aff45cf5be575e,6685aa9113c938e83b4f1ea0,66fb44014f70bb1f34598d71,2024-09-30_20h38.46.925,WTP_SM_Choice,2022.2.1,Linux x86_64,60.24096386,,,,,,,NAN,,NAN,2.51,3.49,,0,84,84,84,1,85,Alex,Acc,Participant_Images/666e123eb6aff45cf5be575e/666e123eb6aff45cf5be575e_Images/666e123eb6aff45cf5be575e_Image_4.jpeg,did not like,3.602308302,,,,,,,,,,,,,,,,,,,,,,
,,666e123eb6aff45cf5be575e,6685aa9113c938e83b4f1ea0,66fb44014f70bb1f34598d71,2024-09-30_20h38.46.925,WTP_SM_Choice,2022.2.1,Linux x86_64,60.24096386,,,,,space,1.0547,NAN,,NAN,2.51,3.49,,0,85,85,85,1,86,Alex,Acc,Participant_Images/666e123eb6aff45cf5be575e/666e123eb6aff45cf5be575e_Images/666e123eb6aff45cf5be575e_Image_3.jpeg,did not like,4.106391878,,,,,,,,,,,,,,,,,,,,,,
,,666e123eb6aff45cf5be575e,6685aa9113c938e83b4f1ea0,66fb44014f70bb1f34598d71,2024-09-30_20h38.46.925,WTP_SM_Choice,2022.2.1,Linux x86_64,60.24096386,,,,,space,3.3259,NAN,,NAN,2.51,3.49,,0,86,86,86,1,87,Alex,Acc,Participant_Images/666e123eb6aff45cf5be575e/666e123eb6aff45cf5be575e_Images/666e123eb6aff45cf5be575e_Image_14.jpeg,liked,3.799433026,,,,,,,,,,,,,,,,,,,,,,
,,666e123eb6aff45cf5be575e,6685aa9113c938e83b4f1ea0,66fb44014f70bb1f34598d71,2024-09-30_20h38.46.925,WTP_SM_Choice,2022.2.1,Linux x86_64,60.24096386,,,,,space,3.5806,NAN,,NAN,2.51,3.49,,0,87,87,87,1,88,Alex,Acc,Participant_Images/666e123eb6aff45cf5be575e/666e123eb6aff45cf5be575e_Images/666e123eb6aff45cf5be575e_Image_6.jpeg,liked,5.246980764,,,,,,,,,,,,,,,,,,,,,,
,,666e123eb6aff45cf5be575e,6685aa9113c938e83b4f1ea0,66fb44014f70bb1f34598d71,2024-09-30_20h38.46.925,WTP_SM_Choice,2022.2.1,Linux x86_64,60.24096386,,,,,space,2.2053,NAN,,NAN,2.51,3.49,,0,88,88,88,1,89,Alex,Acc,Participant_Images/666e123eb6aff45cf5be575e/666e123eb6aff45cf5be575e_Images/666e123eb6aff45cf5be575e_Image_15.jpeg,liked,3.30081769,,,,,,,,,,,,,,,,,,,,,,
,,666e123eb6aff45cf5be575e,6685aa9113c938e83b4f1ea0,66fb44014f70bb1f34598d71,2024-09-30_20h38.46.925,WTP_SM_Choice,2022.2.1,Linux x86_64,60.24096386,,,,,,,,,,,,,,,,,,86,,,,,,space,0.8652,space,0.6142,0.01,1,1.2985,0,0,0,0,1,Go for a picnic on the beach with my friends,Sunbathe on the beach on a deckchair,0.01,0.03,1.1,0,,,,
,,666e123eb6aff45cf5be575e,6685aa9113c938e83b4f1ea0,66fb44014f70bb1f34598d71,2024-09-30_20h38.46.925,WTP_SM_Choice,2022.2.1,Linux x86_64,60.24096386,,,,,,,,,,,,,,,,,,87,,,,,,,,,,0.02,1,1.9655,0,1,1,1,1,Attend an indoor gym class with my friend on a rainy day,Go for an outdoor group hike around a national park on a sunny day,0.02,0.03,4.4,0,,,,
,,666e123eb6aff45cf5be575e,6685aa9113c938e83b4f1ea0,66fb44014f70bb1f34598d71,2024-09-30_20h38.46.925,WTP_SM_Choice,2022.2.1,Linux x86_64,60.24096386,,,,,,,,,,,,,,,,,,88,,,,,,,,,,0.03,2,2.0808,0,2,2,2,1,Go to a sushi restaraunt with my best friend on a friday evening,Attend a group fitness class at the gym on a mild weathered day,0.03,0.03,1.1,0,,,,
,,666e123eb6aff45cf5be575e,6685aa9113c938e83b4f1ea0,66fb44014f70bb1f34598d71,2024-09-30_20h38.46.925,WTP_SM_Choice,2022.2.1,Linux x86_64,60.24096386,,,,,,,,,,,,,,,,,,89,,,,,,,,,,0.04,1,1.4236,0,3,3,3,1,Read a book in my living room on a rainy day,Go for a walk on the beach on a sunny day with my family,0.04,0.03,3.3,1,,,,
,,666e123eb6aff45cf5be575e,6685aa9113c938e83b4f1ea0,66fb44014f70bb1f34598d71,2024-09-30_20h38.46.925,WTP_SM_Choice,2022.2.1,Linux x86_64,60.24096386,,,,,,,,,,,,,,,,,,90,,,,,,,,,,0.05,1,1.0133,0,4,4,4,1,Organize future travel plans in my room on a windy day,Go for a walk on the beach on a sunny day with my family,0.05,0.03,8.8,1,,,,
,,666e123eb6aff45cf5be575e,6685aa9113c938e83b4f1ea0,66fb44014f70bb1f34598d71,2024-09-30_20h38.46.925,WTP_SM_Choice,2022.2.1,Linux x86_64,60.24096386,,,,,,,NAN,,NAN,2.66,3.34,,0,89,89,89,1,90,Alex,Acc,Participant_Images/666e123eb6aff45cf5be575e/666e123eb6aff45cf5be575e_Images/666e123eb6aff45cf5be575e_Image_12.jpeg,liked,1.661473164,,,,,,,,,,,,,,,,,,,,,,
,,666e123eb6aff45cf5be575e,6685aa9113c938e83b4f1ea0,66fb44014f70bb1f34598d71,2024-09-30_20h38.46.925,WTP_SM_Choice,2022.2.1,Linux x86_64,60.24096386,,,,,space,0.9557,NAN,,NAN,2.66,3.34,,0,90,90,90,1,91,Alex,Acc,Participant_Images/666e123eb6aff45cf5be575e/666e123eb6aff45cf5be575e_Images/666e123eb6aff45cf5be575e_Image_13.jpeg,liked,3.613205605,,,,,,,,,,,,,,,,,,,,,,
,,666e123eb6aff45cf5be575e,6685aa9113c938e83b4f1ea0,66fb44014f70bb1f34598d71,2024-09-30_20h38.46.925,WTP_SM_Choice,2022.2.1,Linux x86_64,60.24096386,,,,,space,0.8639,NAN,,NAN,2.66,3.34,,0,91,91,91,1,92,Alex,Acc,Participant_Images/666e123eb6aff45cf5be575e/666e123eb6aff45cf5be575e_Images/666e123eb6aff45cf5be575e_Image_5.jpeg,did not like,4.988446431,,,,,,,,,,,,,,,,,,,,,,
,,666e123eb6aff45cf5be575e,6685aa9113c938e83b4f1ea0,66fb44014f70bb1f34598d71,2024-09-30_20h38.46.925,WTP_SM_Choice,2022.2.1,Linux x86_64,60.24096386,,,,,space,2.3374,NAN,,NAN,2.66,3.34,,0,92,92,92,1,93,Alex,Acc,Participant_Images/666e123eb6aff45cf5be575e/666e123eb6aff45cf5be575e_Images/666e123eb6aff45cf5be575e_Image_18.jpeg,liked,3.470791822,,,,,,,,,,,,,,,,,,,,,,
,,666e123eb6aff45cf5be575e,6685aa9113c938e83b4f1ea0,66fb44014f70bb1f34598d71,2024-09-30_20h38.46.925,WTP_SM_Choice,2022.2.1,Linux x86_64,60.24096386,,,,,space,0.3327,NAN,,NAN,2.66,3.34,,0,93,93,93,1,94,Alex,Acc,Participant_Images/666e123eb6aff45cf5be575e/666e123eb6aff45cf5be575e_Images/666e123eb6aff45cf5be575e_Image_20.jpeg,liked,3.820572462,,,,,,,,,,,,,,,,,,,,,,
,,666e123eb6aff45cf5be575e,6685aa9113c938e83b4f1ea0,66fb44014f70bb1f34598d71,2024-09-30_20h38.46.925,WTP_SM_Choice,2022.2.1,Linux x86_64,60.24096386,,,,,,,,,,,,,,,,,,91,,,,,,space,0.8564,space,0.4825,0.01,1,1.3269,0,0,0,0,1,Play video games with my brother on a chilly day,Read a book in my living room on a rainy day,0.01,0.04,3.3,0,,,,
,,666e123eb6aff45cf5be575e,6685aa9113c938e83b4f1ea0,66fb44014f70bb1f34598d71,2024-09-30_20h38.46.925,WTP_SM_Choice,2022.2.1,Linux x86_64,60.24096386,,,,,,,,,,,,,,,,,,92,,,,,,,,,,0.02,1,1.0578,0,1,1,1,1,Have a netflix movie night on a saturday night with my friends,Do a strength training workout in the gym on a mild weathered day,0.02,0.04,8.8,0,,,,
,,666e123eb6aff45cf5be575e,6685aa9113c938e83b4f1ea0,66fb44014f70bb1f34598d71,2024-09-30_20h38.46.925,WTP_SM_Choice,2022.2.1,Linux x86_64,60.24096386,,,,,,,,,,,,,,,,,,93,,,,,,,,,,0.04,2,1.4324,0,2,2,2,1,Do a strength training workout in the gym on a mild weathered day,Play video games with my brother on a chilly day,0.03,0.04,1.1,1,,,,
,,666e123eb6aff45cf5be575e,6685aa9113c938e83b4f1ea0,66fb44014f70bb1f34598d71,2024-09-30_20h38.46.925,WTP_SM_Choice,2022.2.1,Linux x86_64,60.24096386,,,,,,,,,,,,,,,,,,94,,,,,,,,,,0.04,2,1.3274,0,3,3,3,1,Do yoga outdoors on the beach on a sunny day,Go for a picnic on the beach with my friends,0.04,0.04,4.4,1,,,,
,,666e123eb6aff45cf5be575e,6685aa9113c938e83b4f1ea0,66fb44014f70bb1f34598d71,2024-09-30_20h38.46.925,WTP_SM_Choice,2022.2.1,Linux x86_64,60.24096386,,,,,,,,,,,,,,,,,,95,,,,,,,,,,0.04,2,0.9866,0,4,4,4,1,Read a book in the park on a beach towel,Play video games with my brother on a chilly day,0.05,0.04,4.4,1,,,,
,,666e123eb6aff45cf5be575e,6685aa9113c938e83b4f1ea0,66fb44014f70bb1f34598d71,2024-09-30_20h38.46.925,WTP_SM_Choice,2022.2.1,Linux x86_64,60.24096386,,,,,,,NAN,,NAN,2.81,3.19,,0,94,94,94,1,95,Alex,Acc,Participant_Images/666e123eb6aff45cf5be575e/666e123eb6aff45cf5be575e_Images/666e123eb6aff45cf5be575e_Image_2.jpeg,liked,2.455989137,,,,,,,,,,,,,,,,,,,,,,
,,666e123eb6aff45cf5be575e,6685aa9113c938e83b4f1ea0,66fb44014f70bb1f34598d71,2024-09-30_20h38.46.925,WTP_SM_Choice,2022.2.1,Linux x86_64,60.24096386,,,,,space,1.6076,NAN,,NAN,2.81,3.19,,0,95,95,95,1,96,Alex,Acc,Participant_Images/666e123eb6aff45cf5be575e/666e123eb6aff45cf5be575e_Images/666e123eb6aff45cf5be575e_Image_11.jpeg,liked,3.79605092,,,,,,,,,,,,,,,,,,,,,,
,,666e123eb6aff45cf5be575e,6685aa9113c938e83b4f1ea0,66fb44014f70bb1f34598d71,2024-09-30_20h38.46.925,WTP_SM_Choice,2022.2.1,Linux x86_64,60.24096386,,,,,space,2.6664,NAN,,NAN,2.81,3.19,,0,96,96,96,1,97,Alex,Acc,Participant_Images/666e123eb6aff45cf5be575e/666e123eb6aff45cf5be575e_Images/666e123eb6aff45cf5be575e_Image_1.jpeg,liked,3.562416326,,,,,,,,,,,,,,,,,,,,,,
,,666e123eb6aff45cf5be575e,6685aa9113c938e83b4f1ea0,66fb44014f70bb1f34598d71,2024-09-30_20h38.46.925,WTP_SM_Choice,2022.2.1,Linux x86_64,60.24096386,,,,,space,0.5903,NAN,,NAN,2.81,3.19,,0,97,97,97,1,98,Alex,Acc,Participant_Images/666e123eb6aff45cf5be575e/666e123eb6aff45cf5be575e_Images/666e123eb6aff45cf5be575e_Image_21.jpeg,liked,2.843822497,,,,,,,,,,,,,,,,,,,,,,
,,666e123eb6aff45cf5be575e,6685aa9113c938e83b4f1ea0,66fb44014f70bb1f34598d71,2024-09-30_20h38.46.925,WTP_SM_Choice,2022.2.1,Linux x86_64,60.24096386,,,,,space,0.8925,NAN,,NAN,2.81,3.19,,0,98,98,98,1,99,Alex,Acc,Participant_Images/666e123eb6aff45cf5be575e/666e123eb6aff45cf5be575e_Images/666e123eb6aff45cf5be575e_Image_22.jpeg,liked,3.546495948,,,,,,,,,,,,,,,,,,,,,,
,,666e123eb6aff45cf5be575e,6685aa9113c938e83b4f1ea0,66fb44014f70bb1f34598d71,2024-09-30_20h38.46.925,WTP_SM_Choice,2022.2.1,Linux x86_64,60.24096386,,,,,,,,,,,,,,,,,,96,,,,,,space,2.4331,space,0.8589,0.05,2,1.7113,0,0,0,0,1,Go to a sushi restaraunt with my best friend on a friday evening,Organize future travel plans in my room on a windy day,0.01,0.05,3.3,0,,,,
,,666e123eb6aff45cf5be575e,6685aa9113c938e83b4f1ea0,66fb44014f70bb1f34598d71,2024-09-30_20h38.46.925,WTP_SM_Choice,2022.2.1,Linux x86_64,60.24096386,,,,,,,,,,,,,,,,,,97,,,,,,,,,,0.05,2,1.9371,0,1,1,1,1,Watch a new Netflix crime documentary in my living room on a rainy day ,Go for a walk on the beach on a sunny day with my family,0.02,0.05,1.1,1,,,,
,,666e123eb6aff45cf5be575e,6685aa9113c938e83b4f1ea0,66fb44014f70bb1f34598d71,2024-09-30_20h38.46.925,WTP_SM_Choice,2022.2.1,Linux x86_64,60.24096386,,,,,,,,,,,,,,,,,,98,,,,,,,,,,0.05,2,2.2674,0,2,2,2,1,Go to a sushi restaraunt with my best friend on a friday evening,Do a strength training workout in the gym on a mild weathered day,0.03,0.05,1.1,0,,,,
,,666e123eb6aff45cf5be575e,6685aa9113c938e83b4f1ea0,66fb44014f70bb1f34598d71,2024-09-30_20h38.46.925,WTP_SM_Choice,2022.2.1,Linux x86_64,60.24096386,,,,,,,,,,,,,,,,,,99,,,,,,,,,,0.04,1,1.0836,0,3,3,3,1,Go for a walk on the beach on a sunny day with my family,Go for an outdoor group hike around a national park on a sunny day,0.04,0.05,3.3,0,,,,
,,666e123eb6aff45cf5be575e,6685aa9113c938e83b4f1ea0,66fb44014f70bb1f34598d71,2024-09-30_20h38.46.925,WTP_SM_Choice,2022.2.1,Linux x86_64,60.24096386,,,,,,,,,,,,,,,,,,100,,,,,,,,,,0.05,2,2.2228,0,4,4,4,1,Go to a sushi restaraunt with my best friend on a friday evening,Sunbathe on the beach on a deckchair,0.05,0.05,4.4,0,,,,
,,666e123eb6aff45cf5be575e,6685aa9113c938e83b4f1ea0,66fb44014f70bb1f34598d71,2024-09-30_20h38.46.925,WTP_SM_Choice,2022.2.1,Linux x86_64,60.24096386,,,,,,,4,,7,3.05,2.95,,0,99,99,99,1,100,Alex,Acc,Participant_Images/666e123eb6aff45cf5be575e/666e123eb6aff45cf5be575e_Images/666e123eb6aff45cf5be575e_Image_17.jpeg,did not like,1.672012706,,,,,,,,,,,,,,,,,,,space,0.9932,,
,,666e123eb6aff45cf5be575e,6685aa9113c938e83b4f1ea0,66fb44014f70bb1f34598d71,2024-09-30_20h38.46.925,WTP_SM_Choice,2022.2.1,Linux x86_64,60.24096386,,,,,,,,,,,,,,,,,,,,,,,,,,,,,,,,,,,,,,,,,,,,space,1.5474
