endwelcomescreen_keys.keys,endwelcomescreen_keys.rt,participant,date,expName,psychopyVersion,OS,frameRate,endinstructionscreen_keys.keys,endinstructionscreen_keys.rt,endpartnermatch_keys.keys,endpartnermatch_keys.rt,sharenextphoto_key.keys,sharenextphoto_key.rt,salience_rating,key_resp.keys,stress_level,subtract_bonus,TOTAL_TASK_BONUS,stresslevel_keypress.keys,entiretaskloop.thisRepN,entiretaskloop.thisTrialN,entiretaskloop.thisN,entiretaskloop.thisIndex,entiretaskloop.ran,TrialNumber,Partner,Condition,Photos,Feedback,FeedbackWait,WTP_ins_keys1.keys,WTP_ins_keys1.rt,WTP_ins_keys2.keys,WTP_ins_keys2.rt,decision_price,responses.keys,responses.rt,WTPTaskLoop.thisRepN,WTPTaskLoop.thisTrialN,WTPTaskLoop.thisN,WTPTaskLoop.thisIndex,WTPTaskLoop.ran,right,left,leftmoney,rightmoney,WTP_ITI,social_left,Resume_keys.keys,Resume_keys.rt,key_resp.rt,end_screen_keys.keys,end_screen_keys.rt
space,15.0022,6670297f1e47e468c3605ef4,2024-07-22_11h50.17.054,WTP_SM_Choice,2022.2.1,Win32,59.88023952,,,,,,,,,,,,,,,,,,,,,,,,,,,,,,,,,,,,,,,,,,,,,,
,,6670297f1e47e468c3605ef4,2024-07-22_11h50.17.054,WTP_SM_Choice,2022.2.1,Win32,59.88023952,space,18.6548,,,,,,,,,,,,,,,,,,,,,,,,,,,,,,,,,,,,,,,,,,,,
,,6670297f1e47e468c3605ef4,2024-07-22_11h50.17.054,WTP_SM_Choice,2022.2.1,Win32,59.88023952,,,space,3.4018,space,1.1523,NAN,,NAN,0,6,,0,0,0,0,1,1,Sam,Rej,Participant_Images/6670297f1e47e468c3605ef4/6670297f1e47e468c3605ef4_Images/6670297f1e47e468c3605ef4_Image_25.jpeg,did not like,3.613205605,,,,,,,,,,,,,,,,,,,,,,,
,,6670297f1e47e468c3605ef4,2024-07-22_11h50.17.054,WTP_SM_Choice,2022.2.1,Win32,59.88023952,,,,,space,1.2673,NAN,,NAN,0,6,,0,1,1,1,1,2,Sam,Rej,Participant_Images/6670297f1e47e468c3605ef4/6670297f1e47e468c3605ef4_Images/6670297f1e47e468c3605ef4_Image_21.jpeg,liked,4.988446431,,,,,,,,,,,,,,,,,,,,,,,
,,6670297f1e47e468c3605ef4,2024-07-22_11h50.17.054,WTP_SM_Choice,2022.2.1,Win32,59.88023952,,,,,space,4.2844,NAN,,NAN,0,6,,0,2,2,2,1,3,Sam,Rej,Participant_Images/6670297f1e47e468c3605ef4/6670297f1e47e468c3605ef4_Images/6670297f1e47e468c3605ef4_Image_12.jpeg,did not like,3.470791822,,,,,,,,,,,,,,,,,,,,,,,
,,6670297f1e47e468c3605ef4,2024-07-22_11h50.17.054,WTP_SM_Choice,2022.2.1,Win32,59.88023952,,,,,space,7.6237,NAN,,NAN,0,6,,0,3,3,3,1,4,Sam,Rej,Participant_Images/6670297f1e47e468c3605ef4/6670297f1e47e468c3605ef4_Images/6670297f1e47e468c3605ef4_Image_15.jpeg,did not like,3.820572462,,,,,,,,,,,,,,,,,,,,,,,
,,6670297f1e47e468c3605ef4,2024-07-22_11h50.17.054,WTP_SM_Choice,2022.2.1,Win32,59.88023952,,,,,,,,,,,,,,,,,,1,,,,,,space,21.54,space,9.7148,0.01,1,8.1881,0,0,0,0,1,watch football all day on sunday during the football season and eating pizza,Try new bars with friends,0.01,0.01,4.4,1,,,,,
,,6670297f1e47e468c3605ef4,2024-07-22_11h50.17.054,WTP_SM_Choice,2022.2.1,Win32,59.88023952,,,,,,,,,,,,,,,,,,2,,,,,,,,,,0.01,2,5.1893,0,1,1,1,1,Play video games in my room on my pc that i built,Go on hikes with friends,0.02,0.01,8.8,1,,,,,
,,6670297f1e47e468c3605ef4,2024-07-22_11h50.17.054,WTP_SM_Choice,2022.2.1,Win32,59.88023952,,,,,,,,,,,,,,,,,,3,,,,,,,,,,0.01,2,3.7371,0,2,2,2,1,Try new restaraunts that i've never been to in my area,Barbeque with friends and family in a park,0.03,0.01,3.3,1,,,,,
,,6670297f1e47e468c3605ef4,2024-07-22_11h50.17.054,WTP_SM_Choice,2022.2.1,Win32,59.88023952,,,,,,,,,,,,,,,,,,4,,,,,,,,,,0.04,1,2.9275,0,3,3,3,1,Try new restaraunts that i've never been to in my area,Play games online with friends,0.04,0.01,1.1,1,,,,,
,,6670297f1e47e468c3605ef4,2024-07-22_11h50.17.054,WTP_SM_Choice,2022.2.1,Win32,59.88023952,,,,,,,,,,,,,,,,,,5,,,,,,,,,,0.01,2,5.2489,0,4,4,4,1,Listen to music with my new Bose headphones under a blanket,Go on hikes with friends,0.05,0.01,1.1,1,,,,,
,,6670297f1e47e468c3605ef4,2024-07-22_11h50.17.054,WTP_SM_Choice,2022.2.1,Win32,59.88023952,,,,,,,NAN,,NAN,0.08,5.92,,0,4,4,4,1,5,Sam,Rej,Participant_Images/6670297f1e47e468c3605ef4/6670297f1e47e468c3605ef4_Images/6670297f1e47e468c3605ef4_Image_24.jpeg,did not like,2.455989137,,,,,,,,,,,,,,,,,,,,,,,
,,6670297f1e47e468c3605ef4,2024-07-22_11h50.17.054,WTP_SM_Choice,2022.2.1,Win32,59.88023952,,,,,space,1.0414,NAN,,NAN,0.08,5.92,,0,5,5,5,1,6,Sam,Rej,Participant_Images/6670297f1e47e468c3605ef4/6670297f1e47e468c3605ef4_Images/6670297f1e47e468c3605ef4_Image_9.jpeg,did not like,3.79605092,,,,,,,,,,,,,,,,,,,,,,,
,,6670297f1e47e468c3605ef4,2024-07-22_11h50.17.054,WTP_SM_Choice,2022.2.1,Win32,59.88023952,,,,,space,2.024,NAN,,NAN,0.08,5.92,,0,6,6,6,1,7,Sam,Rej,Participant_Images/6670297f1e47e468c3605ef4/6670297f1e47e468c3605ef4_Images/6670297f1e47e468c3605ef4_Image_10.jpeg,did not like,3.562416326,,,,,,,,,,,,,,,,,,,,,,,
,,6670297f1e47e468c3605ef4,2024-07-22_11h50.17.054,WTP_SM_Choice,2022.2.1,Win32,59.88023952,,,,,space,1.0118,NAN,,NAN,0.08,5.92,,0,7,7,7,1,8,Sam,Rej,Participant_Images/6670297f1e47e468c3605ef4/6670297f1e47e468c3605ef4_Images/6670297f1e47e468c3605ef4_Image_17.jpeg,liked,2.843822497,,,,,,,,,,,,,,,,,,,,,,,
,,6670297f1e47e468c3605ef4,2024-07-22_11h50.17.054,WTP_SM_Choice,2022.2.1,Win32,59.88023952,,,,,space,0.7119,NAN,,NAN,0.08,5.92,,0,8,8,8,1,9,Sam,Rej,Participant_Images/6670297f1e47e468c3605ef4/6670297f1e47e468c3605ef4_Images/6670297f1e47e468c3605ef4_Image_1.jpeg,did not like,3.546495948,,,,,,,,,,,,,,,,,,,,,,,
,,6670297f1e47e468c3605ef4,2024-07-22_11h50.17.054,WTP_SM_Choice,2022.2.1,Win32,59.88023952,,,,,,,,,,,,,,,,,,6,,,,,,space,9.5758,space,6.6191,0.02,2,3.8488,0,0,0,0,1,Watch new anime with friends,read books outside under our tree in the shade,0.01,0.02,3.3,0,,,,,
,,6670297f1e47e468c3605ef4,2024-07-22_11h50.17.054,WTP_SM_Choice,2022.2.1,Win32,59.88023952,,,,,,,,,,,,,,,,,,7,,,,,,,,,,0.02,1,4.9979,0,1,1,1,1,Barbeque with friends and family in a park,Cook new foods that i've never attempted to make in hopes that i can perfect it,0.02,0.02,1.1,0,,,,,
,,6670297f1e47e468c3605ef4,2024-07-22_11h50.17.054,WTP_SM_Choice,2022.2.1,Win32,59.88023952,,,,,,,,,,,,,,,,,,8,,,,,,,,,,0.02,2,6.2602,0,2,2,2,1,Watch new anime with friends,Play video games in my room on my pc that i built,0.03,0.02,1.1,0,,,,,
,,6670297f1e47e468c3605ef4,2024-07-22_11h50.17.054,WTP_SM_Choice,2022.2.1,Win32,59.88023952,,,,,,,,,,,,,,,,,,9,,,,,,,,,,0.04,1,2.3781,0,3,3,3,1,Try new bars with friends,Play video games in my room on my pc that i built,0.04,0.02,4.4,0,,,,,
,,6670297f1e47e468c3605ef4,2024-07-22_11h50.17.054,WTP_SM_Choice,2022.2.1,Win32,59.88023952,,,,,,,,,,,,,,,,,,10,,,,,,,,,,0.02,2,5.1404,0,4,4,4,1,Try new bars with friends,Cook new foods that i've never attempted to make in hopes that i can perfect it,0.05,0.02,1.1,0,,,,,
,,6670297f1e47e468c3605ef4,2024-07-22_11h50.17.054,WTP_SM_Choice,2022.2.1,Win32,59.88023952,,,,,,,NAN,,NAN,0.2,5.8,,0,9,9,9,1,10,Sam,Rej,Participant_Images/6670297f1e47e468c3605ef4/6670297f1e47e468c3605ef4_Images/6670297f1e47e468c3605ef4_Image_22.jpeg,liked,1.672012706,,,,,,,,,,,,,,,,,,,,,,,
,,6670297f1e47e468c3605ef4,2024-07-22_11h50.17.054,WTP_SM_Choice,2022.2.1,Win32,59.88023952,,,,,space,6.0176,NAN,,NAN,0.2,5.8,,0,10,10,10,1,11,Sam,Rej,Participant_Images/6670297f1e47e468c3605ef4/6670297f1e47e468c3605ef4_Images/6670297f1e47e468c3605ef4_Image_13.jpeg,liked,4.942172136,,,,,,,,,,,,,,,,,,,,,,,
,,6670297f1e47e468c3605ef4,2024-07-22_11h50.17.054,WTP_SM_Choice,2022.2.1,Win32,59.88023952,,,,,space,1.9785,NAN,,NAN,0.2,5.8,,0,11,11,11,1,12,Sam,Rej,Participant_Images/6670297f1e47e468c3605ef4/6670297f1e47e468c3605ef4_Images/6670297f1e47e468c3605ef4_Image_11.jpeg,liked,2.50187214,,,,,,,,,,,,,,,,,,,,,,,
,,6670297f1e47e468c3605ef4,2024-07-22_11h50.17.054,WTP_SM_Choice,2022.2.1,Win32,59.88023952,,,,,space,1.0581,NAN,,NAN,0.2,5.8,,0,12,12,12,1,13,Sam,Rej,Participant_Images/6670297f1e47e468c3605ef4/6670297f1e47e468c3605ef4_Images/6670297f1e47e468c3605ef4_Image_23.jpeg,did not like,2.071164779,,,,,,,,,,,,,,,,,,,,,,,
,,6670297f1e47e468c3605ef4,2024-07-22_11h50.17.054,WTP_SM_Choice,2022.2.1,Win32,59.88023952,,,,,space,1.8855,NAN,,NAN,0.2,5.8,,0,13,13,13,1,14,Sam,Rej,Participant_Images/6670297f1e47e468c3605ef4/6670297f1e47e468c3605ef4_Images/6670297f1e47e468c3605ef4_Image_3.jpeg,did not like,5.336503566,,,,,,,,,,,,,,,,,,,,,,,
,,6670297f1e47e468c3605ef4,2024-07-22_11h50.17.054,WTP_SM_Choice,2022.2.1,Win32,59.88023952,,,,,,,,,,,,,,,,,,11,,,,,,space,65.7072,space,1.5871,0.03,2,8.2325,0,0,0,0,1,watch football all day on sunday during the football season and eating pizza,Go to concerts with friends and family,0.01,0.03,3.3,1,,,,,
,,6670297f1e47e468c3605ef4,2024-07-22_11h50.17.054,WTP_SM_Choice,2022.2.1,Win32,59.88023952,,,,,,,,,,,,,,,,,,12,,,,,,,,,,0.03,2,3.1108,0,1,1,1,1,Watch new anime with friends,Drive around in the summer with the windows down listening to music,0.02,0.03,4.4,0,,,,,
,,6670297f1e47e468c3605ef4,2024-07-22_11h50.17.054,WTP_SM_Choice,2022.2.1,Win32,59.88023952,,,,,,,,,,,,,,,,,,13,,,,,,,,,,0.03,2,1.9337,0,2,2,2,1,Watch sports with my friends or family,Watch a movie in bed while its raining outside,0.03,0.03,1.1,0,,,,,
,,6670297f1e47e468c3605ef4,2024-07-22_11h50.17.054,WTP_SM_Choice,2022.2.1,Win32,59.88023952,,,,,,,,,,,,,,,,,,14,,,,,,,,,,0.04,1,2.9427,0,3,3,3,1,Cook new foods that i've never attempted to make in hopes that i can perfect it,Watch new anime with friends,0.04,0.03,3.3,1,,,,,
,,6670297f1e47e468c3605ef4,2024-07-22_11h50.17.054,WTP_SM_Choice,2022.2.1,Win32,59.88023952,,,,,,,,,,,,,,,,,,15,,,,,,,,,,0.05,1,2.2929,0,4,4,4,1,read books outside under our tree in the shade,Barbeque with friends and family in a park,0.05,0.03,4.4,1,,,,,
,,6670297f1e47e468c3605ef4,2024-07-22_11h50.17.054,WTP_SM_Choice,2022.2.1,Win32,59.88023952,,,,,,,NAN,,NAN,0.38,5.62,,0,14,14,14,1,15,Sam,Rej,Participant_Images/6670297f1e47e468c3605ef4/6670297f1e47e468c3605ef4_Images/6670297f1e47e468c3605ef4_Image_16.jpeg,did not like,2.642157193,,,,,,,,,,,,,,,,,,,,,,,
,,6670297f1e47e468c3605ef4,2024-07-22_11h50.17.054,WTP_SM_Choice,2022.2.1,Win32,59.88023952,,,,,space,1.0744,NAN,,NAN,0.38,5.62,,0,15,15,15,1,16,Sam,Rej,Participant_Images/6670297f1e47e468c3605ef4/6670297f1e47e468c3605ef4_Images/6670297f1e47e468c3605ef4_Image_2.jpeg,did not like,4.456234322,,,,,,,,,,,,,,,,,,,,,,,
,,6670297f1e47e468c3605ef4,2024-07-22_11h50.17.054,WTP_SM_Choice,2022.2.1,Win32,59.88023952,,,,,space,0.9034,NAN,,NAN,0.38,5.62,,0,16,16,16,1,17,Sam,Rej,Participant_Images/6670297f1e47e468c3605ef4/6670297f1e47e468c3605ef4_Images/6670297f1e47e468c3605ef4_Image_8.jpeg,liked,4.438512181,,,,,,,,,,,,,,,,,,,,,,,
,,6670297f1e47e468c3605ef4,2024-07-22_11h50.17.054,WTP_SM_Choice,2022.2.1,Win32,59.88023952,,,,,space,3.7346,NAN,,NAN,0.38,5.62,,0,17,17,17,1,18,Sam,Rej,Participant_Images/6670297f1e47e468c3605ef4/6670297f1e47e468c3605ef4_Images/6670297f1e47e468c3605ef4_Image_4.jpeg,did not like,2.682944783,,,,,,,,,,,,,,,,,,,,,,,
,,6670297f1e47e468c3605ef4,2024-07-22_11h50.17.054,WTP_SM_Choice,2022.2.1,Win32,59.88023952,,,,,space,6.8789,NAN,,NAN,0.38,5.62,,0,18,18,18,1,19,Sam,Rej,Participant_Images/6670297f1e47e468c3605ef4/6670297f1e47e468c3605ef4_Images/6670297f1e47e468c3605ef4_Image_19.jpeg,did not like,4.51984296,,,,,,,,,,,,,,,,,,,,,,,
,,6670297f1e47e468c3605ef4,2024-07-22_11h50.17.054,WTP_SM_Choice,2022.2.1,Win32,59.88023952,,,,,,,,,,,,,,,,,,16,,,,,,space,29.8063,space,1.7246,0.04,2,5.0827,0,0,0,0,1,Cook with loved ones,Listen to music with my new Bose headphones under a blanket,0.01,0.04,1.1,0,,,,,
,,6670297f1e47e468c3605ef4,2024-07-22_11h50.17.054,WTP_SM_Choice,2022.2.1,Win32,59.88023952,,,,,,,,,,,,,,,,,,17,,,,,,,,,,0.04,2,3.3168,0,1,1,1,1,Go on vacation with friends and or family,Drive around in the summer with the windows down listening to music,0.02,0.04,8.8,0,,,,,
,,6670297f1e47e468c3605ef4,2024-07-22_11h50.17.054,WTP_SM_Choice,2022.2.1,Win32,59.88023952,,,,,,,,,,,,,,,,,,18,,,,,,,,,,0.04,2,2.809,0,2,2,2,1,Try new restaurants with friends,Watch a movie in bed while its raining outside,0.03,0.04,3.3,0,,,,,
,,6670297f1e47e468c3605ef4,2024-07-22_11h50.17.054,WTP_SM_Choice,2022.2.1,Win32,59.88023952,,,,,,,,,,,,,,,,,,19,,,,,,,,,,0.04,1,2.2457,0,3,3,3,1,Cook new foods that i've never attempted to make in hopes that i can perfect it,Play games online with friends,0.04,0.04,3.3,1,,,,,
,,6670297f1e47e468c3605ef4,2024-07-22_11h50.17.054,WTP_SM_Choice,2022.2.1,Win32,59.88023952,,,,,,,,,,,,,,,,,,20,,,,,,,,,,0.04,2,5.0822,0,4,4,4,1,Play games online with friends,watch football all day on sunday during the football season and eating pizza,0.05,0.04,1.1,0,,,,,
,,6670297f1e47e468c3605ef4,2024-07-22_11h50.17.054,WTP_SM_Choice,2022.2.1,Win32,59.88023952,,,,,,,NAN,,NAN,0.58,5.42,,0,19,19,19,1,20,Sam,Rej,Participant_Images/6670297f1e47e468c3605ef4/6670297f1e47e468c3605ef4_Images/6670297f1e47e468c3605ef4_Image_18.jpeg,did not like,3.195382774,,,,,,,,,,,,,,,,,,,,,,,
,,6670297f1e47e468c3605ef4,2024-07-22_11h50.17.054,WTP_SM_Choice,2022.2.1,Win32,59.88023952,,,,,space,0.9338,NAN,,NAN,0.58,5.42,,0,20,20,20,1,21,Sam,Rej,Participant_Images/6670297f1e47e468c3605ef4/6670297f1e47e468c3605ef4_Images/6670297f1e47e468c3605ef4_Image_7.jpeg,liked,1.779333479,,,,,,,,,,,,,,,,,,,,,,,
,,6670297f1e47e468c3605ef4,2024-07-22_11h50.17.054,WTP_SM_Choice,2022.2.1,Win32,59.88023952,,,,,space,0.5872,NAN,,NAN,0.58,5.42,,0,21,21,21,1,22,Sam,Rej,Participant_Images/6670297f1e47e468c3605ef4/6670297f1e47e468c3605ef4_Images/6670297f1e47e468c3605ef4_Image_6.jpeg,did not like,4.312468682,,,,,,,,,,,,,,,,,,,,,,,
,,6670297f1e47e468c3605ef4,2024-07-22_11h50.17.054,WTP_SM_Choice,2022.2.1,Win32,59.88023952,,,,,space,2.3771,NAN,,NAN,0.58,5.42,,0,22,22,22,1,23,Sam,Rej,Participant_Images/6670297f1e47e468c3605ef4/6670297f1e47e468c3605ef4_Images/6670297f1e47e468c3605ef4_Image_14.jpeg,did not like,4.940433059,,,,,,,,,,,,,,,,,,,,,,,
,,6670297f1e47e468c3605ef4,2024-07-22_11h50.17.054,WTP_SM_Choice,2022.2.1,Win32,59.88023952,,,,,space,0.8595,NAN,,NAN,0.58,5.42,,0,23,23,23,1,24,Sam,Rej,Participant_Images/6670297f1e47e468c3605ef4/6670297f1e47e468c3605ef4_Images/6670297f1e47e468c3605ef4_Image_5.jpeg,did not like,2.7105123,,,,,,,,,,,,,,,,,,,,,,,
,,6670297f1e47e468c3605ef4,2024-07-22_11h50.17.054,WTP_SM_Choice,2022.2.1,Win32,59.88023952,,,,,,,,,,,,,,,,,,21,,,,,,space,7.8045,space,2.9733,0.05,2,6.7455,0,0,0,0,1,Go to concerts with friends and family,Listen to music with my new Bose headphones under a blanket,0.01,0.05,8.8,0,,,,,
,,6670297f1e47e468c3605ef4,2024-07-22_11h50.17.054,WTP_SM_Choice,2022.2.1,Win32,59.88023952,,,,,,,,,,,,,,,,,,22,,,,,,,,,,,,,0,1,1,1,1,Watch a movie in bed while its raining outside,Go on hikes with friends,0.02,0.05,4.4,1,,,,,
,,6670297f1e47e468c3605ef4,2024-07-22_11h50.17.054,WTP_SM_Choice,2022.2.1,Win32,59.88023952,,,,,,,,,,,,,,,,,,23,,,,,,,,,,,,,0,2,2,2,1,Drive around in the summer with the windows down listening to music,Play games online with friends,0.03,0.05,1.1,1,,,,,
,,6670297f1e47e468c3605ef4,2024-07-22_11h50.17.054,WTP_SM_Choice,2022.2.1,Win32,59.88023952,,,,,,,,,,,,,,,,,,24,,,,,,,,,,,,,0,3,3,3,1,Go on vacation with friends and or family,Watch a movie in bed while its raining outside,0.04,0.05,4.4,0,,,,,
,,6670297f1e47e468c3605ef4,2024-07-22_11h50.17.054,WTP_SM_Choice,2022.2.1,Win32,59.88023952,,,,,,,,,,,,,,,,,,25,,,,,,,,,,0.05,2,7.9376,0,4,4,4,1,Go on vacation with friends and or family,watch football all day on sunday during the football season and eating pizza,0.05,0.05,3.3,0,,,,,
,,6670297f1e47e468c3605ef4,2024-07-22_11h50.17.054,WTP_SM_Choice,2022.2.1,Win32,59.88023952,,,,,,,2,space,9,0.68,5.32,,0,24,24,24,1,25,Sam,Rej,Participant_Images/6670297f1e47e468c3605ef4/6670297f1e47e468c3605ef4_Images/6670297f1e47e468c3605ef4_Image_20.jpeg,did not like,3.602308302,,,,,,,,,,,,,,,,,,,space,1.0533,14.6914,,
,,6670297f1e47e468c3605ef4,2024-07-22_11h50.17.054,WTP_SM_Choice,2022.2.1,Win32,59.88023952,,,space,2.6141,space,1.3035,NAN,,NAN,0.68,5.32,,0,25,25,25,1,26,Riley,Acc,Participant_Images/6670297f1e47e468c3605ef4/6670297f1e47e468c3605ef4_Images/6670297f1e47e468c3605ef4_Image_18.jpeg,did not like,4.106391878,,,,,,,,,,,,,,,,,,,,,,,
,,6670297f1e47e468c3605ef4,2024-07-22_11h50.17.054,WTP_SM_Choice,2022.2.1,Win32,59.88023952,,,,,space,71.8914,NAN,,NAN,0.68,5.32,,0,26,26,26,1,27,Riley,Acc,Participant_Images/6670297f1e47e468c3605ef4/6670297f1e47e468c3605ef4_Images/6670297f1e47e468c3605ef4_Image_20.jpeg,liked,3.799433026,,,,,,,,,,,,,,,,,,,,,,,
,,6670297f1e47e468c3605ef4,2024-07-22_11h50.17.054,WTP_SM_Choice,2022.2.1,Win32,59.88023952,,,,,space,2.9515,NAN,,NAN,0.68,5.32,,0,27,27,27,1,28,Riley,Acc,Participant_Images/6670297f1e47e468c3605ef4/6670297f1e47e468c3605ef4_Images/6670297f1e47e468c3605ef4_Image_14.jpeg,did not like,5.246980764,,,,,,,,,,,,,,,,,,,,,,,
,,6670297f1e47e468c3605ef4,2024-07-22_11h50.17.054,WTP_SM_Choice,2022.2.1,Win32,59.88023952,,,,,space,1.3987,NAN,,NAN,0.68,5.32,,0,28,28,28,1,29,Riley,Acc,Participant_Images/6670297f1e47e468c3605ef4/6670297f1e47e468c3605ef4_Images/6670297f1e47e468c3605ef4_Image_2.jpeg,liked,3.30081769,,,,,,,,,,,,,,,,,,,,,,,
,,6670297f1e47e468c3605ef4,2024-07-22_11h50.17.054,WTP_SM_Choice,2022.2.1,Win32,59.88023952,,,,,,,,,,,,,,,,,,26,,,,,,space,6.2606,space,4.3116,0.01,1,2.1861,0,0,0,0,1,Try new restaraunts that i've never been to in my area,Watch sports with my friends or family,0.01,0.01,4.4,1,,,,,
,,6670297f1e47e468c3605ef4,2024-07-22_11h50.17.054,WTP_SM_Choice,2022.2.1,Win32,59.88023952,,,,,,,,,,,,,,,,,,27,,,,,,,,,,0.02,1,1.9455,0,1,1,1,1,Listen to music with my new Bose headphones under a blanket,Play games online with friends,0.02,0.01,3.3,1,,,,,
,,6670297f1e47e468c3605ef4,2024-07-22_11h50.17.054,WTP_SM_Choice,2022.2.1,Win32,59.88023952,,,,,,,,,,,,,,,,,,28,,,,,,,,,,0.03,1,2.554,0,2,2,2,1,Listen to music with my new Bose headphones under a blanket,Go on vacation with friends and or family,0.03,0.01,3.3,1,,,,,
,,6670297f1e47e468c3605ef4,2024-07-22_11h50.17.054,WTP_SM_Choice,2022.2.1,Win32,59.88023952,,,,,,,,,,,,,,,,,,29,,,,,,,,,,0.04,1,6.1719,0,3,3,3,1,Work out in my garage with music blasting in the background,Try new restaurants with friends,0.04,0.01,4.4,1,,,,,
,,6670297f1e47e468c3605ef4,2024-07-22_11h50.17.054,WTP_SM_Choice,2022.2.1,Win32,59.88023952,,,,,,,,,,,,,,,,,,30,,,,,,,,,,0.05,1,7.8735,0,4,4,4,1,read books outside under our tree in the shade,Go on hikes with friends,0.05,0.01,8.8,1,,,,,
,,6670297f1e47e468c3605ef4,2024-07-22_11h50.17.054,WTP_SM_Choice,2022.2.1,Win32,59.88023952,,,,,,,NAN,,NAN,0.83,5.17,,0,29,29,29,1,30,Riley,Acc,Participant_Images/6670297f1e47e468c3605ef4/6670297f1e47e468c3605ef4_Images/6670297f1e47e468c3605ef4_Image_19.jpeg,liked,1.661473164,,,,,,,,,,,,,,,,,,,,,,,
,,6670297f1e47e468c3605ef4,2024-07-22_11h50.17.054,WTP_SM_Choice,2022.2.1,Win32,59.88023952,,,,,space,4.1584,NAN,,NAN,0.83,5.17,,0,30,30,30,1,31,Riley,Acc,Participant_Images/6670297f1e47e468c3605ef4/6670297f1e47e468c3605ef4_Images/6670297f1e47e468c3605ef4_Image_6.jpeg,liked,3.613205605,,,,,,,,,,,,,,,,,,,,,,,
,,6670297f1e47e468c3605ef4,2024-07-22_11h50.17.054,WTP_SM_Choice,2022.2.1,Win32,59.88023952,,,,,space,1.0886,NAN,,NAN,0.83,5.17,,0,31,31,31,1,32,Riley,Acc,Participant_Images/6670297f1e47e468c3605ef4/6670297f1e47e468c3605ef4_Images/6670297f1e47e468c3605ef4_Image_8.jpeg,liked,4.988446431,,,,,,,,,,,,,,,,,,,,,,,
,,6670297f1e47e468c3605ef4,2024-07-22_11h50.17.054,WTP_SM_Choice,2022.2.1,Win32,59.88023952,,,,,space,0.7254,NAN,,NAN,0.83,5.17,,0,32,32,32,1,33,Riley,Acc,Participant_Images/6670297f1e47e468c3605ef4/6670297f1e47e468c3605ef4_Images/6670297f1e47e468c3605ef4_Image_23.jpeg,liked,3.470791822,,,,,,,,,,,,,,,,,,,,,,,
,,6670297f1e47e468c3605ef4,2024-07-22_11h50.17.054,WTP_SM_Choice,2022.2.1,Win32,59.88023952,,,,,space,1.1038,NAN,,NAN,0.83,5.17,,0,33,33,33,1,34,Riley,Acc,Participant_Images/6670297f1e47e468c3605ef4/6670297f1e47e468c3605ef4_Images/6670297f1e47e468c3605ef4_Image_4.jpeg,liked,3.820572462,,,,,,,,,,,,,,,,,,,,,,,
,,6670297f1e47e468c3605ef4,2024-07-22_11h50.17.054,WTP_SM_Choice,2022.2.1,Win32,59.88023952,,,,,,,,,,,,,,,,,,31,,,,,,space,0.1704,space,1.2059,0.01,1,2.4545,0,0,0,0,1,Drive around in the summer with the windows down listening to music,Try new restaurants with friends,0.01,0.02,8.8,1,,,,,
,,6670297f1e47e468c3605ef4,2024-07-22_11h50.17.054,WTP_SM_Choice,2022.2.1,Win32,59.88023952,,,,,,,,,,,,,,,,,,32,,,,,,,,,,,,,0,1,1,1,1,Try new bars with friends,Drive around in the summer with the windows down listening to music,0.02,0.02,1.1,0,,,,,
,,6670297f1e47e468c3605ef4,2024-07-22_11h50.17.054,WTP_SM_Choice,2022.2.1,Win32,59.88023952,,,,,,,,,,,,,,,,,,33,,,,,,,,,,0.03,1,1.9366,0,2,2,2,1,Work out in my garage with music blasting in the background,Go on hikes with friends,0.03,0.02,4.4,1,,,,,
,,6670297f1e47e468c3605ef4,2024-07-22_11h50.17.054,WTP_SM_Choice,2022.2.1,Win32,59.88023952,,,,,,,,,,,,,,,,,,34,,,,,,,,,,0.04,1,2.9379,0,3,3,3,1,Try new bars with friends,Try new restaraunts that i've never been to in my area,0.04,0.02,3.3,0,,,,,
,,6670297f1e47e468c3605ef4,2024-07-22_11h50.17.054,WTP_SM_Choice,2022.2.1,Win32,59.88023952,,,,,,,,,,,,,,,,,,35,,,,,,,,,,0.05,1,2.8334,0,4,4,4,1,Walk around in the park on a beautiful sunny day,Cook with loved ones,0.05,0.02,1.1,1,,,,,
,,6670297f1e47e468c3605ef4,2024-07-22_11h50.17.054,WTP_SM_Choice,2022.2.1,Win32,59.88023952,,,,,,,NAN,,NAN,0.96,5.04,,0,34,34,34,1,35,Riley,Acc,Participant_Images/6670297f1e47e468c3605ef4/6670297f1e47e468c3605ef4_Images/6670297f1e47e468c3605ef4_Image_21.jpeg,liked,2.455989137,,,,,,,,,,,,,,,,,,,,,,,
,,6670297f1e47e468c3605ef4,2024-07-22_11h50.17.054,WTP_SM_Choice,2022.2.1,Win32,59.88023952,,,,,space,0.8837,NAN,,NAN,0.96,5.04,,0,35,35,35,1,36,Riley,Acc,Participant_Images/6670297f1e47e468c3605ef4/6670297f1e47e468c3605ef4_Images/6670297f1e47e468c3605ef4_Image_7.jpeg,did not like,3.79605092,,,,,,,,,,,,,,,,,,,,,,,
,,6670297f1e47e468c3605ef4,2024-07-22_11h50.17.054,WTP_SM_Choice,2022.2.1,Win32,59.88023952,,,,,space,1.7871,NAN,,NAN,0.96,5.04,,0,36,36,36,1,37,Riley,Acc,Participant_Images/6670297f1e47e468c3605ef4/6670297f1e47e468c3605ef4_Images/6670297f1e47e468c3605ef4_Image_3.jpeg,did not like,3.562416326,,,,,,,,,,,,,,,,,,,,,,,
,,6670297f1e47e468c3605ef4,2024-07-22_11h50.17.054,WTP_SM_Choice,2022.2.1,Win32,59.88023952,,,,,space,0.468,NAN,,NAN,0.96,5.04,,0,37,37,37,1,38,Riley,Acc,Participant_Images/6670297f1e47e468c3605ef4/6670297f1e47e468c3605ef4_Images/6670297f1e47e468c3605ef4_Image_22.jpeg,did not like,2.843822497,,,,,,,,,,,,,,,,,,,,,,,
,,6670297f1e47e468c3605ef4,2024-07-22_11h50.17.054,WTP_SM_Choice,2022.2.1,Win32,59.88023952,,,,,space,4.185,NAN,,NAN,0.96,5.04,,0,38,38,38,1,39,Riley,Acc,Participant_Images/6670297f1e47e468c3605ef4/6670297f1e47e468c3605ef4_Images/6670297f1e47e468c3605ef4_Image_16.jpeg,liked,3.546495948,,,,,,,,,,,,,,,,,,,,,,,
,,6670297f1e47e468c3605ef4,2024-07-22_11h50.17.054,WTP_SM_Choice,2022.2.1,Win32,59.88023952,,,,,,,,,,,,,,,,,,36,,,,,,space,2.492,space,0.8322,0.03,2,2.885,0,0,0,0,1,Go to concerts with friends and family,Walk around in the park on a beautiful sunny day,0.01,0.03,3.3,0,,,,,
,,6670297f1e47e468c3605ef4,2024-07-22_11h50.17.054,WTP_SM_Choice,2022.2.1,Win32,59.88023952,,,,,,,,,,,,,,,,,,37,,,,,,,,,,0.03,2,2.1599,0,1,1,1,1,Try new bars with friends,Walk around in the park on a beautiful sunny day,0.02,0.03,1.1,0,,,,,
,,6670297f1e47e468c3605ef4,2024-07-22_11h50.17.054,WTP_SM_Choice,2022.2.1,Win32,59.88023952,,,,,,,,,,,,,,,,,,38,,,,,,,,,,0.03,2,1.496,0,2,2,2,1,Watch new anime with friends,Walk around in the park on a beautiful sunny day,0.03,0.03,1.1,0,,,,,
,,6670297f1e47e468c3605ef4,2024-07-22_11h50.17.054,WTP_SM_Choice,2022.2.1,Win32,59.88023952,,,,,,,,,,,,,,,,,,39,,,,,,,,,,0.04,1,4.2484,0,3,3,3,1,watch football all day on sunday during the football season and eating pizza,Barbeque with friends and family in a park,0.04,0.03,3.3,1,,,,,
,,6670297f1e47e468c3605ef4,2024-07-22_11h50.17.054,WTP_SM_Choice,2022.2.1,Win32,59.88023952,,,,,,,,,,,,,,,,,,40,,,,,,,,,,0.05,1,3.5562,0,4,4,4,1,Play video games in my room on my pc that i built,Watch sports with my friends or family,0.05,0.03,4.4,1,,,,,
,,6670297f1e47e468c3605ef4,2024-07-22_11h50.17.054,WTP_SM_Choice,2022.2.1,Win32,59.88023952,,,,,,,NAN,,NAN,1.14,4.86,,0,39,39,39,1,40,Riley,Acc,Participant_Images/6670297f1e47e468c3605ef4/6670297f1e47e468c3605ef4_Images/6670297f1e47e468c3605ef4_Image_9.jpeg,liked,1.672012706,,,,,,,,,,,,,,,,,,,,,,,
,,6670297f1e47e468c3605ef4,2024-07-22_11h50.17.054,WTP_SM_Choice,2022.2.1,Win32,59.88023952,,,,,space,3.2719,NAN,,NAN,1.14,4.86,,0,40,40,40,1,41,Riley,Acc,Participant_Images/6670297f1e47e468c3605ef4/6670297f1e47e468c3605ef4_Images/6670297f1e47e468c3605ef4_Image_10.jpeg,liked,4.942172136,,,,,,,,,,,,,,,,,,,,,,,
,,6670297f1e47e468c3605ef4,2024-07-22_11h50.17.054,WTP_SM_Choice,2022.2.1,Win32,59.88023952,,,,,space,0.4509,NAN,,NAN,1.14,4.86,,0,41,41,41,1,42,Riley,Acc,Participant_Images/6670297f1e47e468c3605ef4/6670297f1e47e468c3605ef4_Images/6670297f1e47e468c3605ef4_Image_15.jpeg,liked,2.50187214,,,,,,,,,,,,,,,,,,,,,,,
,,6670297f1e47e468c3605ef4,2024-07-22_11h50.17.054,WTP_SM_Choice,2022.2.1,Win32,59.88023952,,,,,space,0.4847,NAN,,NAN,1.14,4.86,,0,42,42,42,1,43,Riley,Acc,Participant_Images/6670297f1e47e468c3605ef4/6670297f1e47e468c3605ef4_Images/6670297f1e47e468c3605ef4_Image_25.jpeg,liked,2.071164779,,,,,,,,,,,,,,,,,,,,,,,
,,6670297f1e47e468c3605ef4,2024-07-22_11h50.17.054,WTP_SM_Choice,2022.2.1,Win32,59.88023952,,,,,space,3.4287,NAN,,NAN,1.14,4.86,,0,43,43,43,1,44,Riley,Acc,Participant_Images/6670297f1e47e468c3605ef4/6670297f1e47e468c3605ef4_Images/6670297f1e47e468c3605ef4_Image_17.jpeg,liked,5.336503566,,,,,,,,,,,,,,,,,,,,,,,
,,6670297f1e47e468c3605ef4,2024-07-22_11h50.17.054,WTP_SM_Choice,2022.2.1,Win32,59.88023952,,,,,,,,,,,,,,,,,,41,,,,,,space,0.8283,space,0.5943,0.04,2,2.2576,0,0,0,0,1,Watch sports with my friends or family,Cook new foods that i've never attempted to make in hopes that i can perfect it,0.01,0.04,1.1,0,,,,,
,,6670297f1e47e468c3605ef4,2024-07-22_11h50.17.054,WTP_SM_Choice,2022.2.1,Win32,59.88023952,,,,,,,,,,,,,,,,,,42,,,,,,,,,,0.04,2,2.1598,0,1,1,1,1,Barbeque with friends and family in a park,Walk around in the park on a beautiful sunny day,0.02,0.04,3.3,0,,,,,
,,6670297f1e47e468c3605ef4,2024-07-22_11h50.17.054,WTP_SM_Choice,2022.2.1,Win32,59.88023952,,,,,,,,,,,,,,,,,,43,,,,,,,,,,0.04,2,3.3229,0,2,2,2,1,Go on vacation with friends and or family,Cook new foods that i've never attempted to make in hopes that i can perfect it,0.03,0.04,1.1,0,,,,,
,,6670297f1e47e468c3605ef4,2024-07-22_11h50.17.054,WTP_SM_Choice,2022.2.1,Win32,59.88023952,,,,,,,,,,,,,,,,,,44,,,,,,,,,,0.04,2,2.8025,0,3,3,3,1,Go on vacation with friends and or family,Try new restaraunts that i've never been to in my area,0.04,0.04,1.1,0,,,,,
,,6670297f1e47e468c3605ef4,2024-07-22_11h50.17.054,WTP_SM_Choice,2022.2.1,Win32,59.88023952,,,,,,,,,,,,,,,,,,45,,,,,,,,,,0.04,2,5.4583,0,4,4,4,1,Cook with loved ones,Watch a movie in bed while its raining outside,0.05,0.04,4.4,0,,,,,
,,6670297f1e47e468c3605ef4,2024-07-22_11h50.17.054,WTP_SM_Choice,2022.2.1,Win32,59.88023952,,,,,,,NAN,,NAN,1.34,4.66,,0,44,44,44,1,45,Riley,Acc,Participant_Images/6670297f1e47e468c3605ef4/6670297f1e47e468c3605ef4_Images/6670297f1e47e468c3605ef4_Image_5.jpeg,liked,2.642157193,,,,,,,,,,,,,,,,,,,,,,,
,,6670297f1e47e468c3605ef4,2024-07-22_11h50.17.054,WTP_SM_Choice,2022.2.1,Win32,59.88023952,,,,,space,2.0399,NAN,,NAN,1.34,4.66,,0,45,45,45,1,46,Riley,Acc,Participant_Images/6670297f1e47e468c3605ef4/6670297f1e47e468c3605ef4_Images/6670297f1e47e468c3605ef4_Image_24.jpeg,did not like,4.456234322,,,,,,,,,,,,,,,,,,,,,,,
,,6670297f1e47e468c3605ef4,2024-07-22_11h50.17.054,WTP_SM_Choice,2022.2.1,Win32,59.88023952,,,,,space,0.8415,NAN,,NAN,1.34,4.66,,0,46,46,46,1,47,Riley,Acc,Participant_Images/6670297f1e47e468c3605ef4/6670297f1e47e468c3605ef4_Images/6670297f1e47e468c3605ef4_Image_11.jpeg,liked,4.438512181,,,,,,,,,,,,,,,,,,,,,,,
,,6670297f1e47e468c3605ef4,2024-07-22_11h50.17.054,WTP_SM_Choice,2022.2.1,Win32,59.88023952,,,,,space,0.8861,NAN,,NAN,1.34,4.66,,0,47,47,47,1,48,Riley,Acc,Participant_Images/6670297f1e47e468c3605ef4/6670297f1e47e468c3605ef4_Images/6670297f1e47e468c3605ef4_Image_12.jpeg,liked,2.682944783,,,,,,,,,,,,,,,,,,,,,,,
,,6670297f1e47e468c3605ef4,2024-07-22_11h50.17.054,WTP_SM_Choice,2022.2.1,Win32,59.88023952,,,,,space,1.6389,NAN,,NAN,1.34,4.66,,0,48,48,48,1,49,Riley,Acc,Participant_Images/6670297f1e47e468c3605ef4/6670297f1e47e468c3605ef4_Images/6670297f1e47e468c3605ef4_Image_13.jpeg,did not like,4.51984296,,,,,,,,,,,,,,,,,,,,,,,
,,6670297f1e47e468c3605ef4,2024-07-22_11h50.17.054,WTP_SM_Choice,2022.2.1,Win32,59.88023952,,,,,,,,,,,,,,,,,,46,,,,,,space,5.5589,space,1.4253,0.01,1,3.0136,0,0,0,0,1,Try new restaraunts that i've never been to in my area,Go to concerts with friends and family,0.01,0.05,8.8,1,,,,,
,,6670297f1e47e468c3605ef4,2024-07-22_11h50.17.054,WTP_SM_Choice,2022.2.1,Win32,59.88023952,,,,,,,,,,,,,,,,,,47,,,,,,,,,,0.02,1,2.6181,0,1,1,1,1,Cook new foods that i've never attempted to make in hopes that i can perfect it,Try new restaurants with friends,0.02,0.05,1.1,1,,,,,
,,6670297f1e47e468c3605ef4,2024-07-22_11h50.17.054,WTP_SM_Choice,2022.2.1,Win32,59.88023952,,,,,,,,,,,,,,,,,,48,,,,,,,,,,0.05,2,5.872,0,2,2,2,1,Try new bars with friends,read books outside under our tree in the shade,0.03,0.05,4.4,0,,,,,
,,6670297f1e47e468c3605ef4,2024-07-22_11h50.17.054,WTP_SM_Choice,2022.2.1,Win32,59.88023952,,,,,,,,,,,,,,,,,,49,,,,,,,,,,0.04,1,4.3091,0,3,3,3,1,read books outside under our tree in the shade,Play games online with friends,0.04,0.05,3.3,1,,,,,
,,6670297f1e47e468c3605ef4,2024-07-22_11h50.17.054,WTP_SM_Choice,2022.2.1,Win32,59.88023952,,,,,,,,,,,,,,,,,,50,,,,,,,,,,0.05,1,2.9294,0,4,4,4,1,watch football all day on sunday during the football season and eating pizza,Watch sports with my friends or family,0.05,0.05,1.1,1,,,,,
,,6670297f1e47e468c3605ef4,2024-07-22_11h50.17.054,WTP_SM_Choice,2022.2.1,Win32,59.88023952,,,,,,,2,,9,1.51,4.49,,0,49,49,49,1,50,Riley,Acc,Participant_Images/6670297f1e47e468c3605ef4/6670297f1e47e468c3605ef4_Images/6670297f1e47e468c3605ef4_Image_1.jpeg,liked,3.195382774,,,,,,,,,,,,,,,,,,,space,4.4504,,,
,,6670297f1e47e468c3605ef4,2024-07-22_11h50.17.054,WTP_SM_Choice,2022.2.1,Win32,59.88023952,,,space,8.7826,space,4.4203,NAN,,NAN,1.51,4.49,,0,50,50,50,1,51,Charlie,Rej,Participant_Images/6670297f1e47e468c3605ef4/6670297f1e47e468c3605ef4_Images/6670297f1e47e468c3605ef4_Image_1.jpeg,did not like,1.779333479,,,,,,,,,,,,,,,,,,,,,,,
,,6670297f1e47e468c3605ef4,2024-07-22_11h50.17.054,WTP_SM_Choice,2022.2.1,Win32,59.88023952,,,,,space,1.6385,NAN,,NAN,1.51,4.49,,0,51,51,51,1,52,Charlie,Rej,Participant_Images/6670297f1e47e468c3605ef4/6670297f1e47e468c3605ef4_Images/6670297f1e47e468c3605ef4_Image_17.jpeg,liked,4.312468682,,,,,,,,,,,,,,,,,,,,,,,
,,6670297f1e47e468c3605ef4,2024-07-22_11h50.17.054,WTP_SM_Choice,2022.2.1,Win32,59.88023952,,,,,space,0.7911,NAN,,NAN,1.51,4.49,,0,52,52,52,1,53,Charlie,Rej,Participant_Images/6670297f1e47e468c3605ef4/6670297f1e47e468c3605ef4_Images/6670297f1e47e468c3605ef4_Image_3.jpeg,did not like,4.940433059,,,,,,,,,,,,,,,,,,,,,,,
,,6670297f1e47e468c3605ef4,2024-07-22_11h50.17.054,WTP_SM_Choice,2022.2.1,Win32,59.88023952,,,,,space,12.733,NAN,,NAN,1.51,4.49,,0,53,53,53,1,54,Charlie,Rej,Participant_Images/6670297f1e47e468c3605ef4/6670297f1e47e468c3605ef4_Images/6670297f1e47e468c3605ef4_Image_23.jpeg,did not like,2.7105123,,,,,,,,,,,,,,,,,,,,,,,
,,6670297f1e47e468c3605ef4,2024-07-22_11h50.17.054,WTP_SM_Choice,2022.2.1,Win32,59.88023952,,,,,,,,,,,,,,,,,,51,,,,,,space,0.8486,space,7.8538,0.01,2,2.5039,0,0,0,0,1,Go on hikes with friends,Walk around in the park on a beautiful sunny day,0.01,0.01,1.1,0,,,,,
,,6670297f1e47e468c3605ef4,2024-07-22_11h50.17.054,WTP_SM_Choice,2022.2.1,Win32,59.88023952,,,,,,,,,,,,,,,,,,52,,,,,,,,,,0.01,2,2.3246,0,1,1,1,1,Go to concerts with friends and family,Play video games in my room on my pc that i built,0.02,0.01,3.3,0,,,,,
,,6670297f1e47e468c3605ef4,2024-07-22_11h50.17.054,WTP_SM_Choice,2022.2.1,Win32,59.88023952,,,,,,,,,,,,,,,,,,53,,,,,,,,,,0.03,1,2.0239,0,2,2,2,1,Cook new foods that i've never attempted to make in hopes that i can perfect it,Go on hikes with friends,0.03,0.01,1.1,1,,,,,
,,6670297f1e47e468c3605ef4,2024-07-22_11h50.17.054,WTP_SM_Choice,2022.2.1,Win32,59.88023952,,,,,,,,,,,,,,,,,,54,,,,,,,,,,0.04,1,8.72,0,3,3,3,1,Work out in my garage with music blasting in the background,Cook with loved ones,0.04,0.01,4.4,1,,,,,
,,6670297f1e47e468c3605ef4,2024-07-22_11h50.17.054,WTP_SM_Choice,2022.2.1,Win32,59.88023952,,,,,,,,,,,,,,,,,,55,,,,,,,,,,0.01,2,2.1714,0,4,4,4,1,Try new restaurants with friends,watch football all day on sunday during the football season and eating pizza,0.05,0.01,1.1,0,,,,,
,,6670297f1e47e468c3605ef4,2024-07-22_11h50.17.054,WTP_SM_Choice,2022.2.1,Win32,59.88023952,,,,,,,NAN,,NAN,1.61,4.39,,0,54,54,54,1,55,Charlie,Rej,Participant_Images/6670297f1e47e468c3605ef4/6670297f1e47e468c3605ef4_Images/6670297f1e47e468c3605ef4_Image_4.jpeg,did not like,3.602308302,,,,,,,,,,,,,,,,,,,,,,,
,,6670297f1e47e468c3605ef4,2024-07-22_11h50.17.054,WTP_SM_Choice,2022.2.1,Win32,59.88023952,,,,,space,7.2048,NAN,,NAN,1.61,4.39,,0,55,55,55,1,56,Charlie,Rej,Participant_Images/6670297f1e47e468c3605ef4/6670297f1e47e468c3605ef4_Images/6670297f1e47e468c3605ef4_Image_14.jpeg,liked,4.106391878,,,,,,,,,,,,,,,,,,,,,,,
,,6670297f1e47e468c3605ef4,2024-07-22_11h50.17.054,WTP_SM_Choice,2022.2.1,Win32,59.88023952,,,,,space,8.3651,NAN,,NAN,1.61,4.39,,0,56,56,56,1,57,Charlie,Rej,Participant_Images/6670297f1e47e468c3605ef4/6670297f1e47e468c3605ef4_Images/6670297f1e47e468c3605ef4_Image_18.jpeg,did not like,3.799433026,,,,,,,,,,,,,,,,,,,,,,,
,,6670297f1e47e468c3605ef4,2024-07-22_11h50.17.054,WTP_SM_Choice,2022.2.1,Win32,59.88023952,,,,,space,1.4379,NAN,,NAN,1.61,4.39,,0,57,57,57,1,58,Charlie,Rej,Participant_Images/6670297f1e47e468c3605ef4/6670297f1e47e468c3605ef4_Images/6670297f1e47e468c3605ef4_Image_5.jpeg,did not like,5.246980764,,,,,,,,,,,,,,,,,,,,,,,
,,6670297f1e47e468c3605ef4,2024-07-22_11h50.17.054,WTP_SM_Choice,2022.2.1,Win32,59.88023952,,,,,space,15.1861,NAN,,NAN,1.61,4.39,,0,58,58,58,1,59,Charlie,Rej,Participant_Images/6670297f1e47e468c3605ef4/6670297f1e47e468c3605ef4_Images/6670297f1e47e468c3605ef4_Image_7.jpeg,liked,3.30081769,,,,,,,,,,,,,,,,,,,,,,,
,,6670297f1e47e468c3605ef4,2024-07-22_11h50.17.054,WTP_SM_Choice,2022.2.1,Win32,59.88023952,,,,,,,,,,,,,,,,,,56,,,,,,space,0.5161,space,8.2042,0.02,2,2.6007,0,0,0,0,1,Watch sports with my friends or family,read books outside under our tree in the shade,0.01,0.02,8.8,0,,,,,
,,6670297f1e47e468c3605ef4,2024-07-22_11h50.17.054,WTP_SM_Choice,2022.2.1,Win32,59.88023952,,,,,,,,,,,,,,,,,,57,,,,,,,,,,0.02,1,1.6597,0,1,1,1,1,Cook new foods that i've never attempted to make in hopes that i can perfect it,Go to concerts with friends and family,0.02,0.02,4.4,1,,,,,
,,6670297f1e47e468c3605ef4,2024-07-22_11h50.17.054,WTP_SM_Choice,2022.2.1,Win32,59.88023952,,,,,,,,,,,,,,,,,,58,,,,,,,,,,0.03,1,2.1539,0,2,2,2,1,read books outside under our tree in the shade,Cook with loved ones,0.03,0.02,4.4,1,,,,,
,,6670297f1e47e468c3605ef4,2024-07-22_11h50.17.054,WTP_SM_Choice,2022.2.1,Win32,59.88023952,,,,,,,,,,,,,,,,,,59,,,,,,,,,,0.04,1,4.5168,0,3,3,3,1,Drive around in the summer with the windows down listening to music,Cook with loved ones,0.04,0.02,4.4,1,,,,,
,,6670297f1e47e468c3605ef4,2024-07-22_11h50.17.054,WTP_SM_Choice,2022.2.1,Win32,59.88023952,,,,,,,,,,,,,,,,,,60,,,,,,,,,,0.05,1,1.8426,0,4,4,4,1,Work out in my garage with music blasting in the background,Try new bars with friends,0.05,0.02,1.1,1,,,,,
,,6670297f1e47e468c3605ef4,2024-07-22_11h50.17.054,WTP_SM_Choice,2022.2.1,Win32,59.88023952,,,,,,,NAN,,NAN,1.77,4.23,,0,59,59,59,1,60,Charlie,Rej,Participant_Images/6670297f1e47e468c3605ef4/6670297f1e47e468c3605ef4_Images/6670297f1e47e468c3605ef4_Image_20.jpeg,did not like,1.661473164,,,,,,,,,,,,,,,,,,,,,,,
,,6670297f1e47e468c3605ef4,2024-07-22_11h50.17.054,WTP_SM_Choice,2022.2.1,Win32,59.88023952,,,,,space,0.8371,NAN,,NAN,1.77,4.23,,0,60,60,60,1,61,Charlie,Rej,Participant_Images/6670297f1e47e468c3605ef4/6670297f1e47e468c3605ef4_Images/6670297f1e47e468c3605ef4_Image_21.jpeg,did not like,3.613205605,,,,,,,,,,,,,,,,,,,,,,,
,,6670297f1e47e468c3605ef4,2024-07-22_11h50.17.054,WTP_SM_Choice,2022.2.1,Win32,59.88023952,,,,,space,0.6165,NAN,,NAN,1.77,4.23,,0,61,61,61,1,62,Charlie,Rej,Participant_Images/6670297f1e47e468c3605ef4/6670297f1e47e468c3605ef4_Images/6670297f1e47e468c3605ef4_Image_13.jpeg,liked,4.988446431,,,,,,,,,,,,,,,,,,,,,,,
,,6670297f1e47e468c3605ef4,2024-07-22_11h50.17.054,WTP_SM_Choice,2022.2.1,Win32,59.88023952,,,,,space,0.5226,NAN,,NAN,1.77,4.23,,0,62,62,62,1,63,Charlie,Rej,Participant_Images/6670297f1e47e468c3605ef4/6670297f1e47e468c3605ef4_Images/6670297f1e47e468c3605ef4_Image_24.jpeg,did not like,3.470791822,,,,,,,,,,,,,,,,,,,,,,,
,,6670297f1e47e468c3605ef4,2024-07-22_11h50.17.054,WTP_SM_Choice,2022.2.1,Win32,59.88023952,,,,,space,0.6879,NAN,,NAN,1.77,4.23,,0,63,63,63,1,64,Charlie,Rej,Participant_Images/6670297f1e47e468c3605ef4/6670297f1e47e468c3605ef4_Images/6670297f1e47e468c3605ef4_Image_10.jpeg,liked,3.820572462,,,,,,,,,,,,,,,,,,,,,,,
,,6670297f1e47e468c3605ef4,2024-07-22_11h50.17.054,WTP_SM_Choice,2022.2.1,Win32,59.88023952,,,,,,,,,,,,,,,,,,61,,,,,,space,0.6787,space,0.7767,0.03,2,1.9986,0,0,0,0,1,Cook with loved ones,Cook new foods that i've never attempted to make in hopes that i can perfect it,0.01,0.03,3.3,0,,,,,
,,6670297f1e47e468c3605ef4,2024-07-22_11h50.17.054,WTP_SM_Choice,2022.2.1,Win32,59.88023952,,,,,,,,,,,,,,,,,,62,,,,,,,,,,0.02,1,1.9692,0,1,1,1,1,Work out in my garage with music blasting in the background,Play games online with friends,0.02,0.03,3.3,1,,,,,
,,6670297f1e47e468c3605ef4,2024-07-22_11h50.17.054,WTP_SM_Choice,2022.2.1,Win32,59.88023952,,,,,,,,,,,,,,,,,,63,,,,,,,,,,0.03,1,3.4574,0,2,2,2,1,Work out in my garage with music blasting in the background,Watch sports with my friends or family,0.03,0.03,3.3,1,,,,,
,,6670297f1e47e468c3605ef4,2024-07-22_11h50.17.054,WTP_SM_Choice,2022.2.1,Win32,59.88023952,,,,,,,,,,,,,,,,,,64,,,,,,,,,,0.03,2,2.3613,0,3,3,3,1,Go on vacation with friends and or family,read books outside under our tree in the shade,0.04,0.03,1.1,0,,,,,
,,6670297f1e47e468c3605ef4,2024-07-22_11h50.17.054,WTP_SM_Choice,2022.2.1,Win32,59.88023952,,,,,,,,,,,,,,,,,,65,,,,,,,,,,0.03,2,6.8049,0,4,4,4,1,Watch new anime with friends,Work out in my garage with music blasting in the background,0.05,0.03,1.1,0,,,,,
,,6670297f1e47e468c3605ef4,2024-07-22_11h50.17.054,WTP_SM_Choice,2022.2.1,Win32,59.88023952,,,,,,,NAN,,NAN,1.91,4.09,,0,64,64,64,1,65,Charlie,Rej,Participant_Images/6670297f1e47e468c3605ef4/6670297f1e47e468c3605ef4_Images/6670297f1e47e468c3605ef4_Image_8.jpeg,did not like,2.455989137,,,,,,,,,,,,,,,,,,,,,,,
,,6670297f1e47e468c3605ef4,2024-07-22_11h50.17.054,WTP_SM_Choice,2022.2.1,Win32,59.88023952,,,,,space,1.017,NAN,,NAN,1.91,4.09,,0,65,65,65,1,66,Charlie,Rej,Participant_Images/6670297f1e47e468c3605ef4/6670297f1e47e468c3605ef4_Images/6670297f1e47e468c3605ef4_Image_2.jpeg,did not like,3.79605092,,,,,,,,,,,,,,,,,,,,,,,
,,6670297f1e47e468c3605ef4,2024-07-22_11h50.17.054,WTP_SM_Choice,2022.2.1,Win32,59.88023952,,,,,space,0.6944,NAN,,NAN,1.91,4.09,,0,66,66,66,1,67,Charlie,Rej,Participant_Images/6670297f1e47e468c3605ef4/6670297f1e47e468c3605ef4_Images/6670297f1e47e468c3605ef4_Image_15.jpeg,did not like,3.562416326,,,,,,,,,,,,,,,,,,,,,,,
,,6670297f1e47e468c3605ef4,2024-07-22_11h50.17.054,WTP_SM_Choice,2022.2.1,Win32,59.88023952,,,,,space,8.2228,NAN,,NAN,1.91,4.09,,0,67,67,67,1,68,Charlie,Rej,Participant_Images/6670297f1e47e468c3605ef4/6670297f1e47e468c3605ef4_Images/6670297f1e47e468c3605ef4_Image_12.jpeg,did not like,2.843822497,,,,,,,,,,,,,,,,,,,,,,,
,,6670297f1e47e468c3605ef4,2024-07-22_11h50.17.054,WTP_SM_Choice,2022.2.1,Win32,59.88023952,,,,,space,1.4232,NAN,,NAN,1.91,4.09,,0,68,68,68,1,69,Charlie,Rej,Participant_Images/6670297f1e47e468c3605ef4/6670297f1e47e468c3605ef4_Images/6670297f1e47e468c3605ef4_Image_9.jpeg,did not like,3.546495948,,,,,,,,,,,,,,,,,,,,,,,
,,6670297f1e47e468c3605ef4,2024-07-22_11h50.17.054,WTP_SM_Choice,2022.2.1,Win32,59.88023952,,,,,,,,,,,,,,,,,,66,,,,,,space,1.0743,space,0.8167,0.01,1,1.8116,0,0,0,0,1,Listen to music with my new Bose headphones under a blanket,Barbeque with friends and family in a park,0.01,0.04,1.1,1,,,,,
,,6670297f1e47e468c3605ef4,2024-07-22_11h50.17.054,WTP_SM_Choice,2022.2.1,Win32,59.88023952,,,,,,,,,,,,,,,,,,67,,,,,,,,,,0.02,1,2.8804,0,1,1,1,1,watch football all day on sunday during the football season and eating pizza,Watch new anime with friends,0.02,0.04,8.8,1,,,,,
,,6670297f1e47e468c3605ef4,2024-07-22_11h50.17.054,WTP_SM_Choice,2022.2.1,Win32,59.88023952,,,,,,,,,,,,,,,,,,68,,,,,,,,,,0.04,2,3.0856,0,2,2,2,1,Barbeque with friends and family in a park,Work out in my garage with music blasting in the background,0.03,0.04,4.4,0,,,,,
,,6670297f1e47e468c3605ef4,2024-07-22_11h50.17.054,WTP_SM_Choice,2022.2.1,Win32,59.88023952,,,,,,,,,,,,,,,,,,69,,,,,,,,,,0.04,2,2.2303,0,3,3,3,1,Barbeque with friends and family in a park,Drive around in the summer with the windows down listening to music,0.04,0.04,1.1,0,,,,,
,,6670297f1e47e468c3605ef4,2024-07-22_11h50.17.054,WTP_SM_Choice,2022.2.1,Win32,59.88023952,,,,,,,,,,,,,,,,,,70,,,,,,,,,,0.04,2,1.796,0,4,4,4,1,Go on hikes with friends,watch football all day on sunday during the football season and eating pizza,0.05,0.04,1.1,0,,,,,
,,6670297f1e47e468c3605ef4,2024-07-22_11h50.17.054,WTP_SM_Choice,2022.2.1,Win32,59.88023952,,,,,,,NAN,,NAN,2.06,3.94,,0,69,69,69,1,70,Charlie,Rej,Participant_Images/6670297f1e47e468c3605ef4/6670297f1e47e468c3605ef4_Images/6670297f1e47e468c3605ef4_Image_25.jpeg,liked,1.672012706,,,,,,,,,,,,,,,,,,,,,,,
,,6670297f1e47e468c3605ef4,2024-07-22_11h50.17.054,WTP_SM_Choice,2022.2.1,Win32,59.88023952,,,,,space,0.9672,NAN,,NAN,2.06,3.94,,0,70,70,70,1,71,Charlie,Rej,Participant_Images/6670297f1e47e468c3605ef4/6670297f1e47e468c3605ef4_Images/6670297f1e47e468c3605ef4_Image_16.jpeg,did not like,4.942172136,,,,,,,,,,,,,,,,,,,,,,,
,,6670297f1e47e468c3605ef4,2024-07-22_11h50.17.054,WTP_SM_Choice,2022.2.1,Win32,59.88023952,,,,,space,0.9878,NAN,,NAN,2.06,3.94,,0,71,71,71,1,72,Charlie,Rej,Participant_Images/6670297f1e47e468c3605ef4/6670297f1e47e468c3605ef4_Images/6670297f1e47e468c3605ef4_Image_22.jpeg,did not like,2.50187214,,,,,,,,,,,,,,,,,,,,,,,
,,6670297f1e47e468c3605ef4,2024-07-22_11h50.17.054,WTP_SM_Choice,2022.2.1,Win32,59.88023952,,,,,space,4.8644,NAN,,NAN,2.06,3.94,,0,72,72,72,1,73,Charlie,Rej,Participant_Images/6670297f1e47e468c3605ef4/6670297f1e47e468c3605ef4_Images/6670297f1e47e468c3605ef4_Image_6.jpeg,did not like,2.071164779,,,,,,,,,,,,,,,,,,,,,,,
,,6670297f1e47e468c3605ef4,2024-07-22_11h50.17.054,WTP_SM_Choice,2022.2.1,Win32,59.88023952,,,,,space,12.205,NAN,,NAN,2.06,3.94,,0,73,73,73,1,74,Charlie,Rej,Participant_Images/6670297f1e47e468c3605ef4/6670297f1e47e468c3605ef4_Images/6670297f1e47e468c3605ef4_Image_19.jpeg,did not like,5.336503566,,,,,,,,,,,,,,,,,,,,,,,
,,6670297f1e47e468c3605ef4,2024-07-22_11h50.17.054,WTP_SM_Choice,2022.2.1,Win32,59.88023952,,,,,,,,,,,,,,,,,,71,,,,,,space,0.9498,space,0.6233,0.05,2,2.3493,0,0,0,0,1,Watch new anime with friends,Listen to music with my new Bose headphones under a blanket,0.01,0.05,3.3,0,,,,,
,,6670297f1e47e468c3605ef4,2024-07-22_11h50.17.054,WTP_SM_Choice,2022.2.1,Win32,59.88023952,,,,,,,,,,,,,,,,,,72,,,,,,,,,,0.02,1,2.3797,0,1,1,1,1,Try new restaraunts that i've never been to in my area,Cook with loved ones,0.02,0.05,8.8,1,,,,,
,,6670297f1e47e468c3605ef4,2024-07-22_11h50.17.054,WTP_SM_Choice,2022.2.1,Win32,59.88023952,,,,,,,,,,,,,,,,,,73,,,,,,,,,,0.03,1,1.648,0,2,2,2,1,Work out in my garage with music blasting in the background,Go on vacation with friends and or family,0.03,0.05,3.3,1,,,,,
,,6670297f1e47e468c3605ef4,2024-07-22_11h50.17.054,WTP_SM_Choice,2022.2.1,Win32,59.88023952,,,,,,,,,,,,,,,,,,74,,,,,,,,,,0.04,1,1.5299,0,3,3,3,1,Drive around in the summer with the windows down listening to music,Go on hikes with friends,0.04,0.05,4.4,1,,,,,
,,6670297f1e47e468c3605ef4,2024-07-22_11h50.17.054,WTP_SM_Choice,2022.2.1,Win32,59.88023952,,,,,,,,,,,,,,,,,,75,,,,,,,,,,0.05,1,3.1156,0,4,4,4,1,Play video games in my room on my pc that i built,Barbeque with friends and family in a park,0.05,0.05,3.3,1,,,,,
,,6670297f1e47e468c3605ef4,2024-07-22_11h50.17.054,WTP_SM_Choice,2022.2.1,Win32,59.88023952,,,,,,,2,,9,2.25,3.75,,0,74,74,74,1,75,Charlie,Rej,Participant_Images/6670297f1e47e468c3605ef4/6670297f1e47e468c3605ef4_Images/6670297f1e47e468c3605ef4_Image_11.jpeg,liked,2.642157193,,,,,,,,,,,,,,,,,,,space,1.7167,,,
,,6670297f1e47e468c3605ef4,2024-07-22_11h50.17.054,WTP_SM_Choice,2022.2.1,Win32,59.88023952,,,space,11.0437,space,0.5025,NAN,,NAN,2.25,3.75,,0,75,75,75,1,76,Alex,Acc,Participant_Images/6670297f1e47e468c3605ef4/6670297f1e47e468c3605ef4_Images/6670297f1e47e468c3605ef4_Image_5.jpeg,liked,4.456234322,,,,,,,,,,,,,,,,,,,,,,,
,,6670297f1e47e468c3605ef4,2024-07-22_11h50.17.054,WTP_SM_Choice,2022.2.1,Win32,59.88023952,,,,,space,3.1437,NAN,,NAN,2.25,3.75,,0,76,76,76,1,77,Alex,Acc,Participant_Images/6670297f1e47e468c3605ef4/6670297f1e47e468c3605ef4_Images/6670297f1e47e468c3605ef4_Image_18.jpeg,liked,4.438512181,,,,,,,,,,,,,,,,,,,,,,,
,,6670297f1e47e468c3605ef4,2024-07-22_11h50.17.054,WTP_SM_Choice,2022.2.1,Win32,59.88023952,,,,,space,0.5344,NAN,,NAN,2.25,3.75,,0,77,77,77,1,78,Alex,Acc,Participant_Images/6670297f1e47e468c3605ef4/6670297f1e47e468c3605ef4_Images/6670297f1e47e468c3605ef4_Image_3.jpeg,liked,2.682944783,,,,,,,,,,,,,,,,,,,,,,,
,,6670297f1e47e468c3605ef4,2024-07-22_11h50.17.054,WTP_SM_Choice,2022.2.1,Win32,59.88023952,,,,,space,0.6774,NAN,,NAN,2.25,3.75,,0,78,78,78,1,79,Alex,Acc,Participant_Images/6670297f1e47e468c3605ef4/6670297f1e47e468c3605ef4_Images/6670297f1e47e468c3605ef4_Image_17.jpeg,liked,4.51984296,,,,,,,,,,,,,,,,,,,,,,,
,,6670297f1e47e468c3605ef4,2024-07-22_11h50.17.054,WTP_SM_Choice,2022.2.1,Win32,59.88023952,,,,,,,,,,,,,,,,,,76,,,,,,space,1.988,space,0.9351,0.01,2,2.6029,0,0,0,0,1,Watch new anime with friends,Try new restaraunts that i've never been to in my area,0.01,0.01,1.1,0,,,,,
,,6670297f1e47e468c3605ef4,2024-07-22_11h50.17.054,WTP_SM_Choice,2022.2.1,Win32,59.88023952,,,,,,,,,,,,,,,,,,77,,,,,,,,,,0.02,1,1.1403,0,1,1,1,1,Work out in my garage with music blasting in the background,Go to concerts with friends and family,0.02,0.01,8.8,1,,,,,
,,6670297f1e47e468c3605ef4,2024-07-22_11h50.17.054,WTP_SM_Choice,2022.2.1,Win32,59.88023952,,,,,,,,,,,,,,,,,,78,,,,,,,,,,0.01,2,1.0713,0,2,2,2,1,Cook with loved ones,watch football all day on sunday during the football season and eating pizza,0.03,0.01,1.1,0,,,,,
,,6670297f1e47e468c3605ef4,2024-07-22_11h50.17.054,WTP_SM_Choice,2022.2.1,Win32,59.88023952,,,,,,,,,,,,,,,,,,79,,,,,,,,,,0.01,2,0.9416,0,3,3,3,1,Go to concerts with friends and family,read books outside under our tree in the shade,0.04,0.01,1.1,0,,,,,
,,6670297f1e47e468c3605ef4,2024-07-22_11h50.17.054,WTP_SM_Choice,2022.2.1,Win32,59.88023952,,,,,,,,,,,,,,,,,,80,,,,,,,,,,0.05,1,1.8137,0,4,4,4,1,Watch a movie in bed while its raining outside,Barbeque with friends and family in a park,0.05,0.01,4.4,1,,,,,
,,6670297f1e47e468c3605ef4,2024-07-22_11h50.17.054,WTP_SM_Choice,2022.2.1,Win32,59.88023952,,,,,,,NAN,,NAN,2.35,3.65,,0,79,79,79,1,80,Alex,Acc,Participant_Images/6670297f1e47e468c3605ef4/6670297f1e47e468c3605ef4_Images/6670297f1e47e468c3605ef4_Image_13.jpeg,did not like,3.195382774,,,,,,,,,,,,,,,,,,,,,,,
,,6670297f1e47e468c3605ef4,2024-07-22_11h50.17.054,WTP_SM_Choice,2022.2.1,Win32,59.88023952,,,,,space,790.2485,NAN,,NAN,2.35,3.65,,0,80,80,80,1,81,Alex,Acc,Participant_Images/6670297f1e47e468c3605ef4/6670297f1e47e468c3605ef4_Images/6670297f1e47e468c3605ef4_Image_23.jpeg,liked,1.779333479,,,,,,,,,,,,,,,,,,,,,,,
,,6670297f1e47e468c3605ef4,2024-07-22_11h50.17.054,WTP_SM_Choice,2022.2.1,Win32,59.88023952,,,,,space,1.1863,NAN,,NAN,2.35,3.65,,0,81,81,81,1,82,Alex,Acc,Participant_Images/6670297f1e47e468c3605ef4/6670297f1e47e468c3605ef4_Images/6670297f1e47e468c3605ef4_Image_8.jpeg,liked,4.312468682,,,,,,,,,,,,,,,,,,,,,,,
,,6670297f1e47e468c3605ef4,2024-07-22_11h50.17.054,WTP_SM_Choice,2022.2.1,Win32,59.88023952,,,,,space,1.7283,NAN,,NAN,2.35,3.65,,0,82,82,82,1,83,Alex,Acc,Participant_Images/6670297f1e47e468c3605ef4/6670297f1e47e468c3605ef4_Images/6670297f1e47e468c3605ef4_Image_2.jpeg,liked,4.940433059,,,,,,,,,,,,,,,,,,,,,,,
,,6670297f1e47e468c3605ef4,2024-07-22_11h50.17.054,WTP_SM_Choice,2022.2.1,Win32,59.88023952,,,,,space,0.6123,NAN,,NAN,2.35,3.65,,0,83,83,83,1,84,Alex,Acc,Participant_Images/6670297f1e47e468c3605ef4/6670297f1e47e468c3605ef4_Images/6670297f1e47e468c3605ef4_Image_7.jpeg,liked,2.7105123,,,,,,,,,,,,,,,,,,,,,,,
,,6670297f1e47e468c3605ef4,2024-07-22_11h50.17.054,WTP_SM_Choice,2022.2.1,Win32,59.88023952,,,,,,,,,,,,,,,,,,81,,,,,,space,1.2568,space,1.4573,0.01,1,1.9558,0,0,0,0,1,Play video games in my room on my pc that i built,Go on vacation with friends and or family,0.01,0.02,3.3,1,,,,,
,,6670297f1e47e468c3605ef4,2024-07-22_11h50.17.054,WTP_SM_Choice,2022.2.1,Win32,59.88023952,,,,,,,,,,,,,,,,,,82,,,,,,,,,,0.02,1,2.3253,0,1,1,1,1,Drive around in the summer with the windows down listening to music,Watch sports with my friends or family,0.02,0.02,4.4,1,,,,,
,,6670297f1e47e468c3605ef4,2024-07-22_11h50.17.054,WTP_SM_Choice,2022.2.1,Win32,59.88023952,,,,,,,,,,,,,,,,,,83,,,,,,,,,,0.03,1,2.1105,0,2,2,2,1,Watch a movie in bed while its raining outside,Try new bars with friends,0.03,0.02,1.1,1,,,,,
,,6670297f1e47e468c3605ef4,2024-07-22_11h50.17.054,WTP_SM_Choice,2022.2.1,Win32,59.88023952,,,,,,,,,,,,,,,,,,84,,,,,,,,,,0.04,1,1.3127,0,3,3,3,1,Watch a movie in bed while its raining outside,Watch new anime with friends,0.04,0.02,3.3,1,,,,,
,,6670297f1e47e468c3605ef4,2024-07-22_11h50.17.054,WTP_SM_Choice,2022.2.1,Win32,59.88023952,,,,,,,,,,,,,,,,,,85,,,,,,,,,,0.02,2,4.08,0,4,4,4,1,Go on vacation with friends and or family,Walk around in the park on a beautiful sunny day,0.05,0.02,3.3,0,,,,,
,,6670297f1e47e468c3605ef4,2024-07-22_11h50.17.054,WTP_SM_Choice,2022.2.1,Win32,59.88023952,,,,,,,NAN,,NAN,2.47,3.53,,0,84,84,84,1,85,Alex,Acc,Participant_Images/6670297f1e47e468c3605ef4/6670297f1e47e468c3605ef4_Images/6670297f1e47e468c3605ef4_Image_9.jpeg,liked,3.602308302,,,,,,,,,,,,,,,,,,,,,,,
,,6670297f1e47e468c3605ef4,2024-07-22_11h50.17.054,WTP_SM_Choice,2022.2.1,Win32,59.88023952,,,,,space,1.6703,NAN,,NAN,2.47,3.53,,0,85,85,85,1,86,Alex,Acc,Participant_Images/6670297f1e47e468c3605ef4/6670297f1e47e468c3605ef4_Images/6670297f1e47e468c3605ef4_Image_10.jpeg,liked,4.106391878,,,,,,,,,,,,,,,,,,,,,,,
,,6670297f1e47e468c3605ef4,2024-07-22_11h50.17.054,WTP_SM_Choice,2022.2.1,Win32,59.88023952,,,,,space,6.257,NAN,,NAN,2.47,3.53,,0,86,86,86,1,87,Alex,Acc,Participant_Images/6670297f1e47e468c3605ef4/6670297f1e47e468c3605ef4_Images/6670297f1e47e468c3605ef4_Image_25.jpeg,did not like,3.799433026,,,,,,,,,,,,,,,,,,,,,,,
,,6670297f1e47e468c3605ef4,2024-07-22_11h50.17.054,WTP_SM_Choice,2022.2.1,Win32,59.88023952,,,,,space,1.0672,NAN,,NAN,2.47,3.53,,0,87,87,87,1,88,Alex,Acc,Participant_Images/6670297f1e47e468c3605ef4/6670297f1e47e468c3605ef4_Images/6670297f1e47e468c3605ef4_Image_12.jpeg,did not like,5.246980764,,,,,,,,,,,,,,,,,,,,,,,
,,6670297f1e47e468c3605ef4,2024-07-22_11h50.17.054,WTP_SM_Choice,2022.2.1,Win32,59.88023952,,,,,space,0.8603,NAN,,NAN,2.47,3.53,,0,88,88,88,1,89,Alex,Acc,Participant_Images/6670297f1e47e468c3605ef4/6670297f1e47e468c3605ef4_Images/6670297f1e47e468c3605ef4_Image_24.jpeg,liked,3.30081769,,,,,,,,,,,,,,,,,,,,,,,
,,6670297f1e47e468c3605ef4,2024-07-22_11h50.17.054,WTP_SM_Choice,2022.2.1,Win32,59.88023952,,,,,,,,,,,,,,,,,,86,,,,,,space,1.4687,space,6.3016,0.03,2,1.8564,0,0,0,0,1,Try new bars with friends,Listen to music with my new Bose headphones under a blanket,0.01,0.03,1.1,0,,,,,
,,6670297f1e47e468c3605ef4,2024-07-22_11h50.17.054,WTP_SM_Choice,2022.2.1,Win32,59.88023952,,,,,,,,,,,,,,,,,,87,,,,,,,,,,0.03,2,3.5552,0,1,1,1,1,Try new restaurants with friends,Listen to music with my new Bose headphones under a blanket,0.02,0.03,4.4,0,,,,,
,,6670297f1e47e468c3605ef4,2024-07-22_11h50.17.054,WTP_SM_Choice,2022.2.1,Win32,59.88023952,,,,,,,,,,,,,,,,,,88,,,,,,,,,,0.03,2,1.9122,0,2,2,2,1,Watch sports with my friends or family,Listen to music with my new Bose headphones under a blanket,0.03,0.03,1.1,0,,,,,
,,6670297f1e47e468c3605ef4,2024-07-22_11h50.17.054,WTP_SM_Choice,2022.2.1,Win32,59.88023952,,,,,,,,,,,,,,,,,,89,,,,,,,,,,0.03,2,1.8964,0,3,3,3,1,Play games online with friends,Watch a movie in bed while its raining outside,0.04,0.03,3.3,0,,,,,
,,6670297f1e47e468c3605ef4,2024-07-22_11h50.17.054,WTP_SM_Choice,2022.2.1,Win32,59.88023952,,,,,,,,,,,,,,,,,,90,,,,,,,,,,0.05,1,1.8834,0,4,4,4,1,Play video games in my room on my pc that i built,Play games online with friends,0.05,0.03,8.8,1,,,,,
,,6670297f1e47e468c3605ef4,2024-07-22_11h50.17.054,WTP_SM_Choice,2022.2.1,Win32,59.88023952,,,,,,,NAN,,NAN,2.64,3.36,,0,89,89,89,1,90,Alex,Acc,Participant_Images/6670297f1e47e468c3605ef4/6670297f1e47e468c3605ef4_Images/6670297f1e47e468c3605ef4_Image_14.jpeg,did not like,1.661473164,,,,,,,,,,,,,,,,,,,,,,,
,,6670297f1e47e468c3605ef4,2024-07-22_11h50.17.054,WTP_SM_Choice,2022.2.1,Win32,59.88023952,,,,,space,1.6545,NAN,,NAN,2.64,3.36,,0,90,90,90,1,91,Alex,Acc,Participant_Images/6670297f1e47e468c3605ef4/6670297f1e47e468c3605ef4_Images/6670297f1e47e468c3605ef4_Image_16.jpeg,did not like,3.613205605,,,,,,,,,,,,,,,,,,,,,,,
,,6670297f1e47e468c3605ef4,2024-07-22_11h50.17.054,WTP_SM_Choice,2022.2.1,Win32,59.88023952,,,,,space,1.1853,NAN,,NAN,2.64,3.36,,0,91,91,91,1,92,Alex,Acc,Participant_Images/6670297f1e47e468c3605ef4/6670297f1e47e468c3605ef4_Images/6670297f1e47e468c3605ef4_Image_1.jpeg,liked,4.988446431,,,,,,,,,,,,,,,,,,,,,,,
,,6670297f1e47e468c3605ef4,2024-07-22_11h50.17.054,WTP_SM_Choice,2022.2.1,Win32,59.88023952,,,,,space,11.9303,NAN,,NAN,2.64,3.36,,0,92,92,92,1,93,Alex,Acc,Participant_Images/6670297f1e47e468c3605ef4/6670297f1e47e468c3605ef4_Images/6670297f1e47e468c3605ef4_Image_21.jpeg,liked,3.470791822,,,,,,,,,,,,,,,,,,,,,,,
,,6670297f1e47e468c3605ef4,2024-07-22_11h50.17.054,WTP_SM_Choice,2022.2.1,Win32,59.88023952,,,,,space,1.1167,NAN,,NAN,2.64,3.36,,0,93,93,93,1,94,Alex,Acc,Participant_Images/6670297f1e47e468c3605ef4/6670297f1e47e468c3605ef4_Images/6670297f1e47e468c3605ef4_Image_19.jpeg,did not like,3.820572462,,,,,,,,,,,,,,,,,,,,,,,
,,6670297f1e47e468c3605ef4,2024-07-22_11h50.17.054,WTP_SM_Choice,2022.2.1,Win32,59.88023952,,,,,,,,,,,,,,,,,,91,,,,,,space,3.5198,space,0.8218,0.01,1,1.6946,0,0,0,0,1,Play video games in my room on my pc that i built,Try new restaurants with friends,0.01,0.04,3.3,1,,,,,
,,6670297f1e47e468c3605ef4,2024-07-22_11h50.17.054,WTP_SM_Choice,2022.2.1,Win32,59.88023952,,,,,,,,,,,,,,,,,,92,,,,,,,,,,0.02,1,2.7698,0,1,1,1,1,Drive around in the summer with the windows down listening to music,Go to concerts with friends and family,0.02,0.04,8.8,1,,,,,
,,6670297f1e47e468c3605ef4,2024-07-22_11h50.17.054,WTP_SM_Choice,2022.2.1,Win32,59.88023952,,,,,,,,,,,,,,,,,,93,,,,,,,,,,0.04,2,2.0727,0,2,2,2,1,Go to concerts with friends and family,Watch a movie in bed while its raining outside,0.03,0.04,1.1,0,,,,,
,,6670297f1e47e468c3605ef4,2024-07-22_11h50.17.054,WTP_SM_Choice,2022.2.1,Win32,59.88023952,,,,,,,,,,,,,,,,,,94,,,,,,,,,,0.04,1,3.4713,0,3,3,3,1,Walk around in the park on a beautiful sunny day,Play games online with friends,0.04,0.04,4.4,1,,,,,
,,6670297f1e47e468c3605ef4,2024-07-22_11h50.17.054,WTP_SM_Choice,2022.2.1,Win32,59.88023952,,,,,,,,,,,,,,,,,,95,,,,,,,,,,0.05,1,2.4086,0,4,4,4,1,Walk around in the park on a beautiful sunny day,Watch sports with my friends or family,0.05,0.04,4.4,1,,,,,
,,6670297f1e47e468c3605ef4,2024-07-22_11h50.17.054,WTP_SM_Choice,2022.2.1,Win32,59.88023952,,,,,,,NAN,,NAN,2.8,3.2,,0,94,94,94,1,95,Alex,Acc,Participant_Images/6670297f1e47e468c3605ef4/6670297f1e47e468c3605ef4_Images/6670297f1e47e468c3605ef4_Image_11.jpeg,liked,2.455989137,,,,,,,,,,,,,,,,,,,,,,,
,,6670297f1e47e468c3605ef4,2024-07-22_11h50.17.054,WTP_SM_Choice,2022.2.1,Win32,59.88023952,,,,,space,0.6258,NAN,,NAN,2.8,3.2,,0,95,95,95,1,96,Alex,Acc,Participant_Images/6670297f1e47e468c3605ef4/6670297f1e47e468c3605ef4_Images/6670297f1e47e468c3605ef4_Image_4.jpeg,liked,3.79605092,,,,,,,,,,,,,,,,,,,,,,,
,,6670297f1e47e468c3605ef4,2024-07-22_11h50.17.054,WTP_SM_Choice,2022.2.1,Win32,59.88023952,,,,,space,0.5385,NAN,,NAN,2.8,3.2,,0,96,96,96,1,97,Alex,Acc,Participant_Images/6670297f1e47e468c3605ef4/6670297f1e47e468c3605ef4_Images/6670297f1e47e468c3605ef4_Image_20.jpeg,liked,3.562416326,,,,,,,,,,,,,,,,,,,,,,,
,,6670297f1e47e468c3605ef4,2024-07-22_11h50.17.054,WTP_SM_Choice,2022.2.1,Win32,59.88023952,,,,,space,0.6043,NAN,,NAN,2.8,3.2,,0,97,97,97,1,98,Alex,Acc,Participant_Images/6670297f1e47e468c3605ef4/6670297f1e47e468c3605ef4_Images/6670297f1e47e468c3605ef4_Image_6.jpeg,did not like,2.843822497,,,,,,,,,,,,,,,,,,,,,,,
,,6670297f1e47e468c3605ef4,2024-07-22_11h50.17.054,WTP_SM_Choice,2022.2.1,Win32,59.88023952,,,,,space,1.0675,NAN,,NAN,2.8,3.2,,0,98,98,98,1,99,Alex,Acc,Participant_Images/6670297f1e47e468c3605ef4/6670297f1e47e468c3605ef4_Images/6670297f1e47e468c3605ef4_Image_22.jpeg,liked,3.546495948,,,,,,,,,,,,,,,,,,,,,,,
,,6670297f1e47e468c3605ef4,2024-07-22_11h50.17.054,WTP_SM_Choice,2022.2.1,Win32,59.88023952,,,,,,,,,,,,,,,,,,96,,,,,,space,0.7039,space,0.5537,0.05,2,3.5048,0,0,0,0,1,Cook with loved ones,Play video games in my room on my pc that i built,0.01,0.05,3.3,0,,,,,
,,6670297f1e47e468c3605ef4,2024-07-22_11h50.17.054,WTP_SM_Choice,2022.2.1,Win32,59.88023952,,,,,,,,,,,,,,,,,,97,,,,,,,,,,0.05,2,2.8182,0,1,1,1,1,Try new restaurants with friends,Try new restaraunts that i've never been to in my area,0.02,0.05,1.1,0,,,,,
,,6670297f1e47e468c3605ef4,2024-07-22_11h50.17.054,WTP_SM_Choice,2022.2.1,Win32,59.88023952,,,,,,,,,,,,,,,,,,98,,,,,,,,,,0.05,2,2.888,0,2,2,2,1,Try new restaurants with friends,Walk around in the park on a beautiful sunny day,0.03,0.05,1.1,0,,,,,
,,6670297f1e47e468c3605ef4,2024-07-22_11h50.17.054,WTP_SM_Choice,2022.2.1,Win32,59.88023952,,,,,,,,,,,,,,,,,,99,,,,,,,,,,0.05,2,2.3452,0,3,3,3,1,Try new restaurants with friends,read books outside under our tree in the shade,0.04,0.05,3.3,0,,,,,
,,6670297f1e47e468c3605ef4,2024-07-22_11h50.17.054,WTP_SM_Choice,2022.2.1,Win32,59.88023952,,,,,,,,,,,,,,,,,,100,,,,,,,,,,0.05,2,2.3231,0,4,4,4,1,Go on hikes with friends,Try new restaraunts that i've never been to in my area,0.05,0.05,4.4,0,,,,,
,,6670297f1e47e468c3605ef4,2024-07-22_11h50.17.054,WTP_SM_Choice,2022.2.1,Win32,59.88023952,,,,,,,2,,9,3.05,2.95,,0,99,99,99,1,100,Alex,Acc,Participant_Images/6670297f1e47e468c3605ef4/6670297f1e47e468c3605ef4_Images/6670297f1e47e468c3605ef4_Image_15.jpeg,liked,1.672012706,,,,,,,,,,,,,,,,,,,space,1.6889,,,
,,6670297f1e47e468c3605ef4,2024-07-22_11h50.17.054,WTP_SM_Choice,2022.2.1,Win32,59.88023952,,,,,,,,,,,,,,,,,,,,,,,,,,,,,,,,,,,,,,,,,,,,,space,2.5353
