endwelcomescreen_keys.keys,endwelcomescreen_keys.rt,participant,STUDY_ID,SESSION_ID,date,expName,psychopyVersion,OS,frameRate,endinstructionscreen_keys.keys,endinstructionscreen_keys.rt,endpartnermatch_keys.keys,endpartnermatch_keys.rt,sharenextphoto_key.keys,sharenextphoto_key.rt,salience_rating,key_resp.keys,stress_level,subtract_bonus,TOTAL_TASK_BONUS,stresslevel_keypress.keys,entiretaskloop.thisRepN,entiretaskloop.thisTrialN,entiretaskloop.thisN,entiretaskloop.thisIndex,entiretaskloop.ran,TrialNumber,Partner,Condition,Photos,Feedback,FeedbackWait,WTP_ins_keys1.keys,WTP_ins_keys1.rt,WTP_ins_keys2.keys,WTP_ins_keys2.rt,responses.keys,WTPTaskLoop.thisRepN,WTPTaskLoop.thisTrialN,WTPTaskLoop.thisN,WTPTaskLoop.thisIndex,WTPTaskLoop.ran,right,left,leftmoney,rightmoney,WTP_ITI,social_left,decision_price,responses.rt,Resume_keys.keys,Resume_keys.rt,end_screen_keys.keys,end_screen_keys.rt
space,8.8756,66757cddd8d92a5cbfda353f,6685aa9113c938e83b4f1ea0,670a6ac51e6355cbd15f3486,2024-10-12_08h26.35.815,WTP_SM_Choice,2022.2.1,Win32,59.88023952,,,,,,,,,,,,,,,,,,,,,,,,,,,,,,,,,,,,,,,,,,,,,
,,66757cddd8d92a5cbfda353f,6685aa9113c938e83b4f1ea0,670a6ac51e6355cbd15f3486,2024-10-12_08h26.35.815,WTP_SM_Choice,2022.2.1,Win32,59.88023952,space,50.5111,,,,,,,,,,,,,,,,,,,,,,,,,,,,,,,,,,,,,,,,,,,
,,66757cddd8d92a5cbfda353f,6685aa9113c938e83b4f1ea0,670a6ac51e6355cbd15f3486,2024-10-12_08h26.35.815,WTP_SM_Choice,2022.2.1,Win32,59.88023952,,,space,3.7031,space,2.3158,NAN,,NAN,0,6,,0,0,0,0,1,1,Alex,Acc,Participant_Images/66757cddd8d92a5cbfda353f/66757cddd8d92a5cbfda353f_Images/66757cddd8d92a5cbfda353f_Image_18.jpeg,liked,3.613205605,,,,,,,,,,,,,,,,,,,,,,
,,66757cddd8d92a5cbfda353f,6685aa9113c938e83b4f1ea0,670a6ac51e6355cbd15f3486,2024-10-12_08h26.35.815,WTP_SM_Choice,2022.2.1,Win32,59.88023952,,,,,space,0.9442,NAN,,NAN,0,6,,0,1,1,1,1,2,Alex,Acc,Participant_Images/66757cddd8d92a5cbfda353f/66757cddd8d92a5cbfda353f_Images/66757cddd8d92a5cbfda353f_Image_13.jpeg,did not like,4.988446431,,,,,,,,,,,,,,,,,,,,,,
,,66757cddd8d92a5cbfda353f,6685aa9113c938e83b4f1ea0,670a6ac51e6355cbd15f3486,2024-10-12_08h26.35.815,WTP_SM_Choice,2022.2.1,Win32,59.88023952,,,,,space,0.8722,NAN,,NAN,0,6,,0,2,2,2,1,3,Alex,Acc,Participant_Images/66757cddd8d92a5cbfda353f/66757cddd8d92a5cbfda353f_Images/66757cddd8d92a5cbfda353f_Image_2.jpeg,liked,3.470791822,,,,,,,,,,,,,,,,,,,,,,
,,66757cddd8d92a5cbfda353f,6685aa9113c938e83b4f1ea0,670a6ac51e6355cbd15f3486,2024-10-12_08h26.35.815,WTP_SM_Choice,2022.2.1,Win32,59.88023952,,,,,space,0.4397,NAN,,NAN,0,6,,0,3,3,3,1,4,Alex,Acc,Participant_Images/66757cddd8d92a5cbfda353f/66757cddd8d92a5cbfda353f_Images/66757cddd8d92a5cbfda353f_Image_17.jpeg,liked,3.820572462,,,,,,,,,,,,,,,,,,,,,,
,,66757cddd8d92a5cbfda353f,6685aa9113c938e83b4f1ea0,670a6ac51e6355cbd15f3486,2024-10-12_08h26.35.815,WTP_SM_Choice,2022.2.1,Win32,59.88023952,,,,,,,,,,,,,,,,,,1,,,,,,space,0.6748,space,40.7378,,0,0,0,0,1,Get my nails done at the salon with my sister,Read a book in bed before falling asleep,0.01,0.01,4.4,0,,,,,,
,,66757cddd8d92a5cbfda353f,6685aa9113c938e83b4f1ea0,670a6ac51e6355cbd15f3486,2024-10-12_08h26.35.815,WTP_SM_Choice,2022.2.1,Win32,59.88023952,,,,,,,,,,,,,,,,,,2,,,,,,,,,,1,0,1,1,1,1,Watch and listen to the rain with a candle lit,Watch scary movies at night with friends,0.02,0.01,8.8,1,0.02,5.1214,,,,
,,66757cddd8d92a5cbfda353f,6685aa9113c938e83b4f1ea0,670a6ac51e6355cbd15f3486,2024-10-12_08h26.35.815,WTP_SM_Choice,2022.2.1,Win32,59.88023952,,,,,,,,,,,,,,,,,,3,,,,,,,,,,2,0,2,2,2,1,Get Chinese takeout with my best friend on a Wednesday night,Listen to my favorite music while I shower,0.03,0.01,3.3,0,0.01,1.5708,,,,
,,66757cddd8d92a5cbfda353f,6685aa9113c938e83b4f1ea0,670a6ac51e6355cbd15f3486,2024-10-12_08h26.35.815,WTP_SM_Choice,2022.2.1,Win32,59.88023952,,,,,,,,,,,,,,,,,,4,,,,,,,,,,2,0,3,3,3,1,Read a book in bed before falling asleep,Get Chinese takeout with my best friend on a Wednesday night,0.04,0.01,1.1,1,0.01,3.0852,,,,
,,66757cddd8d92a5cbfda353f,6685aa9113c938e83b4f1ea0,670a6ac51e6355cbd15f3486,2024-10-12_08h26.35.815,WTP_SM_Choice,2022.2.1,Win32,59.88023952,,,,,,,,,,,,,,,,,,5,,,,,,,,,,1,0,4,4,4,1,Listen to my favorite music while I shower,Go to the springs on the hottest day of the year with my friends,0.05,0.01,1.1,1,0.05,4.3044,,,,
,,66757cddd8d92a5cbfda353f,6685aa9113c938e83b4f1ea0,670a6ac51e6355cbd15f3486,2024-10-12_08h26.35.815,WTP_SM_Choice,2022.2.1,Win32,59.88023952,,,,,,,NAN,,NAN,0.09,5.91,,0,4,4,4,1,5,Alex,Acc,Participant_Images/66757cddd8d92a5cbfda353f/66757cddd8d92a5cbfda353f_Images/66757cddd8d92a5cbfda353f_Image_20.jpeg,liked,2.455989137,,,,,,,,,,,,,,,,,,,,,,
,,66757cddd8d92a5cbfda353f,6685aa9113c938e83b4f1ea0,670a6ac51e6355cbd15f3486,2024-10-12_08h26.35.815,WTP_SM_Choice,2022.2.1,Win32,59.88023952,,,,,space,1.4666,NAN,,NAN,0.09,5.91,,0,5,5,5,1,6,Alex,Acc,Participant_Images/66757cddd8d92a5cbfda353f/66757cddd8d92a5cbfda353f_Images/66757cddd8d92a5cbfda353f_Image_1.jpeg,liked,3.79605092,,,,,,,,,,,,,,,,,,,,,,
,,66757cddd8d92a5cbfda353f,6685aa9113c938e83b4f1ea0,670a6ac51e6355cbd15f3486,2024-10-12_08h26.35.815,WTP_SM_Choice,2022.2.1,Win32,59.88023952,,,,,space,1.1516,NAN,,NAN,0.09,5.91,,0,6,6,6,1,7,Alex,Acc,Participant_Images/66757cddd8d92a5cbfda353f/66757cddd8d92a5cbfda353f_Images/66757cddd8d92a5cbfda353f_Image_24.jpeg,liked,3.562416326,,,,,,,,,,,,,,,,,,,,,,
,,66757cddd8d92a5cbfda353f,6685aa9113c938e83b4f1ea0,670a6ac51e6355cbd15f3486,2024-10-12_08h26.35.815,WTP_SM_Choice,2022.2.1,Win32,59.88023952,,,,,space,0.8394,NAN,,NAN,0.09,5.91,,0,7,7,7,1,8,Alex,Acc,Participant_Images/66757cddd8d92a5cbfda353f/66757cddd8d92a5cbfda353f_Images/66757cddd8d92a5cbfda353f_Image_4.jpeg,liked,2.843822497,,,,,,,,,,,,,,,,,,,,,,
,,66757cddd8d92a5cbfda353f,6685aa9113c938e83b4f1ea0,670a6ac51e6355cbd15f3486,2024-10-12_08h26.35.815,WTP_SM_Choice,2022.2.1,Win32,59.88023952,,,,,space,1.069,NAN,,NAN,0.09,5.91,,0,8,8,8,1,9,Alex,Acc,Participant_Images/66757cddd8d92a5cbfda353f/66757cddd8d92a5cbfda353f_Images/66757cddd8d92a5cbfda353f_Image_7.jpeg,liked,3.546495948,,,,,,,,,,,,,,,,,,,,,,
,,66757cddd8d92a5cbfda353f,6685aa9113c938e83b4f1ea0,670a6ac51e6355cbd15f3486,2024-10-12_08h26.35.815,WTP_SM_Choice,2022.2.1,Win32,59.88023952,,,,,,,,,,,,,,,,,,6,,,,,,space,22.4914,space,12.7649,1,0,0,0,0,1,Watch and listen to the rain with a candle lit,Go to the springs on the hottest day of the year with my friends,0.01,0.02,3.3,1,0.01,3.4323,,,,
,,66757cddd8d92a5cbfda353f,6685aa9113c938e83b4f1ea0,670a6ac51e6355cbd15f3486,2024-10-12_08h26.35.815,WTP_SM_Choice,2022.2.1,Win32,59.88023952,,,,,,,,,,,,,,,,,,7,,,,,,,,,,1,0,1,1,1,1,Pet my cat in my room with no other distractions,Watch scary movies at night with friends,0.02,0.02,1.1,1,0.02,2.7884,,,,
,,66757cddd8d92a5cbfda353f,6685aa9113c938e83b4f1ea0,670a6ac51e6355cbd15f3486,2024-10-12_08h26.35.815,WTP_SM_Choice,2022.2.1,Win32,59.88023952,,,,,,,,,,,,,,,,,,8,,,,,,,,,,1,0,2,2,2,1,Put outfits together with the clothing that I have,Watch scary movies at night with friends,0.03,0.02,1.1,1,0.03,3.3391,,,,
,,66757cddd8d92a5cbfda353f,6685aa9113c938e83b4f1ea0,670a6ac51e6355cbd15f3486,2024-10-12_08h26.35.815,WTP_SM_Choice,2022.2.1,Win32,59.88023952,,,,,,,,,,,,,,,,,,9,,,,,,,,,,2,0,3,3,3,1,Shop online for the best deals on things I need,Get my nails done at the salon with my sister,0.04,0.02,4.4,1,0.02,2.8637,,,,
,,66757cddd8d92a5cbfda353f,6685aa9113c938e83b4f1ea0,670a6ac51e6355cbd15f3486,2024-10-12_08h26.35.815,WTP_SM_Choice,2022.2.1,Win32,59.88023952,,,,,,,,,,,,,,,,,,10,,,,,,,,,,1,0,4,4,4,1,Discover new restaurants to eat at with my family,Read a book in bed before falling asleep,0.05,0.02,1.1,0,0.05,2.5383,,,,
,,66757cddd8d92a5cbfda353f,6685aa9113c938e83b4f1ea0,670a6ac51e6355cbd15f3486,2024-10-12_08h26.35.815,WTP_SM_Choice,2022.2.1,Win32,59.88023952,,,,,,,NAN,,NAN,0.22,5.78,,0,9,9,9,1,10,Alex,Acc,Participant_Images/66757cddd8d92a5cbfda353f/66757cddd8d92a5cbfda353f_Images/66757cddd8d92a5cbfda353f_Image_23.jpeg,did not like,1.672012706,,,,,,,,,,,,,,,,,,,,,,
,,66757cddd8d92a5cbfda353f,6685aa9113c938e83b4f1ea0,670a6ac51e6355cbd15f3486,2024-10-12_08h26.35.815,WTP_SM_Choice,2022.2.1,Win32,59.88023952,,,,,space,0.4542,NAN,,NAN,0.22,5.78,,0,10,10,10,1,11,Alex,Acc,Participant_Images/66757cddd8d92a5cbfda353f/66757cddd8d92a5cbfda353f_Images/66757cddd8d92a5cbfda353f_Image_9.jpeg,liked,4.942172136,,,,,,,,,,,,,,,,,,,,,,
,,66757cddd8d92a5cbfda353f,6685aa9113c938e83b4f1ea0,670a6ac51e6355cbd15f3486,2024-10-12_08h26.35.815,WTP_SM_Choice,2022.2.1,Win32,59.88023952,,,,,space,1.2271,NAN,,NAN,0.22,5.78,,0,11,11,11,1,12,Alex,Acc,Participant_Images/66757cddd8d92a5cbfda353f/66757cddd8d92a5cbfda353f_Images/66757cddd8d92a5cbfda353f_Image_19.jpeg,did not like,2.50187214,,,,,,,,,,,,,,,,,,,,,,
,,66757cddd8d92a5cbfda353f,6685aa9113c938e83b4f1ea0,670a6ac51e6355cbd15f3486,2024-10-12_08h26.35.815,WTP_SM_Choice,2022.2.1,Win32,59.88023952,,,,,space,1.675,NAN,,NAN,0.22,5.78,,0,12,12,12,1,13,Alex,Acc,Participant_Images/66757cddd8d92a5cbfda353f/66757cddd8d92a5cbfda353f_Images/66757cddd8d92a5cbfda353f_Image_14.jpeg,did not like,2.071164779,,,,,,,,,,,,,,,,,,,,,,
,,66757cddd8d92a5cbfda353f,6685aa9113c938e83b4f1ea0,670a6ac51e6355cbd15f3486,2024-10-12_08h26.35.815,WTP_SM_Choice,2022.2.1,Win32,59.88023952,,,,,space,0.5537,NAN,,NAN,0.22,5.78,,0,13,13,13,1,14,Alex,Acc,Participant_Images/66757cddd8d92a5cbfda353f/66757cddd8d92a5cbfda353f_Images/66757cddd8d92a5cbfda353f_Image_3.jpeg,liked,5.336503566,,,,,,,,,,,,,,,,,,,,,,
,,66757cddd8d92a5cbfda353f,6685aa9113c938e83b4f1ea0,670a6ac51e6355cbd15f3486,2024-10-12_08h26.35.815,WTP_SM_Choice,2022.2.1,Win32,59.88023952,,,,,,,,,,,,,,,,,,11,,,,,,space,3.7813,space,2.2371,1,0,0,0,0,1,Discover new restaurants to eat at with my family,Watch my favorite shows on my computer at home,0.01,0.03,3.3,0,0.01,3.5633,,,,
,,66757cddd8d92a5cbfda353f,6685aa9113c938e83b4f1ea0,670a6ac51e6355cbd15f3486,2024-10-12_08h26.35.815,WTP_SM_Choice,2022.2.1,Win32,59.88023952,,,,,,,,,,,,,,,,,,12,,,,,,,,,,1,0,1,1,1,1,Get my nails done at the salon with my sister,Watch my favorite shows on my computer at home,0.02,0.03,4.4,0,0.02,2.9866,,,,
,,66757cddd8d92a5cbfda353f,6685aa9113c938e83b4f1ea0,670a6ac51e6355cbd15f3486,2024-10-12_08h26.35.815,WTP_SM_Choice,2022.2.1,Win32,59.88023952,,,,,,,,,,,,,,,,,,13,,,,,,,,,,2,0,2,2,2,1,Walk my dog at the park with my best friend,Read a book in bed before falling asleep,0.03,0.03,1.1,0,0.03,3.2049,,,,
,,66757cddd8d92a5cbfda353f,6685aa9113c938e83b4f1ea0,670a6ac51e6355cbd15f3486,2024-10-12_08h26.35.815,WTP_SM_Choice,2022.2.1,Win32,59.88023952,,,,,,,,,,,,,,,,,,14,,,,,,,,,,2,0,3,3,3,1,Go to the springs on the hottest day of the year with my friends,Put outfits together with the clothing that I have,0.04,0.03,3.3,0,0.03,3.2841,,,,
,,66757cddd8d92a5cbfda353f,6685aa9113c938e83b4f1ea0,670a6ac51e6355cbd15f3486,2024-10-12_08h26.35.815,WTP_SM_Choice,2022.2.1,Win32,59.88023952,,,,,,,,,,,,,,,,,,15,,,,,,,,,,2,0,4,4,4,1,Go downtown to walk around and shop with my friends,Read a book in bed before falling asleep,0.05,0.03,4.4,0,0.03,2.7085,,,,
,,66757cddd8d92a5cbfda353f,6685aa9113c938e83b4f1ea0,670a6ac51e6355cbd15f3486,2024-10-12_08h26.35.815,WTP_SM_Choice,2022.2.1,Win32,59.88023952,,,,,,,NAN,,NAN,0.34,5.66,,0,14,14,14,1,15,Alex,Acc,Participant_Images/66757cddd8d92a5cbfda353f/66757cddd8d92a5cbfda353f_Images/66757cddd8d92a5cbfda353f_Image_5.jpeg,did not like,2.642157193,,,,,,,,,,,,,,,,,,,,,,
,,66757cddd8d92a5cbfda353f,6685aa9113c938e83b4f1ea0,670a6ac51e6355cbd15f3486,2024-10-12_08h26.35.815,WTP_SM_Choice,2022.2.1,Win32,59.88023952,,,,,space,0.3534,NAN,,NAN,0.34,5.66,,0,15,15,15,1,16,Alex,Acc,Participant_Images/66757cddd8d92a5cbfda353f/66757cddd8d92a5cbfda353f_Images/66757cddd8d92a5cbfda353f_Image_25.jpeg,liked,4.456234322,,,,,,,,,,,,,,,,,,,,,,
,,66757cddd8d92a5cbfda353f,6685aa9113c938e83b4f1ea0,670a6ac51e6355cbd15f3486,2024-10-12_08h26.35.815,WTP_SM_Choice,2022.2.1,Win32,59.88023952,,,,,space,1.0275,NAN,,NAN,0.34,5.66,,0,16,16,16,1,17,Alex,Acc,Participant_Images/66757cddd8d92a5cbfda353f/66757cddd8d92a5cbfda353f_Images/66757cddd8d92a5cbfda353f_Image_8.jpeg,liked,4.438512181,,,,,,,,,,,,,,,,,,,,,,
,,66757cddd8d92a5cbfda353f,6685aa9113c938e83b4f1ea0,670a6ac51e6355cbd15f3486,2024-10-12_08h26.35.815,WTP_SM_Choice,2022.2.1,Win32,59.88023952,,,,,space,0.6774,NAN,,NAN,0.34,5.66,,0,17,17,17,1,18,Alex,Acc,Participant_Images/66757cddd8d92a5cbfda353f/66757cddd8d92a5cbfda353f_Images/66757cddd8d92a5cbfda353f_Image_11.jpeg,liked,2.682944783,,,,,,,,,,,,,,,,,,,,,,
,,66757cddd8d92a5cbfda353f,6685aa9113c938e83b4f1ea0,670a6ac51e6355cbd15f3486,2024-10-12_08h26.35.815,WTP_SM_Choice,2022.2.1,Win32,59.88023952,,,,,space,1.0191,NAN,,NAN,0.34,5.66,,0,18,18,18,1,19,Alex,Acc,Participant_Images/66757cddd8d92a5cbfda353f/66757cddd8d92a5cbfda353f_Images/66757cddd8d92a5cbfda353f_Image_15.jpeg,did not like,4.51984296,,,,,,,,,,,,,,,,,,,,,,
,,66757cddd8d92a5cbfda353f,6685aa9113c938e83b4f1ea0,670a6ac51e6355cbd15f3486,2024-10-12_08h26.35.815,WTP_SM_Choice,2022.2.1,Win32,59.88023952,,,,,,,,,,,,,,,,,,16,,,,,,space,1.6805,space,0.7521,2,0,0,0,0,1,Paint beautiful scenes of the local beaches,Discover new restaurants to eat at with my family,0.01,0.04,1.1,1,0.04,3.7011,,,,
,,66757cddd8d92a5cbfda353f,6685aa9113c938e83b4f1ea0,670a6ac51e6355cbd15f3486,2024-10-12_08h26.35.815,WTP_SM_Choice,2022.2.1,Win32,59.88023952,,,,,,,,,,,,,,,,,,17,,,,,,,,,,1,0,1,1,1,1,Watch my favorite shows on my computer at home,Get Chinese takeout with my best friend on a Wednesday night,0.02,0.04,8.8,1,0.02,3.2387,,,,
,,66757cddd8d92a5cbfda353f,6685aa9113c938e83b4f1ea0,670a6ac51e6355cbd15f3486,2024-10-12_08h26.35.815,WTP_SM_Choice,2022.2.1,Win32,59.88023952,,,,,,,,,,,,,,,,,,18,,,,,,,,,,1,0,2,2,2,1,Read a book in bed before falling asleep,Watch scary movies at night with friends,0.03,0.04,3.3,1,0.03,3.0211,,,,
,,66757cddd8d92a5cbfda353f,6685aa9113c938e83b4f1ea0,670a6ac51e6355cbd15f3486,2024-10-12_08h26.35.815,WTP_SM_Choice,2022.2.1,Win32,59.88023952,,,,,,,,,,,,,,,,,,19,,,,,,,,,,2,0,3,3,3,1,Drive around the town on a quite weekend day,Walk my dog at the park with my best friend,0.04,0.04,3.3,1,0.04,5.1902,,,,
,,66757cddd8d92a5cbfda353f,6685aa9113c938e83b4f1ea0,670a6ac51e6355cbd15f3486,2024-10-12_08h26.35.815,WTP_SM_Choice,2022.2.1,Win32,59.88023952,,,,,,,,,,,,,,,,,,20,,,,,,,,,,2,0,4,4,4,1,Swim at the beach during the summer with my friends,Read a book in bed before falling asleep,0.05,0.04,1.1,0,0.04,2.9444,,,,
,,66757cddd8d92a5cbfda353f,6685aa9113c938e83b4f1ea0,670a6ac51e6355cbd15f3486,2024-10-12_08h26.35.815,WTP_SM_Choice,2022.2.1,Win32,59.88023952,,,,,,,NAN,,NAN,0.51,5.49,,0,19,19,19,1,20,Alex,Acc,Participant_Images/66757cddd8d92a5cbfda353f/66757cddd8d92a5cbfda353f_Images/66757cddd8d92a5cbfda353f_Image_10.jpeg,liked,3.195382774,,,,,,,,,,,,,,,,,,,,,,
,,66757cddd8d92a5cbfda353f,6685aa9113c938e83b4f1ea0,670a6ac51e6355cbd15f3486,2024-10-12_08h26.35.815,WTP_SM_Choice,2022.2.1,Win32,59.88023952,,,,,space,0.4154,NAN,,NAN,0.51,5.49,,0,20,20,20,1,21,Alex,Acc,Participant_Images/66757cddd8d92a5cbfda353f/66757cddd8d92a5cbfda353f_Images/66757cddd8d92a5cbfda353f_Image_16.jpeg,liked,1.779333479,,,,,,,,,,,,,,,,,,,,,,
,,66757cddd8d92a5cbfda353f,6685aa9113c938e83b4f1ea0,670a6ac51e6355cbd15f3486,2024-10-12_08h26.35.815,WTP_SM_Choice,2022.2.1,Win32,59.88023952,,,,,space,0.8252,NAN,,NAN,0.51,5.49,,0,21,21,21,1,22,Alex,Acc,Participant_Images/66757cddd8d92a5cbfda353f/66757cddd8d92a5cbfda353f_Images/66757cddd8d92a5cbfda353f_Image_21.jpeg,liked,4.312468682,,,,,,,,,,,,,,,,,,,,,,
,,66757cddd8d92a5cbfda353f,6685aa9113c938e83b4f1ea0,670a6ac51e6355cbd15f3486,2024-10-12_08h26.35.815,WTP_SM_Choice,2022.2.1,Win32,59.88023952,,,,,space,1.0024,NAN,,NAN,0.51,5.49,,0,22,22,22,1,23,Alex,Acc,Participant_Images/66757cddd8d92a5cbfda353f/66757cddd8d92a5cbfda353f_Images/66757cddd8d92a5cbfda353f_Image_12.jpeg,liked,4.940433059,,,,,,,,,,,,,,,,,,,,,,
,,66757cddd8d92a5cbfda353f,6685aa9113c938e83b4f1ea0,670a6ac51e6355cbd15f3486,2024-10-12_08h26.35.815,WTP_SM_Choice,2022.2.1,Win32,59.88023952,,,,,space,0.7007,NAN,,NAN,0.51,5.49,,0,23,23,23,1,24,Alex,Acc,Participant_Images/66757cddd8d92a5cbfda353f/66757cddd8d92a5cbfda353f_Images/66757cddd8d92a5cbfda353f_Image_6.jpeg,did not like,2.7105123,,,,,,,,,,,,,,,,,,,,,,
,,66757cddd8d92a5cbfda353f,6685aa9113c938e83b4f1ea0,670a6ac51e6355cbd15f3486,2024-10-12_08h26.35.815,WTP_SM_Choice,2022.2.1,Win32,59.88023952,,,,,,,,,,,,,,,,,,21,,,,,,space,2.0209,space,0.6656,1,0,0,0,0,1,Work out using dumbells in my bedroom,Watch scary movies at night with friends,0.01,0.05,8.8,1,0.01,3.1153,,,,
,,66757cddd8d92a5cbfda353f,6685aa9113c938e83b4f1ea0,670a6ac51e6355cbd15f3486,2024-10-12_08h26.35.815,WTP_SM_Choice,2022.2.1,Win32,59.88023952,,,,,,,,,,,,,,,,,,22,,,,,,,,,,1,0,1,1,1,1,Discover new restaurants to eat at with my family,Drive around the town on a quite weekend day,0.02,0.05,4.4,0,0.02,3.6218,,,,
,,66757cddd8d92a5cbfda353f,6685aa9113c938e83b4f1ea0,670a6ac51e6355cbd15f3486,2024-10-12_08h26.35.815,WTP_SM_Choice,2022.2.1,Win32,59.88023952,,,,,,,,,,,,,,,,,,23,,,,,,,,,,,0,2,2,2,1,Run errands on a boring day with my sister to spend time,Listen to my favorite music while I shower,0.03,0.05,1.1,0,,,,,,
,,66757cddd8d92a5cbfda353f,6685aa9113c938e83b4f1ea0,670a6ac51e6355cbd15f3486,2024-10-12_08h26.35.815,WTP_SM_Choice,2022.2.1,Win32,59.88023952,,,,,,,,,,,,,,,,,,24,,,,,,,,,,,0,3,3,3,1,Walk my dog at the park with my best friend,Watch and listen to the rain with a candle lit,0.04,0.05,4.4,0,,,,,,
,,66757cddd8d92a5cbfda353f,6685aa9113c938e83b4f1ea0,670a6ac51e6355cbd15f3486,2024-10-12_08h26.35.815,WTP_SM_Choice,2022.2.1,Win32,59.88023952,,,,,,,,,,,,,,,,,,25,,,,,,,,,,,0,4,4,4,1,Drive around the town on a quite weekend day,Get my nails done at the salon with my sister,0.05,0.05,3.3,1,,,,,,
,,66757cddd8d92a5cbfda353f,6685aa9113c938e83b4f1ea0,670a6ac51e6355cbd15f3486,2024-10-12_08h26.35.815,WTP_SM_Choice,2022.2.1,Win32,59.88023952,,,,,,,5,,9,0.54,5.46,,0,24,24,24,1,25,Alex,Acc,Participant_Images/66757cddd8d92a5cbfda353f/66757cddd8d92a5cbfda353f_Images/66757cddd8d92a5cbfda353f_Image_22.jpeg,liked,3.602308302,,,,,,,,,,,,,,,,,,,space,1.3954,,
,,66757cddd8d92a5cbfda353f,6685aa9113c938e83b4f1ea0,670a6ac51e6355cbd15f3486,2024-10-12_08h26.35.815,WTP_SM_Choice,2022.2.1,Win32,59.88023952,,,space,2.3075,space,0.2651,NAN,,NAN,0.54,5.46,,0,25,25,25,1,26,Sam,Rej,Participant_Images/66757cddd8d92a5cbfda353f/66757cddd8d92a5cbfda353f_Images/66757cddd8d92a5cbfda353f_Image_12.jpeg,liked,4.106391878,,,,,,,,,,,,,,,,,,,,,,
,,66757cddd8d92a5cbfda353f,6685aa9113c938e83b4f1ea0,670a6ac51e6355cbd15f3486,2024-10-12_08h26.35.815,WTP_SM_Choice,2022.2.1,Win32,59.88023952,,,,,space,1.3844,NAN,,NAN,0.54,5.46,,0,26,26,26,1,27,Sam,Rej,Participant_Images/66757cddd8d92a5cbfda353f/66757cddd8d92a5cbfda353f_Images/66757cddd8d92a5cbfda353f_Image_11.jpeg,did not like,3.799433026,,,,,,,,,,,,,,,,,,,,,,
,,66757cddd8d92a5cbfda353f,6685aa9113c938e83b4f1ea0,670a6ac51e6355cbd15f3486,2024-10-12_08h26.35.815,WTP_SM_Choice,2022.2.1,Win32,59.88023952,,,,,space,1.2345,NAN,,NAN,0.54,5.46,,0,27,27,27,1,28,Sam,Rej,Participant_Images/66757cddd8d92a5cbfda353f/66757cddd8d92a5cbfda353f_Images/66757cddd8d92a5cbfda353f_Image_24.jpeg,did not like,5.246980764,,,,,,,,,,,,,,,,,,,,,,
,,66757cddd8d92a5cbfda353f,6685aa9113c938e83b4f1ea0,670a6ac51e6355cbd15f3486,2024-10-12_08h26.35.815,WTP_SM_Choice,2022.2.1,Win32,59.88023952,,,,,space,2.3929,NAN,,NAN,0.54,5.46,,0,28,28,28,1,29,Sam,Rej,Participant_Images/66757cddd8d92a5cbfda353f/66757cddd8d92a5cbfda353f_Images/66757cddd8d92a5cbfda353f_Image_1.jpeg,did not like,3.30081769,,,,,,,,,,,,,,,,,,,,,,
,,66757cddd8d92a5cbfda353f,6685aa9113c938e83b4f1ea0,670a6ac51e6355cbd15f3486,2024-10-12_08h26.35.815,WTP_SM_Choice,2022.2.1,Win32,59.88023952,,,,,,,,,,,,,,,,,,26,,,,,,space,1.4723,space,1.5645,2,0,0,0,0,1,Go out to theme parks on the weekend with my family,Shop online for the best deals on things I need,0.01,0.01,4.4,0,0.01,3.1058,,,,
,,66757cddd8d92a5cbfda353f,6685aa9113c938e83b4f1ea0,670a6ac51e6355cbd15f3486,2024-10-12_08h26.35.815,WTP_SM_Choice,2022.2.1,Win32,59.88023952,,,,,,,,,,,,,,,,,,27,,,,,,,,,,1,0,1,1,1,1,Go downtown to walk around and shop with my friends,Shop online for the best deals on things I need,0.02,0.01,3.3,0,0.02,2.9636,,,,
,,66757cddd8d92a5cbfda353f,6685aa9113c938e83b4f1ea0,670a6ac51e6355cbd15f3486,2024-10-12_08h26.35.815,WTP_SM_Choice,2022.2.1,Win32,59.88023952,,,,,,,,,,,,,,,,,,28,,,,,,,,,,1,0,2,2,2,1,Watch my favorite shows on my computer at home,Swim at the beach during the summer with my friends,0.03,0.01,3.3,1,0.03,4.5433,,,,
,,66757cddd8d92a5cbfda353f,6685aa9113c938e83b4f1ea0,670a6ac51e6355cbd15f3486,2024-10-12_08h26.35.815,WTP_SM_Choice,2022.2.1,Win32,59.88023952,,,,,,,,,,,,,,,,,,29,,,,,,,,,,2,0,3,3,3,1,Watch scary movies at night with friends,Listen to my favorite music while I shower,0.04,0.01,4.4,0,0.01,4.1763,,,,
,,66757cddd8d92a5cbfda353f,6685aa9113c938e83b4f1ea0,670a6ac51e6355cbd15f3486,2024-10-12_08h26.35.815,WTP_SM_Choice,2022.2.1,Win32,59.88023952,,,,,,,,,,,,,,,,,,30,,,,,,,,,,2,0,4,4,4,1,Walk my dog at the park with my best friend,Watch my favorite shows on my computer at home,0.05,0.01,8.8,0,0.01,3.7946,,,,
,,66757cddd8d92a5cbfda353f,6685aa9113c938e83b4f1ea0,670a6ac51e6355cbd15f3486,2024-10-12_08h26.35.815,WTP_SM_Choice,2022.2.1,Win32,59.88023952,,,,,,,NAN,,NAN,0.62,5.38,,0,29,29,29,1,30,Sam,Rej,Participant_Images/66757cddd8d92a5cbfda353f/66757cddd8d92a5cbfda353f_Images/66757cddd8d92a5cbfda353f_Image_9.jpeg,did not like,1.661473164,,,,,,,,,,,,,,,,,,,,,,
,,66757cddd8d92a5cbfda353f,6685aa9113c938e83b4f1ea0,670a6ac51e6355cbd15f3486,2024-10-12_08h26.35.815,WTP_SM_Choice,2022.2.1,Win32,59.88023952,,,,,space,1.1738,NAN,,NAN,0.62,5.38,,0,30,30,30,1,31,Sam,Rej,Participant_Images/66757cddd8d92a5cbfda353f/66757cddd8d92a5cbfda353f_Images/66757cddd8d92a5cbfda353f_Image_3.jpeg,did not like,3.613205605,,,,,,,,,,,,,,,,,,,,,,
,,66757cddd8d92a5cbfda353f,6685aa9113c938e83b4f1ea0,670a6ac51e6355cbd15f3486,2024-10-12_08h26.35.815,WTP_SM_Choice,2022.2.1,Win32,59.88023952,,,,,space,0.8371,NAN,,NAN,0.62,5.38,,0,31,31,31,1,32,Sam,Rej,Participant_Images/66757cddd8d92a5cbfda353f/66757cddd8d92a5cbfda353f_Images/66757cddd8d92a5cbfda353f_Image_7.jpeg,liked,4.988446431,,,,,,,,,,,,,,,,,,,,,,
,,66757cddd8d92a5cbfda353f,6685aa9113c938e83b4f1ea0,670a6ac51e6355cbd15f3486,2024-10-12_08h26.35.815,WTP_SM_Choice,2022.2.1,Win32,59.88023952,,,,,space,0.8172,NAN,,NAN,0.62,5.38,,0,32,32,32,1,33,Sam,Rej,Participant_Images/66757cddd8d92a5cbfda353f/66757cddd8d92a5cbfda353f_Images/66757cddd8d92a5cbfda353f_Image_8.jpeg,did not like,3.470791822,,,,,,,,,,,,,,,,,,,,,,
,,66757cddd8d92a5cbfda353f,6685aa9113c938e83b4f1ea0,670a6ac51e6355cbd15f3486,2024-10-12_08h26.35.815,WTP_SM_Choice,2022.2.1,Win32,59.88023952,,,,,space,0.6041,NAN,,NAN,0.62,5.38,,0,33,33,33,1,34,Sam,Rej,Participant_Images/66757cddd8d92a5cbfda353f/66757cddd8d92a5cbfda353f_Images/66757cddd8d92a5cbfda353f_Image_13.jpeg,did not like,3.820572462,,,,,,,,,,,,,,,,,,,,,,
,,66757cddd8d92a5cbfda353f,6685aa9113c938e83b4f1ea0,670a6ac51e6355cbd15f3486,2024-10-12_08h26.35.815,WTP_SM_Choice,2022.2.1,Win32,59.88023952,,,,,,,,,,,,,,,,,,31,,,,,,space,1.3988,space,0.7813,1,0,0,0,0,1,Watch scary movies at night with friends,Drive around the town on a quite weekend day,0.01,0.02,8.8,0,0.01,2.5227,,,,
,,66757cddd8d92a5cbfda353f,6685aa9113c938e83b4f1ea0,670a6ac51e6355cbd15f3486,2024-10-12_08h26.35.815,WTP_SM_Choice,2022.2.1,Win32,59.88023952,,,,,,,,,,,,,,,,,,32,,,,,,,,,,2,0,1,1,1,1,Watch and listen to the rain with a candle lit,Run errands on a boring day with my sister to spend time,0.02,0.02,1.1,1,0.02,3.6029,,,,
,,66757cddd8d92a5cbfda353f,6685aa9113c938e83b4f1ea0,670a6ac51e6355cbd15f3486,2024-10-12_08h26.35.815,WTP_SM_Choice,2022.2.1,Win32,59.88023952,,,,,,,,,,,,,,,,,,33,,,,,,,,,,2,0,2,2,2,1,Go downtown to walk around and shop with my friends,Pet my cat in my room with no other distractions,0.03,0.02,4.4,0,0.02,3.3741,,,,
,,66757cddd8d92a5cbfda353f,6685aa9113c938e83b4f1ea0,670a6ac51e6355cbd15f3486,2024-10-12_08h26.35.815,WTP_SM_Choice,2022.2.1,Win32,59.88023952,,,,,,,,,,,,,,,,,,34,,,,,,,,,,1,0,3,3,3,1,Pet my cat in my room with no other distractions,Walk my dog at the park with my best friend,0.04,0.02,3.3,1,0.04,4.5505,,,,
,,66757cddd8d92a5cbfda353f,6685aa9113c938e83b4f1ea0,670a6ac51e6355cbd15f3486,2024-10-12_08h26.35.815,WTP_SM_Choice,2022.2.1,Win32,59.88023952,,,,,,,,,,,,,,,,,,35,,,,,,,,,,1,0,4,4,4,1,Listen to my favorite music while I shower,Swim at the beach during the summer with my friends,0.05,0.02,1.1,1,0.05,3.4423,,,,
,,66757cddd8d92a5cbfda353f,6685aa9113c938e83b4f1ea0,670a6ac51e6355cbd15f3486,2024-10-12_08h26.35.815,WTP_SM_Choice,2022.2.1,Win32,59.88023952,,,,,,,NAN,,NAN,0.76,5.24,,0,34,34,34,1,35,Sam,Rej,Participant_Images/66757cddd8d92a5cbfda353f/66757cddd8d92a5cbfda353f_Images/66757cddd8d92a5cbfda353f_Image_2.jpeg,did not like,2.455989137,,,,,,,,,,,,,,,,,,,,,,
,,66757cddd8d92a5cbfda353f,6685aa9113c938e83b4f1ea0,670a6ac51e6355cbd15f3486,2024-10-12_08h26.35.815,WTP_SM_Choice,2022.2.1,Win32,59.88023952,,,,,space,0.4884,NAN,,NAN,0.76,5.24,,0,35,35,35,1,36,Sam,Rej,Participant_Images/66757cddd8d92a5cbfda353f/66757cddd8d92a5cbfda353f_Images/66757cddd8d92a5cbfda353f_Image_17.jpeg,did not like,3.79605092,,,,,,,,,,,,,,,,,,,,,,
,,66757cddd8d92a5cbfda353f,6685aa9113c938e83b4f1ea0,670a6ac51e6355cbd15f3486,2024-10-12_08h26.35.815,WTP_SM_Choice,2022.2.1,Win32,59.88023952,,,,,space,1.8253,NAN,,NAN,0.76,5.24,,0,36,36,36,1,37,Sam,Rej,Participant_Images/66757cddd8d92a5cbfda353f/66757cddd8d92a5cbfda353f_Images/66757cddd8d92a5cbfda353f_Image_18.jpeg,did not like,3.562416326,,,,,,,,,,,,,,,,,,,,,,
,,66757cddd8d92a5cbfda353f,6685aa9113c938e83b4f1ea0,670a6ac51e6355cbd15f3486,2024-10-12_08h26.35.815,WTP_SM_Choice,2022.2.1,Win32,59.88023952,,,,,space,0.5509,NAN,,NAN,0.76,5.24,,0,37,37,37,1,38,Sam,Rej,Participant_Images/66757cddd8d92a5cbfda353f/66757cddd8d92a5cbfda353f_Images/66757cddd8d92a5cbfda353f_Image_25.jpeg,liked,2.843822497,,,,,,,,,,,,,,,,,,,,,,
,,66757cddd8d92a5cbfda353f,6685aa9113c938e83b4f1ea0,670a6ac51e6355cbd15f3486,2024-10-12_08h26.35.815,WTP_SM_Choice,2022.2.1,Win32,59.88023952,,,,,space,0.4698,NAN,,NAN,0.76,5.24,,0,38,38,38,1,39,Sam,Rej,Participant_Images/66757cddd8d92a5cbfda353f/66757cddd8d92a5cbfda353f_Images/66757cddd8d92a5cbfda353f_Image_16.jpeg,liked,3.546495948,,,,,,,,,,,,,,,,,,,,,,
,,66757cddd8d92a5cbfda353f,6685aa9113c938e83b4f1ea0,670a6ac51e6355cbd15f3486,2024-10-12_08h26.35.815,WTP_SM_Choice,2022.2.1,Win32,59.88023952,,,,,,,,,,,,,,,,,,36,,,,,,space,1.5162,space,1.2183,1,0,0,0,0,1,Run errands on a boring day with my sister to spend time,Pet my cat in my room with no other distractions,0.01,0.03,3.3,0,0.01,4.2465,,,,
,,66757cddd8d92a5cbfda353f,6685aa9113c938e83b4f1ea0,670a6ac51e6355cbd15f3486,2024-10-12_08h26.35.815,WTP_SM_Choice,2022.2.1,Win32,59.88023952,,,,,,,,,,,,,,,,,,37,,,,,,,,,,1,0,1,1,1,1,Drive around the town on a quite weekend day,Go downtown to walk around and shop with my friends,0.02,0.03,1.1,1,0.02,3.1193,,,,
,,66757cddd8d92a5cbfda353f,6685aa9113c938e83b4f1ea0,670a6ac51e6355cbd15f3486,2024-10-12_08h26.35.815,WTP_SM_Choice,2022.2.1,Win32,59.88023952,,,,,,,,,,,,,,,,,,38,,,,,,,,,,2,0,2,2,2,1,Swim at the beach during the summer with my friends,Drive around the town on a quite weekend day,0.03,0.03,1.1,0,0.03,2.1996,,,,
,,66757cddd8d92a5cbfda353f,6685aa9113c938e83b4f1ea0,670a6ac51e6355cbd15f3486,2024-10-12_08h26.35.815,WTP_SM_Choice,2022.2.1,Win32,59.88023952,,,,,,,,,,,,,,,,,,39,,,,,,,,,,2,0,3,3,3,1,Discover new restaurants to eat at with my family,Listen to my favorite music while I shower,0.04,0.03,3.3,0,0.03,3.1472,,,,
,,66757cddd8d92a5cbfda353f,6685aa9113c938e83b4f1ea0,670a6ac51e6355cbd15f3486,2024-10-12_08h26.35.815,WTP_SM_Choice,2022.2.1,Win32,59.88023952,,,,,,,,,,,,,,,,,,40,,,,,,,,,,2,0,4,4,4,1,Go out to theme parks on the weekend with my family,Pet my cat in my room with no other distractions,0.05,0.03,4.4,0,0.03,2.1268,,,,
,,66757cddd8d92a5cbfda353f,6685aa9113c938e83b4f1ea0,670a6ac51e6355cbd15f3486,2024-10-12_08h26.35.815,WTP_SM_Choice,2022.2.1,Win32,59.88023952,,,,,,,NAN,,NAN,0.88,5.12,,0,39,39,39,1,40,Sam,Rej,Participant_Images/66757cddd8d92a5cbfda353f/66757cddd8d92a5cbfda353f_Images/66757cddd8d92a5cbfda353f_Image_21.jpeg,liked,1.672012706,,,,,,,,,,,,,,,,,,,,,,
,,66757cddd8d92a5cbfda353f,6685aa9113c938e83b4f1ea0,670a6ac51e6355cbd15f3486,2024-10-12_08h26.35.815,WTP_SM_Choice,2022.2.1,Win32,59.88023952,,,,,space,0.5838,NAN,,NAN,0.88,5.12,,0,40,40,40,1,41,Sam,Rej,Participant_Images/66757cddd8d92a5cbfda353f/66757cddd8d92a5cbfda353f_Images/66757cddd8d92a5cbfda353f_Image_22.jpeg,did not like,4.942172136,,,,,,,,,,,,,,,,,,,,,,
,,66757cddd8d92a5cbfda353f,6685aa9113c938e83b4f1ea0,670a6ac51e6355cbd15f3486,2024-10-12_08h26.35.815,WTP_SM_Choice,2022.2.1,Win32,59.88023952,,,,,space,0.5067,NAN,,NAN,0.88,5.12,,0,41,41,41,1,42,Sam,Rej,Participant_Images/66757cddd8d92a5cbfda353f/66757cddd8d92a5cbfda353f_Images/66757cddd8d92a5cbfda353f_Image_23.jpeg,did not like,2.50187214,,,,,,,,,,,,,,,,,,,,,,
,,66757cddd8d92a5cbfda353f,6685aa9113c938e83b4f1ea0,670a6ac51e6355cbd15f3486,2024-10-12_08h26.35.815,WTP_SM_Choice,2022.2.1,Win32,59.88023952,,,,,space,0.6168,NAN,,NAN,0.88,5.12,,0,42,42,42,1,43,Sam,Rej,Participant_Images/66757cddd8d92a5cbfda353f/66757cddd8d92a5cbfda353f_Images/66757cddd8d92a5cbfda353f_Image_14.jpeg,did not like,2.071164779,,,,,,,,,,,,,,,,,,,,,,
,,66757cddd8d92a5cbfda353f,6685aa9113c938e83b4f1ea0,670a6ac51e6355cbd15f3486,2024-10-12_08h26.35.815,WTP_SM_Choice,2022.2.1,Win32,59.88023952,,,,,space,1.6888,NAN,,NAN,0.88,5.12,,0,43,43,43,1,44,Sam,Rej,Participant_Images/66757cddd8d92a5cbfda353f/66757cddd8d92a5cbfda353f_Images/66757cddd8d92a5cbfda353f_Image_4.jpeg,did not like,5.336503566,,,,,,,,,,,,,,,,,,,,,,
,,66757cddd8d92a5cbfda353f,6685aa9113c938e83b4f1ea0,670a6ac51e6355cbd15f3486,2024-10-12_08h26.35.815,WTP_SM_Choice,2022.2.1,Win32,59.88023952,,,,,,,,,,,,,,,,,,41,,,,,,space,1.1833,space,0.6471,1,0,0,0,0,1,Drive around the town on a quite weekend day,Go to the springs on the hottest day of the year with my friends,0.01,0.04,1.1,1,0.01,2.4789,,,,
,,66757cddd8d92a5cbfda353f,6685aa9113c938e83b4f1ea0,670a6ac51e6355cbd15f3486,2024-10-12_08h26.35.815,WTP_SM_Choice,2022.2.1,Win32,59.88023952,,,,,,,,,,,,,,,,,,42,,,,,,,,,,2,0,1,1,1,1,Go to the springs on the hottest day of the year with my friends,Work out using dumbells in my bedroom,0.02,0.04,3.3,0,0.04,2.8206,,,,
,,66757cddd8d92a5cbfda353f,6685aa9113c938e83b4f1ea0,670a6ac51e6355cbd15f3486,2024-10-12_08h26.35.815,WTP_SM_Choice,2022.2.1,Win32,59.88023952,,,,,,,,,,,,,,,,,,43,,,,,,,,,,2,0,2,2,2,1,Go out to theme parks on the weekend with my family,Drive around the town on a quite weekend day,0.03,0.04,1.1,0,0.04,1.755,,,,
,,66757cddd8d92a5cbfda353f,6685aa9113c938e83b4f1ea0,670a6ac51e6355cbd15f3486,2024-10-12_08h26.35.815,WTP_SM_Choice,2022.2.1,Win32,59.88023952,,,,,,,,,,,,,,,,,,44,,,,,,,,,,1,0,3,3,3,1,Watch scary movies at night with friends,Shop online for the best deals on things I need,0.04,0.04,1.1,0,0.04,2.739,,,,
,,66757cddd8d92a5cbfda353f,6685aa9113c938e83b4f1ea0,670a6ac51e6355cbd15f3486,2024-10-12_08h26.35.815,WTP_SM_Choice,2022.2.1,Win32,59.88023952,,,,,,,,,,,,,,,,,,45,,,,,,,,,,1,0,4,4,4,1,Watch my favorite shows on my computer at home,Go out to theme parks on the weekend with my family,0.05,0.04,4.4,1,0.05,3.5374,,,,
,,66757cddd8d92a5cbfda353f,6685aa9113c938e83b4f1ea0,670a6ac51e6355cbd15f3486,2024-10-12_08h26.35.815,WTP_SM_Choice,2022.2.1,Win32,59.88023952,,,,,,,NAN,,NAN,1.06,4.94,,0,44,44,44,1,45,Sam,Rej,Participant_Images/66757cddd8d92a5cbfda353f/66757cddd8d92a5cbfda353f_Images/66757cddd8d92a5cbfda353f_Image_20.jpeg,did not like,2.642157193,,,,,,,,,,,,,,,,,,,,,,
,,66757cddd8d92a5cbfda353f,6685aa9113c938e83b4f1ea0,670a6ac51e6355cbd15f3486,2024-10-12_08h26.35.815,WTP_SM_Choice,2022.2.1,Win32,59.88023952,,,,,space,0.606,NAN,,NAN,1.06,4.94,,0,45,45,45,1,46,Sam,Rej,Participant_Images/66757cddd8d92a5cbfda353f/66757cddd8d92a5cbfda353f_Images/66757cddd8d92a5cbfda353f_Image_10.jpeg,did not like,4.456234322,,,,,,,,,,,,,,,,,,,,,,
,,66757cddd8d92a5cbfda353f,6685aa9113c938e83b4f1ea0,670a6ac51e6355cbd15f3486,2024-10-12_08h26.35.815,WTP_SM_Choice,2022.2.1,Win32,59.88023952,,,,,space,0.5168,NAN,,NAN,1.06,4.94,,0,46,46,46,1,47,Sam,Rej,Participant_Images/66757cddd8d92a5cbfda353f/66757cddd8d92a5cbfda353f_Images/66757cddd8d92a5cbfda353f_Image_15.jpeg,did not like,4.438512181,,,,,,,,,,,,,,,,,,,,,,
,,66757cddd8d92a5cbfda353f,6685aa9113c938e83b4f1ea0,670a6ac51e6355cbd15f3486,2024-10-12_08h26.35.815,WTP_SM_Choice,2022.2.1,Win32,59.88023952,,,,,space,0.7374,NAN,,NAN,1.06,4.94,,0,47,47,47,1,48,Sam,Rej,Participant_Images/66757cddd8d92a5cbfda353f/66757cddd8d92a5cbfda353f_Images/66757cddd8d92a5cbfda353f_Image_5.jpeg,liked,2.682944783,,,,,,,,,,,,,,,,,,,,,,
,,66757cddd8d92a5cbfda353f,6685aa9113c938e83b4f1ea0,670a6ac51e6355cbd15f3486,2024-10-12_08h26.35.815,WTP_SM_Choice,2022.2.1,Win32,59.88023952,,,,,space,0.7724,NAN,,NAN,1.06,4.94,,0,48,48,48,1,49,Sam,Rej,Participant_Images/66757cddd8d92a5cbfda353f/66757cddd8d92a5cbfda353f_Images/66757cddd8d92a5cbfda353f_Image_19.jpeg,did not like,4.51984296,,,,,,,,,,,,,,,,,,,,,,
,,66757cddd8d92a5cbfda353f,6685aa9113c938e83b4f1ea0,670a6ac51e6355cbd15f3486,2024-10-12_08h26.35.815,WTP_SM_Choice,2022.2.1,Win32,59.88023952,,,,,,,,,,,,,,,,,,46,,,,,,space,0.8413,space,0.8347,2,0,0,0,0,1,Go downtown to walk around and shop with my friends,Listen to my favorite music while I shower,0.01,0.05,8.8,0,0.05,2.501,,,,
,,66757cddd8d92a5cbfda353f,6685aa9113c938e83b4f1ea0,670a6ac51e6355cbd15f3486,2024-10-12_08h26.35.815,WTP_SM_Choice,2022.2.1,Win32,59.88023952,,,,,,,,,,,,,,,,,,47,,,,,,,,,,1,0,1,1,1,1,Work out using dumbells in my bedroom,Run errands on a boring day with my sister to spend time,0.02,0.05,1.1,1,0.02,3.1447,,,,
,,66757cddd8d92a5cbfda353f,6685aa9113c938e83b4f1ea0,670a6ac51e6355cbd15f3486,2024-10-12_08h26.35.815,WTP_SM_Choice,2022.2.1,Win32,59.88023952,,,,,,,,,,,,,,,,,,48,,,,,,,,,,2,0,2,2,2,1,Go to the springs on the hottest day of the year with my friends,Read a book in bed before falling asleep,0.03,0.05,4.4,0,0.05,2.3222,,,,
,,66757cddd8d92a5cbfda353f,6685aa9113c938e83b4f1ea0,670a6ac51e6355cbd15f3486,2024-10-12_08h26.35.815,WTP_SM_Choice,2022.2.1,Win32,59.88023952,,,,,,,,,,,,,,,,,,49,,,,,,,,,,2,0,3,3,3,1,Shop online for the best deals on things I need,Run errands on a boring day with my sister to spend time,0.04,0.05,3.3,1,0.05,3.6287,,,,
,,66757cddd8d92a5cbfda353f,6685aa9113c938e83b4f1ea0,670a6ac51e6355cbd15f3486,2024-10-12_08h26.35.815,WTP_SM_Choice,2022.2.1,Win32,59.88023952,,,,,,,,,,,,,,,,,,50,,,,,,,,,,1,0,4,4,4,1,Watch and listen to the rain with a candle lit,Go downtown to walk around and shop with my friends,0.05,0.05,1.1,1,0.05,3.1563,,,,
,,66757cddd8d92a5cbfda353f,6685aa9113c938e83b4f1ea0,670a6ac51e6355cbd15f3486,2024-10-12_08h26.35.815,WTP_SM_Choice,2022.2.1,Win32,59.88023952,,,,,,,2,,8,1.28,4.72,,0,49,49,49,1,50,Sam,Rej,Participant_Images/66757cddd8d92a5cbfda353f/66757cddd8d92a5cbfda353f_Images/66757cddd8d92a5cbfda353f_Image_6.jpeg,liked,3.195382774,,,,,,,,,,,,,,,,,,,space,1.4012,,
,,66757cddd8d92a5cbfda353f,6685aa9113c938e83b4f1ea0,670a6ac51e6355cbd15f3486,2024-10-12_08h26.35.815,WTP_SM_Choice,2022.2.1,Win32,59.88023952,,,space,1.2139,space,0.5838,NAN,,NAN,1.28,4.72,,0,50,50,50,1,51,Charlie,Rej,Participant_Images/66757cddd8d92a5cbfda353f/66757cddd8d92a5cbfda353f_Images/66757cddd8d92a5cbfda353f_Image_3.jpeg,did not like,1.779333479,,,,,,,,,,,,,,,,,,,,,,
,,66757cddd8d92a5cbfda353f,6685aa9113c938e83b4f1ea0,670a6ac51e6355cbd15f3486,2024-10-12_08h26.35.815,WTP_SM_Choice,2022.2.1,Win32,59.88023952,,,,,space,0.7744,NAN,,NAN,1.28,4.72,,0,51,51,51,1,52,Charlie,Rej,Participant_Images/66757cddd8d92a5cbfda353f/66757cddd8d92a5cbfda353f_Images/66757cddd8d92a5cbfda353f_Image_17.jpeg,did not like,4.312468682,,,,,,,,,,,,,,,,,,,,,,
,,66757cddd8d92a5cbfda353f,6685aa9113c938e83b4f1ea0,670a6ac51e6355cbd15f3486,2024-10-12_08h26.35.815,WTP_SM_Choice,2022.2.1,Win32,59.88023952,,,,,space,0.8225,NAN,,NAN,1.28,4.72,,0,52,52,52,1,53,Charlie,Rej,Participant_Images/66757cddd8d92a5cbfda353f/66757cddd8d92a5cbfda353f_Images/66757cddd8d92a5cbfda353f_Image_25.jpeg,liked,4.940433059,,,,,,,,,,,,,,,,,,,,,,
,,66757cddd8d92a5cbfda353f,6685aa9113c938e83b4f1ea0,670a6ac51e6355cbd15f3486,2024-10-12_08h26.35.815,WTP_SM_Choice,2022.2.1,Win32,59.88023952,,,,,space,0.6368,NAN,,NAN,1.28,4.72,,0,53,53,53,1,54,Charlie,Rej,Participant_Images/66757cddd8d92a5cbfda353f/66757cddd8d92a5cbfda353f_Images/66757cddd8d92a5cbfda353f_Image_8.jpeg,did not like,2.7105123,,,,,,,,,,,,,,,,,,,,,,
,,66757cddd8d92a5cbfda353f,6685aa9113c938e83b4f1ea0,670a6ac51e6355cbd15f3486,2024-10-12_08h26.35.815,WTP_SM_Choice,2022.2.1,Win32,59.88023952,,,,,,,,,,,,,,,,,,51,,,,,,space,0.9908,space,0.5694,1,0,0,0,0,1,Put outfits together with the clothing that I have,Go downtown to walk around and shop with my friends,0.01,0.01,1.1,1,0.01,3.5845,,,,
,,66757cddd8d92a5cbfda353f,6685aa9113c938e83b4f1ea0,670a6ac51e6355cbd15f3486,2024-10-12_08h26.35.815,WTP_SM_Choice,2022.2.1,Win32,59.88023952,,,,,,,,,,,,,,,,,,52,,,,,,,,,,2,0,1,1,1,1,Watch and listen to the rain with a candle lit,Discover new restaurants to eat at with my family,0.02,0.01,3.3,1,0.01,3.2688,,,,
,,66757cddd8d92a5cbfda353f,6685aa9113c938e83b4f1ea0,670a6ac51e6355cbd15f3486,2024-10-12_08h26.35.815,WTP_SM_Choice,2022.2.1,Win32,59.88023952,,,,,,,,,,,,,,,,,,53,,,,,,,,,,1,0,2,2,2,1,Discover new restaurants to eat at with my family,Shop online for the best deals on things I need,0.03,0.01,1.1,0,0.03,2.9382,,,,
,,66757cddd8d92a5cbfda353f,6685aa9113c938e83b4f1ea0,670a6ac51e6355cbd15f3486,2024-10-12_08h26.35.815,WTP_SM_Choice,2022.2.1,Win32,59.88023952,,,,,,,,,,,,,,,,,,54,,,,,,,,,,1,0,3,3,3,1,Drive around the town on a quite weekend day,Get Chinese takeout with my best friend on a Wednesday night,0.04,0.01,4.4,1,0.04,3.284,,,,
,,66757cddd8d92a5cbfda353f,6685aa9113c938e83b4f1ea0,670a6ac51e6355cbd15f3486,2024-10-12_08h26.35.815,WTP_SM_Choice,2022.2.1,Win32,59.88023952,,,,,,,,,,,,,,,,,,55,,,,,,,,,,2,0,4,4,4,1,Walk my dog at the park with my best friend,Put outfits together with the clothing that I have,0.05,0.01,1.1,0,0.01,3.011,,,,
,,66757cddd8d92a5cbfda353f,6685aa9113c938e83b4f1ea0,670a6ac51e6355cbd15f3486,2024-10-12_08h26.35.815,WTP_SM_Choice,2022.2.1,Win32,59.88023952,,,,,,,NAN,,NAN,1.38,4.62,,0,54,54,54,1,55,Charlie,Rej,Participant_Images/66757cddd8d92a5cbfda353f/66757cddd8d92a5cbfda353f_Images/66757cddd8d92a5cbfda353f_Image_15.jpeg,did not like,3.602308302,,,,,,,,,,,,,,,,,,,,,,
,,66757cddd8d92a5cbfda353f,6685aa9113c938e83b4f1ea0,670a6ac51e6355cbd15f3486,2024-10-12_08h26.35.815,WTP_SM_Choice,2022.2.1,Win32,59.88023952,,,,,space,0.4435,NAN,,NAN,1.38,4.62,,0,55,55,55,1,56,Charlie,Rej,Participant_Images/66757cddd8d92a5cbfda353f/66757cddd8d92a5cbfda353f_Images/66757cddd8d92a5cbfda353f_Image_21.jpeg,liked,4.106391878,,,,,,,,,,,,,,,,,,,,,,
,,66757cddd8d92a5cbfda353f,6685aa9113c938e83b4f1ea0,670a6ac51e6355cbd15f3486,2024-10-12_08h26.35.815,WTP_SM_Choice,2022.2.1,Win32,59.88023952,,,,,space,0.7047,NAN,,NAN,1.38,4.62,,0,56,56,56,1,57,Charlie,Rej,Participant_Images/66757cddd8d92a5cbfda353f/66757cddd8d92a5cbfda353f_Images/66757cddd8d92a5cbfda353f_Image_19.jpeg,liked,3.799433026,,,,,,,,,,,,,,,,,,,,,,
,,66757cddd8d92a5cbfda353f,6685aa9113c938e83b4f1ea0,670a6ac51e6355cbd15f3486,2024-10-12_08h26.35.815,WTP_SM_Choice,2022.2.1,Win32,59.88023952,,,,,space,0.5513,NAN,,NAN,1.38,4.62,,0,57,57,57,1,58,Charlie,Rej,Participant_Images/66757cddd8d92a5cbfda353f/66757cddd8d92a5cbfda353f_Images/66757cddd8d92a5cbfda353f_Image_18.jpeg,liked,5.246980764,,,,,,,,,,,,,,,,,,,,,,
,,66757cddd8d92a5cbfda353f,6685aa9113c938e83b4f1ea0,670a6ac51e6355cbd15f3486,2024-10-12_08h26.35.815,WTP_SM_Choice,2022.2.1,Win32,59.88023952,,,,,space,0.6261,NAN,,NAN,1.38,4.62,,0,58,58,58,1,59,Charlie,Rej,Participant_Images/66757cddd8d92a5cbfda353f/66757cddd8d92a5cbfda353f_Images/66757cddd8d92a5cbfda353f_Image_20.jpeg,did not like,3.30081769,,,,,,,,,,,,,,,,,,,,,,
,,66757cddd8d92a5cbfda353f,6685aa9113c938e83b4f1ea0,670a6ac51e6355cbd15f3486,2024-10-12_08h26.35.815,WTP_SM_Choice,2022.2.1,Win32,59.88023952,,,,,,,,,,,,,,,,,,56,,,,,,space,0.9866,space,0.6026,1,0,0,0,0,1,Watch and listen to the rain with a candle lit,Go out to theme parks on the weekend with my family,0.01,0.02,8.8,1,0.01,1.2818,,,,
,,66757cddd8d92a5cbfda353f,6685aa9113c938e83b4f1ea0,670a6ac51e6355cbd15f3486,2024-10-12_08h26.35.815,WTP_SM_Choice,2022.2.1,Win32,59.88023952,,,,,,,,,,,,,,,,,,57,,,,,,,,,,1,0,1,1,1,1,Drive around the town on a quite weekend day,Run errands on a boring day with my sister to spend time,0.02,0.02,4.4,1,0.02,4.0725,,,,
,,66757cddd8d92a5cbfda353f,6685aa9113c938e83b4f1ea0,670a6ac51e6355cbd15f3486,2024-10-12_08h26.35.815,WTP_SM_Choice,2022.2.1,Win32,59.88023952,,,,,,,,,,,,,,,,,,58,,,,,,,,,,1,0,2,2,2,1,Pet my cat in my room with no other distractions,Discover new restaurants to eat at with my family,0.03,0.02,4.4,1,0.03,2.3564,,,,
,,66757cddd8d92a5cbfda353f,6685aa9113c938e83b4f1ea0,670a6ac51e6355cbd15f3486,2024-10-12_08h26.35.815,WTP_SM_Choice,2022.2.1,Win32,59.88023952,,,,,,,,,,,,,,,,,,59,,,,,,,,,,1,0,3,3,3,1,Run errands on a boring day with my sister to spend time,Watch my favorite shows on my computer at home,0.04,0.02,4.4,0,0.04,3.1189,,,,
,,66757cddd8d92a5cbfda353f,6685aa9113c938e83b4f1ea0,670a6ac51e6355cbd15f3486,2024-10-12_08h26.35.815,WTP_SM_Choice,2022.2.1,Win32,59.88023952,,,,,,,,,,,,,,,,,,60,,,,,,,,,,2,0,4,4,4,1,Go out to theme parks on the weekend with my family,Paint beautiful scenes of the local beaches,0.05,0.02,1.1,0,0.02,1.9639,,,,
,,66757cddd8d92a5cbfda353f,6685aa9113c938e83b4f1ea0,670a6ac51e6355cbd15f3486,2024-10-12_08h26.35.815,WTP_SM_Choice,2022.2.1,Win32,59.88023952,,,,,,,NAN,,NAN,1.5,4.5,,0,59,59,59,1,60,Charlie,Rej,Participant_Images/66757cddd8d92a5cbfda353f/66757cddd8d92a5cbfda353f_Images/66757cddd8d92a5cbfda353f_Image_22.jpeg,did not like,1.661473164,,,,,,,,,,,,,,,,,,,,,,
,,66757cddd8d92a5cbfda353f,6685aa9113c938e83b4f1ea0,670a6ac51e6355cbd15f3486,2024-10-12_08h26.35.815,WTP_SM_Choice,2022.2.1,Win32,59.88023952,,,,,space,0.9536,NAN,,NAN,1.5,4.5,,0,60,60,60,1,61,Charlie,Rej,Participant_Images/66757cddd8d92a5cbfda353f/66757cddd8d92a5cbfda353f_Images/66757cddd8d92a5cbfda353f_Image_14.jpeg,did not like,3.613205605,,,,,,,,,,,,,,,,,,,,,,
,,66757cddd8d92a5cbfda353f,6685aa9113c938e83b4f1ea0,670a6ac51e6355cbd15f3486,2024-10-12_08h26.35.815,WTP_SM_Choice,2022.2.1,Win32,59.88023952,,,,,space,0.6012,NAN,,NAN,1.5,4.5,,0,61,61,61,1,62,Charlie,Rej,Participant_Images/66757cddd8d92a5cbfda353f/66757cddd8d92a5cbfda353f_Images/66757cddd8d92a5cbfda353f_Image_5.jpeg,did not like,4.988446431,,,,,,,,,,,,,,,,,,,,,,
,,66757cddd8d92a5cbfda353f,6685aa9113c938e83b4f1ea0,670a6ac51e6355cbd15f3486,2024-10-12_08h26.35.815,WTP_SM_Choice,2022.2.1,Win32,59.88023952,,,,,space,0.5717,NAN,,NAN,1.5,4.5,,0,62,62,62,1,63,Charlie,Rej,Participant_Images/66757cddd8d92a5cbfda353f/66757cddd8d92a5cbfda353f_Images/66757cddd8d92a5cbfda353f_Image_16.jpeg,did not like,3.470791822,,,,,,,,,,,,,,,,,,,,,,
,,66757cddd8d92a5cbfda353f,6685aa9113c938e83b4f1ea0,670a6ac51e6355cbd15f3486,2024-10-12_08h26.35.815,WTP_SM_Choice,2022.2.1,Win32,59.88023952,,,,,space,0.5068,NAN,,NAN,1.5,4.5,,0,63,63,63,1,64,Charlie,Rej,Participant_Images/66757cddd8d92a5cbfda353f/66757cddd8d92a5cbfda353f_Images/66757cddd8d92a5cbfda353f_Image_23.jpeg,did not like,3.820572462,,,,,,,,,,,,,,,,,,,,,,
,,66757cddd8d92a5cbfda353f,6685aa9113c938e83b4f1ea0,670a6ac51e6355cbd15f3486,2024-10-12_08h26.35.815,WTP_SM_Choice,2022.2.1,Win32,59.88023952,,,,,,,,,,,,,,,,,,61,,,,,,space,0.8016,space,0.4525,1,0,0,0,0,1,Paint beautiful scenes of the local beaches,Go downtown to walk around and shop with my friends,0.01,0.03,3.3,1,0.01,2.8728,,,,
,,66757cddd8d92a5cbfda353f,6685aa9113c938e83b4f1ea0,670a6ac51e6355cbd15f3486,2024-10-12_08h26.35.815,WTP_SM_Choice,2022.2.1,Win32,59.88023952,,,,,,,,,,,,,,,,,,62,,,,,,,,,,2,0,1,1,1,1,Get Chinese takeout with my best friend on a Wednesday night,Work out using dumbells in my bedroom,0.02,0.03,3.3,0,0.03,2.3222,,,,
,,66757cddd8d92a5cbfda353f,6685aa9113c938e83b4f1ea0,670a6ac51e6355cbd15f3486,2024-10-12_08h26.35.815,WTP_SM_Choice,2022.2.1,Win32,59.88023952,,,,,,,,,,,,,,,,,,63,,,,,,,,,,1,0,2,2,2,1,Work out using dumbells in my bedroom,Swim at the beach during the summer with my friends,0.03,0.03,3.3,1,0.03,3.8241,,,,
,,66757cddd8d92a5cbfda353f,6685aa9113c938e83b4f1ea0,670a6ac51e6355cbd15f3486,2024-10-12_08h26.35.815,WTP_SM_Choice,2022.2.1,Win32,59.88023952,,,,,,,,,,,,,,,,,,64,,,,,,,,,,2,0,3,3,3,1,Get Chinese takeout with my best friend on a Wednesday night,Pet my cat in my room with no other distractions,0.04,0.03,1.1,0,0.03,1.6867,,,,
,,66757cddd8d92a5cbfda353f,6685aa9113c938e83b4f1ea0,670a6ac51e6355cbd15f3486,2024-10-12_08h26.35.815,WTP_SM_Choice,2022.2.1,Win32,59.88023952,,,,,,,,,,,,,,,,,,65,,,,,,,,,,1,0,4,4,4,1,Put outfits together with the clothing that I have,Get Chinese takeout with my best friend on a Wednesday night,0.05,0.03,1.1,1,0.05,2.0861,,,,
,,66757cddd8d92a5cbfda353f,6685aa9113c938e83b4f1ea0,670a6ac51e6355cbd15f3486,2024-10-12_08h26.35.815,WTP_SM_Choice,2022.2.1,Win32,59.88023952,,,,,,,NAN,,NAN,1.65,4.35,,0,64,64,64,1,65,Charlie,Rej,Participant_Images/66757cddd8d92a5cbfda353f/66757cddd8d92a5cbfda353f_Images/66757cddd8d92a5cbfda353f_Image_7.jpeg,liked,2.455989137,,,,,,,,,,,,,,,,,,,,,,
,,66757cddd8d92a5cbfda353f,6685aa9113c938e83b4f1ea0,670a6ac51e6355cbd15f3486,2024-10-12_08h26.35.815,WTP_SM_Choice,2022.2.1,Win32,59.88023952,,,,,space,0.6353,NAN,,NAN,1.65,4.35,,0,65,65,65,1,66,Charlie,Rej,Participant_Images/66757cddd8d92a5cbfda353f/66757cddd8d92a5cbfda353f_Images/66757cddd8d92a5cbfda353f_Image_6.jpeg,did not like,3.79605092,,,,,,,,,,,,,,,,,,,,,,
,,66757cddd8d92a5cbfda353f,6685aa9113c938e83b4f1ea0,670a6ac51e6355cbd15f3486,2024-10-12_08h26.35.815,WTP_SM_Choice,2022.2.1,Win32,59.88023952,,,,,space,0.8171,NAN,,NAN,1.65,4.35,,0,66,66,66,1,67,Charlie,Rej,Participant_Images/66757cddd8d92a5cbfda353f/66757cddd8d92a5cbfda353f_Images/66757cddd8d92a5cbfda353f_Image_24.jpeg,liked,3.562416326,,,,,,,,,,,,,,,,,,,,,,
,,66757cddd8d92a5cbfda353f,6685aa9113c938e83b4f1ea0,670a6ac51e6355cbd15f3486,2024-10-12_08h26.35.815,WTP_SM_Choice,2022.2.1,Win32,59.88023952,,,,,space,0.57,NAN,,NAN,1.65,4.35,,0,67,67,67,1,68,Charlie,Rej,Participant_Images/66757cddd8d92a5cbfda353f/66757cddd8d92a5cbfda353f_Images/66757cddd8d92a5cbfda353f_Image_2.jpeg,liked,2.843822497,,,,,,,,,,,,,,,,,,,,,,
,,66757cddd8d92a5cbfda353f,6685aa9113c938e83b4f1ea0,670a6ac51e6355cbd15f3486,2024-10-12_08h26.35.815,WTP_SM_Choice,2022.2.1,Win32,59.88023952,,,,,space,0.7762,NAN,,NAN,1.65,4.35,,0,68,68,68,1,69,Charlie,Rej,Participant_Images/66757cddd8d92a5cbfda353f/66757cddd8d92a5cbfda353f_Images/66757cddd8d92a5cbfda353f_Image_9.jpeg,did not like,3.546495948,,,,,,,,,,,,,,,,,,,,,,
,,66757cddd8d92a5cbfda353f,6685aa9113c938e83b4f1ea0,670a6ac51e6355cbd15f3486,2024-10-12_08h26.35.815,WTP_SM_Choice,2022.2.1,Win32,59.88023952,,,,,,,,,,,,,,,,,,66,,,,,,space,1.0372,space,0.3831,2,0,0,0,0,1,Run errands on a boring day with my sister to spend time,Read a book in bed before falling asleep,0.01,0.04,1.1,0,0.04,2.8322,,,,
,,66757cddd8d92a5cbfda353f,6685aa9113c938e83b4f1ea0,670a6ac51e6355cbd15f3486,2024-10-12_08h26.35.815,WTP_SM_Choice,2022.2.1,Win32,59.88023952,,,,,,,,,,,,,,,,,,67,,,,,,,,,,1,0,1,1,1,1,Paint beautiful scenes of the local beaches,Get Chinese takeout with my best friend on a Wednesday night,0.02,0.04,8.8,1,0.02,2.1349,,,,
,,66757cddd8d92a5cbfda353f,6685aa9113c938e83b4f1ea0,670a6ac51e6355cbd15f3486,2024-10-12_08h26.35.815,WTP_SM_Choice,2022.2.1,Win32,59.88023952,,,,,,,,,,,,,,,,,,68,,,,,,,,,,1,0,2,2,2,1,Pet my cat in my room with no other distractions,Go to the springs on the hottest day of the year with my friends,0.03,0.04,4.4,1,0.03,1.7206,,,,
,,66757cddd8d92a5cbfda353f,6685aa9113c938e83b4f1ea0,670a6ac51e6355cbd15f3486,2024-10-12_08h26.35.815,WTP_SM_Choice,2022.2.1,Win32,59.88023952,,,,,,,,,,,,,,,,,,69,,,,,,,,,,1,0,3,3,3,1,Watch scary movies at night with friends,Watch my favorite shows on my computer at home,0.04,0.04,1.1,0,0.04,2.7747,,,,
,,66757cddd8d92a5cbfda353f,6685aa9113c938e83b4f1ea0,670a6ac51e6355cbd15f3486,2024-10-12_08h26.35.815,WTP_SM_Choice,2022.2.1,Win32,59.88023952,,,,,,,,,,,,,,,,,,70,,,,,,,,,,2,0,4,4,4,1,Shop online for the best deals on things I need,Get Chinese takeout with my best friend on a Wednesday night,0.05,0.04,1.1,1,0.04,2.5523,,,,
,,66757cddd8d92a5cbfda353f,6685aa9113c938e83b4f1ea0,670a6ac51e6355cbd15f3486,2024-10-12_08h26.35.815,WTP_SM_Choice,2022.2.1,Win32,59.88023952,,,,,,,NAN,,NAN,1.82,4.18,,0,69,69,69,1,70,Charlie,Rej,Participant_Images/66757cddd8d92a5cbfda353f/66757cddd8d92a5cbfda353f_Images/66757cddd8d92a5cbfda353f_Image_12.jpeg,did not like,1.672012706,,,,,,,,,,,,,,,,,,,,,,
,,66757cddd8d92a5cbfda353f,6685aa9113c938e83b4f1ea0,670a6ac51e6355cbd15f3486,2024-10-12_08h26.35.815,WTP_SM_Choice,2022.2.1,Win32,59.88023952,,,,,space,0.5095,NAN,,NAN,1.82,4.18,,0,70,70,70,1,71,Charlie,Rej,Participant_Images/66757cddd8d92a5cbfda353f/66757cddd8d92a5cbfda353f_Images/66757cddd8d92a5cbfda353f_Image_10.jpeg,did not like,4.942172136,,,,,,,,,,,,,,,,,,,,,,
,,66757cddd8d92a5cbfda353f,6685aa9113c938e83b4f1ea0,670a6ac51e6355cbd15f3486,2024-10-12_08h26.35.815,WTP_SM_Choice,2022.2.1,Win32,59.88023952,,,,,space,0.4523,NAN,,NAN,1.82,4.18,,0,71,71,71,1,72,Charlie,Rej,Participant_Images/66757cddd8d92a5cbfda353f/66757cddd8d92a5cbfda353f_Images/66757cddd8d92a5cbfda353f_Image_11.jpeg,did not like,2.50187214,,,,,,,,,,,,,,,,,,,,,,
,,66757cddd8d92a5cbfda353f,6685aa9113c938e83b4f1ea0,670a6ac51e6355cbd15f3486,2024-10-12_08h26.35.815,WTP_SM_Choice,2022.2.1,Win32,59.88023952,,,,,space,0.3512,NAN,,NAN,1.82,4.18,,0,72,72,72,1,73,Charlie,Rej,Participant_Images/66757cddd8d92a5cbfda353f/66757cddd8d92a5cbfda353f_Images/66757cddd8d92a5cbfda353f_Image_13.jpeg,did not like,2.071164779,,,,,,,,,,,,,,,,,,,,,,
,,66757cddd8d92a5cbfda353f,6685aa9113c938e83b4f1ea0,670a6ac51e6355cbd15f3486,2024-10-12_08h26.35.815,WTP_SM_Choice,2022.2.1,Win32,59.88023952,,,,,space,0.7091,NAN,,NAN,1.82,4.18,,0,73,73,73,1,74,Charlie,Rej,Participant_Images/66757cddd8d92a5cbfda353f/66757cddd8d92a5cbfda353f_Images/66757cddd8d92a5cbfda353f_Image_1.jpeg,did not like,5.336503566,,,,,,,,,,,,,,,,,,,,,,
,,66757cddd8d92a5cbfda353f,6685aa9113c938e83b4f1ea0,670a6ac51e6355cbd15f3486,2024-10-12_08h26.35.815,WTP_SM_Choice,2022.2.1,Win32,59.88023952,,,,,,,,,,,,,,,,,,71,,,,,,space,0.8073,space,0.5116,2,0,0,0,0,1,Get my nails done at the salon with my sister,Work out using dumbells in my bedroom,0.01,0.05,3.3,0,0.05,3.1446,,,,
,,66757cddd8d92a5cbfda353f,6685aa9113c938e83b4f1ea0,670a6ac51e6355cbd15f3486,2024-10-12_08h26.35.815,WTP_SM_Choice,2022.2.1,Win32,59.88023952,,,,,,,,,,,,,,,,,,72,,,,,,,,,,1,0,1,1,1,1,Paint beautiful scenes of the local beaches,Swim at the beach during the summer with my friends,0.02,0.05,8.8,1,0.02,4.8882,,,,
,,66757cddd8d92a5cbfda353f,6685aa9113c938e83b4f1ea0,670a6ac51e6355cbd15f3486,2024-10-12_08h26.35.815,WTP_SM_Choice,2022.2.1,Win32,59.88023952,,,,,,,,,,,,,,,,,,73,,,,,,,,,,2,0,2,2,2,1,Get Chinese takeout with my best friend on a Wednesday night,Watch and listen to the rain with a candle lit,0.03,0.05,3.3,0,0.05,2.3713,,,,
,,66757cddd8d92a5cbfda353f,6685aa9113c938e83b4f1ea0,670a6ac51e6355cbd15f3486,2024-10-12_08h26.35.815,WTP_SM_Choice,2022.2.1,Win32,59.88023952,,,,,,,,,,,,,,,,,,74,,,,,,,,,,1,0,3,3,3,1,Shop online for the best deals on things I need,Walk my dog at the park with my best friend,0.04,0.05,4.4,1,0.04,3.0608,,,,
,,66757cddd8d92a5cbfda353f,6685aa9113c938e83b4f1ea0,670a6ac51e6355cbd15f3486,2024-10-12_08h26.35.815,WTP_SM_Choice,2022.2.1,Win32,59.88023952,,,,,,,,,,,,,,,,,,75,,,,,,,,,,2,0,4,4,4,1,Run errands on a boring day with my sister to spend time,Paint beautiful scenes of the local beaches,0.05,0.05,3.3,0,0.05,2.6547,,,,
,,66757cddd8d92a5cbfda353f,6685aa9113c938e83b4f1ea0,670a6ac51e6355cbd15f3486,2024-10-12_08h26.35.815,WTP_SM_Choice,2022.2.1,Win32,59.88023952,,,,,,,3,,8,2.03,3.97,,0,74,74,74,1,75,Charlie,Rej,Participant_Images/66757cddd8d92a5cbfda353f/66757cddd8d92a5cbfda353f_Images/66757cddd8d92a5cbfda353f_Image_4.jpeg,did not like,2.642157193,,,,,,,,,,,,,,,,,,,space,1.4506,,
,,66757cddd8d92a5cbfda353f,6685aa9113c938e83b4f1ea0,670a6ac51e6355cbd15f3486,2024-10-12_08h26.35.815,WTP_SM_Choice,2022.2.1,Win32,59.88023952,,,space,1.7801,space,0.4856,NAN,,NAN,2.03,3.97,,0,75,75,75,1,76,Riley,Acc,Participant_Images/66757cddd8d92a5cbfda353f/66757cddd8d92a5cbfda353f_Images/66757cddd8d92a5cbfda353f_Image_25.jpeg,liked,4.456234322,,,,,,,,,,,,,,,,,,,,,,
,,66757cddd8d92a5cbfda353f,6685aa9113c938e83b4f1ea0,670a6ac51e6355cbd15f3486,2024-10-12_08h26.35.815,WTP_SM_Choice,2022.2.1,Win32,59.88023952,,,,,space,0.3742,NAN,,NAN,2.03,3.97,,0,76,76,76,1,77,Riley,Acc,Participant_Images/66757cddd8d92a5cbfda353f/66757cddd8d92a5cbfda353f_Images/66757cddd8d92a5cbfda353f_Image_15.jpeg,liked,4.438512181,,,,,,,,,,,,,,,,,,,,,,
,,66757cddd8d92a5cbfda353f,6685aa9113c938e83b4f1ea0,670a6ac51e6355cbd15f3486,2024-10-12_08h26.35.815,WTP_SM_Choice,2022.2.1,Win32,59.88023952,,,,,space,0.5543,NAN,,NAN,2.03,3.97,,0,77,77,77,1,78,Riley,Acc,Participant_Images/66757cddd8d92a5cbfda353f/66757cddd8d92a5cbfda353f_Images/66757cddd8d92a5cbfda353f_Image_17.jpeg,did not like,2.682944783,,,,,,,,,,,,,,,,,,,,,,
,,66757cddd8d92a5cbfda353f,6685aa9113c938e83b4f1ea0,670a6ac51e6355cbd15f3486,2024-10-12_08h26.35.815,WTP_SM_Choice,2022.2.1,Win32,59.88023952,,,,,space,0.5035,NAN,,NAN,2.03,3.97,,0,78,78,78,1,79,Riley,Acc,Participant_Images/66757cddd8d92a5cbfda353f/66757cddd8d92a5cbfda353f_Images/66757cddd8d92a5cbfda353f_Image_12.jpeg,did not like,4.51984296,,,,,,,,,,,,,,,,,,,,,,
,,66757cddd8d92a5cbfda353f,6685aa9113c938e83b4f1ea0,670a6ac51e6355cbd15f3486,2024-10-12_08h26.35.815,WTP_SM_Choice,2022.2.1,Win32,59.88023952,,,,,,,,,,,,,,,,,,76,,,,,,space,0.869,space,0.4859,2,0,0,0,0,1,Get my nails done at the salon with my sister,Watch and listen to the rain with a candle lit,0.01,0.01,1.1,0,0.01,2.7957,,,,
,,66757cddd8d92a5cbfda353f,6685aa9113c938e83b4f1ea0,670a6ac51e6355cbd15f3486,2024-10-12_08h26.35.815,WTP_SM_Choice,2022.2.1,Win32,59.88023952,,,,,,,,,,,,,,,,,,77,,,,,,,,,,2,0,1,1,1,1,Put outfits together with the clothing that I have,Get my nails done at the salon with my sister,0.02,0.01,8.8,1,0.01,1.8682,,,,
,,66757cddd8d92a5cbfda353f,6685aa9113c938e83b4f1ea0,670a6ac51e6355cbd15f3486,2024-10-12_08h26.35.815,WTP_SM_Choice,2022.2.1,Win32,59.88023952,,,,,,,,,,,,,,,,,,78,,,,,,,,,,1,0,2,2,2,1,Paint beautiful scenes of the local beaches,Get my nails done at the salon with my sister,0.03,0.01,1.1,1,0.03,2.2924,,,,
,,66757cddd8d92a5cbfda353f,6685aa9113c938e83b4f1ea0,670a6ac51e6355cbd15f3486,2024-10-12_08h26.35.815,WTP_SM_Choice,2022.2.1,Win32,59.88023952,,,,,,,,,,,,,,,,,,79,,,,,,,,,,2,0,3,3,3,1,Go out to theme parks on the weekend with my family,Read a book in bed before falling asleep,0.04,0.01,1.1,0,0.01,1.9747,,,,
,,66757cddd8d92a5cbfda353f,6685aa9113c938e83b4f1ea0,670a6ac51e6355cbd15f3486,2024-10-12_08h26.35.815,WTP_SM_Choice,2022.2.1,Win32,59.88023952,,,,,,,,,,,,,,,,,,80,,,,,,,,,,2,0,4,4,4,1,Get my nails done at the salon with my sister,Listen to my favorite music while I shower,0.05,0.01,4.4,0,0.01,3.6193,,,,
,,66757cddd8d92a5cbfda353f,6685aa9113c938e83b4f1ea0,670a6ac51e6355cbd15f3486,2024-10-12_08h26.35.815,WTP_SM_Choice,2022.2.1,Win32,59.88023952,,,,,,,NAN,,NAN,2.1,3.9,,0,79,79,79,1,80,Riley,Acc,Participant_Images/66757cddd8d92a5cbfda353f/66757cddd8d92a5cbfda353f_Images/66757cddd8d92a5cbfda353f_Image_24.jpeg,did not like,3.195382774,,,,,,,,,,,,,,,,,,,,,,
,,66757cddd8d92a5cbfda353f,6685aa9113c938e83b4f1ea0,670a6ac51e6355cbd15f3486,2024-10-12_08h26.35.815,WTP_SM_Choice,2022.2.1,Win32,59.88023952,,,,,space,1.3347,NAN,,NAN,2.1,3.9,,0,80,80,80,1,81,Riley,Acc,Participant_Images/66757cddd8d92a5cbfda353f/66757cddd8d92a5cbfda353f_Images/66757cddd8d92a5cbfda353f_Image_7.jpeg,did not like,1.779333479,,,,,,,,,,,,,,,,,,,,,,
,,66757cddd8d92a5cbfda353f,6685aa9113c938e83b4f1ea0,670a6ac51e6355cbd15f3486,2024-10-12_08h26.35.815,WTP_SM_Choice,2022.2.1,Win32,59.88023952,,,,,space,0.3684,NAN,,NAN,2.1,3.9,,0,81,81,81,1,82,Riley,Acc,Participant_Images/66757cddd8d92a5cbfda353f/66757cddd8d92a5cbfda353f_Images/66757cddd8d92a5cbfda353f_Image_13.jpeg,liked,4.312468682,,,,,,,,,,,,,,,,,,,,,,
,,66757cddd8d92a5cbfda353f,6685aa9113c938e83b4f1ea0,670a6ac51e6355cbd15f3486,2024-10-12_08h26.35.815,WTP_SM_Choice,2022.2.1,Win32,59.88023952,,,,,space,0.5382,NAN,,NAN,2.1,3.9,,0,82,82,82,1,83,Riley,Acc,Participant_Images/66757cddd8d92a5cbfda353f/66757cddd8d92a5cbfda353f_Images/66757cddd8d92a5cbfda353f_Image_5.jpeg,did not like,4.940433059,,,,,,,,,,,,,,,,,,,,,,
,,66757cddd8d92a5cbfda353f,6685aa9113c938e83b4f1ea0,670a6ac51e6355cbd15f3486,2024-10-12_08h26.35.815,WTP_SM_Choice,2022.2.1,Win32,59.88023952,,,,,space,0.9014,NAN,,NAN,2.1,3.9,,0,83,83,83,1,84,Riley,Acc,Participant_Images/66757cddd8d92a5cbfda353f/66757cddd8d92a5cbfda353f_Images/66757cddd8d92a5cbfda353f_Image_11.jpeg,liked,2.7105123,,,,,,,,,,,,,,,,,,,,,,
,,66757cddd8d92a5cbfda353f,6685aa9113c938e83b4f1ea0,670a6ac51e6355cbd15f3486,2024-10-12_08h26.35.815,WTP_SM_Choice,2022.2.1,Win32,59.88023952,,,,,,,,,,,,,,,,,,81,,,,,,space,1.1193,space,0.5684,1,0,0,0,0,1,Put outfits together with the clothing that I have,Swim at the beach during the summer with my friends,0.01,0.02,3.3,1,0.01,2.1162,,,,
,,66757cddd8d92a5cbfda353f,6685aa9113c938e83b4f1ea0,670a6ac51e6355cbd15f3486,2024-10-12_08h26.35.815,WTP_SM_Choice,2022.2.1,Win32,59.88023952,,,,,,,,,,,,,,,,,,82,,,,,,,,,,2,0,1,1,1,1,Swim at the beach during the summer with my friends,Pet my cat in my room with no other distractions,0.02,0.02,4.4,0,0.02,1.7208,,,,
,,66757cddd8d92a5cbfda353f,6685aa9113c938e83b4f1ea0,670a6ac51e6355cbd15f3486,2024-10-12_08h26.35.815,WTP_SM_Choice,2022.2.1,Win32,59.88023952,,,,,,,,,,,,,,,,,,83,,,,,,,,,,1,0,2,2,2,1,Discover new restaurants to eat at with my family,Put outfits together with the clothing that I have,0.03,0.02,1.1,0,0.03,2.785,,,,
,,66757cddd8d92a5cbfda353f,6685aa9113c938e83b4f1ea0,670a6ac51e6355cbd15f3486,2024-10-12_08h26.35.815,WTP_SM_Choice,2022.2.1,Win32,59.88023952,,,,,,,,,,,,,,,,,,84,,,,,,,,,,2,0,3,3,3,1,Go to the springs on the hottest day of the year with my friends,Paint beautiful scenes of the local beaches,0.04,0.02,3.3,0,0.02,1.9838,,,,
,,66757cddd8d92a5cbfda353f,6685aa9113c938e83b4f1ea0,670a6ac51e6355cbd15f3486,2024-10-12_08h26.35.815,WTP_SM_Choice,2022.2.1,Win32,59.88023952,,,,,,,,,,,,,,,,,,85,,,,,,,,,,1,0,4,4,4,1,Shop online for the best deals on things I need,Go to the springs on the hottest day of the year with my friends,0.05,0.02,3.3,1,0.05,2.4348,,,,
,,66757cddd8d92a5cbfda353f,6685aa9113c938e83b4f1ea0,670a6ac51e6355cbd15f3486,2024-10-12_08h26.35.815,WTP_SM_Choice,2022.2.1,Win32,59.88023952,,,,,,,NAN,,NAN,2.23,3.77,,0,84,84,84,1,85,Riley,Acc,Participant_Images/66757cddd8d92a5cbfda353f/66757cddd8d92a5cbfda353f_Images/66757cddd8d92a5cbfda353f_Image_8.jpeg,liked,3.602308302,,,,,,,,,,,,,,,,,,,,,,
,,66757cddd8d92a5cbfda353f,6685aa9113c938e83b4f1ea0,670a6ac51e6355cbd15f3486,2024-10-12_08h26.35.815,WTP_SM_Choice,2022.2.1,Win32,59.88023952,,,,,space,0.8848,NAN,,NAN,2.23,3.77,,0,85,85,85,1,86,Riley,Acc,Participant_Images/66757cddd8d92a5cbfda353f/66757cddd8d92a5cbfda353f_Images/66757cddd8d92a5cbfda353f_Image_16.jpeg,liked,4.106391878,,,,,,,,,,,,,,,,,,,,,,
,,66757cddd8d92a5cbfda353f,6685aa9113c938e83b4f1ea0,670a6ac51e6355cbd15f3486,2024-10-12_08h26.35.815,WTP_SM_Choice,2022.2.1,Win32,59.88023952,,,,,space,0.7168,NAN,,NAN,2.23,3.77,,0,86,86,86,1,87,Riley,Acc,Participant_Images/66757cddd8d92a5cbfda353f/66757cddd8d92a5cbfda353f_Images/66757cddd8d92a5cbfda353f_Image_1.jpeg,liked,3.799433026,,,,,,,,,,,,,,,,,,,,,,
,,66757cddd8d92a5cbfda353f,6685aa9113c938e83b4f1ea0,670a6ac51e6355cbd15f3486,2024-10-12_08h26.35.815,WTP_SM_Choice,2022.2.1,Win32,59.88023952,,,,,space,0.4857,NAN,,NAN,2.23,3.77,,0,87,87,87,1,88,Riley,Acc,Participant_Images/66757cddd8d92a5cbfda353f/66757cddd8d92a5cbfda353f_Images/66757cddd8d92a5cbfda353f_Image_23.jpeg,liked,5.246980764,,,,,,,,,,,,,,,,,,,,,,
,,66757cddd8d92a5cbfda353f,6685aa9113c938e83b4f1ea0,670a6ac51e6355cbd15f3486,2024-10-12_08h26.35.815,WTP_SM_Choice,2022.2.1,Win32,59.88023952,,,,,space,1.2194,NAN,,NAN,2.23,3.77,,0,88,88,88,1,89,Riley,Acc,Participant_Images/66757cddd8d92a5cbfda353f/66757cddd8d92a5cbfda353f_Images/66757cddd8d92a5cbfda353f_Image_4.jpeg,liked,3.30081769,,,,,,,,,,,,,,,,,,,,,,
,,66757cddd8d92a5cbfda353f,6685aa9113c938e83b4f1ea0,670a6ac51e6355cbd15f3486,2024-10-12_08h26.35.815,WTP_SM_Choice,2022.2.1,Win32,59.88023952,,,,,,,,,,,,,,,,,,86,,,,,,space,0.8493,space,0.6652,1,0,0,0,0,1,Work out using dumbells in my bedroom,Discover new restaurants to eat at with my family,0.01,0.03,1.1,1,0.01,2.3575,,,,
,,66757cddd8d92a5cbfda353f,6685aa9113c938e83b4f1ea0,670a6ac51e6355cbd15f3486,2024-10-12_08h26.35.815,WTP_SM_Choice,2022.2.1,Win32,59.88023952,,,,,,,,,,,,,,,,,,87,,,,,,,,,,2,0,1,1,1,1,Get my nails done at the salon with my sister,Pet my cat in my room with no other distractions,0.02,0.03,4.4,0,0.03,1.7711,,,,
,,66757cddd8d92a5cbfda353f,6685aa9113c938e83b4f1ea0,670a6ac51e6355cbd15f3486,2024-10-12_08h26.35.815,WTP_SM_Choice,2022.2.1,Win32,59.88023952,,,,,,,,,,,,,,,,,,88,,,,,,,,,,2,0,2,2,2,1,Go to the springs on the hottest day of the year with my friends,Watch my favorite shows on my computer at home,0.03,0.03,1.1,0,0.03,2.3447,,,,
,,66757cddd8d92a5cbfda353f,6685aa9113c938e83b4f1ea0,670a6ac51e6355cbd15f3486,2024-10-12_08h26.35.815,WTP_SM_Choice,2022.2.1,Win32,59.88023952,,,,,,,,,,,,,,,,,,89,,,,,,,,,,2,0,3,3,3,1,Watch scary movies at night with friends,Paint beautiful scenes of the local beaches,0.04,0.03,3.3,0,0.03,2.5541,,,,
,,66757cddd8d92a5cbfda353f,6685aa9113c938e83b4f1ea0,670a6ac51e6355cbd15f3486,2024-10-12_08h26.35.815,WTP_SM_Choice,2022.2.1,Win32,59.88023952,,,,,,,,,,,,,,,,,,90,,,,,,,,,,1,0,4,4,4,1,Listen to my favorite music while I shower,Walk my dog at the park with my best friend,0.05,0.03,8.8,1,0.05,3.2423,,,,
,,66757cddd8d92a5cbfda353f,6685aa9113c938e83b4f1ea0,670a6ac51e6355cbd15f3486,2024-10-12_08h26.35.815,WTP_SM_Choice,2022.2.1,Win32,59.88023952,,,,,,,NAN,,NAN,2.38,3.62,,0,89,89,89,1,90,Riley,Acc,Participant_Images/66757cddd8d92a5cbfda353f/66757cddd8d92a5cbfda353f_Images/66757cddd8d92a5cbfda353f_Image_9.jpeg,liked,1.661473164,,,,,,,,,,,,,,,,,,,,,,
,,66757cddd8d92a5cbfda353f,6685aa9113c938e83b4f1ea0,670a6ac51e6355cbd15f3486,2024-10-12_08h26.35.815,WTP_SM_Choice,2022.2.1,Win32,59.88023952,,,,,space,0.6187,NAN,,NAN,2.38,3.62,,0,90,90,90,1,91,Riley,Acc,Participant_Images/66757cddd8d92a5cbfda353f/66757cddd8d92a5cbfda353f_Images/66757cddd8d92a5cbfda353f_Image_3.jpeg,liked,3.613205605,,,,,,,,,,,,,,,,,,,,,,
,,66757cddd8d92a5cbfda353f,6685aa9113c938e83b4f1ea0,670a6ac51e6355cbd15f3486,2024-10-12_08h26.35.815,WTP_SM_Choice,2022.2.1,Win32,59.88023952,,,,,space,0.7361,NAN,,NAN,2.38,3.62,,0,91,91,91,1,92,Riley,Acc,Participant_Images/66757cddd8d92a5cbfda353f/66757cddd8d92a5cbfda353f_Images/66757cddd8d92a5cbfda353f_Image_6.jpeg,did not like,4.988446431,,,,,,,,,,,,,,,,,,,,,,
,,66757cddd8d92a5cbfda353f,6685aa9113c938e83b4f1ea0,670a6ac51e6355cbd15f3486,2024-10-12_08h26.35.815,WTP_SM_Choice,2022.2.1,Win32,59.88023952,,,,,space,0.6019,NAN,,NAN,2.38,3.62,,0,92,92,92,1,93,Riley,Acc,Participant_Images/66757cddd8d92a5cbfda353f/66757cddd8d92a5cbfda353f_Images/66757cddd8d92a5cbfda353f_Image_22.jpeg,liked,3.470791822,,,,,,,,,,,,,,,,,,,,,,
,,66757cddd8d92a5cbfda353f,6685aa9113c938e83b4f1ea0,670a6ac51e6355cbd15f3486,2024-10-12_08h26.35.815,WTP_SM_Choice,2022.2.1,Win32,59.88023952,,,,,space,0.6521,NAN,,NAN,2.38,3.62,,0,93,93,93,1,94,Riley,Acc,Participant_Images/66757cddd8d92a5cbfda353f/66757cddd8d92a5cbfda353f_Images/66757cddd8d92a5cbfda353f_Image_14.jpeg,liked,3.820572462,,,,,,,,,,,,,,,,,,,,,,
,,66757cddd8d92a5cbfda353f,6685aa9113c938e83b4f1ea0,670a6ac51e6355cbd15f3486,2024-10-12_08h26.35.815,WTP_SM_Choice,2022.2.1,Win32,59.88023952,,,,,,,,,,,,,,,,,,91,,,,,,space,0.9482,space,0.7466,2,0,0,0,0,1,Swim at the beach during the summer with my friends,Shop online for the best deals on things I need,0.01,0.04,3.3,0,0.04,4.7685,,,,
,,66757cddd8d92a5cbfda353f,6685aa9113c938e83b4f1ea0,670a6ac51e6355cbd15f3486,2024-10-12_08h26.35.815,WTP_SM_Choice,2022.2.1,Win32,59.88023952,,,,,,,,,,,,,,,,,,92,,,,,,,,,,1,0,1,1,1,1,Work out using dumbells in my bedroom,Walk my dog at the park with my best friend,0.02,0.04,8.8,1,0.02,1.5883,,,,
,,66757cddd8d92a5cbfda353f,6685aa9113c938e83b4f1ea0,670a6ac51e6355cbd15f3486,2024-10-12_08h26.35.815,WTP_SM_Choice,2022.2.1,Win32,59.88023952,,,,,,,,,,,,,,,,,,93,,,,,,,,,,1,0,2,2,2,1,Watch and listen to the rain with a candle lit,Swim at the beach during the summer with my friends,0.03,0.04,1.1,1,0.03,2.2049,,,,
,,66757cddd8d92a5cbfda353f,6685aa9113c938e83b4f1ea0,670a6ac51e6355cbd15f3486,2024-10-12_08h26.35.815,WTP_SM_Choice,2022.2.1,Win32,59.88023952,,,,,,,,,,,,,,,,,,94,,,,,,,,,,2,0,3,3,3,1,Go out to theme parks on the weekend with my family,Listen to my favorite music while I shower,0.04,0.04,4.4,0,0.04,2.1385,,,,
,,66757cddd8d92a5cbfda353f,6685aa9113c938e83b4f1ea0,670a6ac51e6355cbd15f3486,2024-10-12_08h26.35.815,WTP_SM_Choice,2022.2.1,Win32,59.88023952,,,,,,,,,,,,,,,,,,95,,,,,,,,,,1,0,4,4,4,1,Work out using dumbells in my bedroom,Go downtown to walk around and shop with my friends,0.05,0.04,4.4,1,0.05,2.2417,,,,
,,66757cddd8d92a5cbfda353f,6685aa9113c938e83b4f1ea0,670a6ac51e6355cbd15f3486,2024-10-12_08h26.35.815,WTP_SM_Choice,2022.2.1,Win32,59.88023952,,,,,,,NAN,,NAN,2.56,3.44,,0,94,94,94,1,95,Riley,Acc,Participant_Images/66757cddd8d92a5cbfda353f/66757cddd8d92a5cbfda353f_Images/66757cddd8d92a5cbfda353f_Image_21.jpeg,liked,2.455989137,,,,,,,,,,,,,,,,,,,,,,
,,66757cddd8d92a5cbfda353f,6685aa9113c938e83b4f1ea0,670a6ac51e6355cbd15f3486,2024-10-12_08h26.35.815,WTP_SM_Choice,2022.2.1,Win32,59.88023952,,,,,space,0.604,NAN,,NAN,2.56,3.44,,0,95,95,95,1,96,Riley,Acc,Participant_Images/66757cddd8d92a5cbfda353f/66757cddd8d92a5cbfda353f_Images/66757cddd8d92a5cbfda353f_Image_10.jpeg,liked,3.79605092,,,,,,,,,,,,,,,,,,,,,,
,,66757cddd8d92a5cbfda353f,6685aa9113c938e83b4f1ea0,670a6ac51e6355cbd15f3486,2024-10-12_08h26.35.815,WTP_SM_Choice,2022.2.1,Win32,59.88023952,,,,,space,0.8183,NAN,,NAN,2.56,3.44,,0,96,96,96,1,97,Riley,Acc,Participant_Images/66757cddd8d92a5cbfda353f/66757cddd8d92a5cbfda353f_Images/66757cddd8d92a5cbfda353f_Image_19.jpeg,did not like,3.562416326,,,,,,,,,,,,,,,,,,,,,,
,,66757cddd8d92a5cbfda353f,6685aa9113c938e83b4f1ea0,670a6ac51e6355cbd15f3486,2024-10-12_08h26.35.815,WTP_SM_Choice,2022.2.1,Win32,59.88023952,,,,,space,0.8061,NAN,,NAN,2.56,3.44,,0,97,97,97,1,98,Riley,Acc,Participant_Images/66757cddd8d92a5cbfda353f/66757cddd8d92a5cbfda353f_Images/66757cddd8d92a5cbfda353f_Image_20.jpeg,liked,2.843822497,,,,,,,,,,,,,,,,,,,,,,
,,66757cddd8d92a5cbfda353f,6685aa9113c938e83b4f1ea0,670a6ac51e6355cbd15f3486,2024-10-12_08h26.35.815,WTP_SM_Choice,2022.2.1,Win32,59.88023952,,,,,space,0.5914,NAN,,NAN,2.56,3.44,,0,98,98,98,1,99,Riley,Acc,Participant_Images/66757cddd8d92a5cbfda353f/66757cddd8d92a5cbfda353f_Images/66757cddd8d92a5cbfda353f_Image_18.jpeg,liked,3.546495948,,,,,,,,,,,,,,,,,,,,,,
,,66757cddd8d92a5cbfda353f,6685aa9113c938e83b4f1ea0,670a6ac51e6355cbd15f3486,2024-10-12_08h26.35.815,WTP_SM_Choice,2022.2.1,Win32,59.88023952,,,,,,,,,,,,,,,,,,96,,,,,,space,0.7227,space,0.402,1,0,0,0,0,1,Paint beautiful scenes of the local beaches,Walk my dog at the park with my best friend,0.01,0.05,3.3,1,0.01,2.0362,,,,
,,66757cddd8d92a5cbfda353f,6685aa9113c938e83b4f1ea0,670a6ac51e6355cbd15f3486,2024-10-12_08h26.35.815,WTP_SM_Choice,2022.2.1,Win32,59.88023952,,,,,,,,,,,,,,,,,,97,,,,,,,,,,1,0,1,1,1,1,Watch my favorite shows on my computer at home,Go downtown to walk around and shop with my friends,0.02,0.05,1.1,1,0.02,5.1915,,,,
,,66757cddd8d92a5cbfda353f,6685aa9113c938e83b4f1ea0,670a6ac51e6355cbd15f3486,2024-10-12_08h26.35.815,WTP_SM_Choice,2022.2.1,Win32,59.88023952,,,,,,,,,,,,,,,,,,98,,,,,,,,,,1,0,2,2,2,1,Work out using dumbells in my bedroom,Go out to theme parks on the weekend with my family,0.03,0.05,1.1,1,0.03,4.0227,,,,
,,66757cddd8d92a5cbfda353f,6685aa9113c938e83b4f1ea0,670a6ac51e6355cbd15f3486,2024-10-12_08h26.35.815,WTP_SM_Choice,2022.2.1,Win32,59.88023952,,,,,,,,,,,,,,,,,,99,,,,,,,,,,1,0,3,3,3,1,Put outfits together with the clothing that I have,Go out to theme parks on the weekend with my family,0.04,0.05,3.3,1,0.04,2.2761,,,,
,,66757cddd8d92a5cbfda353f,6685aa9113c938e83b4f1ea0,670a6ac51e6355cbd15f3486,2024-10-12_08h26.35.815,WTP_SM_Choice,2022.2.1,Win32,59.88023952,,,,,,,,,,,,,,,,,,100,,,,,,,,,,2,0,4,4,4,1,Run errands on a boring day with my sister to spend time,Put outfits together with the clothing that I have,0.05,0.05,4.4,0,0.05,3.5749,,,,
,,66757cddd8d92a5cbfda353f,6685aa9113c938e83b4f1ea0,670a6ac51e6355cbd15f3486,2024-10-12_08h26.35.815,WTP_SM_Choice,2022.2.1,Win32,59.88023952,,,,,,,3,,9,2.71,3.29,,0,99,99,99,1,100,Riley,Acc,Participant_Images/66757cddd8d92a5cbfda353f/66757cddd8d92a5cbfda353f_Images/66757cddd8d92a5cbfda353f_Image_2.jpeg,liked,1.672012706,,,,,,,,,,,,,,,,,,,space,2.211,,
,,66757cddd8d92a5cbfda353f,6685aa9113c938e83b4f1ea0,670a6ac51e6355cbd15f3486,2024-10-12_08h26.35.815,WTP_SM_Choice,2022.2.1,Win32,59.88023952,,,,,,,,,,,,,,,,,,,,,,,,,,,,,,,,,,,,,,,,,,,,space,2.5348
