endwelcomescreen_keys.keys,endwelcomescreen_keys.rt,participant,date,expName,psychopyVersion,OS,frameRate,endinstructionscreen_keys.keys,endinstructionscreen_keys.rt,endpartnermatch_keys.keys,endpartnermatch_keys.rt,sharenextphoto_key.keys,sharenextphoto_key.rt,salience_rating,key_resp.keys,stress_level,subtract_bonus,TOTAL_TASK_BONUS,stresslevel_keypress.keys,entiretaskloop.thisRepN,entiretaskloop.thisTrialN,entiretaskloop.thisN,entiretaskloop.thisIndex,entiretaskloop.ran,TrialNumber,Partner,Condition,Photos,Feedback,FeedbackWait,WTP_ins_keys1.keys,WTP_ins_keys1.rt,WTP_ins_keys2.keys,WTP_ins_keys2.rt,decision_price,responses.keys,responses.rt,WTPTaskLoop.thisRepN,WTPTaskLoop.thisTrialN,WTPTaskLoop.thisN,WTPTaskLoop.thisIndex,WTPTaskLoop.ran,right,left,leftmoney,rightmoney,WTP_ITI,Resume_keys.keys,Resume_keys.rt,end_screen_keys.keys,end_screen_keys.rt,social_left
space,2.6154,6676fab6295042ff191ead64,2024-07-04_10h01.29.139,WTP_SM_Choice,2022.2.1,MacIntel,62.89308176,,,,,,,,,,,,,,,,,,,,,,,,,,,,,,,,,,,,,,,,,,,,,
,,6676fab6295042ff191ead64,2024-07-04_10h01.29.139,WTP_SM_Choice,2022.2.1,MacIntel,62.89308176,space,2.3064,,,,,,,,,,,,,,,,,,,,,,,,,,,,,,,,,,,,,,,,,,,
,,6676fab6295042ff191ead64,2024-07-04_10h01.29.139,WTP_SM_Choice,2022.2.1,MacIntel,62.89308176,,,space,1.895,space,1.7033,NAN,,NAN,0,6,,0,0,0,0,1,1,Alex,Acc,Participant_Images/6676fab6295042ff191ead64/6676fab6295042ff191ead64_Images/6676fab6295042ff191ead64_Image_4.jpeg,liked,3.613205605,,,,,,,,,,,,,,,,,,,,,,
,,6676fab6295042ff191ead64,2024-07-04_10h01.29.139,WTP_SM_Choice,2022.2.1,MacIntel,62.89308176,,,,,space,1.7255,NAN,,NAN,0,6,,0,1,1,1,1,2,Alex,Acc,Participant_Images/6676fab6295042ff191ead64/6676fab6295042ff191ead64_Images/6676fab6295042ff191ead64_Image_16.jpeg,did not like,4.988446431,,,,,,,,,,,,,,,,,,,,,,
,,6676fab6295042ff191ead64,2024-07-04_10h01.29.139,WTP_SM_Choice,2022.2.1,MacIntel,62.89308176,,,,,space,1.0773,NAN,,NAN,0,6,,0,2,2,2,1,3,Alex,Acc,Participant_Images/6676fab6295042ff191ead64/6676fab6295042ff191ead64_Images/6676fab6295042ff191ead64_Image_24.jpeg,liked,3.470791822,,,,,,,,,,,,,,,,,,,,,,
,,6676fab6295042ff191ead64,2024-07-04_10h01.29.139,WTP_SM_Choice,2022.2.1,MacIntel,62.89308176,,,,,space,0.9781,NAN,,NAN,0,6,,0,3,3,3,1,4,Alex,Acc,Participant_Images/6676fab6295042ff191ead64/6676fab6295042ff191ead64_Images/6676fab6295042ff191ead64_Image_7.jpeg,liked,3.820572462,,,,,,,,,,,,,,,,,,,,,,
,,6676fab6295042ff191ead64,2024-07-04_10h01.29.139,WTP_SM_Choice,2022.2.1,MacIntel,62.89308176,,,,,,,,,,,,,,,,,,1,,,,,,space,1.76,space,11.0631,0.01,2,3.2375,0,0,0,0,1,Lay down on the sand at the beach,Drive around blasting music with my friends,0.01,0.01,4.4,,,,,1
,,6676fab6295042ff191ead64,2024-07-04_10h01.29.139,WTP_SM_Choice,2022.2.1,MacIntel,62.89308176,,,,,,,,,,,,,,,,,,2,,,,,,,,,,0.01,2,3.4568,0,1,1,1,1,Do statistics research from my office,Playchess with a friend,0.02,0.01,8.8,,,,,1
,,6676fab6295042ff191ead64,2024-07-04_10h01.29.139,WTP_SM_Choice,2022.2.1,MacIntel,62.89308176,,,,,,,,,,,,,,,,,,3,,,,,,,,,,0.01,2,3.4324,0,2,2,2,1,Take a walk in my neighborhood on a sunny day,Play board games with my friends,0.03,0.01,3.3,,,,,1
,,6676fab6295042ff191ead64,2024-07-04_10h01.29.139,WTP_SM_Choice,2022.2.1,MacIntel,62.89308176,,,,,,,,,,,,,,,,,,4,,,,,,,,,,0.01,2,3.4453,0,3,3,3,1,Watch YouTube documentary videos about history,Read a book at a park with my girlfriend,0.04,0.01,1.1,,,,,1
,,6676fab6295042ff191ead64,2024-07-04_10h01.29.139,WTP_SM_Choice,2022.2.1,MacIntel,62.89308176,,,,,,,,,,,,,,,,,,5,,,,,,,,,,0.01,2,3.456,0,4,4,4,1,Do statistics research from my office,Play laser tag with my friends,0.05,0.01,1.1,,,,,1
,,6676fab6295042ff191ead64,2024-07-04_10h01.29.139,WTP_SM_Choice,2022.2.1,MacIntel,62.89308176,,,,,,,NAN,,NAN,0.05,5.95,,0,4,4,4,1,5,Alex,Acc,Participant_Images/6676fab6295042ff191ead64/6676fab6295042ff191ead64_Images/6676fab6295042ff191ead64_Image_3.jpeg,liked,2.455989137,,,,,,,,,,,,,,,,,,,,,,
,,6676fab6295042ff191ead64,2024-07-04_10h01.29.139,WTP_SM_Choice,2022.2.1,MacIntel,62.89308176,,,,,space,3.4704,NAN,,NAN,0.05,5.95,,0,5,5,5,1,6,Alex,Acc,Participant_Images/6676fab6295042ff191ead64/6676fab6295042ff191ead64_Images/6676fab6295042ff191ead64_Image_9.jpeg,liked,3.79605092,,,,,,,,,,,,,,,,,,,,,,
,,6676fab6295042ff191ead64,2024-07-04_10h01.29.139,WTP_SM_Choice,2022.2.1,MacIntel,62.89308176,,,,,space,3.3116,NAN,,NAN,0.05,5.95,,0,6,6,6,1,7,Alex,Acc,Participant_Images/6676fab6295042ff191ead64/6676fab6295042ff191ead64_Images/6676fab6295042ff191ead64_Image_18.jpeg,liked,3.562416326,,,,,,,,,,,,,,,,,,,,,,
,,6676fab6295042ff191ead64,2024-07-04_10h01.29.139,WTP_SM_Choice,2022.2.1,MacIntel,62.89308176,,,,,space,2.3402,NAN,,NAN,0.05,5.95,,0,7,7,7,1,8,Alex,Acc,Participant_Images/6676fab6295042ff191ead64/6676fab6295042ff191ead64_Images/6676fab6295042ff191ead64_Image_25.jpeg,did not like,2.843822497,,,,,,,,,,,,,,,,,,,,,,
,,6676fab6295042ff191ead64,2024-07-04_10h01.29.139,WTP_SM_Choice,2022.2.1,MacIntel,62.89308176,,,,,space,2.2522,NAN,,NAN,0.05,5.95,,0,8,8,8,1,9,Alex,Acc,Participant_Images/6676fab6295042ff191ead64/6676fab6295042ff191ead64_Images/6676fab6295042ff191ead64_Image_15.jpeg,did not like,3.546495948,,,,,,,,,,,,,,,,,,,,,,
,,6676fab6295042ff191ead64,2024-07-04_10h01.29.139,WTP_SM_Choice,2022.2.1,MacIntel,62.89308176,,,,,,,,,,,,,,,,,,6,,,,,,space,2.5924,space,1.2501,0.01,1,2.3031,0,0,0,0,1,Watch YouTube documentary videos about history,Play laser tag with my friends,0.01,0.02,3.3,,,,,1
,,6676fab6295042ff191ead64,2024-07-04_10h01.29.139,WTP_SM_Choice,2022.2.1,MacIntel,62.89308176,,,,,,,,,,,,,,,,,,7,,,,,,,,,,0.02,1,4.9667,0,1,1,1,1,Do statistics research from my office,Drive around blasting music with my friends,0.02,0.02,1.1,,,,,1
,,6676fab6295042ff191ead64,2024-07-04_10h01.29.139,WTP_SM_Choice,2022.2.1,MacIntel,62.89308176,,,,,,,,,,,,,,,,,,8,,,,,,,,,,0.02,2,3.6073,0,2,2,2,1,Clean my room after not cleaning it for a long time,Watch a movie with my girlfriend,0.03,0.02,1.1,,,,,1
,,6676fab6295042ff191ead64,2024-07-04_10h01.29.139,WTP_SM_Choice,2022.2.1,MacIntel,62.89308176,,,,,,,,,,,,,,,,,,9,,,,,,,,,,0.02,2,2.6619,0,3,3,3,1,Lay down on the sand at the beach,Watch a movie with my girlfriend,0.04,0.02,4.4,,,,,1
,,6676fab6295042ff191ead64,2024-07-04_10h01.29.139,WTP_SM_Choice,2022.2.1,MacIntel,62.89308176,,,,,,,,,,,,,,,,,,10,,,,,,,,,,0.02,2,3.1494,0,4,4,4,1,Practice cooking a new recipe in my kitchen,Discuss research with my advisor,0.05,0.02,1.1,,,,,1
,,6676fab6295042ff191ead64,2024-07-04_10h01.29.139,WTP_SM_Choice,2022.2.1,MacIntel,62.89308176,,,,,,,NAN,,NAN,0.14,5.86,,0,9,9,9,1,10,Alex,Acc,Participant_Images/6676fab6295042ff191ead64/6676fab6295042ff191ead64_Images/6676fab6295042ff191ead64_Image_11.jpeg,did not like,1.672012706,,,,,,,,,,,,,,,,,,,,,,
,,6676fab6295042ff191ead64,2024-07-04_10h01.29.139,WTP_SM_Choice,2022.2.1,MacIntel,62.89308176,,,,,space,2.067,NAN,,NAN,0.14,5.86,,0,10,10,10,1,11,Alex,Acc,Participant_Images/6676fab6295042ff191ead64/6676fab6295042ff191ead64_Images/6676fab6295042ff191ead64_Image_6.jpeg,liked,4.942172136,,,,,,,,,,,,,,,,,,,,,,
,,6676fab6295042ff191ead64,2024-07-04_10h01.29.139,WTP_SM_Choice,2022.2.1,MacIntel,62.89308176,,,,,space,1.8112,NAN,,NAN,0.14,5.86,,0,11,11,11,1,12,Alex,Acc,Participant_Images/6676fab6295042ff191ead64/6676fab6295042ff191ead64_Images/6676fab6295042ff191ead64_Image_2.jpeg,liked,2.50187214,,,,,,,,,,,,,,,,,,,,,,
,,6676fab6295042ff191ead64,2024-07-04_10h01.29.139,WTP_SM_Choice,2022.2.1,MacIntel,62.89308176,,,,,space,1.6507,NAN,,NAN,0.14,5.86,,0,12,12,12,1,13,Alex,Acc,Participant_Images/6676fab6295042ff191ead64/6676fab6295042ff191ead64_Images/6676fab6295042ff191ead64_Image_21.jpeg,liked,2.071164779,,,,,,,,,,,,,,,,,,,,,,
,,6676fab6295042ff191ead64,2024-07-04_10h01.29.139,WTP_SM_Choice,2022.2.1,MacIntel,62.89308176,,,,,space,2.0388,NAN,,NAN,0.14,5.86,,0,13,13,13,1,14,Alex,Acc,Participant_Images/6676fab6295042ff191ead64/6676fab6295042ff191ead64_Images/6676fab6295042ff191ead64_Image_13.jpeg,did not like,5.336503566,,,,,,,,,,,,,,,,,,,,,,
,,6676fab6295042ff191ead64,2024-07-04_10h01.29.139,WTP_SM_Choice,2022.2.1,MacIntel,62.89308176,,,,,,,,,,,,,,,,,,11,,,,,,space,4.5428,space,2.8819,0.01,1,2.0203,0,0,0,0,1,Practice cooking a new recipe in my kitchen,Playchess with a friend,0.01,0.03,3.3,,,,,1
,,6676fab6295042ff191ead64,2024-07-04_10h01.29.139,WTP_SM_Choice,2022.2.1,MacIntel,62.89308176,,,,,,,,,,,,,,,,,,12,,,,,,,,,,0.02,1,2.8665,0,1,1,1,1,Lay down on the sand at the beach,Celebrate christmas with my family,0.02,0.03,4.4,,,,,1
,,6676fab6295042ff191ead64,2024-07-04_10h01.29.139,WTP_SM_Choice,2022.2.1,MacIntel,62.89308176,,,,,,,,,,,,,,,,,,13,,,,,,,,,,0.03,1,3.2902,0,2,2,2,1,Take a walk in my neighborhood on a sunny day,Read a book at a park with my girlfriend,0.03,0.03,1.1,,,,,1
,,6676fab6295042ff191ead64,2024-07-04_10h01.29.139,WTP_SM_Choice,2022.2.1,MacIntel,62.89308176,,,,,,,,,,,,,,,,,,14,,,,,,,,,,0.03,2,2.8748,0,3,3,3,1,Do statistics research from my office,Go out to a restaurant with my family,0.04,0.03,3.3,,,,,1
,,6676fab6295042ff191ead64,2024-07-04_10h01.29.139,WTP_SM_Choice,2022.2.1,MacIntel,62.89308176,,,,,,,,,,,,,,,,,,15,,,,,,,,,,0.03,2,2.9955,0,4,4,4,1,Play chess online against other people,Read a book at a park with my girlfriend,0.05,0.03,4.4,,,,,1
,,6676fab6295042ff191ead64,2024-07-04_10h01.29.139,WTP_SM_Choice,2022.2.1,MacIntel,62.89308176,,,,,,,NAN,,NAN,0.26,5.74,,0,14,14,14,1,15,Alex,Acc,Participant_Images/6676fab6295042ff191ead64/6676fab6295042ff191ead64_Images/6676fab6295042ff191ead64_Image_20.jpeg,liked,2.642157193,,,,,,,,,,,,,,,,,,,,,,
,,6676fab6295042ff191ead64,2024-07-04_10h01.29.139,WTP_SM_Choice,2022.2.1,MacIntel,62.89308176,,,,,space,3.1202,NAN,,NAN,0.26,5.74,,0,15,15,15,1,16,Alex,Acc,Participant_Images/6676fab6295042ff191ead64/6676fab6295042ff191ead64_Images/6676fab6295042ff191ead64_Image_5.jpeg,liked,4.456234322,,,,,,,,,,,,,,,,,,,,,,
,,6676fab6295042ff191ead64,2024-07-04_10h01.29.139,WTP_SM_Choice,2022.2.1,MacIntel,62.89308176,,,,,space,1.837,NAN,,NAN,0.26,5.74,,0,16,16,16,1,17,Alex,Acc,Participant_Images/6676fab6295042ff191ead64/6676fab6295042ff191ead64_Images/6676fab6295042ff191ead64_Image_23.jpeg,liked,4.438512181,,,,,,,,,,,,,,,,,,,,,,
,,6676fab6295042ff191ead64,2024-07-04_10h01.29.139,WTP_SM_Choice,2022.2.1,MacIntel,62.89308176,,,,,space,1.6508,NAN,,NAN,0.26,5.74,,0,17,17,17,1,18,Alex,Acc,Participant_Images/6676fab6295042ff191ead64/6676fab6295042ff191ead64_Images/6676fab6295042ff191ead64_Image_1.jpeg,liked,2.682944783,,,,,,,,,,,,,,,,,,,,,,
,,6676fab6295042ff191ead64,2024-07-04_10h01.29.139,WTP_SM_Choice,2022.2.1,MacIntel,62.89308176,,,,,space,1.8837,NAN,,NAN,0.26,5.74,,0,18,18,18,1,19,Alex,Acc,Participant_Images/6676fab6295042ff191ead64/6676fab6295042ff191ead64_Images/6676fab6295042ff191ead64_Image_8.jpeg,liked,4.51984296,,,,,,,,,,,,,,,,,,,,,,
,,6676fab6295042ff191ead64,2024-07-04_10h01.29.139,WTP_SM_Choice,2022.2.1,MacIntel,62.89308176,,,,,,,,,,,,,,,,,,16,,,,,,space,2.5417,space,0.46,0.01,1,2.1265,0,0,0,0,1,Swim in the pool on a nice summer day,Playchess with a friend,0.01,0.04,1.1,,,,,1
,,6676fab6295042ff191ead64,2024-07-04_10h01.29.139,WTP_SM_Choice,2022.2.1,MacIntel,62.89308176,,,,,,,,,,,,,,,,,,17,,,,,,,,,,0.02,1,2.8153,0,1,1,1,1,Play chess online against other people,Drive around blasting music with my friends,0.02,0.04,8.8,,,,,1
,,6676fab6295042ff191ead64,2024-07-04_10h01.29.139,WTP_SM_Choice,2022.2.1,MacIntel,62.89308176,,,,,,,,,,,,,,,,,,18,,,,,,,,,,0.03,1,2.7808,0,2,2,2,1,Clean my room after not cleaning it for a long time,Playchess with a friend,0.03,0.04,3.3,,,,,1
,,6676fab6295042ff191ead64,2024-07-04_10h01.29.139,WTP_SM_Choice,2022.2.1,MacIntel,62.89308176,,,,,,,,,,,,,,,,,,19,,,,,,,,,,0.04,1,7.3487,0,3,3,3,1,Listen to music in the car with the windows down,Drive around blasting music with my friends,0.04,0.04,3.3,,,,,1
,,6676fab6295042ff191ead64,2024-07-04_10h01.29.139,WTP_SM_Choice,2022.2.1,MacIntel,62.89308176,,,,,,,,,,,,,,,,,,20,,,,,,,,,,0.04,2,3.6052,0,4,4,4,1,Lay down on the sand at the beach,Play board games with my friends,0.05,0.04,1.1,,,,,1
,,6676fab6295042ff191ead64,2024-07-04_10h01.29.139,WTP_SM_Choice,2022.2.1,MacIntel,62.89308176,,,,,,,NAN,,NAN,0.4,5.6,,0,19,19,19,1,20,Alex,Acc,Participant_Images/6676fab6295042ff191ead64/6676fab6295042ff191ead64_Images/6676fab6295042ff191ead64_Image_17.jpeg,liked,3.195382774,,,,,,,,,,,,,,,,,,,,,,
,,6676fab6295042ff191ead64,2024-07-04_10h01.29.139,WTP_SM_Choice,2022.2.1,MacIntel,62.89308176,,,,,space,7.9502,NAN,,NAN,0.4,5.6,,0,20,20,20,1,21,Alex,Acc,Participant_Images/6676fab6295042ff191ead64/6676fab6295042ff191ead64_Images/6676fab6295042ff191ead64_Image_19.jpeg,liked,1.779333479,,,,,,,,,,,,,,,,,,,,,,
,,6676fab6295042ff191ead64,2024-07-04_10h01.29.139,WTP_SM_Choice,2022.2.1,MacIntel,62.89308176,,,,,space,4.4003,NAN,,NAN,0.4,5.6,,0,21,21,21,1,22,Alex,Acc,Participant_Images/6676fab6295042ff191ead64/6676fab6295042ff191ead64_Images/6676fab6295042ff191ead64_Image_12.jpeg,liked,4.312468682,,,,,,,,,,,,,,,,,,,,,,
,,6676fab6295042ff191ead64,2024-07-04_10h01.29.139,WTP_SM_Choice,2022.2.1,MacIntel,62.89308176,,,,,space,4.822,NAN,,NAN,0.4,5.6,,0,22,22,22,1,23,Alex,Acc,Participant_Images/6676fab6295042ff191ead64/6676fab6295042ff191ead64_Images/6676fab6295042ff191ead64_Image_10.jpeg,liked,4.940433059,,,,,,,,,,,,,,,,,,,,,,
,,6676fab6295042ff191ead64,2024-07-04_10h01.29.139,WTP_SM_Choice,2022.2.1,MacIntel,62.89308176,,,,,space,1.953,NAN,,NAN,0.4,5.6,,0,23,23,23,1,24,Alex,Acc,Participant_Images/6676fab6295042ff191ead64/6676fab6295042ff191ead64_Images/6676fab6295042ff191ead64_Image_14.jpeg,did not like,2.7105123,,,,,,,,,,,,,,,,,,,,,,
,,6676fab6295042ff191ead64,2024-07-04_10h01.29.139,WTP_SM_Choice,2022.2.1,MacIntel,62.89308176,,,,,,,,,,,,,,,,,,21,,,,,,space,8.1321,space,2.9167,0.01,1,1.9065,0,0,0,0,1,Practice cooking a new recipe in my kitchen,Celebrate christmas with my family,0.01,0.05,8.8,,,,,1
,,6676fab6295042ff191ead64,2024-07-04_10h01.29.139,WTP_SM_Choice,2022.2.1,MacIntel,62.89308176,,,,,,,,,,,,,,,,,,22,,,,,,,,,,0.02,1,2.7172,0,1,1,1,1,Go  to the gym ,Celebrate christmas with my family,0.02,0.05,4.4,,,,,1
,,6676fab6295042ff191ead64,2024-07-04_10h01.29.139,WTP_SM_Choice,2022.2.1,MacIntel,62.89308176,,,,,,,,,,,,,,,,,,23,,,,,,,,,,0.03,1,2.9482,0,2,2,2,1,Listen to music in the car with the windows down,Watch a movie with my girlfriend,0.03,0.05,1.1,,,,,1
,,6676fab6295042ff191ead64,2024-07-04_10h01.29.139,WTP_SM_Choice,2022.2.1,MacIntel,62.89308176,,,,,,,,,,,,,,,,,,24,,,,,,,,,,0.04,1,3.5161,0,3,3,3,1,Lay down on the sand at the beach,Discuss research with my advisor,0.04,0.05,4.4,,,,,1
,,6676fab6295042ff191ead64,2024-07-04_10h01.29.139,WTP_SM_Choice,2022.2.1,MacIntel,62.89308176,,,,,,,,,,,,,,,,,,25,,,,,,,,,,0.05,1,3.2134,0,4,4,4,1,Take a walk in my neighborhood on a sunny day,Drive around blasting music with my friends,0.05,0.05,3.3,,,,,1
,,6676fab6295042ff191ead64,2024-07-04_10h01.29.139,WTP_SM_Choice,2022.2.1,MacIntel,62.89308176,,,,,,,2,,3,0.55,5.45,,0,24,24,24,1,25,Alex,Acc,Participant_Images/6676fab6295042ff191ead64/6676fab6295042ff191ead64_Images/6676fab6295042ff191ead64_Image_22.jpeg,did not like,3.602308302,,,,,,,,,,,,,,,,,,space,1.7701,,,
,,6676fab6295042ff191ead64,2024-07-04_10h01.29.139,WTP_SM_Choice,2022.2.1,MacIntel,62.89308176,,,space,5.5768,space,1.5762,NAN,,NAN,0.55,5.45,,0,25,25,25,1,26,Riley,Rej,Participant_Images/6676fab6295042ff191ead64/6676fab6295042ff191ead64_Images/6676fab6295042ff191ead64_Image_25.jpeg,did not like,4.106391878,,,,,,,,,,,,,,,,,,,,,,
,,6676fab6295042ff191ead64,2024-07-04_10h01.29.139,WTP_SM_Choice,2022.2.1,MacIntel,62.89308176,,,,,space,1.1452,NAN,,NAN,0.55,5.45,,0,26,26,26,1,27,Riley,Rej,Participant_Images/6676fab6295042ff191ead64/6676fab6295042ff191ead64_Images/6676fab6295042ff191ead64_Image_12.jpeg,liked,3.799433026,,,,,,,,,,,,,,,,,,,,,,
,,6676fab6295042ff191ead64,2024-07-04_10h01.29.139,WTP_SM_Choice,2022.2.1,MacIntel,62.89308176,,,,,space,5.5337,NAN,,NAN,0.55,5.45,,0,27,27,27,1,28,Riley,Rej,Participant_Images/6676fab6295042ff191ead64/6676fab6295042ff191ead64_Images/6676fab6295042ff191ead64_Image_22.jpeg,did not like,5.246980764,,,,,,,,,,,,,,,,,,,,,,
,,6676fab6295042ff191ead64,2024-07-04_10h01.29.139,WTP_SM_Choice,2022.2.1,MacIntel,62.89308176,,,,,space,1.3615,NAN,,NAN,0.55,5.45,,0,28,28,28,1,29,Riley,Rej,Participant_Images/6676fab6295042ff191ead64/6676fab6295042ff191ead64_Images/6676fab6295042ff191ead64_Image_3.jpeg,liked,3.30081769,,,,,,,,,,,,,,,,,,,,,,
,,6676fab6295042ff191ead64,2024-07-04_10h01.29.139,WTP_SM_Choice,2022.2.1,MacIntel,62.89308176,,,,,,,,,,,,,,,,,,26,,,,,,space,3.2339,space,0.8667,0.01,1,2.5583,0,0,0,0,1,Play chess online against other people,Play basketball with my friends,0.01,0.01,4.4,,,,,1
,,6676fab6295042ff191ead64,2024-07-04_10h01.29.139,WTP_SM_Choice,2022.2.1,MacIntel,62.89308176,,,,,,,,,,,,,,,,,,27,,,,,,,,,,0.01,2,3.5232,0,1,1,1,1,Take a walk in my neighborhood on a sunny day,Go out to a restaurant with my family,0.02,0.01,3.3,,,,,1
,,6676fab6295042ff191ead64,2024-07-04_10h01.29.139,WTP_SM_Choice,2022.2.1,MacIntel,62.89308176,,,,,,,,,,,,,,,,,,28,,,,,,,,,,0.01,2,2.2742,0,2,2,2,1,Swim in the pool on a nice summer day,Celebrate christmas with my family,0.03,0.01,3.3,,,,,1
,,6676fab6295042ff191ead64,2024-07-04_10h01.29.139,WTP_SM_Choice,2022.2.1,MacIntel,62.89308176,,,,,,,,,,,,,,,,,,29,,,,,,,,,,0.01,2,2.0474,0,3,3,3,1,Watch YouTube documentary videos about history,Playchess with a friend,0.04,0.01,4.4,,,,,1
,,6676fab6295042ff191ead64,2024-07-04_10h01.29.139,WTP_SM_Choice,2022.2.1,MacIntel,62.89308176,,,,,,,,,,,,,,,,,,30,,,,,,,,,,0.01,2,1.6241,0,4,4,4,1,Do statistics research from my office,Read a book at a park with my girlfriend,0.05,0.01,8.8,,,,,1
,,6676fab6295042ff191ead64,2024-07-04_10h01.29.139,WTP_SM_Choice,2022.2.1,MacIntel,62.89308176,,,,,,,NAN,,NAN,0.6,5.4,,0,29,29,29,1,30,Riley,Rej,Participant_Images/6676fab6295042ff191ead64/6676fab6295042ff191ead64_Images/6676fab6295042ff191ead64_Image_2.jpeg,did not like,1.661473164,,,,,,,,,,,,,,,,,,,,,,
,,6676fab6295042ff191ead64,2024-07-04_10h01.29.139,WTP_SM_Choice,2022.2.1,MacIntel,62.89308176,,,,,space,1.4943,NAN,,NAN,0.6,5.4,,0,30,30,30,1,31,Riley,Rej,Participant_Images/6676fab6295042ff191ead64/6676fab6295042ff191ead64_Images/6676fab6295042ff191ead64_Image_16.jpeg,did not like,3.613205605,,,,,,,,,,,,,,,,,,,,,,
,,6676fab6295042ff191ead64,2024-07-04_10h01.29.139,WTP_SM_Choice,2022.2.1,MacIntel,62.89308176,,,,,space,1.0513,NAN,,NAN,0.6,5.4,,0,31,31,31,1,32,Riley,Rej,Participant_Images/6676fab6295042ff191ead64/6676fab6295042ff191ead64_Images/6676fab6295042ff191ead64_Image_4.jpeg,did not like,4.988446431,,,,,,,,,,,,,,,,,,,,,,
,,6676fab6295042ff191ead64,2024-07-04_10h01.29.139,WTP_SM_Choice,2022.2.1,MacIntel,62.89308176,,,,,space,1.979,NAN,,NAN,0.6,5.4,,0,32,32,32,1,33,Riley,Rej,Participant_Images/6676fab6295042ff191ead64/6676fab6295042ff191ead64_Images/6676fab6295042ff191ead64_Image_15.jpeg,did not like,3.470791822,,,,,,,,,,,,,,,,,,,,,,
,,6676fab6295042ff191ead64,2024-07-04_10h01.29.139,WTP_SM_Choice,2022.2.1,MacIntel,62.89308176,,,,,space,1.402,NAN,,NAN,0.6,5.4,,0,33,33,33,1,34,Riley,Rej,Participant_Images/6676fab6295042ff191ead64/6676fab6295042ff191ead64_Images/6676fab6295042ff191ead64_Image_17.jpeg,did not like,3.820572462,,,,,,,,,,,,,,,,,,,,,,
,,6676fab6295042ff191ead64,2024-07-04_10h01.29.139,WTP_SM_Choice,2022.2.1,MacIntel,62.89308176,,,,,,,,,,,,,,,,,,31,,,,,,space,1.8333,space,1.449,0.01,1,2.2281,0,0,0,0,1,Listen to music in the car with the windows down,Read a book at a park with my girlfriend,0.01,0.02,8.8,,,,,1
,,6676fab6295042ff191ead64,2024-07-04_10h01.29.139,WTP_SM_Choice,2022.2.1,MacIntel,62.89308176,,,,,,,,,,,,,,,,,,32,,,,,,,,,,0.02,2,4.2414,0,1,1,1,1,Practice cooking a new recipe in my kitchen,Go out to a restaurant with my family,0.02,0.02,1.1,,,,,1
,,6676fab6295042ff191ead64,2024-07-04_10h01.29.139,WTP_SM_Choice,2022.2.1,MacIntel,62.89308176,,,,,,,,,,,,,,,,,,33,,,,,,,,,,0.02,2,2.0905,0,2,2,2,1,Lay down on the sand at the beach,Go out to a restaurant with my family,0.03,0.02,4.4,,,,,1
,,6676fab6295042ff191ead64,2024-07-04_10h01.29.139,WTP_SM_Choice,2022.2.1,MacIntel,62.89308176,,,,,,,,,,,,,,,,,,34,,,,,,,,,,0.02,2,2.1122,0,3,3,3,1,Go  to the gym ,Play board games with my friends,0.04,0.02,3.3,,,,,1
,,6676fab6295042ff191ead64,2024-07-04_10h01.29.139,WTP_SM_Choice,2022.2.1,MacIntel,62.89308176,,,,,,,,,,,,,,,,,,35,,,,,,,,,,0.02,2,1.817,0,4,4,4,1,Lay down on the sand at the beach,Play basketball with my friends,0.05,0.02,1.1,,,,,1
,,6676fab6295042ff191ead64,2024-07-04_10h01.29.139,WTP_SM_Choice,2022.2.1,MacIntel,62.89308176,,,,,,,NAN,,NAN,0.69,5.31,,0,34,34,34,1,35,Riley,Rej,Participant_Images/6676fab6295042ff191ead64/6676fab6295042ff191ead64_Images/6676fab6295042ff191ead64_Image_19.jpeg,did not like,2.455989137,,,,,,,,,,,,,,,,,,,,,,
,,6676fab6295042ff191ead64,2024-07-04_10h01.29.139,WTP_SM_Choice,2022.2.1,MacIntel,62.89308176,,,,,space,1.6273,NAN,,NAN,0.69,5.31,,0,35,35,35,1,36,Riley,Rej,Participant_Images/6676fab6295042ff191ead64/6676fab6295042ff191ead64_Images/6676fab6295042ff191ead64_Image_1.jpeg,did not like,3.79605092,,,,,,,,,,,,,,,,,,,,,,
,,6676fab6295042ff191ead64,2024-07-04_10h01.29.139,WTP_SM_Choice,2022.2.1,MacIntel,62.89308176,,,,,space,1.051,NAN,,NAN,0.69,5.31,,0,36,36,36,1,37,Riley,Rej,Participant_Images/6676fab6295042ff191ead64/6676fab6295042ff191ead64_Images/6676fab6295042ff191ead64_Image_10.jpeg,liked,3.562416326,,,,,,,,,,,,,,,,,,,,,,
,,6676fab6295042ff191ead64,2024-07-04_10h01.29.139,WTP_SM_Choice,2022.2.1,MacIntel,62.89308176,,,,,space,1.2999,NAN,,NAN,0.69,5.31,,0,37,37,37,1,38,Riley,Rej,Participant_Images/6676fab6295042ff191ead64/6676fab6295042ff191ead64_Images/6676fab6295042ff191ead64_Image_21.jpeg,liked,2.843822497,,,,,,,,,,,,,,,,,,,,,,
,,6676fab6295042ff191ead64,2024-07-04_10h01.29.139,WTP_SM_Choice,2022.2.1,MacIntel,62.89308176,,,,,space,1.5012,NAN,,NAN,0.69,5.31,,0,38,38,38,1,39,Riley,Rej,Participant_Images/6676fab6295042ff191ead64/6676fab6295042ff191ead64_Images/6676fab6295042ff191ead64_Image_18.jpeg,liked,3.546495948,,,,,,,,,,,,,,,,,,,,,,
,,6676fab6295042ff191ead64,2024-07-04_10h01.29.139,WTP_SM_Choice,2022.2.1,MacIntel,62.89308176,,,,,,,,,,,,,,,,,,36,,,,,,space,1.5079,space,1.7085,0.01,1,2.7812,0,0,0,0,1,Watch YouTube documentary videos about history,Celebrate christmas with my family,0.01,0.03,3.3,,,,,1
,,6676fab6295042ff191ead64,2024-07-04_10h01.29.139,WTP_SM_Choice,2022.2.1,MacIntel,62.89308176,,,,,,,,,,,,,,,,,,37,,,,,,,,,,0.02,1,1.8255,0,1,1,1,1,Swim in the pool on a nice summer day,Read a book at a park with my girlfriend,0.02,0.03,1.1,,,,,1
,,6676fab6295042ff191ead64,2024-07-04_10h01.29.139,WTP_SM_Choice,2022.2.1,MacIntel,62.89308176,,,,,,,,,,,,,,,,,,38,,,,,,,,,,0.03,1,4.4504,0,2,2,2,1,Watch YouTube documentary videos about history,Play basketball with my friends,0.03,0.03,1.1,,,,,1
,,6676fab6295042ff191ead64,2024-07-04_10h01.29.139,WTP_SM_Choice,2022.2.1,MacIntel,62.89308176,,,,,,,,,,,,,,,,,,39,,,,,,,,,,0.03,2,5.433,0,3,3,3,1,Watch YouTube documentary videos about history,Drive around blasting music with my friends,0.04,0.03,3.3,,,,,1
,,6676fab6295042ff191ead64,2024-07-04_10h01.29.139,WTP_SM_Choice,2022.2.1,MacIntel,62.89308176,,,,,,,,,,,,,,,,,,40,,,,,,,,,,0.03,2,2.0488,0,4,4,4,1,Listen to music in the car with the windows down,Celebrate christmas with my family,0.05,0.03,4.4,,,,,1
,,6676fab6295042ff191ead64,2024-07-04_10h01.29.139,WTP_SM_Choice,2022.2.1,MacIntel,62.89308176,,,,,,,NAN,,NAN,0.81,5.19,,0,39,39,39,1,40,Riley,Rej,Participant_Images/6676fab6295042ff191ead64/6676fab6295042ff191ead64_Images/6676fab6295042ff191ead64_Image_11.jpeg,did not like,1.672012706,,,,,,,,,,,,,,,,,,,,,,
,,6676fab6295042ff191ead64,2024-07-04_10h01.29.139,WTP_SM_Choice,2022.2.1,MacIntel,62.89308176,,,,,space,1.3918,NAN,,NAN,0.81,5.19,,0,40,40,40,1,41,Riley,Rej,Participant_Images/6676fab6295042ff191ead64/6676fab6295042ff191ead64_Images/6676fab6295042ff191ead64_Image_24.jpeg,did not like,4.942172136,,,,,,,,,,,,,,,,,,,,,,
,,6676fab6295042ff191ead64,2024-07-04_10h01.29.139,WTP_SM_Choice,2022.2.1,MacIntel,62.89308176,,,,,space,1.8276,NAN,,NAN,0.81,5.19,,0,41,41,41,1,42,Riley,Rej,Participant_Images/6676fab6295042ff191ead64/6676fab6295042ff191ead64_Images/6676fab6295042ff191ead64_Image_23.jpeg,did not like,2.50187214,,,,,,,,,,,,,,,,,,,,,,
,,6676fab6295042ff191ead64,2024-07-04_10h01.29.139,WTP_SM_Choice,2022.2.1,MacIntel,62.89308176,,,,,space,1.7183,NAN,,NAN,0.81,5.19,,0,42,42,42,1,43,Riley,Rej,Participant_Images/6676fab6295042ff191ead64/6676fab6295042ff191ead64_Images/6676fab6295042ff191ead64_Image_7.jpeg,did not like,2.071164779,,,,,,,,,,,,,,,,,,,,,,
,,6676fab6295042ff191ead64,2024-07-04_10h01.29.139,WTP_SM_Choice,2022.2.1,MacIntel,62.89308176,,,,,space,2.0962,NAN,,NAN,0.81,5.19,,0,43,43,43,1,44,Riley,Rej,Participant_Images/6676fab6295042ff191ead64/6676fab6295042ff191ead64_Images/6676fab6295042ff191ead64_Image_20.jpeg,liked,5.336503566,,,,,,,,,,,,,,,,,,,,,,
,,6676fab6295042ff191ead64,2024-07-04_10h01.29.139,WTP_SM_Choice,2022.2.1,MacIntel,62.89308176,,,,,,,,,,,,,,,,,,41,,,,,,space,1.1926,space,0.8455,0.01,1,1.699,0,0,0,0,1,Lay down on the sand at the beach,Play laser tag with my friends,0.01,0.04,1.1,,,,,1
,,6676fab6295042ff191ead64,2024-07-04_10h01.29.139,WTP_SM_Choice,2022.2.1,MacIntel,62.89308176,,,,,,,,,,,,,,,,,,42,,,,,,,,,,0.02,1,2.1811,0,1,1,1,1,Play chess online against other people,Watch a movie with my girlfriend,0.02,0.04,3.3,,,,,1
,,6676fab6295042ff191ead64,2024-07-04_10h01.29.139,WTP_SM_Choice,2022.2.1,MacIntel,62.89308176,,,,,,,,,,,,,,,,,,43,,,,,,,,,,0.03,1,2.6347,0,2,2,2,1,Do statistics research from my office,Discuss research with my advisor,0.03,0.04,1.1,,,,,1
,,6676fab6295042ff191ead64,2024-07-04_10h01.29.139,WTP_SM_Choice,2022.2.1,MacIntel,62.89308176,,,,,,,,,,,,,,,,,,44,,,,,,,,,,0.04,1,4.4505,0,3,3,3,1,Play chess online against other people,Play laser tag with my friends,0.04,0.04,1.1,,,,,1
,,6676fab6295042ff191ead64,2024-07-04_10h01.29.139,WTP_SM_Choice,2022.2.1,MacIntel,62.89308176,,,,,,,,,,,,,,,,,,45,,,,,,,,,,0.04,2,2.4084,0,4,4,4,1,Go  to the gym ,Discuss research with my advisor,0.05,0.04,4.4,,,,,1
,,6676fab6295042ff191ead64,2024-07-04_10h01.29.139,WTP_SM_Choice,2022.2.1,MacIntel,62.89308176,,,,,,,NAN,,NAN,0.95,5.05,,0,44,44,44,1,45,Riley,Rej,Participant_Images/6676fab6295042ff191ead64/6676fab6295042ff191ead64_Images/6676fab6295042ff191ead64_Image_14.jpeg,did not like,2.642157193,,,,,,,,,,,,,,,,,,,,,,
,,6676fab6295042ff191ead64,2024-07-04_10h01.29.139,WTP_SM_Choice,2022.2.1,MacIntel,62.89308176,,,,,space,1.7946,NAN,,NAN,0.95,5.05,,0,45,45,45,1,46,Riley,Rej,Participant_Images/6676fab6295042ff191ead64/6676fab6295042ff191ead64_Images/6676fab6295042ff191ead64_Image_9.jpeg,did not like,4.456234322,,,,,,,,,,,,,,,,,,,,,,
,,6676fab6295042ff191ead64,2024-07-04_10h01.29.139,WTP_SM_Choice,2022.2.1,MacIntel,62.89308176,,,,,space,1.8373,NAN,,NAN,0.95,5.05,,0,46,46,46,1,47,Riley,Rej,Participant_Images/6676fab6295042ff191ead64/6676fab6295042ff191ead64_Images/6676fab6295042ff191ead64_Image_5.jpeg,did not like,4.438512181,,,,,,,,,,,,,,,,,,,,,,
,,6676fab6295042ff191ead64,2024-07-04_10h01.29.139,WTP_SM_Choice,2022.2.1,MacIntel,62.89308176,,,,,space,4.5337,NAN,,NAN,0.95,5.05,,0,47,47,47,1,48,Riley,Rej,Participant_Images/6676fab6295042ff191ead64/6676fab6295042ff191ead64_Images/6676fab6295042ff191ead64_Image_13.jpeg,liked,2.682944783,,,,,,,,,,,,,,,,,,,,,,
,,6676fab6295042ff191ead64,2024-07-04_10h01.29.139,WTP_SM_Choice,2022.2.1,MacIntel,62.89308176,,,,,space,3.7341,NAN,,NAN,0.95,5.05,,0,48,48,48,1,49,Riley,Rej,Participant_Images/6676fab6295042ff191ead64/6676fab6295042ff191ead64_Images/6676fab6295042ff191ead64_Image_8.jpeg,did not like,4.51984296,,,,,,,,,,,,,,,,,,,,,,
,,6676fab6295042ff191ead64,2024-07-04_10h01.29.139,WTP_SM_Choice,2022.2.1,MacIntel,62.89308176,,,,,,,,,,,,,,,,,,46,,,,,,space,5.0735,space,2.4272,0.01,1,1.5477,0,0,0,0,1,Practice cooking a new recipe in my kitchen,Drive around blasting music with my friends,0.01,0.05,8.8,,,,,1
,,6676fab6295042ff191ead64,2024-07-04_10h01.29.139,WTP_SM_Choice,2022.2.1,MacIntel,62.89308176,,,,,,,,,,,,,,,,,,47,,,,,,,,,,0.02,1,1.6098,0,1,1,1,1,Listen to music in the car with the windows down,Discuss research with my advisor,0.02,0.05,1.1,,,,,1
,,6676fab6295042ff191ead64,2024-07-04_10h01.29.139,WTP_SM_Choice,2022.2.1,MacIntel,62.89308176,,,,,,,,,,,,,,,,,,48,,,,,,,,,,0.03,1,3.0219,0,2,2,2,1,Swim in the pool on a nice summer day,Go out to a restaurant with my family,0.03,0.05,4.4,,,,,1
,,6676fab6295042ff191ead64,2024-07-04_10h01.29.139,WTP_SM_Choice,2022.2.1,MacIntel,62.89308176,,,,,,,,,,,,,,,,,,49,,,,,,,,,,0.04,1,2.1558,0,3,3,3,1,Play chess online against other people,Playchess with a friend,0.04,0.05,3.3,,,,,1
,,6676fab6295042ff191ead64,2024-07-04_10h01.29.139,WTP_SM_Choice,2022.2.1,MacIntel,62.89308176,,,,,,,,,,,,,,,,,,50,,,,,,,,,,0.05,2,5.8726,0,4,4,4,1,Swim in the pool on a nice summer day,Play board games with my friends,0.05,0.05,1.1,,,,,1
,,6676fab6295042ff191ead64,2024-07-04_10h01.29.139,WTP_SM_Choice,2022.2.1,MacIntel,62.89308176,,,,,,,1,,3,1.1,4.9,,0,49,49,49,1,50,Riley,Rej,Participant_Images/6676fab6295042ff191ead64/6676fab6295042ff191ead64_Images/6676fab6295042ff191ead64_Image_6.jpeg,did not like,3.195382774,,,,,,,,,,,,,,,,,,space,2.4769,,,
,,6676fab6295042ff191ead64,2024-07-04_10h01.29.139,WTP_SM_Choice,2022.2.1,MacIntel,62.89308176,,,space,2.5905,space,1.6997,NAN,,NAN,1.1,4.9,,0,50,50,50,1,51,Charlie,Acc,Participant_Images/6676fab6295042ff191ead64/6676fab6295042ff191ead64_Images/6676fab6295042ff191ead64_Image_11.jpeg,liked,1.779333479,,,,,,,,,,,,,,,,,,,,,,
,,6676fab6295042ff191ead64,2024-07-04_10h01.29.139,WTP_SM_Choice,2022.2.1,MacIntel,62.89308176,,,,,space,2.0056,NAN,,NAN,1.1,4.9,,0,51,51,51,1,52,Charlie,Acc,Participant_Images/6676fab6295042ff191ead64/6676fab6295042ff191ead64_Images/6676fab6295042ff191ead64_Image_12.jpeg,liked,4.312468682,,,,,,,,,,,,,,,,,,,,,,
,,6676fab6295042ff191ead64,2024-07-04_10h01.29.139,WTP_SM_Choice,2022.2.1,MacIntel,62.89308176,,,,,space,1.701,NAN,,NAN,1.1,4.9,,0,52,52,52,1,53,Charlie,Acc,Participant_Images/6676fab6295042ff191ead64/6676fab6295042ff191ead64_Images/6676fab6295042ff191ead64_Image_14.jpeg,did not like,4.940433059,,,,,,,,,,,,,,,,,,,,,,
,,6676fab6295042ff191ead64,2024-07-04_10h01.29.139,WTP_SM_Choice,2022.2.1,MacIntel,62.89308176,,,,,space,1.6006,NAN,,NAN,1.1,4.9,,0,53,53,53,1,54,Charlie,Acc,Participant_Images/6676fab6295042ff191ead64/6676fab6295042ff191ead64_Images/6676fab6295042ff191ead64_Image_5.jpeg,liked,2.7105123,,,,,,,,,,,,,,,,,,,,,,
,,6676fab6295042ff191ead64,2024-07-04_10h01.29.139,WTP_SM_Choice,2022.2.1,MacIntel,62.89308176,,,,,,,,,,,,,,,,,,51,,,,,,space,2.4019,space,0.899,0.01,1,3.0268,0,0,0,0,1,Do statistics research from my office,Celebrate christmas with my family,0.01,0.01,1.1,,,,,1
,,6676fab6295042ff191ead64,2024-07-04_10h01.29.139,WTP_SM_Choice,2022.2.1,MacIntel,62.89308176,,,,,,,,,,,,,,,,,,52,,,,,,,,,,0.01,2,4.434,0,1,1,1,1,Clean my room after not cleaning it for a long time,Read a book at a park with my girlfriend,0.02,0.01,3.3,,,,,1
,,6676fab6295042ff191ead64,2024-07-04_10h01.29.139,WTP_SM_Choice,2022.2.1,MacIntel,62.89308176,,,,,,,,,,,,,,,,,,53,,,,,,,,,,0.01,2,2.0196,0,2,2,2,1,Go  to the gym ,Read a book at a park with my girlfriend,0.03,0.01,1.1,,,,,1
,,6676fab6295042ff191ead64,2024-07-04_10h01.29.139,WTP_SM_Choice,2022.2.1,MacIntel,62.89308176,,,,,,,,,,,,,,,,,,54,,,,,,,,,,0.01,2,2.1587,0,3,3,3,1,Take a walk in my neighborhood on a sunny day,Play laser tag with my friends,0.04,0.01,4.4,,,,,1
,,6676fab6295042ff191ead64,2024-07-04_10h01.29.139,WTP_SM_Choice,2022.2.1,MacIntel,62.89308176,,,,,,,,,,,,,,,,,,55,,,,,,,,,,0.01,2,1.6565,0,4,4,4,1,Play chess online against other people,Play board games with my friends,0.05,0.01,1.1,,,,,1
,,6676fab6295042ff191ead64,2024-07-04_10h01.29.139,WTP_SM_Choice,2022.2.1,MacIntel,62.89308176,,,,,,,NAN,,NAN,1.15,4.85,,0,54,54,54,1,55,Charlie,Acc,Participant_Images/6676fab6295042ff191ead64/6676fab6295042ff191ead64_Images/6676fab6295042ff191ead64_Image_1.jpeg,did not like,3.602308302,,,,,,,,,,,,,,,,,,,,,,
,,6676fab6295042ff191ead64,2024-07-04_10h01.29.139,WTP_SM_Choice,2022.2.1,MacIntel,62.89308176,,,,,space,1.4458,NAN,,NAN,1.15,4.85,,0,55,55,55,1,56,Charlie,Acc,Participant_Images/6676fab6295042ff191ead64/6676fab6295042ff191ead64_Images/6676fab6295042ff191ead64_Image_2.jpeg,liked,4.106391878,,,,,,,,,,,,,,,,,,,,,,
,,6676fab6295042ff191ead64,2024-07-04_10h01.29.139,WTP_SM_Choice,2022.2.1,MacIntel,62.89308176,,,,,space,3.8776,NAN,,NAN,1.15,4.85,,0,56,56,56,1,57,Charlie,Acc,Participant_Images/6676fab6295042ff191ead64/6676fab6295042ff191ead64_Images/6676fab6295042ff191ead64_Image_7.jpeg,did not like,3.799433026,,,,,,,,,,,,,,,,,,,,,,
,,6676fab6295042ff191ead64,2024-07-04_10h01.29.139,WTP_SM_Choice,2022.2.1,MacIntel,62.89308176,,,,,space,2.5625,NAN,,NAN,1.15,4.85,,0,57,57,57,1,58,Charlie,Acc,Participant_Images/6676fab6295042ff191ead64/6676fab6295042ff191ead64_Images/6676fab6295042ff191ead64_Image_4.jpeg,liked,5.246980764,,,,,,,,,,,,,,,,,,,,,,
,,6676fab6295042ff191ead64,2024-07-04_10h01.29.139,WTP_SM_Choice,2022.2.1,MacIntel,62.89308176,,,,,space,1.7332,NAN,,NAN,1.15,4.85,,0,58,58,58,1,59,Charlie,Acc,Participant_Images/6676fab6295042ff191ead64/6676fab6295042ff191ead64_Images/6676fab6295042ff191ead64_Image_3.jpeg,did not like,3.30081769,,,,,,,,,,,,,,,,,,,,,,
,,6676fab6295042ff191ead64,2024-07-04_10h01.29.139,WTP_SM_Choice,2022.2.1,MacIntel,62.89308176,,,,,,,,,,,,,,,,,,56,,,,,,space,1.8261,space,1.3373,0.01,1,2.7936,0,0,0,0,1,Watch YouTube documentary videos about history,Discuss research with my advisor,0.01,0.02,8.8,,,,,1
,,6676fab6295042ff191ead64,2024-07-04_10h01.29.139,WTP_SM_Choice,2022.2.1,MacIntel,62.89308176,,,,,,,,,,,,,,,,,,57,,,,,,,,,,0.02,2,2.8958,0,1,1,1,1,Lay down on the sand at the beach,Playchess with a friend,0.02,0.02,4.4,,,,,1
,,6676fab6295042ff191ead64,2024-07-04_10h01.29.139,WTP_SM_Choice,2022.2.1,MacIntel,62.89308176,,,,,,,,,,,,,,,,,,58,,,,,,,,,,0.02,2,2.3309,0,2,2,2,1,Play chess online against other people,Go out to a restaurant with my family,0.03,0.02,4.4,,,,,1
,,6676fab6295042ff191ead64,2024-07-04_10h01.29.139,WTP_SM_Choice,2022.2.1,MacIntel,62.89308176,,,,,,,,,,,,,,,,,,59,,,,,,,,,,0.02,2,2.3907,0,3,3,3,1,Take a walk in my neighborhood on a sunny day,Celebrate christmas with my family,0.04,0.02,4.4,,,,,1
,,6676fab6295042ff191ead64,2024-07-04_10h01.29.139,WTP_SM_Choice,2022.2.1,MacIntel,62.89308176,,,,,,,,,,,,,,,,,,60,,,,,,,,,,0.02,2,3.4962,0,4,4,4,1,Play chess online against other people,Discuss research with my advisor,0.05,0.02,1.1,,,,,1
,,6676fab6295042ff191ead64,2024-07-04_10h01.29.139,WTP_SM_Choice,2022.2.1,MacIntel,62.89308176,,,,,,,NAN,,NAN,1.24,4.76,,0,59,59,59,1,60,Charlie,Acc,Participant_Images/6676fab6295042ff191ead64/6676fab6295042ff191ead64_Images/6676fab6295042ff191ead64_Image_21.jpeg,liked,1.661473164,,,,,,,,,,,,,,,,,,,,,,
,,6676fab6295042ff191ead64,2024-07-04_10h01.29.139,WTP_SM_Choice,2022.2.1,MacIntel,62.89308176,,,,,space,1.1265,NAN,,NAN,1.24,4.76,,0,60,60,60,1,61,Charlie,Acc,Participant_Images/6676fab6295042ff191ead64/6676fab6295042ff191ead64_Images/6676fab6295042ff191ead64_Image_22.jpeg,did not like,3.613205605,,,,,,,,,,,,,,,,,,,,,,
,,6676fab6295042ff191ead64,2024-07-04_10h01.29.139,WTP_SM_Choice,2022.2.1,MacIntel,62.89308176,,,,,space,1.7214,NAN,,NAN,1.24,4.76,,0,61,61,61,1,62,Charlie,Acc,Participant_Images/6676fab6295042ff191ead64/6676fab6295042ff191ead64_Images/6676fab6295042ff191ead64_Image_16.jpeg,did not like,4.988446431,,,,,,,,,,,,,,,,,,,,,,
,,6676fab6295042ff191ead64,2024-07-04_10h01.29.139,WTP_SM_Choice,2022.2.1,MacIntel,62.89308176,,,,,space,1.5506,NAN,,NAN,1.24,4.76,,0,62,62,62,1,63,Charlie,Acc,Participant_Images/6676fab6295042ff191ead64/6676fab6295042ff191ead64_Images/6676fab6295042ff191ead64_Image_8.jpeg,liked,3.470791822,,,,,,,,,,,,,,,,,,,,,,
,,6676fab6295042ff191ead64,2024-07-04_10h01.29.139,WTP_SM_Choice,2022.2.1,MacIntel,62.89308176,,,,,space,0.9276,NAN,,NAN,1.24,4.76,,0,63,63,63,1,64,Charlie,Acc,Participant_Images/6676fab6295042ff191ead64/6676fab6295042ff191ead64_Images/6676fab6295042ff191ead64_Image_20.jpeg,liked,3.820572462,,,,,,,,,,,,,,,,,,,,,,
,,6676fab6295042ff191ead64,2024-07-04_10h01.29.139,WTP_SM_Choice,2022.2.1,MacIntel,62.89308176,,,,,,,,,,,,,,,,,,61,,,,,,space,1.3737,space,1.3106,0.01,1,1.7001,0,0,0,0,1,Listen to music in the car with the windows down,Play basketball with my friends,0.01,0.03,3.3,,,,,1
,,6676fab6295042ff191ead64,2024-07-04_10h01.29.139,WTP_SM_Choice,2022.2.1,MacIntel,62.89308176,,,,,,,,,,,,,,,,,,62,,,,,,,,,,0.02,1,2.113,0,1,1,1,1,Go  to the gym ,Play laser tag with my friends,0.02,0.03,3.3,,,,,1
,,6676fab6295042ff191ead64,2024-07-04_10h01.29.139,WTP_SM_Choice,2022.2.1,MacIntel,62.89308176,,,,,,,,,,,,,,,,,,63,,,,,,,,,,0.03,2,3.2475,0,2,2,2,1,Take a walk in my neighborhood on a sunny day,Discuss research with my advisor,0.03,0.03,3.3,,,,,1
,,6676fab6295042ff191ead64,2024-07-04_10h01.29.139,WTP_SM_Choice,2022.2.1,MacIntel,62.89308176,,,,,,,,,,,,,,,,,,64,,,,,,,,,,0.03,2,1.9745,0,3,3,3,1,Swim in the pool on a nice summer day,Discuss research with my advisor,0.04,0.03,1.1,,,,,1
,,6676fab6295042ff191ead64,2024-07-04_10h01.29.139,WTP_SM_Choice,2022.2.1,MacIntel,62.89308176,,,,,,,,,,,,,,,,,,65,,,,,,,,,,0.03,2,1.9892,0,4,4,4,1,Watch YouTube documentary videos about history,Watch a movie with my girlfriend,0.05,0.03,1.1,,,,,1
,,6676fab6295042ff191ead64,2024-07-04_10h01.29.139,WTP_SM_Choice,2022.2.1,MacIntel,62.89308176,,,,,,,NAN,,NAN,1.36,4.64,,0,64,64,64,1,65,Charlie,Acc,Participant_Images/6676fab6295042ff191ead64/6676fab6295042ff191ead64_Images/6676fab6295042ff191ead64_Image_9.jpeg,liked,2.455989137,,,,,,,,,,,,,,,,,,,,,,
,,6676fab6295042ff191ead64,2024-07-04_10h01.29.139,WTP_SM_Choice,2022.2.1,MacIntel,62.89308176,,,,,space,2.0012,NAN,,NAN,1.36,4.64,,0,65,65,65,1,66,Charlie,Acc,Participant_Images/6676fab6295042ff191ead64/6676fab6295042ff191ead64_Images/6676fab6295042ff191ead64_Image_24.jpeg,liked,3.79605092,,,,,,,,,,,,,,,,,,,,,,
,,6676fab6295042ff191ead64,2024-07-04_10h01.29.139,WTP_SM_Choice,2022.2.1,MacIntel,62.89308176,,,,,space,1.711,NAN,,NAN,1.36,4.64,,0,66,66,66,1,67,Charlie,Acc,Participant_Images/6676fab6295042ff191ead64/6676fab6295042ff191ead64_Images/6676fab6295042ff191ead64_Image_6.jpeg,did not like,3.562416326,,,,,,,,,,,,,,,,,,,,,,
,,6676fab6295042ff191ead64,2024-07-04_10h01.29.139,WTP_SM_Choice,2022.2.1,MacIntel,62.89308176,,,,,space,3.0509,NAN,,NAN,1.36,4.64,,0,67,67,67,1,68,Charlie,Acc,Participant_Images/6676fab6295042ff191ead64/6676fab6295042ff191ead64_Images/6676fab6295042ff191ead64_Image_17.jpeg,liked,2.843822497,,,,,,,,,,,,,,,,,,,,,,
,,6676fab6295042ff191ead64,2024-07-04_10h01.29.139,WTP_SM_Choice,2022.2.1,MacIntel,62.89308176,,,,,space,0.9008,NAN,,NAN,1.36,4.64,,0,68,68,68,1,69,Charlie,Acc,Participant_Images/6676fab6295042ff191ead64/6676fab6295042ff191ead64_Images/6676fab6295042ff191ead64_Image_19.jpeg,liked,3.546495948,,,,,,,,,,,,,,,,,,,,,,
,,6676fab6295042ff191ead64,2024-07-04_10h01.29.139,WTP_SM_Choice,2022.2.1,MacIntel,62.89308176,,,,,,,,,,,,,,,,,,66,,,,,,space,2.165,space,0.7269,0.01,1,1.4705,0,0,0,0,1,Swim in the pool on a nice summer day,Play laser tag with my friends,0.01,0.04,1.1,,,,,1
,,6676fab6295042ff191ead64,2024-07-04_10h01.29.139,WTP_SM_Choice,2022.2.1,MacIntel,62.89308176,,,,,,,,,,,,,,,,,,67,,,,,,,,,,0.02,1,1.6097,0,1,1,1,1,Practice cooking a new recipe in my kitchen,Play board games with my friends,0.02,0.04,8.8,,,,,1
,,6676fab6295042ff191ead64,2024-07-04_10h01.29.139,WTP_SM_Choice,2022.2.1,MacIntel,62.89308176,,,,,,,,,,,,,,,,,,68,,,,,,,,,,0.03,1,2.0654,0,2,2,2,1,Clean my room after not cleaning it for a long time,Play laser tag with my friends,0.03,0.04,4.4,,,,,1
,,6676fab6295042ff191ead64,2024-07-04_10h01.29.139,WTP_SM_Choice,2022.2.1,MacIntel,62.89308176,,,,,,,,,,,,,,,,,,69,,,,,,,,,,0.04,1,2.5289,0,3,3,3,1,Practice cooking a new recipe in my kitchen,Watch a movie with my girlfriend,0.04,0.04,1.1,,,,,1
,,6676fab6295042ff191ead64,2024-07-04_10h01.29.139,WTP_SM_Choice,2022.2.1,MacIntel,62.89308176,,,,,,,,,,,,,,,,,,70,,,,,,,,,,0.04,2,1.9564,0,4,4,4,1,Listen to music in the car with the windows down,Play laser tag with my friends,0.05,0.04,1.1,,,,,1
,,6676fab6295042ff191ead64,2024-07-04_10h01.29.139,WTP_SM_Choice,2022.2.1,MacIntel,62.89308176,,,,,,,NAN,,NAN,1.5,4.5,,0,69,69,69,1,70,Charlie,Acc,Participant_Images/6676fab6295042ff191ead64/6676fab6295042ff191ead64_Images/6676fab6295042ff191ead64_Image_10.jpeg,liked,1.672012706,,,,,,,,,,,,,,,,,,,,,,
,,6676fab6295042ff191ead64,2024-07-04_10h01.29.139,WTP_SM_Choice,2022.2.1,MacIntel,62.89308176,,,,,space,0.7449,NAN,,NAN,1.5,4.5,,0,70,70,70,1,71,Charlie,Acc,Participant_Images/6676fab6295042ff191ead64/6676fab6295042ff191ead64_Images/6676fab6295042ff191ead64_Image_18.jpeg,liked,4.942172136,,,,,,,,,,,,,,,,,,,,,,
,,6676fab6295042ff191ead64,2024-07-04_10h01.29.139,WTP_SM_Choice,2022.2.1,MacIntel,62.89308176,,,,,space,0.5845,NAN,,NAN,1.5,4.5,,0,71,71,71,1,72,Charlie,Acc,Participant_Images/6676fab6295042ff191ead64/6676fab6295042ff191ead64_Images/6676fab6295042ff191ead64_Image_15.jpeg,liked,2.50187214,,,,,,,,,,,,,,,,,,,,,,
,,6676fab6295042ff191ead64,2024-07-04_10h01.29.139,WTP_SM_Choice,2022.2.1,MacIntel,62.89308176,,,,,space,0.5952,NAN,,NAN,1.5,4.5,,0,72,72,72,1,73,Charlie,Acc,Participant_Images/6676fab6295042ff191ead64/6676fab6295042ff191ead64_Images/6676fab6295042ff191ead64_Image_23.jpeg,liked,2.071164779,,,,,,,,,,,,,,,,,,,,,,
,,6676fab6295042ff191ead64,2024-07-04_10h01.29.139,WTP_SM_Choice,2022.2.1,MacIntel,62.89308176,,,,,space,0.8611,NAN,,NAN,1.5,4.5,,0,73,73,73,1,74,Charlie,Acc,Participant_Images/6676fab6295042ff191ead64/6676fab6295042ff191ead64_Images/6676fab6295042ff191ead64_Image_13.jpeg,liked,5.336503566,,,,,,,,,,,,,,,,,,,,,,
,,6676fab6295042ff191ead64,2024-07-04_10h01.29.139,WTP_SM_Choice,2022.2.1,MacIntel,62.89308176,,,,,,,,,,,,,,,,,,71,,,,,,space,5.7334,space,1.2029,0.01,1,1.3543,0,0,0,0,1,Do statistics research from my office,Play basketball with my friends,0.01,0.05,3.3,,,,,1
,,6676fab6295042ff191ead64,2024-07-04_10h01.29.139,WTP_SM_Choice,2022.2.1,MacIntel,62.89308176,,,,,,,,,,,,,,,,,,72,,,,,,,,,,0.02,1,1.6252,0,1,1,1,1,Clean my room after not cleaning it for a long time,Drive around blasting music with my friends,0.02,0.05,8.8,,,,,1
,,6676fab6295042ff191ead64,2024-07-04_10h01.29.139,WTP_SM_Choice,2022.2.1,MacIntel,62.89308176,,,,,,,,,,,,,,,,,,73,,,,,,,,,,0.03,1,1.9727,0,2,2,2,1,Practice cooking a new recipe in my kitchen,Play laser tag with my friends,0.03,0.05,3.3,,,,,1
,,6676fab6295042ff191ead64,2024-07-04_10h01.29.139,WTP_SM_Choice,2022.2.1,MacIntel,62.89308176,,,,,,,,,,,,,,,,,,74,,,,,,,,,,0.04,1,1.6271,0,3,3,3,1,Play chess online against other people,Celebrate christmas with my family,0.04,0.05,4.4,,,,,1
,,6676fab6295042ff191ead64,2024-07-04_10h01.29.139,WTP_SM_Choice,2022.2.1,MacIntel,62.89308176,,,,,,,,,,,,,,,,,,75,,,,,,,,,,0.05,1,3.774,0,4,4,4,1,Clean my room after not cleaning it for a long time,Play basketball with my friends,0.05,0.05,3.3,,,,,1
,,6676fab6295042ff191ead64,2024-07-04_10h01.29.139,WTP_SM_Choice,2022.2.1,MacIntel,62.89308176,,,,,,,2,,3,1.65,4.35,,0,74,74,74,1,75,Charlie,Acc,Participant_Images/6676fab6295042ff191ead64/6676fab6295042ff191ead64_Images/6676fab6295042ff191ead64_Image_25.jpeg,liked,2.642157193,,,,,,,,,,,,,,,,,,space,2.0092,,,
,,6676fab6295042ff191ead64,2024-07-04_10h01.29.139,WTP_SM_Choice,2022.2.1,MacIntel,62.89308176,,,space,1.5558,space,0.785,NAN,,NAN,1.65,4.35,,0,75,75,75,1,76,Sam,Rej,Participant_Images/6676fab6295042ff191ead64/6676fab6295042ff191ead64_Images/6676fab6295042ff191ead64_Image_8.jpeg,did not like,4.456234322,,,,,,,,,,,,,,,,,,,,,,
,,6676fab6295042ff191ead64,2024-07-04_10h01.29.139,WTP_SM_Choice,2022.2.1,MacIntel,62.89308176,,,,,space,0.478,NAN,,NAN,1.65,4.35,,0,76,76,76,1,77,Sam,Rej,Participant_Images/6676fab6295042ff191ead64/6676fab6295042ff191ead64_Images/6676fab6295042ff191ead64_Image_15.jpeg,did not like,4.438512181,,,,,,,,,,,,,,,,,,,,,,
,,6676fab6295042ff191ead64,2024-07-04_10h01.29.139,WTP_SM_Choice,2022.2.1,MacIntel,62.89308176,,,,,space,0.9028,NAN,,NAN,1.65,4.35,,0,77,77,77,1,78,Sam,Rej,Participant_Images/6676fab6295042ff191ead64/6676fab6295042ff191ead64_Images/6676fab6295042ff191ead64_Image_12.jpeg,did not like,2.682944783,,,,,,,,,,,,,,,,,,,,,,
,,6676fab6295042ff191ead64,2024-07-04_10h01.29.139,WTP_SM_Choice,2022.2.1,MacIntel,62.89308176,,,,,space,1.061,NAN,,NAN,1.65,4.35,,0,78,78,78,1,79,Sam,Rej,Participant_Images/6676fab6295042ff191ead64/6676fab6295042ff191ead64_Images/6676fab6295042ff191ead64_Image_21.jpeg,did not like,4.51984296,,,,,,,,,,,,,,,,,,,,,,
,,6676fab6295042ff191ead64,2024-07-04_10h01.29.139,WTP_SM_Choice,2022.2.1,MacIntel,62.89308176,,,,,,,,,,,,,,,,,,76,,,,,,space,0.8414,space,1.0126,0.01,1,1.8653,0,0,0,0,1,Go  to the gym ,Play basketball with my friends,0.01,0.01,1.1,,,,,1
,,6676fab6295042ff191ead64,2024-07-04_10h01.29.139,WTP_SM_Choice,2022.2.1,MacIntel,62.89308176,,,,,,,,,,,,,,,,,,77,,,,,,,,,,0.01,2,2.1588,0,1,1,1,1,Swim in the pool on a nice summer day,Play basketball with my friends,0.02,0.01,8.8,,,,,1
,,6676fab6295042ff191ead64,2024-07-04_10h01.29.139,WTP_SM_Choice,2022.2.1,MacIntel,62.89308176,,,,,,,,,,,,,,,,,,78,,,,,,,,,,0.01,2,2.1659,0,2,2,2,1,Practice cooking a new recipe in my kitchen,Play basketball with my friends,0.03,0.01,1.1,,,,,1
,,6676fab6295042ff191ead64,2024-07-04_10h01.29.139,WTP_SM_Choice,2022.2.1,MacIntel,62.89308176,,,,,,,,,,,,,,,,,,79,,,,,,,,,,0.01,2,2.1069,0,3,3,3,1,Listen to music in the car with the windows down,Play board games with my friends,0.04,0.01,1.1,,,,,1
,,6676fab6295042ff191ead64,2024-07-04_10h01.29.139,WTP_SM_Choice,2022.2.1,MacIntel,62.89308176,,,,,,,,,,,,,,,,,,80,,,,,,,,,,0.01,2,1.9728,0,4,4,4,1,Listen to music in the car with the windows down,Go out to a restaurant with my family,0.05,0.01,4.4,,,,,1
,,6676fab6295042ff191ead64,2024-07-04_10h01.29.139,WTP_SM_Choice,2022.2.1,MacIntel,62.89308176,,,,,,,NAN,,NAN,1.7,4.3,,0,79,79,79,1,80,Sam,Rej,Participant_Images/6676fab6295042ff191ead64/6676fab6295042ff191ead64_Images/6676fab6295042ff191ead64_Image_4.jpeg,did not like,3.195382774,,,,,,,,,,,,,,,,,,,,,,
,,6676fab6295042ff191ead64,2024-07-04_10h01.29.139,WTP_SM_Choice,2022.2.1,MacIntel,62.89308176,,,,,space,1.8495,NAN,,NAN,1.7,4.3,,0,80,80,80,1,81,Sam,Rej,Participant_Images/6676fab6295042ff191ead64/6676fab6295042ff191ead64_Images/6676fab6295042ff191ead64_Image_18.jpeg,did not like,1.779333479,,,,,,,,,,,,,,,,,,,,,,
,,6676fab6295042ff191ead64,2024-07-04_10h01.29.139,WTP_SM_Choice,2022.2.1,MacIntel,62.89308176,,,,,space,1.4305,NAN,,NAN,1.7,4.3,,0,81,81,81,1,82,Sam,Rej,Participant_Images/6676fab6295042ff191ead64/6676fab6295042ff191ead64_Images/6676fab6295042ff191ead64_Image_3.jpeg,liked,4.312468682,,,,,,,,,,,,,,,,,,,,,,
,,6676fab6295042ff191ead64,2024-07-04_10h01.29.139,WTP_SM_Choice,2022.2.1,MacIntel,62.89308176,,,,,space,7.6833,NAN,,NAN,1.7,4.3,,0,82,82,82,1,83,Sam,Rej,Participant_Images/6676fab6295042ff191ead64/6676fab6295042ff191ead64_Images/6676fab6295042ff191ead64_Image_16.jpeg,did not like,4.940433059,,,,,,,,,,,,,,,,,,,,,,
,,6676fab6295042ff191ead64,2024-07-04_10h01.29.139,WTP_SM_Choice,2022.2.1,MacIntel,62.89308176,,,,,space,4.0401,NAN,,NAN,1.7,4.3,,0,83,83,83,1,84,Sam,Rej,Participant_Images/6676fab6295042ff191ead64/6676fab6295042ff191ead64_Images/6676fab6295042ff191ead64_Image_22.jpeg,liked,2.7105123,,,,,,,,,,,,,,,,,,,,,,
,,6676fab6295042ff191ead64,2024-07-04_10h01.29.139,WTP_SM_Choice,2022.2.1,MacIntel,62.89308176,,,,,,,,,,,,,,,,,,81,,,,,,space,5.4849,space,0.5282,0.01,1,1.3313,0,0,0,0,1,Listen to music in the car with the windows down,Playchess with a friend,0.01,0.02,3.3,,,,,1
,,6676fab6295042ff191ead64,2024-07-04_10h01.29.139,WTP_SM_Choice,2022.2.1,MacIntel,62.89308176,,,,,,,,,,,,,,,,,,82,,,,,,,,,,0.02,1,3.5186,0,1,1,1,1,Go  to the gym ,Playchess with a friend,0.02,0.02,4.4,,,,,1
,,6676fab6295042ff191ead64,2024-07-04_10h01.29.139,WTP_SM_Choice,2022.2.1,MacIntel,62.89308176,,,,,,,,,,,,,,,,,,83,,,,,,,,,,0.02,2,2.3133,0,2,2,2,1,Lay down on the sand at the beach,Read a book at a park with my girlfriend,0.03,0.02,1.1,,,,,1
,,6676fab6295042ff191ead64,2024-07-04_10h01.29.139,WTP_SM_Choice,2022.2.1,MacIntel,62.89308176,,,,,,,,,,,,,,,,,,84,,,,,,,,,,0.02,2,4.0555,0,3,3,3,1,Watch YouTube documentary videos about history,Go out to a restaurant with my family,0.04,0.02,3.3,,,,,1
,,6676fab6295042ff191ead64,2024-07-04_10h01.29.139,WTP_SM_Choice,2022.2.1,MacIntel,62.89308176,,,,,,,,,,,,,,,,,,85,,,,,,,,,,0.02,2,1.5292,0,4,4,4,1,Take a walk in my neighborhood on a sunny day,Play basketball with my friends,0.05,0.02,3.3,,,,,1
,,6676fab6295042ff191ead64,2024-07-04_10h01.29.139,WTP_SM_Choice,2022.2.1,MacIntel,62.89308176,,,,,,,NAN,,NAN,1.79,4.21,,0,84,84,84,1,85,Sam,Rej,Participant_Images/6676fab6295042ff191ead64/6676fab6295042ff191ead64_Images/6676fab6295042ff191ead64_Image_1.jpeg,liked,3.602308302,,,,,,,,,,,,,,,,,,,,,,
,,6676fab6295042ff191ead64,2024-07-04_10h01.29.139,WTP_SM_Choice,2022.2.1,MacIntel,62.89308176,,,,,space,2.7497,NAN,,NAN,1.79,4.21,,0,85,85,85,1,86,Sam,Rej,Participant_Images/6676fab6295042ff191ead64/6676fab6295042ff191ead64_Images/6676fab6295042ff191ead64_Image_2.jpeg,did not like,4.106391878,,,,,,,,,,,,,,,,,,,,,,
,,6676fab6295042ff191ead64,2024-07-04_10h01.29.139,WTP_SM_Choice,2022.2.1,MacIntel,62.89308176,,,,,space,0.5674,NAN,,NAN,1.79,4.21,,0,86,86,86,1,87,Sam,Rej,Participant_Images/6676fab6295042ff191ead64/6676fab6295042ff191ead64_Images/6676fab6295042ff191ead64_Image_14.jpeg,did not like,3.799433026,,,,,,,,,,,,,,,,,,,,,,
,,6676fab6295042ff191ead64,2024-07-04_10h01.29.139,WTP_SM_Choice,2022.2.1,MacIntel,62.89308176,,,,,space,4.1013,NAN,,NAN,1.79,4.21,,0,87,87,87,1,88,Sam,Rej,Participant_Images/6676fab6295042ff191ead64/6676fab6295042ff191ead64_Images/6676fab6295042ff191ead64_Image_5.jpeg,did not like,5.246980764,,,,,,,,,,,,,,,,,,,,,,
,,6676fab6295042ff191ead64,2024-07-04_10h01.29.139,WTP_SM_Choice,2022.2.1,MacIntel,62.89308176,,,,,space,2.0365,NAN,,NAN,1.79,4.21,,0,88,88,88,1,89,Sam,Rej,Participant_Images/6676fab6295042ff191ead64/6676fab6295042ff191ead64_Images/6676fab6295042ff191ead64_Image_13.jpeg,liked,3.30081769,,,,,,,,,,,,,,,,,,,,,,
,,6676fab6295042ff191ead64,2024-07-04_10h01.29.139,WTP_SM_Choice,2022.2.1,MacIntel,62.89308176,,,,,,,,,,,,,,,,,,86,,,,,,space,1.5497,space,5.2551,0.01,1,1.8055,0,0,0,0,1,Practice cooking a new recipe in my kitchen,Read a book at a park with my girlfriend,0.01,0.03,1.1,,,,,1
,,6676fab6295042ff191ead64,2024-07-04_10h01.29.139,WTP_SM_Choice,2022.2.1,MacIntel,62.89308176,,,,,,,,,,,,,,,,,,87,,,,,,,,,,0.02,1,3.0689,0,1,1,1,1,Go  to the gym ,Watch a movie with my girlfriend,0.02,0.03,4.4,,,,,1
,,6676fab6295042ff191ead64,2024-07-04_10h01.29.139,WTP_SM_Choice,2022.2.1,MacIntel,62.89308176,,,,,,,,,,,,,,,,,,88,,,,,,,,,,0.03,2,3.2594,0,2,2,2,1,Swim in the pool on a nice summer day,Drive around blasting music with my friends,0.03,0.03,1.1,,,,,1
,,6676fab6295042ff191ead64,2024-07-04_10h01.29.139,WTP_SM_Choice,2022.2.1,MacIntel,62.89308176,,,,,,,,,,,,,,,,,,89,,,,,,,,,,0.03,2,2.4775,0,3,3,3,1,Clean my room after not cleaning it for a long time,Go out to a restaurant with my family,0.04,0.03,3.3,,,,,1
,,6676fab6295042ff191ead64,2024-07-04_10h01.29.139,WTP_SM_Choice,2022.2.1,MacIntel,62.89308176,,,,,,,,,,,,,,,,,,90,,,,,,,,,,0.03,2,1.6332,0,4,4,4,1,Clean my room after not cleaning it for a long time,Celebrate christmas with my family,0.05,0.03,8.8,,,,,1
,,6676fab6295042ff191ead64,2024-07-04_10h01.29.139,WTP_SM_Choice,2022.2.1,MacIntel,62.89308176,,,,,,,NAN,,NAN,1.91,4.09,,0,89,89,89,1,90,Sam,Rej,Participant_Images/6676fab6295042ff191ead64/6676fab6295042ff191ead64_Images/6676fab6295042ff191ead64_Image_19.jpeg,did not like,1.661473164,,,,,,,,,,,,,,,,,,,,,,
,,6676fab6295042ff191ead64,2024-07-04_10h01.29.139,WTP_SM_Choice,2022.2.1,MacIntel,62.89308176,,,,,space,3.1507,NAN,,NAN,1.91,4.09,,0,90,90,90,1,91,Sam,Rej,Participant_Images/6676fab6295042ff191ead64/6676fab6295042ff191ead64_Images/6676fab6295042ff191ead64_Image_23.jpeg,liked,3.613205605,,,,,,,,,,,,,,,,,,,,,,
,,6676fab6295042ff191ead64,2024-07-04_10h01.29.139,WTP_SM_Choice,2022.2.1,MacIntel,62.89308176,,,,,space,4.8266,NAN,,NAN,1.91,4.09,,0,91,91,91,1,92,Sam,Rej,Participant_Images/6676fab6295042ff191ead64/6676fab6295042ff191ead64_Images/6676fab6295042ff191ead64_Image_20.jpeg,did not like,4.988446431,,,,,,,,,,,,,,,,,,,,,,
,,6676fab6295042ff191ead64,2024-07-04_10h01.29.139,WTP_SM_Choice,2022.2.1,MacIntel,62.89308176,,,,,space,0.8278,NAN,,NAN,1.91,4.09,,0,92,92,92,1,93,Sam,Rej,Participant_Images/6676fab6295042ff191ead64/6676fab6295042ff191ead64_Images/6676fab6295042ff191ead64_Image_9.jpeg,did not like,3.470791822,,,,,,,,,,,,,,,,,,,,,,
,,6676fab6295042ff191ead64,2024-07-04_10h01.29.139,WTP_SM_Choice,2022.2.1,MacIntel,62.89308176,,,,,space,1.188,NAN,,NAN,1.91,4.09,,0,93,93,93,1,94,Sam,Rej,Participant_Images/6676fab6295042ff191ead64/6676fab6295042ff191ead64_Images/6676fab6295042ff191ead64_Image_10.jpeg,did not like,3.820572462,,,,,,,,,,,,,,,,,,,,,,
,,6676fab6295042ff191ead64,2024-07-04_10h01.29.139,WTP_SM_Choice,2022.2.1,MacIntel,62.89308176,,,,,,,,,,,,,,,,,,91,,,,,,space,4.0493,space,1.0757,0.01,1,1.362,0,0,0,0,1,Watch YouTube documentary videos about history,Play board games with my friends,0.01,0.04,3.3,,,,,1
,,6676fab6295042ff191ead64,2024-07-04_10h01.29.139,WTP_SM_Choice,2022.2.1,MacIntel,62.89308176,,,,,,,,,,,,,,,,,,92,,,,,,,,,,0.02,1,2.54,0,1,1,1,1,Go  to the gym ,Go out to a restaurant with my family,0.02,0.04,8.8,,,,,1
,,6676fab6295042ff191ead64,2024-07-04_10h01.29.139,WTP_SM_Choice,2022.2.1,MacIntel,62.89308176,,,,,,,,,,,,,,,,,,93,,,,,,,,,,0.03,1,1.415,0,2,2,2,1,Clean my room after not cleaning it for a long time,Discuss research with my advisor,0.03,0.04,1.1,,,,,1
,,6676fab6295042ff191ead64,2024-07-04_10h01.29.139,WTP_SM_Choice,2022.2.1,MacIntel,62.89308176,,,,,,,,,,,,,,,,,,94,,,,,,,,,,0.04,1,3.0924,0,3,3,3,1,Swim in the pool on a nice summer day,Watch a movie with my girlfriend,0.04,0.04,4.4,,,,,1
,,6676fab6295042ff191ead64,2024-07-04_10h01.29.139,WTP_SM_Choice,2022.2.1,MacIntel,62.89308176,,,,,,,,,,,,,,,,,,95,,,,,,,,,,0.04,2,2.7969,0,4,4,4,1,Do statistics research from my office,Play board games with my friends,0.05,0.04,4.4,,,,,1
,,6676fab6295042ff191ead64,2024-07-04_10h01.29.139,WTP_SM_Choice,2022.2.1,MacIntel,62.89308176,,,,,,,NAN,,NAN,2.05,3.95,,0,94,94,94,1,95,Sam,Rej,Participant_Images/6676fab6295042ff191ead64/6676fab6295042ff191ead64_Images/6676fab6295042ff191ead64_Image_6.jpeg,liked,2.455989137,,,,,,,,,,,,,,,,,,,,,,
,,6676fab6295042ff191ead64,2024-07-04_10h01.29.139,WTP_SM_Choice,2022.2.1,MacIntel,62.89308176,,,,,space,3.3951,NAN,,NAN,2.05,3.95,,0,95,95,95,1,96,Sam,Rej,Participant_Images/6676fab6295042ff191ead64/6676fab6295042ff191ead64_Images/6676fab6295042ff191ead64_Image_17.jpeg,did not like,3.79605092,,,,,,,,,,,,,,,,,,,,,,
,,6676fab6295042ff191ead64,2024-07-04_10h01.29.139,WTP_SM_Choice,2022.2.1,MacIntel,62.89308176,,,,,space,1.0104,NAN,,NAN,2.05,3.95,,0,96,96,96,1,97,Sam,Rej,Participant_Images/6676fab6295042ff191ead64/6676fab6295042ff191ead64_Images/6676fab6295042ff191ead64_Image_7.jpeg,liked,3.562416326,,,,,,,,,,,,,,,,,,,,,,
,,6676fab6295042ff191ead64,2024-07-04_10h01.29.139,WTP_SM_Choice,2022.2.1,MacIntel,62.89308176,,,,,space,1.4179,NAN,,NAN,2.05,3.95,,0,97,97,97,1,98,Sam,Rej,Participant_Images/6676fab6295042ff191ead64/6676fab6295042ff191ead64_Images/6676fab6295042ff191ead64_Image_11.jpeg,did not like,2.843822497,,,,,,,,,,,,,,,,,,,,,,
,,6676fab6295042ff191ead64,2024-07-04_10h01.29.139,WTP_SM_Choice,2022.2.1,MacIntel,62.89308176,,,,,space,1.8331,NAN,,NAN,2.05,3.95,,0,98,98,98,1,99,Sam,Rej,Participant_Images/6676fab6295042ff191ead64/6676fab6295042ff191ead64_Images/6676fab6295042ff191ead64_Image_24.jpeg,did not like,3.546495948,,,,,,,,,,,,,,,,,,,,,,
,,6676fab6295042ff191ead64,2024-07-04_10h01.29.139,WTP_SM_Choice,2022.2.1,MacIntel,62.89308176,,,,,,,,,,,,,,,,,,96,,,,,,space,3.4661,space,0.8341,0.01,1,1.2602,0,0,0,0,1,Take a walk in my neighborhood on a sunny day,Watch a movie with my girlfriend,0.01,0.05,3.3,,,,,1
,,6676fab6295042ff191ead64,2024-07-04_10h01.29.139,WTP_SM_Choice,2022.2.1,MacIntel,62.89308176,,,,,,,,,,,,,,,,,,97,,,,,,,,,,0.02,1,1.5404,0,1,1,1,1,Take a walk in my neighborhood on a sunny day,Playchess with a friend,0.02,0.05,1.1,,,,,1
,,6676fab6295042ff191ead64,2024-07-04_10h01.29.139,WTP_SM_Choice,2022.2.1,MacIntel,62.89308176,,,,,,,,,,,,,,,,,,98,,,,,,,,,,0.03,1,4.7444,0,2,2,2,1,Clean my room after not cleaning it for a long time,Play board games with my friends,0.03,0.05,1.1,,,,,1
,,6676fab6295042ff191ead64,2024-07-04_10h01.29.139,WTP_SM_Choice,2022.2.1,MacIntel,62.89308176,,,,,,,,,,,,,,,,,,99,,,,,,,,,,0.04,1,4.8217,0,3,3,3,1,Go  to the gym ,Drive around blasting music with my friends,0.04,0.05,3.3,,,,,1
,,6676fab6295042ff191ead64,2024-07-04_10h01.29.139,WTP_SM_Choice,2022.2.1,MacIntel,62.89308176,,,,,,,,,,,,,,,,,,100,,,,,,,,,,0.05,1,2.1447,0,4,4,4,1,Do statistics research from my office,Watch a movie with my girlfriend,0.05,0.05,4.4,,,,,1
,,6676fab6295042ff191ead64,2024-07-04_10h01.29.139,WTP_SM_Choice,2022.2.1,MacIntel,62.89308176,,,,,,,2,,3,2.2,3.8,,0,99,99,99,1,100,Sam,Rej,Participant_Images/6676fab6295042ff191ead64/6676fab6295042ff191ead64_Images/6676fab6295042ff191ead64_Image_25.jpeg,did not like,1.672012706,,,,,,,,,,,,,,,,,,space,1.1935,,,
,,6676fab6295042ff191ead64,2024-07-04_10h01.29.139,WTP_SM_Choice,2022.2.1,MacIntel,62.89308176,,,,,,,,,,,,,,,,,,,,,,,,,,,,,,,,,,,,,,,,,,,space,4.1347,