endwelcomescreen_keys.keys,endwelcomescreen_keys.rt,participant,date,expName,psychopyVersion,OS,frameRate,endinstructionscreen_keys.keys,endinstructionscreen_keys.rt,endpartnermatch_keys.keys,endpartnermatch_keys.rt,sharenextphoto_key.keys,sharenextphoto_key.rt,salience_rating,key_resp.keys,stress_level,subtract_bonus,TOTAL_TASK_BONUS,stresslevel_keypress.keys,entiretaskloop.thisRepN,entiretaskloop.thisTrialN,entiretaskloop.thisN,entiretaskloop.thisIndex,entiretaskloop.ran,TrialNumber,Partner,Condition,Photos,Feedback,FeedbackWait,WTP_ins_keys1.keys,WTP_ins_keys1.rt,WTP_ins_keys2.keys,WTP_ins_keys2.rt,decision_price,responses.keys,responses.rt,WTPTaskLoop.thisRepN,WTPTaskLoop.thisTrialN,WTPTaskLoop.thisN,WTPTaskLoop.thisIndex,WTPTaskLoop.ran,right,left,leftmoney,rightmoney,WTP_ITI,social_left,Resume_keys.keys,Resume_keys.rt,end_screen_keys.keys,end_screen_keys.rt
space,5.0688,667838be776b27f8705b6c3c,2024-07-17_16h33.25.976,WTP_SM_Choice,2022.2.1,Win32,59.52380952,,,,,,,,,,,,,,,,,,,,,,,,,,,,,,,,,,,,,,,,,,,,,
,,667838be776b27f8705b6c3c,2024-07-17_16h33.25.976,WTP_SM_Choice,2022.2.1,Win32,59.52380952,space,23.7605,,,,,,,,,,,,,,,,,,,,,,,,,,,,,,,,,,,,,,,,,,,
,,667838be776b27f8705b6c3c,2024-07-17_16h33.25.976,WTP_SM_Choice,2022.2.1,Win32,59.52380952,,,space,3.8856,space,2.0865,NAN,,NAN,0,6,,0,0,0,0,1,1,Sam,Rej,Participant_Images/667838be776b27f8705b6c3c/667838be776b27f8705b6c3c_Images/667838be776b27f8705b6c3c_Image_9.jpeg,did not like,3.613205605,,,,,,,,,,,,,,,,,,,,,,
,,667838be776b27f8705b6c3c,2024-07-17_16h33.25.976,WTP_SM_Choice,2022.2.1,Win32,59.52380952,,,,,space,1.5675,NAN,,NAN,0,6,,0,1,1,1,1,2,Sam,Rej,Participant_Images/667838be776b27f8705b6c3c/667838be776b27f8705b6c3c_Images/667838be776b27f8705b6c3c_Image_16.jpeg,liked,4.988446431,,,,,,,,,,,,,,,,,,,,,,
,,667838be776b27f8705b6c3c,2024-07-17_16h33.25.976,WTP_SM_Choice,2022.2.1,Win32,59.52380952,,,,,space,1.9518,NAN,,NAN,0,6,,0,2,2,2,1,3,Sam,Rej,Participant_Images/667838be776b27f8705b6c3c/667838be776b27f8705b6c3c_Images/667838be776b27f8705b6c3c_Image_6.jpeg,liked,3.470791822,,,,,,,,,,,,,,,,,,,,,,
,,667838be776b27f8705b6c3c,2024-07-17_16h33.25.976,WTP_SM_Choice,2022.2.1,Win32,59.52380952,,,,,space,3.4242,NAN,,NAN,0,6,,0,3,3,3,1,4,Sam,Rej,Participant_Images/667838be776b27f8705b6c3c/667838be776b27f8705b6c3c_Images/667838be776b27f8705b6c3c_Image_20.jpeg,did not like,3.820572462,,,,,,,,,,,,,,,,,,,,,,
,,667838be776b27f8705b6c3c,2024-07-17_16h33.25.976,WTP_SM_Choice,2022.2.1,Win32,59.52380952,,,,,,,,,,,,,,,,,,1,,,,,,space,37.8144,space,24.4077,0.01,1,3.4792,0,0,0,0,1,Do Yoga to relax the body,Have cookouts with family and friends,0.01,0.01,4.4,1,,,,
,,667838be776b27f8705b6c3c,2024-07-17_16h33.25.976,WTP_SM_Choice,2022.2.1,Win32,59.52380952,,,,,,,,,,,,,,,,,,2,,,,,,,,,,0.01,2,3.984,0,1,1,1,1,Vent with friends,Sleep to comfort the mind,0.02,0.01,8.8,0,,,,
,,667838be776b27f8705b6c3c,2024-07-17_16h33.25.976,WTP_SM_Choice,2022.2.1,Win32,59.52380952,,,,,,,,,,,,,,,,,,3,,,,,,,,,,0.01,2,4.4837,0,2,2,2,1,Listen to music ,work out with friends,0.03,0.01,3.3,1,,,,
,,667838be776b27f8705b6c3c,2024-07-17_16h33.25.976,WTP_SM_Choice,2022.2.1,Win32,59.52380952,,,,,,,,,,,,,,,,,,4,,,,,,,,,,0.01,2,3.1328,0,3,3,3,1,go camping with friends,participate in online studies,0.04,0.01,1.1,0,,,,
,,667838be776b27f8705b6c3c,2024-07-17_16h33.25.976,WTP_SM_Choice,2022.2.1,Win32,59.52380952,,,,,,,,,,,,,,,,,,5,,,,,,,,,,0.05,1,3.6898,0,4,4,4,1,Read a book,go on motorcycle rides with friends,0.05,0.01,1.1,1,,,,
,,667838be776b27f8705b6c3c,2024-07-17_16h33.25.976,WTP_SM_Choice,2022.2.1,Win32,59.52380952,,,,,,,NAN,,NAN,0.09,5.91,,0,4,4,4,1,5,Sam,Rej,Participant_Images/667838be776b27f8705b6c3c/667838be776b27f8705b6c3c_Images/667838be776b27f8705b6c3c_Image_23.jpeg,did not like,2.455989137,,,,,,,,,,,,,,,,,,,,,,
,,667838be776b27f8705b6c3c,2024-07-17_16h33.25.976,WTP_SM_Choice,2022.2.1,Win32,59.52380952,,,,,space,1.5203,NAN,,NAN,0.09,5.91,,0,5,5,5,1,6,Sam,Rej,Participant_Images/667838be776b27f8705b6c3c/667838be776b27f8705b6c3c_Images/667838be776b27f8705b6c3c_Image_1.jpeg,liked,3.79605092,,,,,,,,,,,,,,,,,,,,,,
,,667838be776b27f8705b6c3c,2024-07-17_16h33.25.976,WTP_SM_Choice,2022.2.1,Win32,59.52380952,,,,,space,3.3505,NAN,,NAN,0.09,5.91,,0,6,6,6,1,7,Sam,Rej,Participant_Images/667838be776b27f8705b6c3c/667838be776b27f8705b6c3c_Images/667838be776b27f8705b6c3c_Image_18.jpeg,did not like,3.562416326,,,,,,,,,,,,,,,,,,,,,,
,,667838be776b27f8705b6c3c,2024-07-17_16h33.25.976,WTP_SM_Choice,2022.2.1,Win32,59.52380952,,,,,space,2.1665,NAN,,NAN,0.09,5.91,,0,7,7,7,1,8,Sam,Rej,Participant_Images/667838be776b27f8705b6c3c/667838be776b27f8705b6c3c_Images/667838be776b27f8705b6c3c_Image_5.jpeg,did not like,2.843822497,,,,,,,,,,,,,,,,,,,,,,
,,667838be776b27f8705b6c3c,2024-07-17_16h33.25.976,WTP_SM_Choice,2022.2.1,Win32,59.52380952,,,,,space,3.6007,NAN,,NAN,0.09,5.91,,0,8,8,8,1,9,Sam,Rej,Participant_Images/667838be776b27f8705b6c3c/667838be776b27f8705b6c3c_Images/667838be776b27f8705b6c3c_Image_13.jpeg,did not like,3.546495948,,,,,,,,,,,,,,,,,,,,,,
,,667838be776b27f8705b6c3c,2024-07-17_16h33.25.976,WTP_SM_Choice,2022.2.1,Win32,59.52380952,,,,,,,,,,,,,,,,,,6,,,,,,space,10.2299,space,1.4761,0.01,1,2.6724,0,0,0,0,1,Go to the gym to workout,go on motorcycle rides with friends,0.01,0.02,3.3,1,,,,
,,667838be776b27f8705b6c3c,2024-07-17_16h33.25.976,WTP_SM_Choice,2022.2.1,Win32,59.52380952,,,,,,,,,,,,,,,,,,7,,,,,,,,,,0.02,1,3.2681,0,1,1,1,1,Walk around the park,thrift with friends,0.02,0.02,1.1,1,,,,
,,667838be776b27f8705b6c3c,2024-07-17_16h33.25.976,WTP_SM_Choice,2022.2.1,Win32,59.52380952,,,,,,,,,,,,,,,,,,8,,,,,,,,,,0.02,2,2.0667,0,2,2,2,1,thrift with friends,Do Yoga to relax the body,0.03,0.02,1.1,0,,,,
,,667838be776b27f8705b6c3c,2024-07-17_16h33.25.976,WTP_SM_Choice,2022.2.1,Win32,59.52380952,,,,,,,,,,,,,,,,,,9,,,,,,,,,,0.02,2,2.5432,0,3,3,3,1,Go to dine in somewhere,Listen to music ,0.04,0.02,4.4,0,,,,
,,667838be776b27f8705b6c3c,2024-07-17_16h33.25.976,WTP_SM_Choice,2022.2.1,Win32,59.52380952,,,,,,,,,,,,,,,,,,10,,,,,,,,,,0.02,2,2.151,0,4,4,4,1,participate in online studies,thrift with friends,0.05,0.02,1.1,1,,,,
,,667838be776b27f8705b6c3c,2024-07-17_16h33.25.976,WTP_SM_Choice,2022.2.1,Win32,59.52380952,,,,,,,NAN,,NAN,0.18,5.82,,0,9,9,9,1,10,Sam,Rej,Participant_Images/667838be776b27f8705b6c3c/667838be776b27f8705b6c3c_Images/667838be776b27f8705b6c3c_Image_8.jpeg,liked,1.672012706,,,,,,,,,,,,,,,,,,,,,,
,,667838be776b27f8705b6c3c,2024-07-17_16h33.25.976,WTP_SM_Choice,2022.2.1,Win32,59.52380952,,,,,space,2.0927,NAN,,NAN,0.18,5.82,,0,10,10,10,1,11,Sam,Rej,Participant_Images/667838be776b27f8705b6c3c/667838be776b27f8705b6c3c_Images/667838be776b27f8705b6c3c_Image_24.jpeg,did not like,4.942172136,,,,,,,,,,,,,,,,,,,,,,
,,667838be776b27f8705b6c3c,2024-07-17_16h33.25.976,WTP_SM_Choice,2022.2.1,Win32,59.52380952,,,,,space,0.8685,NAN,,NAN,0.18,5.82,,0,11,11,11,1,12,Sam,Rej,Participant_Images/667838be776b27f8705b6c3c/667838be776b27f8705b6c3c_Images/667838be776b27f8705b6c3c_Image_12.jpeg,did not like,2.50187214,,,,,,,,,,,,,,,,,,,,,,
,,667838be776b27f8705b6c3c,2024-07-17_16h33.25.976,WTP_SM_Choice,2022.2.1,Win32,59.52380952,,,,,space,2.7847,NAN,,NAN,0.18,5.82,,0,12,12,12,1,13,Sam,Rej,Participant_Images/667838be776b27f8705b6c3c/667838be776b27f8705b6c3c_Images/667838be776b27f8705b6c3c_Image_19.jpeg,liked,2.071164779,,,,,,,,,,,,,,,,,,,,,,
,,667838be776b27f8705b6c3c,2024-07-17_16h33.25.976,WTP_SM_Choice,2022.2.1,Win32,59.52380952,,,,,space,2.1478,NAN,,NAN,0.18,5.82,,0,13,13,13,1,14,Sam,Rej,Participant_Images/667838be776b27f8705b6c3c/667838be776b27f8705b6c3c_Images/667838be776b27f8705b6c3c_Image_7.jpeg,did not like,5.336503566,,,,,,,,,,,,,,,,,,,,,,
,,667838be776b27f8705b6c3c,2024-07-17_16h33.25.976,WTP_SM_Choice,2022.2.1,Win32,59.52380952,,,,,,,,,,,,,,,,,,11,,,,,,space,2.0514,space,1.1567,0.01,1,1.8332,0,0,0,0,1,Clean the house,go to museums with friends,0.01,0.03,3.3,1,,,,
,,667838be776b27f8705b6c3c,2024-07-17_16h33.25.976,WTP_SM_Choice,2022.2.1,Win32,59.52380952,,,,,,,,,,,,,,,,,,12,,,,,,,,,,0.02,1,1.7375,0,1,1,1,1,Walk around the park,work out with friends,0.02,0.03,4.4,1,,,,
,,667838be776b27f8705b6c3c,2024-07-17_16h33.25.976,WTP_SM_Choice,2022.2.1,Win32,59.52380952,,,,,,,,,,,,,,,,,,13,,,,,,,,,,0.03,2,2.2942,0,2,2,2,1,go on motorcycle rides with friends,Listen to music ,0.03,0.03,1.1,0,,,,
,,667838be776b27f8705b6c3c,2024-07-17_16h33.25.976,WTP_SM_Choice,2022.2.1,Win32,59.52380952,,,,,,,,,,,,,,,,,,14,,,,,,,,,,0.04,1,2.3195,0,3,3,3,1,Vent with friends,Listen to music ,0.04,0.03,3.3,0,,,,
,,667838be776b27f8705b6c3c,2024-07-17_16h33.25.976,WTP_SM_Choice,2022.2.1,Win32,59.52380952,,,,,,,,,,,,,,,,,,15,,,,,,,,,,0.03,2,1.5508,0,4,4,4,1,Go to the park,Do Yoga to relax the body,0.05,0.03,4.4,0,,,,
,,667838be776b27f8705b6c3c,2024-07-17_16h33.25.976,WTP_SM_Choice,2022.2.1,Win32,59.52380952,,,,,,,NAN,,NAN,0.31,5.69,,0,14,14,14,1,15,Sam,Rej,Participant_Images/667838be776b27f8705b6c3c/667838be776b27f8705b6c3c_Images/667838be776b27f8705b6c3c_Image_4.jpeg,did not like,2.642157193,,,,,,,,,,,,,,,,,,,,,,
,,667838be776b27f8705b6c3c,2024-07-17_16h33.25.976,WTP_SM_Choice,2022.2.1,Win32,59.52380952,,,,,space,2.4725,NAN,,NAN,0.31,5.69,,0,15,15,15,1,16,Sam,Rej,Participant_Images/667838be776b27f8705b6c3c/667838be776b27f8705b6c3c_Images/667838be776b27f8705b6c3c_Image_17.jpeg,liked,4.456234322,,,,,,,,,,,,,,,,,,,,,,
,,667838be776b27f8705b6c3c,2024-07-17_16h33.25.976,WTP_SM_Choice,2022.2.1,Win32,59.52380952,,,,,space,0.56,NAN,,NAN,0.31,5.69,,0,16,16,16,1,17,Sam,Rej,Participant_Images/667838be776b27f8705b6c3c/667838be776b27f8705b6c3c_Images/667838be776b27f8705b6c3c_Image_14.jpeg,did not like,4.438512181,,,,,,,,,,,,,,,,,,,,,,
,,667838be776b27f8705b6c3c,2024-07-17_16h33.25.976,WTP_SM_Choice,2022.2.1,Win32,59.52380952,,,,,space,0.8822,NAN,,NAN,0.31,5.69,,0,17,17,17,1,18,Sam,Rej,Participant_Images/667838be776b27f8705b6c3c/667838be776b27f8705b6c3c_Images/667838be776b27f8705b6c3c_Image_2.jpeg,liked,2.682944783,,,,,,,,,,,,,,,,,,,,,,
,,667838be776b27f8705b6c3c,2024-07-17_16h33.25.976,WTP_SM_Choice,2022.2.1,Win32,59.52380952,,,,,space,0.643,NAN,,NAN,0.31,5.69,,0,18,18,18,1,19,Sam,Rej,Participant_Images/667838be776b27f8705b6c3c/667838be776b27f8705b6c3c_Images/667838be776b27f8705b6c3c_Image_22.jpeg,did not like,4.51984296,,,,,,,,,,,,,,,,,,,,,,
,,667838be776b27f8705b6c3c,2024-07-17_16h33.25.976,WTP_SM_Choice,2022.2.1,Win32,59.52380952,,,,,,,,,,,,,,,,,,16,,,,,,space,3.1155,space,1.8143,0.01,1,1.4011,0,0,0,0,1,Do Yoga to relax the body,work out with friends,0.01,0.04,1.1,1,,,,
,,667838be776b27f8705b6c3c,2024-07-17_16h33.25.976,WTP_SM_Choice,2022.2.1,Win32,59.52380952,,,,,,,,,,,,,,,,,,17,,,,,,,,,,0.02,1,1.5615,0,1,1,1,1,Have cookouts with family and friends,Be outdoors ,0.02,0.04,8.8,0,,,,
,,667838be776b27f8705b6c3c,2024-07-17_16h33.25.976,WTP_SM_Choice,2022.2.1,Win32,59.52380952,,,,,,,,,,,,,,,,,,18,,,,,,,,,,0.03,1,1.6079,0,2,2,2,1,Go to dine in somewhere,Clean the house,0.03,0.04,3.3,0,,,,
,,667838be776b27f8705b6c3c,2024-07-17_16h33.25.976,WTP_SM_Choice,2022.2.1,Win32,59.52380952,,,,,,,,,,,,,,,,,,19,,,,,,,,,,0.04,2,2.3609,0,3,3,3,1,Listen to music ,go camping with friends,0.04,0.04,3.3,1,,,,
,,667838be776b27f8705b6c3c,2024-07-17_16h33.25.976,WTP_SM_Choice,2022.2.1,Win32,59.52380952,,,,,,,,,,,,,,,,,,20,,,,,,,,,,0.04,2,1.9026,0,4,4,4,1,Go to movies with friends,Read a book,0.05,0.04,1.1,0,,,,
,,667838be776b27f8705b6c3c,2024-07-17_16h33.25.976,WTP_SM_Choice,2022.2.1,Win32,59.52380952,,,,,,,NAN,,NAN,0.45,5.55,,0,19,19,19,1,20,Sam,Rej,Participant_Images/667838be776b27f8705b6c3c/667838be776b27f8705b6c3c_Images/667838be776b27f8705b6c3c_Image_21.jpeg,did not like,3.195382774,,,,,,,,,,,,,,,,,,,,,,
,,667838be776b27f8705b6c3c,2024-07-17_16h33.25.976,WTP_SM_Choice,2022.2.1,Win32,59.52380952,,,,,space,2.5971,NAN,,NAN,0.45,5.55,,0,20,20,20,1,21,Sam,Rej,Participant_Images/667838be776b27f8705b6c3c/667838be776b27f8705b6c3c_Images/667838be776b27f8705b6c3c_Image_11.jpeg,did not like,1.779333479,,,,,,,,,,,,,,,,,,,,,,
,,667838be776b27f8705b6c3c,2024-07-17_16h33.25.976,WTP_SM_Choice,2022.2.1,Win32,59.52380952,,,,,space,1.3225,NAN,,NAN,0.45,5.55,,0,21,21,21,1,22,Sam,Rej,Participant_Images/667838be776b27f8705b6c3c/667838be776b27f8705b6c3c_Images/667838be776b27f8705b6c3c_Image_25.jpeg,did not like,4.312468682,,,,,,,,,,,,,,,,,,,,,,
,,667838be776b27f8705b6c3c,2024-07-17_16h33.25.976,WTP_SM_Choice,2022.2.1,Win32,59.52380952,,,,,space,0.9532,NAN,,NAN,0.45,5.55,,0,22,22,22,1,23,Sam,Rej,Participant_Images/667838be776b27f8705b6c3c/667838be776b27f8705b6c3c_Images/667838be776b27f8705b6c3c_Image_3.jpeg,did not like,4.940433059,,,,,,,,,,,,,,,,,,,,,,
,,667838be776b27f8705b6c3c,2024-07-17_16h33.25.976,WTP_SM_Choice,2022.2.1,Win32,59.52380952,,,,,space,0.7437,NAN,,NAN,0.45,5.55,,0,23,23,23,1,24,Sam,Rej,Participant_Images/667838be776b27f8705b6c3c/667838be776b27f8705b6c3c_Images/667838be776b27f8705b6c3c_Image_10.jpeg,did not like,2.7105123,,,,,,,,,,,,,,,,,,,,,,
,,667838be776b27f8705b6c3c,2024-07-17_16h33.25.976,WTP_SM_Choice,2022.2.1,Win32,59.52380952,,,,,,,,,,,,,,,,,,21,,,,,,space,1.682,space,0.8346,0.01,1,1.571,0,0,0,0,1,Have cookouts with family and friends,Read a book,0.01,0.05,8.8,0,,,,
,,667838be776b27f8705b6c3c,2024-07-17_16h33.25.976,WTP_SM_Choice,2022.2.1,Win32,59.52380952,,,,,,,,,,,,,,,,,,22,,,,,,,,,,0.02,1,1.8358,0,1,1,1,1,Be outdoors ,go to museums with friends,0.02,0.05,4.4,1,,,,
,,667838be776b27f8705b6c3c,2024-07-17_16h33.25.976,WTP_SM_Choice,2022.2.1,Win32,59.52380952,,,,,,,,,,,,,,,,,,23,,,,,,,,,,0.03,1,1.8943,0,2,2,2,1,Go to dine in somewhere,Sleep to comfort the mind,0.03,0.05,1.1,0,,,,
,,667838be776b27f8705b6c3c,2024-07-17_16h33.25.976,WTP_SM_Choice,2022.2.1,Win32,59.52380952,,,,,,,,,,,,,,,,,,24,,,,,,,,,,0.04,1,2.4276,0,3,3,3,1,go to museums with friends,Sleep to comfort the mind,0.04,0.05,4.4,0,,,,
,,667838be776b27f8705b6c3c,2024-07-17_16h33.25.976,WTP_SM_Choice,2022.2.1,Win32,59.52380952,,,,,,,,,,,,,,,,,,25,,,,,,,,,,0.05,1,1.7436,0,4,4,4,1,Read a book,thrift with friends,0.05,0.05,3.3,1,,,,
,,667838be776b27f8705b6c3c,2024-07-17_16h33.25.976,WTP_SM_Choice,2022.2.1,Win32,59.52380952,,,,,,,1,,6,0.6,5.4,,0,24,24,24,1,25,Sam,Rej,Participant_Images/667838be776b27f8705b6c3c/667838be776b27f8705b6c3c_Images/667838be776b27f8705b6c3c_Image_15.jpeg,did not like,3.602308302,,,,,,,,,,,,,,,,,,,space,1.2906,,
,,667838be776b27f8705b6c3c,2024-07-17_16h33.25.976,WTP_SM_Choice,2022.2.1,Win32,59.52380952,,,space,1.6131,space,1.0472,NAN,,NAN,0.6,5.4,,0,25,25,25,1,26,Riley,Acc,Participant_Images/667838be776b27f8705b6c3c/667838be776b27f8705b6c3c_Images/667838be776b27f8705b6c3c_Image_23.jpeg,liked,4.106391878,,,,,,,,,,,,,,,,,,,,,,
,,667838be776b27f8705b6c3c,2024-07-17_16h33.25.976,WTP_SM_Choice,2022.2.1,Win32,59.52380952,,,,,space,1.7656,NAN,,NAN,0.6,5.4,,0,26,26,26,1,27,Riley,Acc,Participant_Images/667838be776b27f8705b6c3c/667838be776b27f8705b6c3c_Images/667838be776b27f8705b6c3c_Image_19.jpeg,liked,3.799433026,,,,,,,,,,,,,,,,,,,,,,
,,667838be776b27f8705b6c3c,2024-07-17_16h33.25.976,WTP_SM_Choice,2022.2.1,Win32,59.52380952,,,,,space,1.1021,NAN,,NAN,0.6,5.4,,0,27,27,27,1,28,Riley,Acc,Participant_Images/667838be776b27f8705b6c3c/667838be776b27f8705b6c3c_Images/667838be776b27f8705b6c3c_Image_1.jpeg,liked,5.246980764,,,,,,,,,,,,,,,,,,,,,,
,,667838be776b27f8705b6c3c,2024-07-17_16h33.25.976,WTP_SM_Choice,2022.2.1,Win32,59.52380952,,,,,space,0.9865,NAN,,NAN,0.6,5.4,,0,28,28,28,1,29,Riley,Acc,Participant_Images/667838be776b27f8705b6c3c/667838be776b27f8705b6c3c_Images/667838be776b27f8705b6c3c_Image_13.jpeg,did not like,3.30081769,,,,,,,,,,,,,,,,,,,,,,
,,667838be776b27f8705b6c3c,2024-07-17_16h33.25.976,WTP_SM_Choice,2022.2.1,Win32,59.52380952,,,,,,,,,,,,,,,,,,26,,,,,,space,2.114,space,0.6682,0.01,1,1.5449,0,0,0,0,1,Read a book,go to museums with friends,0.01,0.01,4.4,1,,,,
,,667838be776b27f8705b6c3c,2024-07-17_16h33.25.976,WTP_SM_Choice,2022.2.1,Win32,59.52380952,,,,,,,,,,,,,,,,,,27,,,,,,,,,,0.01,2,3.5085,0,1,1,1,1,participate in online studies,Go to the park,0.02,0.01,3.3,1,,,,
,,667838be776b27f8705b6c3c,2024-07-17_16h33.25.976,WTP_SM_Choice,2022.2.1,Win32,59.52380952,,,,,,,,,,,,,,,,,,28,,,,,,,,,,0.01,2,2.3912,0,2,2,2,1,Walk around the park,Vent with friends,0.03,0.01,3.3,1,,,,
,,667838be776b27f8705b6c3c,2024-07-17_16h33.25.976,WTP_SM_Choice,2022.2.1,Win32,59.52380952,,,,,,,,,,,,,,,,,,29,,,,,,,,,,0.01,2,1.6805,0,3,3,3,1,participate in online studies,Vent with friends,0.04,0.01,4.4,1,,,,
,,667838be776b27f8705b6c3c,2024-07-17_16h33.25.976,WTP_SM_Choice,2022.2.1,Win32,59.52380952,,,,,,,,,,,,,,,,,,30,,,,,,,,,,0.01,2,4.909,0,4,4,4,1,go on motorcycle rides with friends,Do Yoga to relax the body,0.05,0.01,8.8,0,,,,
,,667838be776b27f8705b6c3c,2024-07-17_16h33.25.976,WTP_SM_Choice,2022.2.1,Win32,59.52380952,,,,,,,NAN,,NAN,0.65,5.35,,0,29,29,29,1,30,Riley,Acc,Participant_Images/667838be776b27f8705b6c3c/667838be776b27f8705b6c3c_Images/667838be776b27f8705b6c3c_Image_6.jpeg,liked,1.661473164,,,,,,,,,,,,,,,,,,,,,,
,,667838be776b27f8705b6c3c,2024-07-17_16h33.25.976,WTP_SM_Choice,2022.2.1,Win32,59.52380952,,,,,space,2.3237,NAN,,NAN,0.65,5.35,,0,30,30,30,1,31,Riley,Acc,Participant_Images/667838be776b27f8705b6c3c/667838be776b27f8705b6c3c_Images/667838be776b27f8705b6c3c_Image_12.jpeg,liked,3.613205605,,,,,,,,,,,,,,,,,,,,,,
,,667838be776b27f8705b6c3c,2024-07-17_16h33.25.976,WTP_SM_Choice,2022.2.1,Win32,59.52380952,,,,,space,4.3544,NAN,,NAN,0.65,5.35,,0,31,31,31,1,32,Riley,Acc,Participant_Images/667838be776b27f8705b6c3c/667838be776b27f8705b6c3c_Images/667838be776b27f8705b6c3c_Image_11.jpeg,liked,4.988446431,,,,,,,,,,,,,,,,,,,,,,
,,667838be776b27f8705b6c3c,2024-07-17_16h33.25.976,WTP_SM_Choice,2022.2.1,Win32,59.52380952,,,,,space,3.5482,NAN,,NAN,0.65,5.35,,0,32,32,32,1,33,Riley,Acc,Participant_Images/667838be776b27f8705b6c3c/667838be776b27f8705b6c3c_Images/667838be776b27f8705b6c3c_Image_15.jpeg,did not like,3.470791822,,,,,,,,,,,,,,,,,,,,,,
,,667838be776b27f8705b6c3c,2024-07-17_16h33.25.976,WTP_SM_Choice,2022.2.1,Win32,59.52380952,,,,,space,1.0365,NAN,,NAN,0.65,5.35,,0,33,33,33,1,34,Riley,Acc,Participant_Images/667838be776b27f8705b6c3c/667838be776b27f8705b6c3c_Images/667838be776b27f8705b6c3c_Image_22.jpeg,liked,3.820572462,,,,,,,,,,,,,,,,,,,,,,
,,667838be776b27f8705b6c3c,2024-07-17_16h33.25.976,WTP_SM_Choice,2022.2.1,Win32,59.52380952,,,,,,,,,,,,,,,,,,31,,,,,,space,1.3046,space,0.5231,0.01,1,1.2136,0,0,0,0,1,Go to the gym to workout,work out with friends,0.01,0.02,8.8,1,,,,
,,667838be776b27f8705b6c3c,2024-07-17_16h33.25.976,WTP_SM_Choice,2022.2.1,Win32,59.52380952,,,,,,,,,,,,,,,,,,32,,,,,,,,,,0.02,2,1.9052,0,1,1,1,1,go camping with friends,Clean the house,0.02,0.02,1.1,0,,,,
,,667838be776b27f8705b6c3c,2024-07-17_16h33.25.976,WTP_SM_Choice,2022.2.1,Win32,59.52380952,,,,,,,,,,,,,,,,,,33,,,,,,,,,,0.02,2,1.637,0,2,2,2,1,Go to movies with friends,Do Yoga to relax the body,0.03,0.02,4.4,0,,,,
,,667838be776b27f8705b6c3c,2024-07-17_16h33.25.976,WTP_SM_Choice,2022.2.1,Win32,59.52380952,,,,,,,,,,,,,,,,,,34,,,,,,,,,,0.02,2,1.7304,0,3,3,3,1,Go to the park,Go to the gym to workout,0.04,0.02,3.3,0,,,,
,,667838be776b27f8705b6c3c,2024-07-17_16h33.25.976,WTP_SM_Choice,2022.2.1,Win32,59.52380952,,,,,,,,,,,,,,,,,,35,,,,,,,,,,0.02,2,1.4899,0,4,4,4,1,Go to the park,Clean the house,0.05,0.02,1.1,0,,,,
,,667838be776b27f8705b6c3c,2024-07-17_16h33.25.976,WTP_SM_Choice,2022.2.1,Win32,59.52380952,,,,,,,NAN,,NAN,0.74,5.26,,0,34,34,34,1,35,Riley,Acc,Participant_Images/667838be776b27f8705b6c3c/667838be776b27f8705b6c3c_Images/667838be776b27f8705b6c3c_Image_14.jpeg,liked,2.455989137,,,,,,,,,,,,,,,,,,,,,,
,,667838be776b27f8705b6c3c,2024-07-17_16h33.25.976,WTP_SM_Choice,2022.2.1,Win32,59.52380952,,,,,space,0.7583,NAN,,NAN,0.74,5.26,,0,35,35,35,1,36,Riley,Acc,Participant_Images/667838be776b27f8705b6c3c/667838be776b27f8705b6c3c_Images/667838be776b27f8705b6c3c_Image_4.jpeg,liked,3.79605092,,,,,,,,,,,,,,,,,,,,,,
,,667838be776b27f8705b6c3c,2024-07-17_16h33.25.976,WTP_SM_Choice,2022.2.1,Win32,59.52380952,,,,,space,0.9091,NAN,,NAN,0.74,5.26,,0,36,36,36,1,37,Riley,Acc,Participant_Images/667838be776b27f8705b6c3c/667838be776b27f8705b6c3c_Images/667838be776b27f8705b6c3c_Image_17.jpeg,did not like,3.562416326,,,,,,,,,,,,,,,,,,,,,,
,,667838be776b27f8705b6c3c,2024-07-17_16h33.25.976,WTP_SM_Choice,2022.2.1,Win32,59.52380952,,,,,space,1.635,NAN,,NAN,0.74,5.26,,0,37,37,37,1,38,Riley,Acc,Participant_Images/667838be776b27f8705b6c3c/667838be776b27f8705b6c3c_Images/667838be776b27f8705b6c3c_Image_7.jpeg,liked,2.843822497,,,,,,,,,,,,,,,,,,,,,,
,,667838be776b27f8705b6c3c,2024-07-17_16h33.25.976,WTP_SM_Choice,2022.2.1,Win32,59.52380952,,,,,space,2.2499,NAN,,NAN,0.74,5.26,,0,38,38,38,1,39,Riley,Acc,Participant_Images/667838be776b27f8705b6c3c/667838be776b27f8705b6c3c_Images/667838be776b27f8705b6c3c_Image_20.jpeg,did not like,3.546495948,,,,,,,,,,,,,,,,,,,,,,
,,667838be776b27f8705b6c3c,2024-07-17_16h33.25.976,WTP_SM_Choice,2022.2.1,Win32,59.52380952,,,,,,,,,,,,,,,,,,36,,,,,,space,1.1548,space,0.8037,0.01,1,1.1351,0,0,0,0,1,go camping with friends,Sleep to comfort the mind,0.01,0.03,3.3,0,,,,
,,667838be776b27f8705b6c3c,2024-07-17_16h33.25.976,WTP_SM_Choice,2022.2.1,Win32,59.52380952,,,,,,,,,,,,,,,,,,37,,,,,,,,,,0.02,1,1.6623,0,1,1,1,1,Be outdoors ,go on motorcycle rides with friends,0.02,0.03,1.1,1,,,,
,,667838be776b27f8705b6c3c,2024-07-17_16h33.25.976,WTP_SM_Choice,2022.2.1,Win32,59.52380952,,,,,,,,,,,,,,,,,,38,,,,,,,,,,0.03,1,2.0824,0,2,2,2,1,Go to dine in somewhere,Walk around the park,0.03,0.03,1.1,0,,,,
,,667838be776b27f8705b6c3c,2024-07-17_16h33.25.976,WTP_SM_Choice,2022.2.1,Win32,59.52380952,,,,,,,,,,,,,,,,,,39,,,,,,,,,,0.03,2,2.1665,0,3,3,3,1,Go to dine in somewhere,Read a book,0.04,0.03,3.3,0,,,,
,,667838be776b27f8705b6c3c,2024-07-17_16h33.25.976,WTP_SM_Choice,2022.2.1,Win32,59.52380952,,,,,,,,,,,,,,,,,,40,,,,,,,,,,0.03,2,1.3401,0,4,4,4,1,go to museums with friends,Walk around the park,0.05,0.03,4.4,0,,,,
,,667838be776b27f8705b6c3c,2024-07-17_16h33.25.976,WTP_SM_Choice,2022.2.1,Win32,59.52380952,,,,,,,NAN,,NAN,0.86,5.14,,0,39,39,39,1,40,Riley,Acc,Participant_Images/667838be776b27f8705b6c3c/667838be776b27f8705b6c3c_Images/667838be776b27f8705b6c3c_Image_18.jpeg,liked,1.672012706,,,,,,,,,,,,,,,,,,,,,,
,,667838be776b27f8705b6c3c,2024-07-17_16h33.25.976,WTP_SM_Choice,2022.2.1,Win32,59.52380952,,,,,space,2.0517,NAN,,NAN,0.86,5.14,,0,40,40,40,1,41,Riley,Acc,Participant_Images/667838be776b27f8705b6c3c/667838be776b27f8705b6c3c_Images/667838be776b27f8705b6c3c_Image_21.jpeg,liked,4.942172136,,,,,,,,,,,,,,,,,,,,,,
,,667838be776b27f8705b6c3c,2024-07-17_16h33.25.976,WTP_SM_Choice,2022.2.1,Win32,59.52380952,,,,,space,1.7988,NAN,,NAN,0.86,5.14,,0,41,41,41,1,42,Riley,Acc,Participant_Images/667838be776b27f8705b6c3c/667838be776b27f8705b6c3c_Images/667838be776b27f8705b6c3c_Image_10.jpeg,liked,2.50187214,,,,,,,,,,,,,,,,,,,,,,
,,667838be776b27f8705b6c3c,2024-07-17_16h33.25.976,WTP_SM_Choice,2022.2.1,Win32,59.52380952,,,,,space,0.8917,NAN,,NAN,0.86,5.14,,0,42,42,42,1,43,Riley,Acc,Participant_Images/667838be776b27f8705b6c3c/667838be776b27f8705b6c3c_Images/667838be776b27f8705b6c3c_Image_9.jpeg,liked,2.071164779,,,,,,,,,,,,,,,,,,,,,,
,,667838be776b27f8705b6c3c,2024-07-17_16h33.25.976,WTP_SM_Choice,2022.2.1,Win32,59.52380952,,,,,space,2.2163,NAN,,NAN,0.86,5.14,,0,43,43,43,1,44,Riley,Acc,Participant_Images/667838be776b27f8705b6c3c/667838be776b27f8705b6c3c_Images/667838be776b27f8705b6c3c_Image_16.jpeg,liked,5.336503566,,,,,,,,,,,,,,,,,,,,,,
,,667838be776b27f8705b6c3c,2024-07-17_16h33.25.976,WTP_SM_Choice,2022.2.1,Win32,59.52380952,,,,,,,,,,,,,,,,,,41,,,,,,space,1.131,space,0.6131,0.01,1,1.1245,0,0,0,0,1,go camping with friends,Read a book,0.01,0.04,1.1,0,,,,
,,667838be776b27f8705b6c3c,2024-07-17_16h33.25.976,WTP_SM_Choice,2022.2.1,Win32,59.52380952,,,,,,,,,,,,,,,,,,42,,,,,,,,,,0.02,1,1.4513,0,1,1,1,1,Go to the park,Walk around the park,0.02,0.04,3.3,0,,,,
,,667838be776b27f8705b6c3c,2024-07-17_16h33.25.976,WTP_SM_Choice,2022.2.1,Win32,59.52380952,,,,,,,,,,,,,,,,,,43,,,,,,,,,,0.03,1,1.1302,0,2,2,2,1,Clean the house,work out with friends,0.03,0.04,1.1,1,,,,
,,667838be776b27f8705b6c3c,2024-07-17_16h33.25.976,WTP_SM_Choice,2022.2.1,Win32,59.52380952,,,,,,,,,,,,,,,,,,44,,,,,,,,,,0.04,1,1.866,0,3,3,3,1,Read a book,Go to the park,0.04,0.04,1.1,1,,,,
,,667838be776b27f8705b6c3c,2024-07-17_16h33.25.976,WTP_SM_Choice,2022.2.1,Win32,59.52380952,,,,,,,,,,,,,,,,,,45,,,,,,,,,,0.04,2,1.6393,0,4,4,4,1,Go to movies with friends,Walk around the park,0.05,0.04,4.4,0,,,,
,,667838be776b27f8705b6c3c,2024-07-17_16h33.25.976,WTP_SM_Choice,2022.2.1,Win32,59.52380952,,,,,,,NAN,,NAN,1,5,,0,44,44,44,1,45,Riley,Acc,Participant_Images/667838be776b27f8705b6c3c/667838be776b27f8705b6c3c_Images/667838be776b27f8705b6c3c_Image_5.jpeg,did not like,2.642157193,,,,,,,,,,,,,,,,,,,,,,
,,667838be776b27f8705b6c3c,2024-07-17_16h33.25.976,WTP_SM_Choice,2022.2.1,Win32,59.52380952,,,,,space,4.2383,NAN,,NAN,1,5,,0,45,45,45,1,46,Riley,Acc,Participant_Images/667838be776b27f8705b6c3c/667838be776b27f8705b6c3c_Images/667838be776b27f8705b6c3c_Image_3.jpeg,liked,4.456234322,,,,,,,,,,,,,,,,,,,,,,
,,667838be776b27f8705b6c3c,2024-07-17_16h33.25.976,WTP_SM_Choice,2022.2.1,Win32,59.52380952,,,,,space,4.2378,NAN,,NAN,1,5,,0,46,46,46,1,47,Riley,Acc,Participant_Images/667838be776b27f8705b6c3c/667838be776b27f8705b6c3c_Images/667838be776b27f8705b6c3c_Image_2.jpeg,liked,4.438512181,,,,,,,,,,,,,,,,,,,,,,
,,667838be776b27f8705b6c3c,2024-07-17_16h33.25.976,WTP_SM_Choice,2022.2.1,Win32,59.52380952,,,,,space,3.0049,NAN,,NAN,1,5,,0,47,47,47,1,48,Riley,Acc,Participant_Images/667838be776b27f8705b6c3c/667838be776b27f8705b6c3c_Images/667838be776b27f8705b6c3c_Image_25.jpeg,did not like,2.682944783,,,,,,,,,,,,,,,,,,,,,,
,,667838be776b27f8705b6c3c,2024-07-17_16h33.25.976,WTP_SM_Choice,2022.2.1,Win32,59.52380952,,,,,space,3.5445,NAN,,NAN,1,5,,0,48,48,48,1,49,Riley,Acc,Participant_Images/667838be776b27f8705b6c3c/667838be776b27f8705b6c3c_Images/667838be776b27f8705b6c3c_Image_8.jpeg,liked,4.51984296,,,,,,,,,,,,,,,,,,,,,,
,,667838be776b27f8705b6c3c,2024-07-17_16h33.25.976,WTP_SM_Choice,2022.2.1,Win32,59.52380952,,,,,,,,,,,,,,,,,,46,,,,,,space,1.4764,space,0.8021,0.01,1,0.9678,0,0,0,0,1,Read a book,Vent with friends,0.01,0.05,8.8,1,,,,
,,667838be776b27f8705b6c3c,2024-07-17_16h33.25.976,WTP_SM_Choice,2022.2.1,Win32,59.52380952,,,,,,,,,,,,,,,,,,47,,,,,,,,,,0.02,1,1.9244,0,1,1,1,1,participate in online studies,Go to dine in somewhere,0.02,0.05,1.1,1,,,,
,,667838be776b27f8705b6c3c,2024-07-17_16h33.25.976,WTP_SM_Choice,2022.2.1,Win32,59.52380952,,,,,,,,,,,,,,,,,,48,,,,,,,,,,0.03,1,1.559,0,2,2,2,1,Go to movies with friends,Clean the house,0.03,0.05,4.4,0,,,,
,,667838be776b27f8705b6c3c,2024-07-17_16h33.25.976,WTP_SM_Choice,2022.2.1,Win32,59.52380952,,,,,,,,,,,,,,,,,,49,,,,,,,,,,0.04,1,2.3362,0,3,3,3,1,Do Yoga to relax the body,Go to dine in somewhere,0.04,0.05,3.3,1,,,,
,,667838be776b27f8705b6c3c,2024-07-17_16h33.25.976,WTP_SM_Choice,2022.2.1,Win32,59.52380952,,,,,,,,,,,,,,,,,,50,,,,,,,,,,0.05,1,3.6216,0,4,4,4,1,Sleep to comfort the mind,Go to the park,0.05,0.05,1.1,1,,,,
,,667838be776b27f8705b6c3c,2024-07-17_16h33.25.976,WTP_SM_Choice,2022.2.1,Win32,59.52380952,,,,,,,4,,8,1.15,4.85,,0,49,49,49,1,50,Riley,Acc,Participant_Images/667838be776b27f8705b6c3c/667838be776b27f8705b6c3c_Images/667838be776b27f8705b6c3c_Image_24.jpeg,did not like,3.195382774,,,,,,,,,,,,,,,,,,,space,1.0737,,
,,667838be776b27f8705b6c3c,2024-07-17_16h33.25.976,WTP_SM_Choice,2022.2.1,Win32,59.52380952,,,space,1.6905,space,1.4324,NAN,,NAN,1.15,4.85,,0,50,50,50,1,51,Charlie,Acc,Participant_Images/667838be776b27f8705b6c3c/667838be776b27f8705b6c3c_Images/667838be776b27f8705b6c3c_Image_7.jpeg,liked,1.779333479,,,,,,,,,,,,,,,,,,,,,,
,,667838be776b27f8705b6c3c,2024-07-17_16h33.25.976,WTP_SM_Choice,2022.2.1,Win32,59.52380952,,,,,space,0.9403,NAN,,NAN,1.15,4.85,,0,51,51,51,1,52,Charlie,Acc,Participant_Images/667838be776b27f8705b6c3c/667838be776b27f8705b6c3c_Images/667838be776b27f8705b6c3c_Image_4.jpeg,did not like,4.312468682,,,,,,,,,,,,,,,,,,,,,,
,,667838be776b27f8705b6c3c,2024-07-17_16h33.25.976,WTP_SM_Choice,2022.2.1,Win32,59.52380952,,,,,space,1.0536,NAN,,NAN,1.15,4.85,,0,52,52,52,1,53,Charlie,Acc,Participant_Images/667838be776b27f8705b6c3c/667838be776b27f8705b6c3c_Images/667838be776b27f8705b6c3c_Image_20.jpeg,did not like,4.940433059,,,,,,,,,,,,,,,,,,,,,,
,,667838be776b27f8705b6c3c,2024-07-17_16h33.25.976,WTP_SM_Choice,2022.2.1,Win32,59.52380952,,,,,space,0.9834,NAN,,NAN,1.15,4.85,,0,53,53,53,1,54,Charlie,Acc,Participant_Images/667838be776b27f8705b6c3c/667838be776b27f8705b6c3c_Images/667838be776b27f8705b6c3c_Image_6.jpeg,liked,2.7105123,,,,,,,,,,,,,,,,,,,,,,
,,667838be776b27f8705b6c3c,2024-07-17_16h33.25.976,WTP_SM_Choice,2022.2.1,Win32,59.52380952,,,,,,,,,,,,,,,,,,51,,,,,,space,1.2335,space,0.9169,0.01,1,2.4513,0,0,0,0,1,participate in online studies,Have cookouts with family and friends,0.01,0.01,1.1,1,,,,
,,667838be776b27f8705b6c3c,2024-07-17_16h33.25.976,WTP_SM_Choice,2022.2.1,Win32,59.52380952,,,,,,,,,,,,,,,,,,52,,,,,,,,,,0.01,2,2.1301,0,1,1,1,1,Go to movies with friends,Go to the gym to workout,0.02,0.01,3.3,0,,,,
,,667838be776b27f8705b6c3c,2024-07-17_16h33.25.976,WTP_SM_Choice,2022.2.1,Win32,59.52380952,,,,,,,,,,,,,,,,,,53,,,,,,,,,,,,,0,2,2,2,1,work out with friends,Read a book,0.03,0.01,1.1,0,,,,
,,667838be776b27f8705b6c3c,2024-07-17_16h33.25.976,WTP_SM_Choice,2022.2.1,Win32,59.52380952,,,,,,,,,,,,,,,,,,54,,,,,,,,,,0.01,2,1.3236,0,3,3,3,1,Go to the park,Listen to music ,0.04,0.01,4.4,0,,,,
,,667838be776b27f8705b6c3c,2024-07-17_16h33.25.976,WTP_SM_Choice,2022.2.1,Win32,59.52380952,,,,,,,,,,,,,,,,,,55,,,,,,,,,,0.01,2,1.5198,0,4,4,4,1,Go to the gym to workout,Go to dine in somewhere,0.05,0.01,1.1,1,,,,
,,667838be776b27f8705b6c3c,2024-07-17_16h33.25.976,WTP_SM_Choice,2022.2.1,Win32,59.52380952,,,,,,,NAN,,NAN,1.19,4.81,,0,54,54,54,1,55,Charlie,Acc,Participant_Images/667838be776b27f8705b6c3c/667838be776b27f8705b6c3c_Images/667838be776b27f8705b6c3c_Image_3.jpeg,did not like,3.602308302,,,,,,,,,,,,,,,,,,,,,,
,,667838be776b27f8705b6c3c,2024-07-17_16h33.25.976,WTP_SM_Choice,2022.2.1,Win32,59.52380952,,,,,space,0.8257,NAN,,NAN,1.19,4.81,,0,55,55,55,1,56,Charlie,Acc,Participant_Images/667838be776b27f8705b6c3c/667838be776b27f8705b6c3c_Images/667838be776b27f8705b6c3c_Image_19.jpeg,liked,4.106391878,,,,,,,,,,,,,,,,,,,,,,
,,667838be776b27f8705b6c3c,2024-07-17_16h33.25.976,WTP_SM_Choice,2022.2.1,Win32,59.52380952,,,,,space,0.5598,NAN,,NAN,1.19,4.81,,0,56,56,56,1,57,Charlie,Acc,Participant_Images/667838be776b27f8705b6c3c/667838be776b27f8705b6c3c_Images/667838be776b27f8705b6c3c_Image_9.jpeg,liked,3.799433026,,,,,,,,,,,,,,,,,,,,,,
,,667838be776b27f8705b6c3c,2024-07-17_16h33.25.976,WTP_SM_Choice,2022.2.1,Win32,59.52380952,,,,,space,0.3838,NAN,,NAN,1.19,4.81,,0,57,57,57,1,58,Charlie,Acc,Participant_Images/667838be776b27f8705b6c3c/667838be776b27f8705b6c3c_Images/667838be776b27f8705b6c3c_Image_24.jpeg,liked,5.246980764,,,,,,,,,,,,,,,,,,,,,,
,,667838be776b27f8705b6c3c,2024-07-17_16h33.25.976,WTP_SM_Choice,2022.2.1,Win32,59.52380952,,,,,space,0.4116,NAN,,NAN,1.19,4.81,,0,58,58,58,1,59,Charlie,Acc,Participant_Images/667838be776b27f8705b6c3c/667838be776b27f8705b6c3c_Images/667838be776b27f8705b6c3c_Image_13.jpeg,liked,3.30081769,,,,,,,,,,,,,,,,,,,,,,
,,667838be776b27f8705b6c3c,2024-07-17_16h33.25.976,WTP_SM_Choice,2022.2.1,Win32,59.52380952,,,,,,,,,,,,,,,,,,56,,,,,,space,5.5817,space,0.9605,0.01,1,1.1806,0,0,0,0,1,Go to movies with friends,participate in online studies,0.01,0.02,8.8,0,,,,
,,667838be776b27f8705b6c3c,2024-07-17_16h33.25.976,WTP_SM_Choice,2022.2.1,Win32,59.52380952,,,,,,,,,,,,,,,,,,57,,,,,,,,,,0.02,2,2.153,0,1,1,1,1,Be with my pets,go to museums with friends,0.02,0.02,4.4,1,,,,
,,667838be776b27f8705b6c3c,2024-07-17_16h33.25.976,WTP_SM_Choice,2022.2.1,Win32,59.52380952,,,,,,,,,,,,,,,,,,58,,,,,,,,,,0.02,2,1.6841,0,2,2,2,1,Be with my pets,Go to the park,0.03,0.02,4.4,1,,,,
,,667838be776b27f8705b6c3c,2024-07-17_16h33.25.976,WTP_SM_Choice,2022.2.1,Win32,59.52380952,,,,,,,,,,,,,,,,,,59,,,,,,,,,,0.02,2,1.6942,0,3,3,3,1,go camping with friends,Be outdoors ,0.04,0.02,4.4,0,,,,
,,667838be776b27f8705b6c3c,2024-07-17_16h33.25.976,WTP_SM_Choice,2022.2.1,Win32,59.52380952,,,,,,,,,,,,,,,,,,60,,,,,,,,,,,,,0,4,4,4,1,Vent with friends,Go to the gym to workout,0.05,0.02,1.1,0,,,,
,,667838be776b27f8705b6c3c,2024-07-17_16h33.25.976,WTP_SM_Choice,2022.2.1,Win32,59.52380952,,,,,,,NAN,,NAN,1.26,4.74,,0,59,59,59,1,60,Charlie,Acc,Participant_Images/667838be776b27f8705b6c3c/667838be776b27f8705b6c3c_Images/667838be776b27f8705b6c3c_Image_15.jpeg,liked,1.661473164,,,,,,,,,,,,,,,,,,,,,,
,,667838be776b27f8705b6c3c,2024-07-17_16h33.25.976,WTP_SM_Choice,2022.2.1,Win32,59.52380952,,,,,space,0.7846,NAN,,NAN,1.26,4.74,,0,60,60,60,1,61,Charlie,Acc,Participant_Images/667838be776b27f8705b6c3c/667838be776b27f8705b6c3c_Images/667838be776b27f8705b6c3c_Image_11.jpeg,liked,3.613205605,,,,,,,,,,,,,,,,,,,,,,
,,667838be776b27f8705b6c3c,2024-07-17_16h33.25.976,WTP_SM_Choice,2022.2.1,Win32,59.52380952,,,,,space,0.4945,NAN,,NAN,1.26,4.74,,0,61,61,61,1,62,Charlie,Acc,Participant_Images/667838be776b27f8705b6c3c/667838be776b27f8705b6c3c_Images/667838be776b27f8705b6c3c_Image_16.jpeg,liked,4.988446431,,,,,,,,,,,,,,,,,,,,,,
,,667838be776b27f8705b6c3c,2024-07-17_16h33.25.976,WTP_SM_Choice,2022.2.1,Win32,59.52380952,,,,,space,1.1841,NAN,,NAN,1.26,4.74,,0,62,62,62,1,63,Charlie,Acc,Participant_Images/667838be776b27f8705b6c3c/667838be776b27f8705b6c3c_Images/667838be776b27f8705b6c3c_Image_2.jpeg,did not like,3.470791822,,,,,,,,,,,,,,,,,,,,,,
,,667838be776b27f8705b6c3c,2024-07-17_16h33.25.976,WTP_SM_Choice,2022.2.1,Win32,59.52380952,,,,,space,0.465,NAN,,NAN,1.26,4.74,,0,63,63,63,1,64,Charlie,Acc,Participant_Images/667838be776b27f8705b6c3c/667838be776b27f8705b6c3c_Images/667838be776b27f8705b6c3c_Image_10.jpeg,liked,3.820572462,,,,,,,,,,,,,,,,,,,,,,
,,667838be776b27f8705b6c3c,2024-07-17_16h33.25.976,WTP_SM_Choice,2022.2.1,Win32,59.52380952,,,,,,,,,,,,,,,,,,61,,,,,,space,3.113,space,0.8504,0.01,1,1.2185,0,0,0,0,1,Be outdoors ,thrift with friends,0.01,0.03,3.3,1,,,,
,,667838be776b27f8705b6c3c,2024-07-17_16h33.25.976,WTP_SM_Choice,2022.2.1,Win32,59.52380952,,,,,,,,,,,,,,,,,,62,,,,,,,,,,0.02,1,1.2051,0,1,1,1,1,Be with my pets,Vent with friends,0.02,0.03,3.3,1,,,,
,,667838be776b27f8705b6c3c,2024-07-17_16h33.25.976,WTP_SM_Choice,2022.2.1,Win32,59.52380952,,,,,,,,,,,,,,,,,,63,,,,,,,,,,0.03,1,7.0707,0,2,2,2,1,thrift with friends,Go to the gym to workout,0.03,0.03,3.3,0,,,,
,,667838be776b27f8705b6c3c,2024-07-17_16h33.25.976,WTP_SM_Choice,2022.2.1,Win32,59.52380952,,,,,,,,,,,,,,,,,,64,,,,,,,,,,0.03,2,1.5891,0,3,3,3,1,Be outdoors ,work out with friends,0.04,0.03,1.1,1,,,,
,,667838be776b27f8705b6c3c,2024-07-17_16h33.25.976,WTP_SM_Choice,2022.2.1,Win32,59.52380952,,,,,,,,,,,,,,,,,,65,,,,,,,,,,0.03,2,1.8502,0,4,4,4,1,Be with my pets,go camping with friends,0.05,0.03,1.1,1,,,,
,,667838be776b27f8705b6c3c,2024-07-17_16h33.25.976,WTP_SM_Choice,2022.2.1,Win32,59.52380952,,,,,,,NAN,,NAN,1.38,4.62,,0,64,64,64,1,65,Charlie,Acc,Participant_Images/667838be776b27f8705b6c3c/667838be776b27f8705b6c3c_Images/667838be776b27f8705b6c3c_Image_1.jpeg,liked,2.455989137,,,,,,,,,,,,,,,,,,,,,,
,,667838be776b27f8705b6c3c,2024-07-17_16h33.25.976,WTP_SM_Choice,2022.2.1,Win32,59.52380952,,,,,space,0.4126,NAN,,NAN,1.38,4.62,,0,65,65,65,1,66,Charlie,Acc,Participant_Images/667838be776b27f8705b6c3c/667838be776b27f8705b6c3c_Images/667838be776b27f8705b6c3c_Image_5.jpeg,liked,3.79605092,,,,,,,,,,,,,,,,,,,,,,
,,667838be776b27f8705b6c3c,2024-07-17_16h33.25.976,WTP_SM_Choice,2022.2.1,Win32,59.52380952,,,,,space,0.5946,NAN,,NAN,1.38,4.62,,0,66,66,66,1,67,Charlie,Acc,Participant_Images/667838be776b27f8705b6c3c/667838be776b27f8705b6c3c_Images/667838be776b27f8705b6c3c_Image_23.jpeg,liked,3.562416326,,,,,,,,,,,,,,,,,,,,,,
,,667838be776b27f8705b6c3c,2024-07-17_16h33.25.976,WTP_SM_Choice,2022.2.1,Win32,59.52380952,,,,,space,0.6003,NAN,,NAN,1.38,4.62,,0,67,67,67,1,68,Charlie,Acc,Participant_Images/667838be776b27f8705b6c3c/667838be776b27f8705b6c3c_Images/667838be776b27f8705b6c3c_Image_17.jpeg,liked,2.843822497,,,,,,,,,,,,,,,,,,,,,,
,,667838be776b27f8705b6c3c,2024-07-17_16h33.25.976,WTP_SM_Choice,2022.2.1,Win32,59.52380952,,,,,space,2.3056,NAN,,NAN,1.38,4.62,,0,68,68,68,1,69,Charlie,Acc,Participant_Images/667838be776b27f8705b6c3c/667838be776b27f8705b6c3c_Images/667838be776b27f8705b6c3c_Image_18.jpeg,liked,3.546495948,,,,,,,,,,,,,,,,,,,,,,
,,667838be776b27f8705b6c3c,2024-07-17_16h33.25.976,WTP_SM_Choice,2022.2.1,Win32,59.52380952,,,,,,,,,,,,,,,,,,66,,,,,,space,19.1522,space,1.2582,0.01,1,0.9283,0,0,0,0,1,thrift with friends,Clean the house,0.01,0.04,1.1,0,,,,
,,667838be776b27f8705b6c3c,2024-07-17_16h33.25.976,WTP_SM_Choice,2022.2.1,Win32,59.52380952,,,,,,,,,,,,,,,,,,67,,,,,,,,,,0.02,1,1.4,0,1,1,1,1,Walk around the park,go camping with friends,0.02,0.04,8.8,1,,,,
,,667838be776b27f8705b6c3c,2024-07-17_16h33.25.976,WTP_SM_Choice,2022.2.1,Win32,59.52380952,,,,,,,,,,,,,,,,,,68,,,,,,,,,,0.03,1,1.2216,0,2,2,2,1,Listen to music ,Go to movies with friends,0.03,0.04,4.4,1,,,,
,,667838be776b27f8705b6c3c,2024-07-17_16h33.25.976,WTP_SM_Choice,2022.2.1,Win32,59.52380952,,,,,,,,,,,,,,,,,,69,,,,,,,,,,0.04,2,2.1056,0,3,3,3,1,Do Yoga to relax the body,Vent with friends,0.04,0.04,1.1,1,,,,
,,667838be776b27f8705b6c3c,2024-07-17_16h33.25.976,WTP_SM_Choice,2022.2.1,Win32,59.52380952,,,,,,,,,,,,,,,,,,70,,,,,,,,,,0.04,2,2.2194,0,4,4,4,1,Sleep to comfort the mind,Go to movies with friends,0.05,0.04,1.1,1,,,,
,,667838be776b27f8705b6c3c,2024-07-17_16h33.25.976,WTP_SM_Choice,2022.2.1,Win32,59.52380952,,,,,,,NAN,,NAN,1.52,4.48,,0,69,69,69,1,70,Charlie,Acc,Participant_Images/667838be776b27f8705b6c3c/667838be776b27f8705b6c3c_Images/667838be776b27f8705b6c3c_Image_21.jpeg,liked,1.672012706,,,,,,,,,,,,,,,,,,,,,,
,,667838be776b27f8705b6c3c,2024-07-17_16h33.25.976,WTP_SM_Choice,2022.2.1,Win32,59.52380952,,,,,space,0.4287,NAN,,NAN,1.52,4.48,,0,70,70,70,1,71,Charlie,Acc,Participant_Images/667838be776b27f8705b6c3c/667838be776b27f8705b6c3c_Images/667838be776b27f8705b6c3c_Image_14.jpeg,did not like,4.942172136,,,,,,,,,,,,,,,,,,,,,,
,,667838be776b27f8705b6c3c,2024-07-17_16h33.25.976,WTP_SM_Choice,2022.2.1,Win32,59.52380952,,,,,space,0.4181,NAN,,NAN,1.52,4.48,,0,71,71,71,1,72,Charlie,Acc,Participant_Images/667838be776b27f8705b6c3c/667838be776b27f8705b6c3c_Images/667838be776b27f8705b6c3c_Image_25.jpeg,liked,2.50187214,,,,,,,,,,,,,,,,,,,,,,
,,667838be776b27f8705b6c3c,2024-07-17_16h33.25.976,WTP_SM_Choice,2022.2.1,Win32,59.52380952,,,,,space,0.4299,NAN,,NAN,1.52,4.48,,0,72,72,72,1,73,Charlie,Acc,Participant_Images/667838be776b27f8705b6c3c/667838be776b27f8705b6c3c_Images/667838be776b27f8705b6c3c_Image_8.jpeg,did not like,2.071164779,,,,,,,,,,,,,,,,,,,,,,
,,667838be776b27f8705b6c3c,2024-07-17_16h33.25.976,WTP_SM_Choice,2022.2.1,Win32,59.52380952,,,,,space,0.6004,NAN,,NAN,1.52,4.48,,0,73,73,73,1,74,Charlie,Acc,Participant_Images/667838be776b27f8705b6c3c/667838be776b27f8705b6c3c_Images/667838be776b27f8705b6c3c_Image_22.jpeg,did not like,5.336503566,,,,,,,,,,,,,,,,,,,,,,
,,667838be776b27f8705b6c3c,2024-07-17_16h33.25.976,WTP_SM_Choice,2022.2.1,Win32,59.52380952,,,,,,,,,,,,,,,,,,71,,,,,,space,19.6636,space,0.4011,0.01,1,0.9282,0,0,0,0,1,Go to the gym to workout,go camping with friends,0.01,0.05,3.3,1,,,,
,,667838be776b27f8705b6c3c,2024-07-17_16h33.25.976,WTP_SM_Choice,2022.2.1,Win32,59.52380952,,,,,,,,,,,,,,,,,,72,,,,,,,,,,0.02,1,1.6426,0,1,1,1,1,Listen to music ,Have cookouts with family and friends,0.02,0.05,8.8,1,,,,
,,667838be776b27f8705b6c3c,2024-07-17_16h33.25.976,WTP_SM_Choice,2022.2.1,Win32,59.52380952,,,,,,,,,,,,,,,,,,73,,,,,,,,,,0.03,1,1.2519,0,2,2,2,1,Walk around the park,go on motorcycle rides with friends,0.03,0.05,3.3,1,,,,
,,667838be776b27f8705b6c3c,2024-07-17_16h33.25.976,WTP_SM_Choice,2022.2.1,Win32,59.52380952,,,,,,,,,,,,,,,,,,74,,,,,,,,,,0.04,1,1.6886,0,3,3,3,1,Listen to music ,thrift with friends,0.04,0.05,4.4,1,,,,
,,667838be776b27f8705b6c3c,2024-07-17_16h33.25.976,WTP_SM_Choice,2022.2.1,Win32,59.52380952,,,,,,,,,,,,,,,,,,75,,,,,,,,,,0.05,2,2.0244,0,4,4,4,1,Have cookouts with family and friends,Walk around the park,0.05,0.05,3.3,0,,,,
,,667838be776b27f8705b6c3c,2024-07-17_16h33.25.976,WTP_SM_Choice,2022.2.1,Win32,59.52380952,,,,,,,3,,7,1.67,4.33,,0,74,74,74,1,75,Charlie,Acc,Participant_Images/667838be776b27f8705b6c3c/667838be776b27f8705b6c3c_Images/667838be776b27f8705b6c3c_Image_12.jpeg,liked,2.642157193,,,,,,,,,,,,,,,,,,,space,1.0909,,
,,667838be776b27f8705b6c3c,2024-07-17_16h33.25.976,WTP_SM_Choice,2022.2.1,Win32,59.52380952,,,space,0.7099,space,0.5696,NAN,,NAN,1.67,4.33,,0,75,75,75,1,76,Alex,Rej,Participant_Images/667838be776b27f8705b6c3c/667838be776b27f8705b6c3c_Images/667838be776b27f8705b6c3c_Image_7.jpeg,did not like,4.456234322,,,,,,,,,,,,,,,,,,,,,,
,,667838be776b27f8705b6c3c,2024-07-17_16h33.25.976,WTP_SM_Choice,2022.2.1,Win32,59.52380952,,,,,space,0.5008,NAN,,NAN,1.67,4.33,,0,76,76,76,1,77,Alex,Rej,Participant_Images/667838be776b27f8705b6c3c/667838be776b27f8705b6c3c_Images/667838be776b27f8705b6c3c_Image_8.jpeg,did not like,4.438512181,,,,,,,,,,,,,,,,,,,,,,
,,667838be776b27f8705b6c3c,2024-07-17_16h33.25.976,WTP_SM_Choice,2022.2.1,Win32,59.52380952,,,,,space,0.4098,NAN,,NAN,1.67,4.33,,0,77,77,77,1,78,Alex,Rej,Participant_Images/667838be776b27f8705b6c3c/667838be776b27f8705b6c3c_Images/667838be776b27f8705b6c3c_Image_23.jpeg,did not like,2.682944783,,,,,,,,,,,,,,,,,,,,,,
,,667838be776b27f8705b6c3c,2024-07-17_16h33.25.976,WTP_SM_Choice,2022.2.1,Win32,59.52380952,,,,,space,0.4066,NAN,,NAN,1.67,4.33,,0,78,78,78,1,79,Alex,Rej,Participant_Images/667838be776b27f8705b6c3c/667838be776b27f8705b6c3c_Images/667838be776b27f8705b6c3c_Image_20.jpeg,liked,4.51984296,,,,,,,,,,,,,,,,,,,,,,
,,667838be776b27f8705b6c3c,2024-07-17_16h33.25.976,WTP_SM_Choice,2022.2.1,Win32,59.52380952,,,,,,,,,,,,,,,,,,76,,,,,,space,38.3388,space,0.7529,0.01,2,2.6658,0,0,0,0,1,work out with friends,participate in online studies,0.01,0.01,1.1,0,,,,
,,667838be776b27f8705b6c3c,2024-07-17_16h33.25.976,WTP_SM_Choice,2022.2.1,Win32,59.52380952,,,,,,,,,,,,,,,,,,77,,,,,,,,,,0.01,2,1.1714,0,1,1,1,1,Go to dine in somewhere,Be outdoors ,0.02,0.01,8.8,0,,,,
,,667838be776b27f8705b6c3c,2024-07-17_16h33.25.976,WTP_SM_Choice,2022.2.1,Win32,59.52380952,,,,,,,,,,,,,,,,,,78,,,,,,,,,,0.01,2,1.0425,0,2,2,2,1,Have cookouts with family and friends,Go to the gym to workout,0.03,0.01,1.1,0,,,,
,,667838be776b27f8705b6c3c,2024-07-17_16h33.25.976,WTP_SM_Choice,2022.2.1,Win32,59.52380952,,,,,,,,,,,,,,,,,,79,,,,,,,,,,0.01,2,1.517,0,3,3,3,1,Do Yoga to relax the body,go camping with friends,0.04,0.01,1.1,1,,,,
,,667838be776b27f8705b6c3c,2024-07-17_16h33.25.976,WTP_SM_Choice,2022.2.1,Win32,59.52380952,,,,,,,,,,,,,,,,,,80,,,,,,,,,,0.01,2,1.8404,0,4,4,4,1,Be with my pets,work out with friends,0.05,0.01,4.4,1,,,,
,,667838be776b27f8705b6c3c,2024-07-17_16h33.25.976,WTP_SM_Choice,2022.2.1,Win32,59.52380952,,,,,,,NAN,,NAN,1.72,4.28,,0,79,79,79,1,80,Alex,Rej,Participant_Images/667838be776b27f8705b6c3c/667838be776b27f8705b6c3c_Images/667838be776b27f8705b6c3c_Image_17.jpeg,did not like,3.195382774,,,,,,,,,,,,,,,,,,,,,,
,,667838be776b27f8705b6c3c,2024-07-17_16h33.25.976,WTP_SM_Choice,2022.2.1,Win32,59.52380952,,,,,space,0.8701,NAN,,NAN,1.72,4.28,,0,80,80,80,1,81,Alex,Rej,Participant_Images/667838be776b27f8705b6c3c/667838be776b27f8705b6c3c_Images/667838be776b27f8705b6c3c_Image_2.jpeg,did not like,1.779333479,,,,,,,,,,,,,,,,,,,,,,
,,667838be776b27f8705b6c3c,2024-07-17_16h33.25.976,WTP_SM_Choice,2022.2.1,Win32,59.52380952,,,,,space,0.4066,NAN,,NAN,1.72,4.28,,0,81,81,81,1,82,Alex,Rej,Participant_Images/667838be776b27f8705b6c3c/667838be776b27f8705b6c3c_Images/667838be776b27f8705b6c3c_Image_18.jpeg,did not like,4.312468682,,,,,,,,,,,,,,,,,,,,,,
,,667838be776b27f8705b6c3c,2024-07-17_16h33.25.976,WTP_SM_Choice,2022.2.1,Win32,59.52380952,,,,,space,0.56,NAN,,NAN,1.72,4.28,,0,82,82,82,1,83,Alex,Rej,Participant_Images/667838be776b27f8705b6c3c/667838be776b27f8705b6c3c_Images/667838be776b27f8705b6c3c_Image_12.jpeg,did not like,4.940433059,,,,,,,,,,,,,,,,,,,,,,
,,667838be776b27f8705b6c3c,2024-07-17_16h33.25.976,WTP_SM_Choice,2022.2.1,Win32,59.52380952,,,,,space,0.3648,NAN,,NAN,1.72,4.28,,0,83,83,83,1,84,Alex,Rej,Participant_Images/667838be776b27f8705b6c3c/667838be776b27f8705b6c3c_Images/667838be776b27f8705b6c3c_Image_22.jpeg,did not like,2.7105123,,,,,,,,,,,,,,,,,,,,,,
,,667838be776b27f8705b6c3c,2024-07-17_16h33.25.976,WTP_SM_Choice,2022.2.1,Win32,59.52380952,,,,,,,,,,,,,,,,,,81,,,,,,space,0.3781,space,0.8876,0.01,1,1.0774,0,0,0,0,1,Vent with friends,Be outdoors ,0.01,0.02,3.3,0,,,,
,,667838be776b27f8705b6c3c,2024-07-17_16h33.25.976,WTP_SM_Choice,2022.2.1,Win32,59.52380952,,,,,,,,,,,,,,,,,,82,,,,,,,,,,0.02,1,1.8083,0,1,1,1,1,go to museums with friends,Do Yoga to relax the body,0.02,0.02,4.4,0,,,,
,,667838be776b27f8705b6c3c,2024-07-17_16h33.25.976,WTP_SM_Choice,2022.2.1,Win32,59.52380952,,,,,,,,,,,,,,,,,,83,,,,,,,,,,0.02,2,1.6159,0,2,2,2,1,thrift with friends,Sleep to comfort the mind,0.03,0.02,1.1,0,,,,
,,667838be776b27f8705b6c3c,2024-07-17_16h33.25.976,WTP_SM_Choice,2022.2.1,Win32,59.52380952,,,,,,,,,,,,,,,,,,84,,,,,,,,,,0.02,2,1.3204,0,3,3,3,1,Be outdoors ,Go to the park,0.04,0.02,3.3,1,,,,
,,667838be776b27f8705b6c3c,2024-07-17_16h33.25.976,WTP_SM_Choice,2022.2.1,Win32,59.52380952,,,,,,,,,,,,,,,,,,85,,,,,,,,,,0.02,2,1.5623,0,4,4,4,1,go on motorcycle rides with friends,Clean the house,0.05,0.02,3.3,0,,,,
,,667838be776b27f8705b6c3c,2024-07-17_16h33.25.976,WTP_SM_Choice,2022.2.1,Win32,59.52380952,,,,,,,NAN,,NAN,1.81,4.19,,0,84,84,84,1,85,Alex,Rej,Participant_Images/667838be776b27f8705b6c3c/667838be776b27f8705b6c3c_Images/667838be776b27f8705b6c3c_Image_14.jpeg,liked,3.602308302,,,,,,,,,,,,,,,,,,,,,,
,,667838be776b27f8705b6c3c,2024-07-17_16h33.25.976,WTP_SM_Choice,2022.2.1,Win32,59.52380952,,,,,space,0.4828,NAN,,NAN,1.81,4.19,,0,85,85,85,1,86,Alex,Rej,Participant_Images/667838be776b27f8705b6c3c/667838be776b27f8705b6c3c_Images/667838be776b27f8705b6c3c_Image_10.jpeg,did not like,4.106391878,,,,,,,,,,,,,,,,,,,,,,
,,667838be776b27f8705b6c3c,2024-07-17_16h33.25.976,WTP_SM_Choice,2022.2.1,Win32,59.52380952,,,,,space,1.1727,NAN,,NAN,1.81,4.19,,0,86,86,86,1,87,Alex,Rej,Participant_Images/667838be776b27f8705b6c3c/667838be776b27f8705b6c3c_Images/667838be776b27f8705b6c3c_Image_5.jpeg,liked,3.799433026,,,,,,,,,,,,,,,,,,,,,,
,,667838be776b27f8705b6c3c,2024-07-17_16h33.25.976,WTP_SM_Choice,2022.2.1,Win32,59.52380952,,,,,space,1.2317,NAN,,NAN,1.81,4.19,,0,87,87,87,1,88,Alex,Rej,Participant_Images/667838be776b27f8705b6c3c/667838be776b27f8705b6c3c_Images/667838be776b27f8705b6c3c_Image_4.jpeg,did not like,5.246980764,,,,,,,,,,,,,,,,,,,,,,
,,667838be776b27f8705b6c3c,2024-07-17_16h33.25.976,WTP_SM_Choice,2022.2.1,Win32,59.52380952,,,,,space,0.9077,NAN,,NAN,1.81,4.19,,0,88,88,88,1,89,Alex,Rej,Participant_Images/667838be776b27f8705b6c3c/667838be776b27f8705b6c3c_Images/667838be776b27f8705b6c3c_Image_6.jpeg,did not like,3.30081769,,,,,,,,,,,,,,,,,,,,,,
,,667838be776b27f8705b6c3c,2024-07-17_16h33.25.976,WTP_SM_Choice,2022.2.1,Win32,59.52380952,,,,,,,,,,,,,,,,,,86,,,,,,space,1.0914,space,0.8909,0.01,1,0.8785,0,0,0,0,1,go to museums with friends,participate in online studies,0.01,0.03,1.1,0,,,,
,,667838be776b27f8705b6c3c,2024-07-17_16h33.25.976,WTP_SM_Choice,2022.2.1,Win32,59.52380952,,,,,,,,,,,,,,,,,,87,,,,,,,,,,0.02,1,1.2348,0,1,1,1,1,Be with my pets,Go to movies with friends,0.02,0.03,4.4,1,,,,
,,667838be776b27f8705b6c3c,2024-07-17_16h33.25.976,WTP_SM_Choice,2022.2.1,Win32,59.52380952,,,,,,,,,,,,,,,,,,88,,,,,,,,,,0.03,2,2.1537,0,2,2,2,1,Have cookouts with family and friends,Sleep to comfort the mind,0.03,0.03,1.1,0,,,,
,,667838be776b27f8705b6c3c,2024-07-17_16h33.25.976,WTP_SM_Choice,2022.2.1,Win32,59.52380952,,,,,,,,,,,,,,,,,,89,,,,,,,,,,0.03,2,1.221,0,3,3,3,1,Go to the gym to workout,go to museums with friends,0.04,0.03,3.3,1,,,,
,,667838be776b27f8705b6c3c,2024-07-17_16h33.25.976,WTP_SM_Choice,2022.2.1,Win32,59.52380952,,,,,,,,,,,,,,,,,,90,,,,,,,,,,0.03,2,3.0745,0,4,4,4,1,Be with my pets,thrift with friends,0.05,0.03,8.8,1,,,,
,,667838be776b27f8705b6c3c,2024-07-17_16h33.25.976,WTP_SM_Choice,2022.2.1,Win32,59.52380952,,,,,,,NAN,,NAN,1.93,4.07,,0,89,89,89,1,90,Alex,Rej,Participant_Images/667838be776b27f8705b6c3c/667838be776b27f8705b6c3c_Images/667838be776b27f8705b6c3c_Image_16.jpeg,did not like,1.661473164,,,,,,,,,,,,,,,,,,,,,,
,,667838be776b27f8705b6c3c,2024-07-17_16h33.25.976,WTP_SM_Choice,2022.2.1,Win32,59.52380952,,,,,space,0.9035,NAN,,NAN,1.93,4.07,,0,90,90,90,1,91,Alex,Rej,Participant_Images/667838be776b27f8705b6c3c/667838be776b27f8705b6c3c_Images/667838be776b27f8705b6c3c_Image_3.jpeg,did not like,3.613205605,,,,,,,,,,,,,,,,,,,,,,
,,667838be776b27f8705b6c3c,2024-07-17_16h33.25.976,WTP_SM_Choice,2022.2.1,Win32,59.52380952,,,,,space,0.9038,NAN,,NAN,1.93,4.07,,0,91,91,91,1,92,Alex,Rej,Participant_Images/667838be776b27f8705b6c3c/667838be776b27f8705b6c3c_Images/667838be776b27f8705b6c3c_Image_15.jpeg,liked,4.988446431,,,,,,,,,,,,,,,,,,,,,,
,,667838be776b27f8705b6c3c,2024-07-17_16h33.25.976,WTP_SM_Choice,2022.2.1,Win32,59.52380952,,,,,space,0.7681,NAN,,NAN,1.93,4.07,,0,92,92,92,1,93,Alex,Rej,Participant_Images/667838be776b27f8705b6c3c/667838be776b27f8705b6c3c_Images/667838be776b27f8705b6c3c_Image_11.jpeg,did not like,3.470791822,,,,,,,,,,,,,,,,,,,,,,
,,667838be776b27f8705b6c3c,2024-07-17_16h33.25.976,WTP_SM_Choice,2022.2.1,Win32,59.52380952,,,,,space,0.9847,NAN,,NAN,1.93,4.07,,0,93,93,93,1,94,Alex,Rej,Participant_Images/667838be776b27f8705b6c3c/667838be776b27f8705b6c3c_Images/667838be776b27f8705b6c3c_Image_25.jpeg,did not like,3.820572462,,,,,,,,,,,,,,,,,,,,,,
,,667838be776b27f8705b6c3c,2024-07-17_16h33.25.976,WTP_SM_Choice,2022.2.1,Win32,59.52380952,,,,,,,,,,,,,,,,,,91,,,,,,space,8.5271,space,0.4693,0.01,1,1.081,0,0,0,0,1,Sleep to comfort the mind,work out with friends,0.01,0.04,3.3,1,,,,
,,667838be776b27f8705b6c3c,2024-07-17_16h33.25.976,WTP_SM_Choice,2022.2.1,Win32,59.52380952,,,,,,,,,,,,,,,,,,92,,,,,,,,,,0.02,1,1.0758,0,1,1,1,1,Listen to music ,go to museums with friends,0.02,0.04,8.8,1,,,,
,,667838be776b27f8705b6c3c,2024-07-17_16h33.25.976,WTP_SM_Choice,2022.2.1,Win32,59.52380952,,,,,,,,,,,,,,,,,,93,,,,,,,,,,0.03,1,2.3362,0,2,2,2,1,go on motorcycle rides with friends,Sleep to comfort the mind,0.03,0.04,1.1,0,,,,
,,667838be776b27f8705b6c3c,2024-07-17_16h33.25.976,WTP_SM_Choice,2022.2.1,Win32,59.52380952,,,,,,,,,,,,,,,,,,94,,,,,,,,,,0.04,2,2.4602,0,3,3,3,1,Vent with friends,Clean the house,0.04,0.04,4.4,0,,,,
,,667838be776b27f8705b6c3c,2024-07-17_16h33.25.976,WTP_SM_Choice,2022.2.1,Win32,59.52380952,,,,,,,,,,,,,,,,,,95,,,,,,,,,,0.04,2,1.4888,0,4,4,4,1,Have cookouts with family and friends,Be with my pets,0.05,0.04,4.4,0,,,,
,,667838be776b27f8705b6c3c,2024-07-17_16h33.25.976,WTP_SM_Choice,2022.2.1,Win32,59.52380952,,,,,,,NAN,,NAN,2.07,3.93,,0,94,94,94,1,95,Alex,Rej,Participant_Images/667838be776b27f8705b6c3c/667838be776b27f8705b6c3c_Images/667838be776b27f8705b6c3c_Image_19.jpeg,did not like,2.455989137,,,,,,,,,,,,,,,,,,,,,,
,,667838be776b27f8705b6c3c,2024-07-17_16h33.25.976,WTP_SM_Choice,2022.2.1,Win32,59.52380952,,,,,space,0.8498,NAN,,NAN,2.07,3.93,,0,95,95,95,1,96,Alex,Rej,Participant_Images/667838be776b27f8705b6c3c/667838be776b27f8705b6c3c_Images/667838be776b27f8705b6c3c_Image_21.jpeg,liked,3.79605092,,,,,,,,,,,,,,,,,,,,,,
,,667838be776b27f8705b6c3c,2024-07-17_16h33.25.976,WTP_SM_Choice,2022.2.1,Win32,59.52380952,,,,,space,0.9643,NAN,,NAN,2.07,3.93,,0,96,96,96,1,97,Alex,Rej,Participant_Images/667838be776b27f8705b6c3c/667838be776b27f8705b6c3c_Images/667838be776b27f8705b6c3c_Image_1.jpeg,liked,3.562416326,,,,,,,,,,,,,,,,,,,,,,
,,667838be776b27f8705b6c3c,2024-07-17_16h33.25.976,WTP_SM_Choice,2022.2.1,Win32,59.52380952,,,,,space,1.5806,NAN,,NAN,2.07,3.93,,0,97,97,97,1,98,Alex,Rej,Participant_Images/667838be776b27f8705b6c3c/667838be776b27f8705b6c3c_Images/667838be776b27f8705b6c3c_Image_9.jpeg,liked,2.843822497,,,,,,,,,,,,,,,,,,,,,,
,,667838be776b27f8705b6c3c,2024-07-17_16h33.25.976,WTP_SM_Choice,2022.2.1,Win32,59.52380952,,,,,space,1.9967,NAN,,NAN,2.07,3.93,,0,98,98,98,1,99,Alex,Rej,Participant_Images/667838be776b27f8705b6c3c/667838be776b27f8705b6c3c_Images/667838be776b27f8705b6c3c_Image_24.jpeg,did not like,3.546495948,,,,,,,,,,,,,,,,,,,,,,
,,667838be776b27f8705b6c3c,2024-07-17_16h33.25.976,WTP_SM_Choice,2022.2.1,Win32,59.52380952,,,,,,,,,,,,,,,,,,96,,,,,,space,1.0553,space,0.64,0.01,1,0.8881,0,0,0,0,1,Be with my pets,go on motorcycle rides with friends,0.01,0.05,3.3,1,,,,
,,667838be776b27f8705b6c3c,2024-07-17_16h33.25.976,WTP_SM_Choice,2022.2.1,Win32,59.52380952,,,,,,,,,,,,,,,,,,97,,,,,,,,,,0.02,1,1.2082,0,1,1,1,1,participate in online studies,go on motorcycle rides with friends,0.02,0.05,1.1,1,,,,
,,667838be776b27f8705b6c3c,2024-07-17_16h33.25.976,WTP_SM_Choice,2022.2.1,Win32,59.52380952,,,,,,,,,,,,,,,,,,98,,,,,,,,,,0.03,1,1.0194,0,2,2,2,1,Go to movies with friends,Be outdoors ,0.03,0.05,1.1,0,,,,
,,667838be776b27f8705b6c3c,2024-07-17_16h33.25.976,WTP_SM_Choice,2022.2.1,Win32,59.52380952,,,,,,,,,,,,,,,,,,99,,,,,,,,,,0.04,1,0.79,0,3,3,3,1,Go to dine in somewhere,Be with my pets,0.04,0.05,3.3,0,,,,
,,667838be776b27f8705b6c3c,2024-07-17_16h33.25.976,WTP_SM_Choice,2022.2.1,Win32,59.52380952,,,,,,,,,,,,,,,,,,100,,,,,,,,,,0.05,2,1.7426,0,4,4,4,1,Have cookouts with family and friends,Clean the house,0.05,0.05,4.4,0,,,,
,,667838be776b27f8705b6c3c,2024-07-17_16h33.25.976,WTP_SM_Choice,2022.2.1,Win32,59.52380952,,,,,,,3,,7,2.22,3.78,,0,99,99,99,1,100,Alex,Rej,Participant_Images/667838be776b27f8705b6c3c/667838be776b27f8705b6c3c_Images/667838be776b27f8705b6c3c_Image_13.jpeg,did not like,1.672012706,,,,,,,,,,,,,,,,,,,space,2.7177,,
,,667838be776b27f8705b6c3c,2024-07-17_16h33.25.976,WTP_SM_Choice,2022.2.1,Win32,59.52380952,,,,,,,,,,,,,,,,,,,,,,,,,,,,,,,,,,,,,,,,,,,,space,3.6133
