endwelcomescreen_keys.keys,endwelcomescreen_keys.rt,participant,STUDY_ID,SESSION_ID,date,expName,psychopyVersion,OS,frameRate,endinstructionscreen_keys.keys,endinstructionscreen_keys.rt,endpartnermatch_keys.keys,endpartnermatch_keys.rt,sharenextphoto_key.keys,sharenextphoto_key.rt,salience_rating,key_resp.keys,stress_level,subtract_bonus,TOTAL_TASK_BONUS,stresslevel_keypress.keys,entiretaskloop.thisRepN,entiretaskloop.thisTrialN,entiretaskloop.thisN,entiretaskloop.thisIndex,entiretaskloop.ran,TrialNumber,Partner,Condition,Photos,Feedback,FeedbackWait,WTP_ins_keys1.keys,WTP_ins_keys1.rt,WTP_ins_keys2.keys,WTP_ins_keys2.rt,decision_price,responses.keys,responses.rt,WTPTaskLoop.thisRepN,WTPTaskLoop.thisTrialN,WTPTaskLoop.thisN,WTPTaskLoop.thisIndex,WTPTaskLoop.ran,right,left,leftmoney,rightmoney,WTP_ITI,social_left,Resume_keys.keys,Resume_keys.rt,end_screen_keys.keys,end_screen_keys.rt
space,3.1416,667981cd5ba91c2ae804e4f3,6685aa9113c938e83b4f1ea0,671be814f9e7ffc0d41d7b60,2024-10-25_15h07.10.350,WTP_SM_Choice,2022.2.1,Win32,59.88023952,,,,,,,,,,,,,,,,,,,,,,,,,,,,,,,,,,,,,,,,,,,,,
,,667981cd5ba91c2ae804e4f3,6685aa9113c938e83b4f1ea0,671be814f9e7ffc0d41d7b60,2024-10-25_15h07.10.350,WTP_SM_Choice,2022.2.1,Win32,59.88023952,space,12.3508,,,,,,,,,,,,,,,,,,,,,,,,,,,,,,,,,,,,,,,,,,,
,,667981cd5ba91c2ae804e4f3,6685aa9113c938e83b4f1ea0,671be814f9e7ffc0d41d7b60,2024-10-25_15h07.10.350,WTP_SM_Choice,2022.2.1,Win32,59.88023952,,,space,2.1815,space,0.7244,NAN,,NAN,0,6,,0,0,0,0,1,1,Charlie,Acc,Participant_Images/667981cd5ba91c2ae804e4f3/667981cd5ba91c2ae804e4f3_Images/667981cd5ba91c2ae804e4f3_Image_10.jpeg,liked,3.613205605,,,,,,,,,,,,,,,,,,,,,,
,,667981cd5ba91c2ae804e4f3,6685aa9113c938e83b4f1ea0,671be814f9e7ffc0d41d7b60,2024-10-25_15h07.10.350,WTP_SM_Choice,2022.2.1,Win32,59.88023952,,,,,space,0.6005,NAN,,NAN,0,6,,0,1,1,1,1,2,Charlie,Acc,Participant_Images/667981cd5ba91c2ae804e4f3/667981cd5ba91c2ae804e4f3_Images/667981cd5ba91c2ae804e4f3_Image_13.jpeg,liked,4.988446431,,,,,,,,,,,,,,,,,,,,,,
,,667981cd5ba91c2ae804e4f3,6685aa9113c938e83b4f1ea0,671be814f9e7ffc0d41d7b60,2024-10-25_15h07.10.350,WTP_SM_Choice,2022.2.1,Win32,59.88023952,,,,,space,0.7285,NAN,,NAN,0,6,,0,2,2,2,1,3,Charlie,Acc,Participant_Images/667981cd5ba91c2ae804e4f3/667981cd5ba91c2ae804e4f3_Images/667981cd5ba91c2ae804e4f3_Image_12.jpeg,liked,3.470791822,,,,,,,,,,,,,,,,,,,,,,
,,667981cd5ba91c2ae804e4f3,6685aa9113c938e83b4f1ea0,671be814f9e7ffc0d41d7b60,2024-10-25_15h07.10.350,WTP_SM_Choice,2022.2.1,Win32,59.88023952,,,,,space,0.6923,NAN,,NAN,0,6,,0,3,3,3,1,4,Charlie,Acc,Participant_Images/667981cd5ba91c2ae804e4f3/667981cd5ba91c2ae804e4f3_Images/667981cd5ba91c2ae804e4f3_Image_18.jpeg,liked,3.820572462,,,,,,,,,,,,,,,,,,,,,,
,,667981cd5ba91c2ae804e4f3,6685aa9113c938e83b4f1ea0,671be814f9e7ffc0d41d7b60,2024-10-25_15h07.10.350,WTP_SM_Choice,2022.2.1,Win32,59.88023952,,,,,,,,,,,,,,,,,,1,,,,,,space,18.8101,space,6.5056,0.01,2,2.8243,0,0,0,0,1,Browse halloween decorations with my daughter,Do yoga out on the porch on a sunny day,0.01,0.01,4.4,0,,,,
,,667981cd5ba91c2ae804e4f3,6685aa9113c938e83b4f1ea0,671be814f9e7ffc0d41d7b60,2024-10-25_15h07.10.350,WTP_SM_Choice,2022.2.1,Win32,59.88023952,,,,,,,,,,,,,,,,,,2,,,,,,,,,,0.01,2,3.1052,0,1,1,1,1,Get Starbucks with my daughter after Pre-K,Do my makeup or hair,0.02,0.01,8.8,0,,,,
,,667981cd5ba91c2ae804e4f3,6685aa9113c938e83b4f1ea0,671be814f9e7ffc0d41d7b60,2024-10-25_15h07.10.350,WTP_SM_Choice,2022.2.1,Win32,59.88023952,,,,,,,,,,,,,,,,,,3,,,,,,,,,,0.01,2,2.6329,0,2,2,2,1,Work out just before lunch,Attend fall festivals with my kids and husband,0.03,0.01,3.3,1,,,,
,,667981cd5ba91c2ae804e4f3,6685aa9113c938e83b4f1ea0,671be814f9e7ffc0d41d7b60,2024-10-25_15h07.10.350,WTP_SM_Choice,2022.2.1,Win32,59.88023952,,,,,,,,,,,,,,,,,,4,,,,,,,,,,0.01,2,1.9509,0,3,3,3,1,Go to the theatre with my best friend,Read by the window on a rainy day,0.04,0.01,1.1,0,,,,
,,667981cd5ba91c2ae804e4f3,6685aa9113c938e83b4f1ea0,671be814f9e7ffc0d41d7b60,2024-10-25_15h07.10.350,WTP_SM_Choice,2022.2.1,Win32,59.88023952,,,,,,,,,,,,,,,,,,5,,,,,,,,,,0.01,2,1.6768,0,4,4,4,1,Get Starbucks with my daughter after Pre-K,Read by the window on a rainy day,0.05,0.01,1.1,0,,,,
,,667981cd5ba91c2ae804e4f3,6685aa9113c938e83b4f1ea0,671be814f9e7ffc0d41d7b60,2024-10-25_15h07.10.350,WTP_SM_Choice,2022.2.1,Win32,59.88023952,,,,,,,NAN,,NAN,0.05,5.95,,0,4,4,4,1,5,Charlie,Acc,Participant_Images/667981cd5ba91c2ae804e4f3/667981cd5ba91c2ae804e4f3_Images/667981cd5ba91c2ae804e4f3_Image_19.jpeg,liked,2.455989137,,,,,,,,,,,,,,,,,,,,,,
,,667981cd5ba91c2ae804e4f3,6685aa9113c938e83b4f1ea0,671be814f9e7ffc0d41d7b60,2024-10-25_15h07.10.350,WTP_SM_Choice,2022.2.1,Win32,59.88023952,,,,,space,1.1404,NAN,,NAN,0.05,5.95,,0,5,5,5,1,6,Charlie,Acc,Participant_Images/667981cd5ba91c2ae804e4f3/667981cd5ba91c2ae804e4f3_Images/667981cd5ba91c2ae804e4f3_Image_3.jpeg,did not like,3.79605092,,,,,,,,,,,,,,,,,,,,,,
,,667981cd5ba91c2ae804e4f3,6685aa9113c938e83b4f1ea0,671be814f9e7ffc0d41d7b60,2024-10-25_15h07.10.350,WTP_SM_Choice,2022.2.1,Win32,59.88023952,,,,,space,0.8551,NAN,,NAN,0.05,5.95,,0,6,6,6,1,7,Charlie,Acc,Participant_Images/667981cd5ba91c2ae804e4f3/667981cd5ba91c2ae804e4f3_Images/667981cd5ba91c2ae804e4f3_Image_15.jpeg,liked,3.562416326,,,,,,,,,,,,,,,,,,,,,,
,,667981cd5ba91c2ae804e4f3,6685aa9113c938e83b4f1ea0,671be814f9e7ffc0d41d7b60,2024-10-25_15h07.10.350,WTP_SM_Choice,2022.2.1,Win32,59.88023952,,,,,space,0.6931,NAN,,NAN,0.05,5.95,,0,7,7,7,1,8,Charlie,Acc,Participant_Images/667981cd5ba91c2ae804e4f3/667981cd5ba91c2ae804e4f3_Images/667981cd5ba91c2ae804e4f3_Image_24.jpeg,did not like,2.843822497,,,,,,,,,,,,,,,,,,,,,,
,,667981cd5ba91c2ae804e4f3,6685aa9113c938e83b4f1ea0,671be814f9e7ffc0d41d7b60,2024-10-25_15h07.10.350,WTP_SM_Choice,2022.2.1,Win32,59.88023952,,,,,space,0.5203,NAN,,NAN,0.05,5.95,,0,8,8,8,1,9,Charlie,Acc,Participant_Images/667981cd5ba91c2ae804e4f3/667981cd5ba91c2ae804e4f3_Images/667981cd5ba91c2ae804e4f3_Image_25.jpeg,did not like,3.546495948,,,,,,,,,,,,,,,,,,,,,,
,,667981cd5ba91c2ae804e4f3,6685aa9113c938e83b4f1ea0,671be814f9e7ffc0d41d7b60,2024-10-25_15h07.10.350,WTP_SM_Choice,2022.2.1,Win32,59.88023952,,,,,,,,,,,,,,,,,,6,,,,,,space,3.6571,space,2.2523,0.02,2,2.4662,0,0,0,0,1,Get Starbucks with my daughter after Pre-K,Play video games when everyone is asleep,0.01,0.02,3.3,0,,,,
,,667981cd5ba91c2ae804e4f3,6685aa9113c938e83b4f1ea0,671be814f9e7ffc0d41d7b60,2024-10-25_15h07.10.350,WTP_SM_Choice,2022.2.1,Win32,59.88023952,,,,,,,,,,,,,,,,,,7,,,,,,,,,,0.02,1,2.0664,0,1,1,1,1,Do my makeup or hair,Go to lunch with my husband and daughter on Fridays,0.02,0.02,1.1,1,,,,
,,667981cd5ba91c2ae804e4f3,6685aa9113c938e83b4f1ea0,671be814f9e7ffc0d41d7b60,2024-10-25_15h07.10.350,WTP_SM_Choice,2022.2.1,Win32,59.88023952,,,,,,,,,,,,,,,,,,8,,,,,,,,,,0.02,2,1.8358,0,2,2,2,1,Do surveys online in the morning,shop with my mom,0.03,0.02,1.1,1,,,,
,,667981cd5ba91c2ae804e4f3,6685aa9113c938e83b4f1ea0,671be814f9e7ffc0d41d7b60,2024-10-25_15h07.10.350,WTP_SM_Choice,2022.2.1,Win32,59.88023952,,,,,,,,,,,,,,,,,,9,,,,,,,,,,0.02,2,1.234,0,3,3,3,1,Do yoga out on the porch on a sunny day,Travel on the weekend with my family,0.04,0.02,4.4,1,,,,
,,667981cd5ba91c2ae804e4f3,6685aa9113c938e83b4f1ea0,671be814f9e7ffc0d41d7b60,2024-10-25_15h07.10.350,WTP_SM_Choice,2022.2.1,Win32,59.88023952,,,,,,,,,,,,,,,,,,10,,,,,,,,,,0.02,2,1.3761,0,4,4,4,1,Get Starbucks with my daughter after Pre-K,Reorganize my makeup drawers on sundays,0.05,0.02,1.1,0,,,,
,,667981cd5ba91c2ae804e4f3,6685aa9113c938e83b4f1ea0,671be814f9e7ffc0d41d7b60,2024-10-25_15h07.10.350,WTP_SM_Choice,2022.2.1,Win32,59.88023952,,,,,,,NAN,,NAN,0.15,5.85,,0,9,9,9,1,10,Charlie,Acc,Participant_Images/667981cd5ba91c2ae804e4f3/667981cd5ba91c2ae804e4f3_Images/667981cd5ba91c2ae804e4f3_Image_21.jpeg,liked,1.672012706,,,,,,,,,,,,,,,,,,,,,,
,,667981cd5ba91c2ae804e4f3,6685aa9113c938e83b4f1ea0,671be814f9e7ffc0d41d7b60,2024-10-25_15h07.10.350,WTP_SM_Choice,2022.2.1,Win32,59.88023952,,,,,space,0.5527,NAN,,NAN,0.15,5.85,,0,10,10,10,1,11,Charlie,Acc,Participant_Images/667981cd5ba91c2ae804e4f3/667981cd5ba91c2ae804e4f3_Images/667981cd5ba91c2ae804e4f3_Image_6.jpeg,liked,4.942172136,,,,,,,,,,,,,,,,,,,,,,
,,667981cd5ba91c2ae804e4f3,6685aa9113c938e83b4f1ea0,671be814f9e7ffc0d41d7b60,2024-10-25_15h07.10.350,WTP_SM_Choice,2022.2.1,Win32,59.88023952,,,,,space,0.9678,NAN,,NAN,0.15,5.85,,0,11,11,11,1,12,Charlie,Acc,Participant_Images/667981cd5ba91c2ae804e4f3/667981cd5ba91c2ae804e4f3_Images/667981cd5ba91c2ae804e4f3_Image_14.jpeg,did not like,2.50187214,,,,,,,,,,,,,,,,,,,,,,
,,667981cd5ba91c2ae804e4f3,6685aa9113c938e83b4f1ea0,671be814f9e7ffc0d41d7b60,2024-10-25_15h07.10.350,WTP_SM_Choice,2022.2.1,Win32,59.88023952,,,,,space,0.5082,NAN,,NAN,0.15,5.85,,0,12,12,12,1,13,Charlie,Acc,Participant_Images/667981cd5ba91c2ae804e4f3/667981cd5ba91c2ae804e4f3_Images/667981cd5ba91c2ae804e4f3_Image_4.jpeg,liked,2.071164779,,,,,,,,,,,,,,,,,,,,,,
,,667981cd5ba91c2ae804e4f3,6685aa9113c938e83b4f1ea0,671be814f9e7ffc0d41d7b60,2024-10-25_15h07.10.350,WTP_SM_Choice,2022.2.1,Win32,59.88023952,,,,,space,0.7006,NAN,,NAN,0.15,5.85,,0,13,13,13,1,14,Charlie,Acc,Participant_Images/667981cd5ba91c2ae804e4f3/667981cd5ba91c2ae804e4f3_Images/667981cd5ba91c2ae804e4f3_Image_11.jpeg,did not like,5.336503566,,,,,,,,,,,,,,,,,,,,,,
,,667981cd5ba91c2ae804e4f3,6685aa9113c938e83b4f1ea0,671be814f9e7ffc0d41d7b60,2024-10-25_15h07.10.350,WTP_SM_Choice,2022.2.1,Win32,59.88023952,,,,,,,,,,,,,,,,,,11,,,,,,space,1.8697,space,1.5363,0.01,1,1.2141,0,0,0,0,1,Reorganize my makeup drawers on sundays,Attend concerts with my friends,0.01,0.03,3.3,1,,,,
,,667981cd5ba91c2ae804e4f3,6685aa9113c938e83b4f1ea0,671be814f9e7ffc0d41d7b60,2024-10-25_15h07.10.350,WTP_SM_Choice,2022.2.1,Win32,59.88023952,,,,,,,,,,,,,,,,,,12,,,,,,,,,,0.02,1,1.6155,0,1,1,1,1,Travel on the weekend with my family,Go to target to buy self care items on fridays,0.02,0.03,4.4,0,,,,
,,667981cd5ba91c2ae804e4f3,6685aa9113c938e83b4f1ea0,671be814f9e7ffc0d41d7b60,2024-10-25_15h07.10.350,WTP_SM_Choice,2022.2.1,Win32,59.88023952,,,,,,,,,,,,,,,,,,13,,,,,,,,,,0.03,1,1.3721,0,2,2,2,1,Do yoga out on the porch on a sunny day,Get Starbucks with my daughter after Pre-K,0.03,0.03,1.1,1,,,,
,,667981cd5ba91c2ae804e4f3,6685aa9113c938e83b4f1ea0,671be814f9e7ffc0d41d7b60,2024-10-25_15h07.10.350,WTP_SM_Choice,2022.2.1,Win32,59.88023952,,,,,,,,,,,,,,,,,,14,,,,,,,,,,0.03,2,1.5523,0,3,3,3,1,Do my makeup or hair,Go to the theatre with my best friend,0.04,0.03,3.3,1,,,,
,,667981cd5ba91c2ae804e4f3,6685aa9113c938e83b4f1ea0,671be814f9e7ffc0d41d7b60,2024-10-25_15h07.10.350,WTP_SM_Choice,2022.2.1,Win32,59.88023952,,,,,,,,,,,,,,,,,,15,,,,,,,,,,0.03,2,1.3187,0,4,4,4,1,Attend concerts with my friends,Read by the window on a rainy day,0.05,0.03,4.4,0,,,,
,,667981cd5ba91c2ae804e4f3,6685aa9113c938e83b4f1ea0,671be814f9e7ffc0d41d7b60,2024-10-25_15h07.10.350,WTP_SM_Choice,2022.2.1,Win32,59.88023952,,,,,,,NAN,,NAN,0.27,5.73,,0,14,14,14,1,15,Charlie,Acc,Participant_Images/667981cd5ba91c2ae804e4f3/667981cd5ba91c2ae804e4f3_Images/667981cd5ba91c2ae804e4f3_Image_5.jpeg,liked,2.642157193,,,,,,,,,,,,,,,,,,,,,,
,,667981cd5ba91c2ae804e4f3,6685aa9113c938e83b4f1ea0,671be814f9e7ffc0d41d7b60,2024-10-25_15h07.10.350,WTP_SM_Choice,2022.2.1,Win32,59.88023952,,,,,space,0.6334,NAN,,NAN,0.27,5.73,,0,15,15,15,1,16,Charlie,Acc,Participant_Images/667981cd5ba91c2ae804e4f3/667981cd5ba91c2ae804e4f3_Images/667981cd5ba91c2ae804e4f3_Image_7.jpeg,liked,4.456234322,,,,,,,,,,,,,,,,,,,,,,
,,667981cd5ba91c2ae804e4f3,6685aa9113c938e83b4f1ea0,671be814f9e7ffc0d41d7b60,2024-10-25_15h07.10.350,WTP_SM_Choice,2022.2.1,Win32,59.88023952,,,,,space,1.1035,NAN,,NAN,0.27,5.73,,0,16,16,16,1,17,Charlie,Acc,Participant_Images/667981cd5ba91c2ae804e4f3/667981cd5ba91c2ae804e4f3_Images/667981cd5ba91c2ae804e4f3_Image_17.jpeg,liked,4.438512181,,,,,,,,,,,,,,,,,,,,,,
,,667981cd5ba91c2ae804e4f3,6685aa9113c938e83b4f1ea0,671be814f9e7ffc0d41d7b60,2024-10-25_15h07.10.350,WTP_SM_Choice,2022.2.1,Win32,59.88023952,,,,,space,2.2946,NAN,,NAN,0.27,5.73,,0,17,17,17,1,18,Charlie,Acc,Participant_Images/667981cd5ba91c2ae804e4f3/667981cd5ba91c2ae804e4f3_Images/667981cd5ba91c2ae804e4f3_Image_22.jpeg,did not like,2.682944783,,,,,,,,,,,,,,,,,,,,,,
,,667981cd5ba91c2ae804e4f3,6685aa9113c938e83b4f1ea0,671be814f9e7ffc0d41d7b60,2024-10-25_15h07.10.350,WTP_SM_Choice,2022.2.1,Win32,59.88023952,,,,,space,1.1737,NAN,,NAN,0.27,5.73,,0,18,18,18,1,19,Charlie,Acc,Participant_Images/667981cd5ba91c2ae804e4f3/667981cd5ba91c2ae804e4f3_Images/667981cd5ba91c2ae804e4f3_Image_23.jpeg,liked,4.51984296,,,,,,,,,,,,,,,,,,,,,,
,,667981cd5ba91c2ae804e4f3,6685aa9113c938e83b4f1ea0,671be814f9e7ffc0d41d7b60,2024-10-25_15h07.10.350,WTP_SM_Choice,2022.2.1,Win32,59.88023952,,,,,,,,,,,,,,,,,,16,,,,,,space,0.4468,space,0.7199,0.01,1,1.1312,0,0,0,0,1,Write by the fireside late at night,Attend fall festivals with my kids and husband,0.01,0.04,1.1,1,,,,
,,667981cd5ba91c2ae804e4f3,6685aa9113c938e83b4f1ea0,671be814f9e7ffc0d41d7b60,2024-10-25_15h07.10.350,WTP_SM_Choice,2022.2.1,Win32,59.88023952,,,,,,,,,,,,,,,,,,17,,,,,,,,,,0.02,1,1.0508,0,1,1,1,1,Go to target to buy self care items on fridays,Get coffee with friends in the mornings,0.02,0.04,8.8,1,,,,
,,667981cd5ba91c2ae804e4f3,6685aa9113c938e83b4f1ea0,671be814f9e7ffc0d41d7b60,2024-10-25_15h07.10.350,WTP_SM_Choice,2022.2.1,Win32,59.88023952,,,,,,,,,,,,,,,,,,18,,,,,,,,,,0.03,1,1.1997,0,2,2,2,1,Work out just before lunch,Get coffee with friends in the mornings,0.03,0.04,3.3,1,,,,
,,667981cd5ba91c2ae804e4f3,6685aa9113c938e83b4f1ea0,671be814f9e7ffc0d41d7b60,2024-10-25_15h07.10.350,WTP_SM_Choice,2022.2.1,Win32,59.88023952,,,,,,,,,,,,,,,,,,19,,,,,,,,,,0.04,2,1.9503,0,3,3,3,1,Take naps when my kids are at school,Go to the theatre with my best friend,0.04,0.04,3.3,1,,,,
,,667981cd5ba91c2ae804e4f3,6685aa9113c938e83b4f1ea0,671be814f9e7ffc0d41d7b60,2024-10-25_15h07.10.350,WTP_SM_Choice,2022.2.1,Win32,59.88023952,,,,,,,,,,,,,,,,,,20,,,,,,,,,,0.04,2,1.1554,0,4,4,4,1,shop with my mom,Play video games when everyone is asleep,0.05,0.04,1.1,0,,,,
,,667981cd5ba91c2ae804e4f3,6685aa9113c938e83b4f1ea0,671be814f9e7ffc0d41d7b60,2024-10-25_15h07.10.350,WTP_SM_Choice,2022.2.1,Win32,59.88023952,,,,,,,NAN,,NAN,0.41,5.59,,0,19,19,19,1,20,Charlie,Acc,Participant_Images/667981cd5ba91c2ae804e4f3/667981cd5ba91c2ae804e4f3_Images/667981cd5ba91c2ae804e4f3_Image_8.jpeg,liked,3.195382774,,,,,,,,,,,,,,,,,,,,,,
,,667981cd5ba91c2ae804e4f3,6685aa9113c938e83b4f1ea0,671be814f9e7ffc0d41d7b60,2024-10-25_15h07.10.350,WTP_SM_Choice,2022.2.1,Win32,59.88023952,,,,,space,0.7015,NAN,,NAN,0.41,5.59,,0,20,20,20,1,21,Charlie,Acc,Participant_Images/667981cd5ba91c2ae804e4f3/667981cd5ba91c2ae804e4f3_Images/667981cd5ba91c2ae804e4f3_Image_20.jpeg,did not like,1.779333479,,,,,,,,,,,,,,,,,,,,,,
,,667981cd5ba91c2ae804e4f3,6685aa9113c938e83b4f1ea0,671be814f9e7ffc0d41d7b60,2024-10-25_15h07.10.350,WTP_SM_Choice,2022.2.1,Win32,59.88023952,,,,,space,0.7197,NAN,,NAN,0.41,5.59,,0,21,21,21,1,22,Charlie,Acc,Participant_Images/667981cd5ba91c2ae804e4f3/667981cd5ba91c2ae804e4f3_Images/667981cd5ba91c2ae804e4f3_Image_2.jpeg,liked,4.312468682,,,,,,,,,,,,,,,,,,,,,,
,,667981cd5ba91c2ae804e4f3,6685aa9113c938e83b4f1ea0,671be814f9e7ffc0d41d7b60,2024-10-25_15h07.10.350,WTP_SM_Choice,2022.2.1,Win32,59.88023952,,,,,space,0.6886,NAN,,NAN,0.41,5.59,,0,22,22,22,1,23,Charlie,Acc,Participant_Images/667981cd5ba91c2ae804e4f3/667981cd5ba91c2ae804e4f3_Images/667981cd5ba91c2ae804e4f3_Image_9.jpeg,liked,4.940433059,,,,,,,,,,,,,,,,,,,,,,
,,667981cd5ba91c2ae804e4f3,6685aa9113c938e83b4f1ea0,671be814f9e7ffc0d41d7b60,2024-10-25_15h07.10.350,WTP_SM_Choice,2022.2.1,Win32,59.88023952,,,,,space,0.6012,NAN,,NAN,0.41,5.59,,0,23,23,23,1,24,Charlie,Acc,Participant_Images/667981cd5ba91c2ae804e4f3/667981cd5ba91c2ae804e4f3_Images/667981cd5ba91c2ae804e4f3_Image_16.jpeg,liked,2.7105123,,,,,,,,,,,,,,,,,,,,,,
,,667981cd5ba91c2ae804e4f3,6685aa9113c938e83b4f1ea0,671be814f9e7ffc0d41d7b60,2024-10-25_15h07.10.350,WTP_SM_Choice,2022.2.1,Win32,59.88023952,,,,,,,,,,,,,,,,,,21,,,,,,space,1.1354,space,0.7032,0.01,1,1.0299,0,0,0,0,1,Do surveys online in the morning,Get Starbucks with my daughter after Pre-K,0.01,0.05,8.8,1,,,,
,,667981cd5ba91c2ae804e4f3,6685aa9113c938e83b4f1ea0,671be814f9e7ffc0d41d7b60,2024-10-25_15h07.10.350,WTP_SM_Choice,2022.2.1,Win32,59.88023952,,,,,,,,,,,,,,,,,,22,,,,,,,,,,0.02,1,0.9906,0,1,1,1,1,Read by the window on a rainy day,Browse halloween decorations with my daughter,0.02,0.05,4.4,1,,,,
,,667981cd5ba91c2ae804e4f3,6685aa9113c938e83b4f1ea0,671be814f9e7ffc0d41d7b60,2024-10-25_15h07.10.350,WTP_SM_Choice,2022.2.1,Win32,59.88023952,,,,,,,,,,,,,,,,,,23,,,,,,,,,,0.03,1,0.736,0,2,2,2,1,Watch movies with my husband after the kids have gone to bed ,Do surveys online in the morning,0.03,0.05,1.1,0,,,,
,,667981cd5ba91c2ae804e4f3,6685aa9113c938e83b4f1ea0,671be814f9e7ffc0d41d7b60,2024-10-25_15h07.10.350,WTP_SM_Choice,2022.2.1,Win32,59.88023952,,,,,,,,,,,,,,,,,,24,,,,,,,,,,0.04,1,1.0762,0,3,3,3,1,Watch movies with my husband after the kids have gone to bed ,Read by the window on a rainy day,0.04,0.05,4.4,0,,,,
,,667981cd5ba91c2ae804e4f3,6685aa9113c938e83b4f1ea0,671be814f9e7ffc0d41d7b60,2024-10-25_15h07.10.350,WTP_SM_Choice,2022.2.1,Win32,59.88023952,,,,,,,,,,,,,,,,,,25,,,,,,,,,,0.05,1,1.7124,0,4,4,4,1,Play video games when everyone is asleep,Watch movies with my husband after the kids have gone to bed ,0.05,0.05,3.3,1,,,,
,,667981cd5ba91c2ae804e4f3,6685aa9113c938e83b4f1ea0,671be814f9e7ffc0d41d7b60,2024-10-25_15h07.10.350,WTP_SM_Choice,2022.2.1,Win32,59.88023952,,,,,,,4,,8,0.56,5.44,,0,24,24,24,1,25,Charlie,Acc,Participant_Images/667981cd5ba91c2ae804e4f3/667981cd5ba91c2ae804e4f3_Images/667981cd5ba91c2ae804e4f3_Image_1.jpeg,liked,3.602308302,,,,,,,,,,,,,,,,,,,space,0.7447,,
,,667981cd5ba91c2ae804e4f3,6685aa9113c938e83b4f1ea0,671be814f9e7ffc0d41d7b60,2024-10-25_15h07.10.350,WTP_SM_Choice,2022.2.1,Win32,59.88023952,,,space,1.9613,space,0.3809,NAN,,NAN,0.56,5.44,,0,25,25,25,1,26,Sam,Rej,Participant_Images/667981cd5ba91c2ae804e4f3/667981cd5ba91c2ae804e4f3_Images/667981cd5ba91c2ae804e4f3_Image_12.jpeg,liked,4.106391878,,,,,,,,,,,,,,,,,,,,,,
,,667981cd5ba91c2ae804e4f3,6685aa9113c938e83b4f1ea0,671be814f9e7ffc0d41d7b60,2024-10-25_15h07.10.350,WTP_SM_Choice,2022.2.1,Win32,59.88023952,,,,,space,0.7841,NAN,,NAN,0.56,5.44,,0,26,26,26,1,27,Sam,Rej,Participant_Images/667981cd5ba91c2ae804e4f3/667981cd5ba91c2ae804e4f3_Images/667981cd5ba91c2ae804e4f3_Image_5.jpeg,liked,3.799433026,,,,,,,,,,,,,,,,,,,,,,
,,667981cd5ba91c2ae804e4f3,6685aa9113c938e83b4f1ea0,671be814f9e7ffc0d41d7b60,2024-10-25_15h07.10.350,WTP_SM_Choice,2022.2.1,Win32,59.88023952,,,,,space,1.4746,NAN,,NAN,0.56,5.44,,0,27,27,27,1,28,Sam,Rej,Participant_Images/667981cd5ba91c2ae804e4f3/667981cd5ba91c2ae804e4f3_Images/667981cd5ba91c2ae804e4f3_Image_3.jpeg,did not like,5.246980764,,,,,,,,,,,,,,,,,,,,,,
,,667981cd5ba91c2ae804e4f3,6685aa9113c938e83b4f1ea0,671be814f9e7ffc0d41d7b60,2024-10-25_15h07.10.350,WTP_SM_Choice,2022.2.1,Win32,59.88023952,,,,,space,0.5512,NAN,,NAN,0.56,5.44,,0,28,28,28,1,29,Sam,Rej,Participant_Images/667981cd5ba91c2ae804e4f3/667981cd5ba91c2ae804e4f3_Images/667981cd5ba91c2ae804e4f3_Image_11.jpeg,did not like,3.30081769,,,,,,,,,,,,,,,,,,,,,,
,,667981cd5ba91c2ae804e4f3,6685aa9113c938e83b4f1ea0,671be814f9e7ffc0d41d7b60,2024-10-25_15h07.10.350,WTP_SM_Choice,2022.2.1,Win32,59.88023952,,,,,,,,,,,,,,,,,,26,,,,,,space,1.0347,space,2.0176,0.01,1,1.7521,0,0,0,0,1,Work out just before lunch,Go to lunch with my husband and daughter on Fridays,0.01,0.01,4.4,1,,,,
,,667981cd5ba91c2ae804e4f3,6685aa9113c938e83b4f1ea0,671be814f9e7ffc0d41d7b60,2024-10-25_15h07.10.350,WTP_SM_Choice,2022.2.1,Win32,59.88023952,,,,,,,,,,,,,,,,,,27,,,,,,,,,,0.01,2,2.2262,0,1,1,1,1,Reorganize my makeup drawers on sundays,Go to the theatre with my best friend,0.02,0.01,3.3,1,,,,
,,667981cd5ba91c2ae804e4f3,6685aa9113c938e83b4f1ea0,671be814f9e7ffc0d41d7b60,2024-10-25_15h07.10.350,WTP_SM_Choice,2022.2.1,Win32,59.88023952,,,,,,,,,,,,,,,,,,28,,,,,,,,,,0.01,2,1.161,0,2,2,2,1,Attend fall festivals with my kids and husband,Read by the window on a rainy day,0.03,0.01,3.3,0,,,,
,,667981cd5ba91c2ae804e4f3,6685aa9113c938e83b4f1ea0,671be814f9e7ffc0d41d7b60,2024-10-25_15h07.10.350,WTP_SM_Choice,2022.2.1,Win32,59.88023952,,,,,,,,,,,,,,,,,,29,,,,,,,,,,0.01,2,0.9632,0,3,3,3,1,Write by the fireside late at night,Watch movies with my husband after the kids have gone to bed ,0.04,0.01,4.4,1,,,,
,,667981cd5ba91c2ae804e4f3,6685aa9113c938e83b4f1ea0,671be814f9e7ffc0d41d7b60,2024-10-25_15h07.10.350,WTP_SM_Choice,2022.2.1,Win32,59.88023952,,,,,,,,,,,,,,,,,,30,,,,,,,,,,0.01,2,0.6738,0,4,4,4,1,Read by the window on a rainy day,shop with my mom,0.05,0.01,8.8,1,,,,
,,667981cd5ba91c2ae804e4f3,6685aa9113c938e83b4f1ea0,671be814f9e7ffc0d41d7b60,2024-10-25_15h07.10.350,WTP_SM_Choice,2022.2.1,Win32,59.88023952,,,,,,,NAN,,NAN,0.61,5.39,,0,29,29,29,1,30,Sam,Rej,Participant_Images/667981cd5ba91c2ae804e4f3/667981cd5ba91c2ae804e4f3_Images/667981cd5ba91c2ae804e4f3_Image_25.jpeg,did not like,1.661473164,,,,,,,,,,,,,,,,,,,,,,
,,667981cd5ba91c2ae804e4f3,6685aa9113c938e83b4f1ea0,671be814f9e7ffc0d41d7b60,2024-10-25_15h07.10.350,WTP_SM_Choice,2022.2.1,Win32,59.88023952,,,,,space,0.3214,NAN,,NAN,0.61,5.39,,0,30,30,30,1,31,Sam,Rej,Participant_Images/667981cd5ba91c2ae804e4f3/667981cd5ba91c2ae804e4f3_Images/667981cd5ba91c2ae804e4f3_Image_17.jpeg,liked,3.613205605,,,,,,,,,,,,,,,,,,,,,,
,,667981cd5ba91c2ae804e4f3,6685aa9113c938e83b4f1ea0,671be814f9e7ffc0d41d7b60,2024-10-25_15h07.10.350,WTP_SM_Choice,2022.2.1,Win32,59.88023952,,,,,space,0.5404,NAN,,NAN,0.61,5.39,,0,31,31,31,1,32,Sam,Rej,Participant_Images/667981cd5ba91c2ae804e4f3/667981cd5ba91c2ae804e4f3_Images/667981cd5ba91c2ae804e4f3_Image_4.jpeg,did not like,4.988446431,,,,,,,,,,,,,,,,,,,,,,
,,667981cd5ba91c2ae804e4f3,6685aa9113c938e83b4f1ea0,671be814f9e7ffc0d41d7b60,2024-10-25_15h07.10.350,WTP_SM_Choice,2022.2.1,Win32,59.88023952,,,,,space,3.0358,NAN,,NAN,0.61,5.39,,0,32,32,32,1,33,Sam,Rej,Participant_Images/667981cd5ba91c2ae804e4f3/667981cd5ba91c2ae804e4f3_Images/667981cd5ba91c2ae804e4f3_Image_22.jpeg,did not like,3.470791822,,,,,,,,,,,,,,,,,,,,,,
,,667981cd5ba91c2ae804e4f3,6685aa9113c938e83b4f1ea0,671be814f9e7ffc0d41d7b60,2024-10-25_15h07.10.350,WTP_SM_Choice,2022.2.1,Win32,59.88023952,,,,,space,0.9722,NAN,,NAN,0.61,5.39,,0,33,33,33,1,34,Sam,Rej,Participant_Images/667981cd5ba91c2ae804e4f3/667981cd5ba91c2ae804e4f3_Images/667981cd5ba91c2ae804e4f3_Image_8.jpeg,liked,3.820572462,,,,,,,,,,,,,,,,,,,,,,
,,667981cd5ba91c2ae804e4f3,6685aa9113c938e83b4f1ea0,671be814f9e7ffc0d41d7b60,2024-10-25_15h07.10.350,WTP_SM_Choice,2022.2.1,Win32,59.88023952,,,,,,,,,,,,,,,,,,31,,,,,,space,1.5007,space,1.0499,0.01,1,1.2057,0,0,0,0,1,Write by the fireside late at night,Go to the theatre with my best friend,0.01,0.02,8.8,1,,,,
,,667981cd5ba91c2ae804e4f3,6685aa9113c938e83b4f1ea0,671be814f9e7ffc0d41d7b60,2024-10-25_15h07.10.350,WTP_SM_Choice,2022.2.1,Win32,59.88023952,,,,,,,,,,,,,,,,,,32,,,,,,,,,,0.02,1,2.0007,0,1,1,1,1,Read by the window on a rainy day,Travel on the weekend with my family,0.02,0.02,1.1,1,,,,
,,667981cd5ba91c2ae804e4f3,6685aa9113c938e83b4f1ea0,671be814f9e7ffc0d41d7b60,2024-10-25_15h07.10.350,WTP_SM_Choice,2022.2.1,Win32,59.88023952,,,,,,,,,,,,,,,,,,33,,,,,,,,,,0.02,2,1.8857,0,2,2,2,1,Travel on the weekend with my family,Write by the fireside late at night,0.03,0.02,4.4,0,,,,
,,667981cd5ba91c2ae804e4f3,6685aa9113c938e83b4f1ea0,671be814f9e7ffc0d41d7b60,2024-10-25_15h07.10.350,WTP_SM_Choice,2022.2.1,Win32,59.88023952,,,,,,,,,,,,,,,,,,34,,,,,,,,,,0.02,2,2.8249,0,3,3,3,1,Reorganize my makeup drawers on sundays,Travel on the weekend with my family,0.04,0.02,3.3,1,,,,
,,667981cd5ba91c2ae804e4f3,6685aa9113c938e83b4f1ea0,671be814f9e7ffc0d41d7b60,2024-10-25_15h07.10.350,WTP_SM_Choice,2022.2.1,Win32,59.88023952,,,,,,,,,,,,,,,,,,35,,,,,,,,,,0.02,2,1.395,0,4,4,4,1,Attend concerts with my friends,Take naps when my kids are at school,0.05,0.02,1.1,0,,,,
,,667981cd5ba91c2ae804e4f3,6685aa9113c938e83b4f1ea0,671be814f9e7ffc0d41d7b60,2024-10-25_15h07.10.350,WTP_SM_Choice,2022.2.1,Win32,59.88023952,,,,,,,NAN,,NAN,0.7,5.3,,0,34,34,34,1,35,Sam,Rej,Participant_Images/667981cd5ba91c2ae804e4f3/667981cd5ba91c2ae804e4f3_Images/667981cd5ba91c2ae804e4f3_Image_2.jpeg,did not like,2.455989137,,,,,,,,,,,,,,,,,,,,,,
,,667981cd5ba91c2ae804e4f3,6685aa9113c938e83b4f1ea0,671be814f9e7ffc0d41d7b60,2024-10-25_15h07.10.350,WTP_SM_Choice,2022.2.1,Win32,59.88023952,,,,,space,1.7836,NAN,,NAN,0.7,5.3,,0,35,35,35,1,36,Sam,Rej,Participant_Images/667981cd5ba91c2ae804e4f3/667981cd5ba91c2ae804e4f3_Images/667981cd5ba91c2ae804e4f3_Image_16.jpeg,liked,3.79605092,,,,,,,,,,,,,,,,,,,,,,
,,667981cd5ba91c2ae804e4f3,6685aa9113c938e83b4f1ea0,671be814f9e7ffc0d41d7b60,2024-10-25_15h07.10.350,WTP_SM_Choice,2022.2.1,Win32,59.88023952,,,,,space,2.618,NAN,,NAN,0.7,5.3,,0,36,36,36,1,37,Sam,Rej,Participant_Images/667981cd5ba91c2ae804e4f3/667981cd5ba91c2ae804e4f3_Images/667981cd5ba91c2ae804e4f3_Image_13.jpeg,liked,3.562416326,,,,,,,,,,,,,,,,,,,,,,
,,667981cd5ba91c2ae804e4f3,6685aa9113c938e83b4f1ea0,671be814f9e7ffc0d41d7b60,2024-10-25_15h07.10.350,WTP_SM_Choice,2022.2.1,Win32,59.88023952,,,,,space,2.21,NAN,,NAN,0.7,5.3,,0,37,37,37,1,38,Sam,Rej,Participant_Images/667981cd5ba91c2ae804e4f3/667981cd5ba91c2ae804e4f3_Images/667981cd5ba91c2ae804e4f3_Image_9.jpeg,did not like,2.843822497,,,,,,,,,,,,,,,,,,,,,,
,,667981cd5ba91c2ae804e4f3,6685aa9113c938e83b4f1ea0,671be814f9e7ffc0d41d7b60,2024-10-25_15h07.10.350,WTP_SM_Choice,2022.2.1,Win32,59.88023952,,,,,space,0.9036,NAN,,NAN,0.7,5.3,,0,38,38,38,1,39,Sam,Rej,Participant_Images/667981cd5ba91c2ae804e4f3/667981cd5ba91c2ae804e4f3_Images/667981cd5ba91c2ae804e4f3_Image_24.jpeg,did not like,3.546495948,,,,,,,,,,,,,,,,,,,,,,
,,667981cd5ba91c2ae804e4f3,6685aa9113c938e83b4f1ea0,671be814f9e7ffc0d41d7b60,2024-10-25_15h07.10.350,WTP_SM_Choice,2022.2.1,Win32,59.88023952,,,,,,,,,,,,,,,,,,36,,,,,,space,1.1514,space,0.6331,0.01,1,0.9252,0,0,0,0,1,Browse halloween decorations with my daughter,Do surveys online in the morning,0.01,0.03,3.3,0,,,,
,,667981cd5ba91c2ae804e4f3,6685aa9113c938e83b4f1ea0,671be814f9e7ffc0d41d7b60,2024-10-25_15h07.10.350,WTP_SM_Choice,2022.2.1,Win32,59.88023952,,,,,,,,,,,,,,,,,,37,,,,,,,,,,0.02,1,0.8914,0,1,1,1,1,Attend fall festivals with my kids and husband,Take naps when my kids are at school,0.02,0.03,1.1,0,,,,
,,667981cd5ba91c2ae804e4f3,6685aa9113c938e83b4f1ea0,671be814f9e7ffc0d41d7b60,2024-10-25_15h07.10.350,WTP_SM_Choice,2022.2.1,Win32,59.88023952,,,,,,,,,,,,,,,,,,38,,,,,,,,,,0.03,1,1.71,0,2,2,2,1,Get coffee with friends in the mornings,Play video games when everyone is asleep,0.03,0.03,1.1,0,,,,
,,667981cd5ba91c2ae804e4f3,6685aa9113c938e83b4f1ea0,671be814f9e7ffc0d41d7b60,2024-10-25_15h07.10.350,WTP_SM_Choice,2022.2.1,Win32,59.88023952,,,,,,,,,,,,,,,,,,39,,,,,,,,,,0.03,2,1.126,0,3,3,3,1,Reorganize my makeup drawers on sundays,Go to lunch with my husband and daughter on Fridays,0.04,0.03,3.3,1,,,,
,,667981cd5ba91c2ae804e4f3,6685aa9113c938e83b4f1ea0,671be814f9e7ffc0d41d7b60,2024-10-25_15h07.10.350,WTP_SM_Choice,2022.2.1,Win32,59.88023952,,,,,,,,,,,,,,,,,,40,,,,,,,,,,0.03,2,1.2095,0,4,4,4,1,Get coffee with friends in the mornings,Do yoga out on the porch on a sunny day,0.05,0.03,4.4,0,,,,
,,667981cd5ba91c2ae804e4f3,6685aa9113c938e83b4f1ea0,671be814f9e7ffc0d41d7b60,2024-10-25_15h07.10.350,WTP_SM_Choice,2022.2.1,Win32,59.88023952,,,,,,,NAN,,NAN,0.82,5.18,,0,39,39,39,1,40,Sam,Rej,Participant_Images/667981cd5ba91c2ae804e4f3/667981cd5ba91c2ae804e4f3_Images/667981cd5ba91c2ae804e4f3_Image_23.jpeg,did not like,1.672012706,,,,,,,,,,,,,,,,,,,,,,
,,667981cd5ba91c2ae804e4f3,6685aa9113c938e83b4f1ea0,671be814f9e7ffc0d41d7b60,2024-10-25_15h07.10.350,WTP_SM_Choice,2022.2.1,Win32,59.88023952,,,,,space,1.1902,NAN,,NAN,0.82,5.18,,0,40,40,40,1,41,Sam,Rej,Participant_Images/667981cd5ba91c2ae804e4f3/667981cd5ba91c2ae804e4f3_Images/667981cd5ba91c2ae804e4f3_Image_10.jpeg,liked,4.942172136,,,,,,,,,,,,,,,,,,,,,,
,,667981cd5ba91c2ae804e4f3,6685aa9113c938e83b4f1ea0,671be814f9e7ffc0d41d7b60,2024-10-25_15h07.10.350,WTP_SM_Choice,2022.2.1,Win32,59.88023952,,,,,space,0.9601,NAN,,NAN,0.82,5.18,,0,41,41,41,1,42,Sam,Rej,Participant_Images/667981cd5ba91c2ae804e4f3/667981cd5ba91c2ae804e4f3_Images/667981cd5ba91c2ae804e4f3_Image_18.jpeg,did not like,2.50187214,,,,,,,,,,,,,,,,,,,,,,
,,667981cd5ba91c2ae804e4f3,6685aa9113c938e83b4f1ea0,671be814f9e7ffc0d41d7b60,2024-10-25_15h07.10.350,WTP_SM_Choice,2022.2.1,Win32,59.88023952,,,,,space,0.7067,NAN,,NAN,0.82,5.18,,0,42,42,42,1,43,Sam,Rej,Participant_Images/667981cd5ba91c2ae804e4f3/667981cd5ba91c2ae804e4f3_Images/667981cd5ba91c2ae804e4f3_Image_21.jpeg,did not like,2.071164779,,,,,,,,,,,,,,,,,,,,,,
,,667981cd5ba91c2ae804e4f3,6685aa9113c938e83b4f1ea0,671be814f9e7ffc0d41d7b60,2024-10-25_15h07.10.350,WTP_SM_Choice,2022.2.1,Win32,59.88023952,,,,,space,0.7073,NAN,,NAN,0.82,5.18,,0,43,43,43,1,44,Sam,Rej,Participant_Images/667981cd5ba91c2ae804e4f3/667981cd5ba91c2ae804e4f3_Images/667981cd5ba91c2ae804e4f3_Image_20.jpeg,did not like,5.336503566,,,,,,,,,,,,,,,,,,,,,,
,,667981cd5ba91c2ae804e4f3,6685aa9113c938e83b4f1ea0,671be814f9e7ffc0d41d7b60,2024-10-25_15h07.10.350,WTP_SM_Choice,2022.2.1,Win32,59.88023952,,,,,,,,,,,,,,,,,,41,,,,,,space,0.7994,space,0.3998,0.01,1,0.7848,0,0,0,0,1,Attend fall festivals with my kids and husband,Play video games when everyone is asleep,0.01,0.04,1.1,0,,,,
,,667981cd5ba91c2ae804e4f3,6685aa9113c938e83b4f1ea0,671be814f9e7ffc0d41d7b60,2024-10-25_15h07.10.350,WTP_SM_Choice,2022.2.1,Win32,59.88023952,,,,,,,,,,,,,,,,,,42,,,,,,,,,,0.02,1,0.8913,0,1,1,1,1,Attend concerts with my friends,Go to target to buy self care items on fridays,0.02,0.04,3.3,0,,,,
,,667981cd5ba91c2ae804e4f3,6685aa9113c938e83b4f1ea0,671be814f9e7ffc0d41d7b60,2024-10-25_15h07.10.350,WTP_SM_Choice,2022.2.1,Win32,59.88023952,,,,,,,,,,,,,,,,,,43,,,,,,,,,,0.03,1,0.9404,0,2,2,2,1,Go to lunch with my husband and daughter on Fridays,Play video games when everyone is asleep,0.03,0.04,1.1,0,,,,
,,667981cd5ba91c2ae804e4f3,6685aa9113c938e83b4f1ea0,671be814f9e7ffc0d41d7b60,2024-10-25_15h07.10.350,WTP_SM_Choice,2022.2.1,Win32,59.88023952,,,,,,,,,,,,,,,,,,44,,,,,,,,,,0.04,1,3.1218,0,3,3,3,1,Go to target to buy self care items on fridays,Get Starbucks with my daughter after Pre-K,0.04,0.04,1.1,1,,,,
,,667981cd5ba91c2ae804e4f3,6685aa9113c938e83b4f1ea0,671be814f9e7ffc0d41d7b60,2024-10-25_15h07.10.350,WTP_SM_Choice,2022.2.1,Win32,59.88023952,,,,,,,,,,,,,,,,,,45,,,,,,,,,,0.04,2,1.0905,0,4,4,4,1,Play video games when everyone is asleep,Go to the theatre with my best friend,0.05,0.04,4.4,1,,,,
,,667981cd5ba91c2ae804e4f3,6685aa9113c938e83b4f1ea0,671be814f9e7ffc0d41d7b60,2024-10-25_15h07.10.350,WTP_SM_Choice,2022.2.1,Win32,59.88023952,,,,,,,NAN,,NAN,0.96,5.04,,0,44,44,44,1,45,Sam,Rej,Participant_Images/667981cd5ba91c2ae804e4f3/667981cd5ba91c2ae804e4f3_Images/667981cd5ba91c2ae804e4f3_Image_15.jpeg,did not like,2.642157193,,,,,,,,,,,,,,,,,,,,,,
,,667981cd5ba91c2ae804e4f3,6685aa9113c938e83b4f1ea0,671be814f9e7ffc0d41d7b60,2024-10-25_15h07.10.350,WTP_SM_Choice,2022.2.1,Win32,59.88023952,,,,,space,2.44,NAN,,NAN,0.96,5.04,,0,45,45,45,1,46,Sam,Rej,Participant_Images/667981cd5ba91c2ae804e4f3/667981cd5ba91c2ae804e4f3_Images/667981cd5ba91c2ae804e4f3_Image_19.jpeg,did not like,4.456234322,,,,,,,,,,,,,,,,,,,,,,
,,667981cd5ba91c2ae804e4f3,6685aa9113c938e83b4f1ea0,671be814f9e7ffc0d41d7b60,2024-10-25_15h07.10.350,WTP_SM_Choice,2022.2.1,Win32,59.88023952,,,,,space,3.8648,NAN,,NAN,0.96,5.04,,0,46,46,46,1,47,Sam,Rej,Participant_Images/667981cd5ba91c2ae804e4f3/667981cd5ba91c2ae804e4f3_Images/667981cd5ba91c2ae804e4f3_Image_7.jpeg,did not like,4.438512181,,,,,,,,,,,,,,,,,,,,,,
,,667981cd5ba91c2ae804e4f3,6685aa9113c938e83b4f1ea0,671be814f9e7ffc0d41d7b60,2024-10-25_15h07.10.350,WTP_SM_Choice,2022.2.1,Win32,59.88023952,,,,,space,4.0853,NAN,,NAN,0.96,5.04,,0,47,47,47,1,48,Sam,Rej,Participant_Images/667981cd5ba91c2ae804e4f3/667981cd5ba91c2ae804e4f3_Images/667981cd5ba91c2ae804e4f3_Image_6.jpeg,did not like,2.682944783,,,,,,,,,,,,,,,,,,,,,,
,,667981cd5ba91c2ae804e4f3,6685aa9113c938e83b4f1ea0,671be814f9e7ffc0d41d7b60,2024-10-25_15h07.10.350,WTP_SM_Choice,2022.2.1,Win32,59.88023952,,,,,space,0.7839,NAN,,NAN,0.96,5.04,,0,48,48,48,1,49,Sam,Rej,Participant_Images/667981cd5ba91c2ae804e4f3/667981cd5ba91c2ae804e4f3_Images/667981cd5ba91c2ae804e4f3_Image_1.jpeg,did not like,4.51984296,,,,,,,,,,,,,,,,,,,,,,
,,667981cd5ba91c2ae804e4f3,6685aa9113c938e83b4f1ea0,671be814f9e7ffc0d41d7b60,2024-10-25_15h07.10.350,WTP_SM_Choice,2022.2.1,Win32,59.88023952,,,,,,,,,,,,,,,,,,46,,,,,,space,2.735,space,0.7677,0.01,1,0.7619,0,0,0,0,1,Attend concerts with my friends,Play video games when everyone is asleep,0.01,0.05,8.8,0,,,,
,,667981cd5ba91c2ae804e4f3,6685aa9113c938e83b4f1ea0,671be814f9e7ffc0d41d7b60,2024-10-25_15h07.10.350,WTP_SM_Choice,2022.2.1,Win32,59.88023952,,,,,,,,,,,,,,,,,,47,,,,,,,,,,0.02,1,0.977,0,1,1,1,1,Do surveys online in the morning,Attend fall festivals with my kids and husband,0.02,0.05,1.1,1,,,,
,,667981cd5ba91c2ae804e4f3,6685aa9113c938e83b4f1ea0,671be814f9e7ffc0d41d7b60,2024-10-25_15h07.10.350,WTP_SM_Choice,2022.2.1,Win32,59.88023952,,,,,,,,,,,,,,,,,,48,,,,,,,,,,0.03,1,1.588,0,2,2,2,1,Do surveys online in the morning,Go to lunch with my husband and daughter on Fridays,0.03,0.05,4.4,1,,,,
,,667981cd5ba91c2ae804e4f3,6685aa9113c938e83b4f1ea0,671be814f9e7ffc0d41d7b60,2024-10-25_15h07.10.350,WTP_SM_Choice,2022.2.1,Win32,59.88023952,,,,,,,,,,,,,,,,,,49,,,,,,,,,,0.04,1,1.8657,0,3,3,3,1,Do surveys online in the morning,Get coffee with friends in the mornings,0.04,0.05,3.3,1,,,,
,,667981cd5ba91c2ae804e4f3,6685aa9113c938e83b4f1ea0,671be814f9e7ffc0d41d7b60,2024-10-25_15h07.10.350,WTP_SM_Choice,2022.2.1,Win32,59.88023952,,,,,,,,,,,,,,,,,,50,,,,,,,,,,0.05,2,1.5945,0,4,4,4,1,Watch movies with my husband after the kids have gone to bed ,Do my makeup or hair,0.05,0.05,1.1,0,,,,
,,667981cd5ba91c2ae804e4f3,6685aa9113c938e83b4f1ea0,671be814f9e7ffc0d41d7b60,2024-10-25_15h07.10.350,WTP_SM_Choice,2022.2.1,Win32,59.88023952,,,,,,,1,,5,1.11,4.89,,0,49,49,49,1,50,Sam,Rej,Participant_Images/667981cd5ba91c2ae804e4f3/667981cd5ba91c2ae804e4f3_Images/667981cd5ba91c2ae804e4f3_Image_14.jpeg,did not like,3.195382774,,,,,,,,,,,,,,,,,,,space,0.7906,,
,,667981cd5ba91c2ae804e4f3,6685aa9113c938e83b4f1ea0,671be814f9e7ffc0d41d7b60,2024-10-25_15h07.10.350,WTP_SM_Choice,2022.2.1,Win32,59.88023952,,,space,3.7132,space,2.8176,NAN,,NAN,1.11,4.89,,0,50,50,50,1,51,Riley,Rej,Participant_Images/667981cd5ba91c2ae804e4f3/667981cd5ba91c2ae804e4f3_Images/667981cd5ba91c2ae804e4f3_Image_23.jpeg,did not like,1.779333479,,,,,,,,,,,,,,,,,,,,,,
,,667981cd5ba91c2ae804e4f3,6685aa9113c938e83b4f1ea0,671be814f9e7ffc0d41d7b60,2024-10-25_15h07.10.350,WTP_SM_Choice,2022.2.1,Win32,59.88023952,,,,,space,0.6392,NAN,,NAN,1.11,4.89,,0,51,51,51,1,52,Riley,Rej,Participant_Images/667981cd5ba91c2ae804e4f3/667981cd5ba91c2ae804e4f3_Images/667981cd5ba91c2ae804e4f3_Image_6.jpeg,did not like,4.312468682,,,,,,,,,,,,,,,,,,,,,,
,,667981cd5ba91c2ae804e4f3,6685aa9113c938e83b4f1ea0,671be814f9e7ffc0d41d7b60,2024-10-25_15h07.10.350,WTP_SM_Choice,2022.2.1,Win32,59.88023952,,,,,space,0.6174,NAN,,NAN,1.11,4.89,,0,52,52,52,1,53,Riley,Rej,Participant_Images/667981cd5ba91c2ae804e4f3/667981cd5ba91c2ae804e4f3_Images/667981cd5ba91c2ae804e4f3_Image_22.jpeg,did not like,4.940433059,,,,,,,,,,,,,,,,,,,,,,
,,667981cd5ba91c2ae804e4f3,6685aa9113c938e83b4f1ea0,671be814f9e7ffc0d41d7b60,2024-10-25_15h07.10.350,WTP_SM_Choice,2022.2.1,Win32,59.88023952,,,,,space,0.6168,NAN,,NAN,1.11,4.89,,0,53,53,53,1,54,Riley,Rej,Participant_Images/667981cd5ba91c2ae804e4f3/667981cd5ba91c2ae804e4f3_Images/667981cd5ba91c2ae804e4f3_Image_25.jpeg,did not like,2.7105123,,,,,,,,,,,,,,,,,,,,,,
,,667981cd5ba91c2ae804e4f3,6685aa9113c938e83b4f1ea0,671be814f9e7ffc0d41d7b60,2024-10-25_15h07.10.350,WTP_SM_Choice,2022.2.1,Win32,59.88023952,,,,,,,,,,,,,,,,,,51,,,,,,space,1.2236,space,0.6536,0.01,1,1.2039,0,0,0,0,1,Go to target to buy self care items on fridays,Go to lunch with my husband and daughter on Fridays,0.01,0.01,1.1,1,,,,
,,667981cd5ba91c2ae804e4f3,6685aa9113c938e83b4f1ea0,671be814f9e7ffc0d41d7b60,2024-10-25_15h07.10.350,WTP_SM_Choice,2022.2.1,Win32,59.88023952,,,,,,,,,,,,,,,,,,52,,,,,,,,,,0.01,2,0.9604,0,1,1,1,1,shop with my mom,Do yoga out on the porch on a sunny day,0.02,0.01,3.3,0,,,,
,,667981cd5ba91c2ae804e4f3,6685aa9113c938e83b4f1ea0,671be814f9e7ffc0d41d7b60,2024-10-25_15h07.10.350,WTP_SM_Choice,2022.2.1,Win32,59.88023952,,,,,,,,,,,,,,,,,,53,,,,,,,,,,0.01,2,0.8443,0,2,2,2,1,Do surveys online in the morning,Go to the theatre with my best friend,0.03,0.01,1.1,1,,,,
,,667981cd5ba91c2ae804e4f3,6685aa9113c938e83b4f1ea0,671be814f9e7ffc0d41d7b60,2024-10-25_15h07.10.350,WTP_SM_Choice,2022.2.1,Win32,59.88023952,,,,,,,,,,,,,,,,,,54,,,,,,,,,,0.01,2,1.6714,0,3,3,3,1,Attend concerts with my friends,Do my makeup or hair,0.04,0.01,4.4,0,,,,
,,667981cd5ba91c2ae804e4f3,6685aa9113c938e83b4f1ea0,671be814f9e7ffc0d41d7b60,2024-10-25_15h07.10.350,WTP_SM_Choice,2022.2.1,Win32,59.88023952,,,,,,,,,,,,,,,,,,55,,,,,,,,,,0.01,2,0.8302,0,4,4,4,1,Watch movies with my husband after the kids have gone to bed ,Do yoga out on the porch on a sunny day,0.05,0.01,1.1,0,,,,
,,667981cd5ba91c2ae804e4f3,6685aa9113c938e83b4f1ea0,671be814f9e7ffc0d41d7b60,2024-10-25_15h07.10.350,WTP_SM_Choice,2022.2.1,Win32,59.88023952,,,,,,,NAN,,NAN,1.16,4.84,,0,54,54,54,1,55,Riley,Rej,Participant_Images/667981cd5ba91c2ae804e4f3/667981cd5ba91c2ae804e4f3_Images/667981cd5ba91c2ae804e4f3_Image_11.jpeg,liked,3.602308302,,,,,,,,,,,,,,,,,,,,,,
,,667981cd5ba91c2ae804e4f3,6685aa9113c938e83b4f1ea0,671be814f9e7ffc0d41d7b60,2024-10-25_15h07.10.350,WTP_SM_Choice,2022.2.1,Win32,59.88023952,,,,,space,0.9611,NAN,,NAN,1.16,4.84,,0,55,55,55,1,56,Riley,Rej,Participant_Images/667981cd5ba91c2ae804e4f3/667981cd5ba91c2ae804e4f3_Images/667981cd5ba91c2ae804e4f3_Image_13.jpeg,did not like,4.106391878,,,,,,,,,,,,,,,,,,,,,,
,,667981cd5ba91c2ae804e4f3,6685aa9113c938e83b4f1ea0,671be814f9e7ffc0d41d7b60,2024-10-25_15h07.10.350,WTP_SM_Choice,2022.2.1,Win32,59.88023952,,,,,space,1.2672,NAN,,NAN,1.16,4.84,,0,56,56,56,1,57,Riley,Rej,Participant_Images/667981cd5ba91c2ae804e4f3/667981cd5ba91c2ae804e4f3_Images/667981cd5ba91c2ae804e4f3_Image_24.jpeg,did not like,3.799433026,,,,,,,,,,,,,,,,,,,,,,
,,667981cd5ba91c2ae804e4f3,6685aa9113c938e83b4f1ea0,671be814f9e7ffc0d41d7b60,2024-10-25_15h07.10.350,WTP_SM_Choice,2022.2.1,Win32,59.88023952,,,,,space,2.2223,NAN,,NAN,1.16,4.84,,0,57,57,57,1,58,Riley,Rej,Participant_Images/667981cd5ba91c2ae804e4f3/667981cd5ba91c2ae804e4f3_Images/667981cd5ba91c2ae804e4f3_Image_14.jpeg,liked,5.246980764,,,,,,,,,,,,,,,,,,,,,,
,,667981cd5ba91c2ae804e4f3,6685aa9113c938e83b4f1ea0,671be814f9e7ffc0d41d7b60,2024-10-25_15h07.10.350,WTP_SM_Choice,2022.2.1,Win32,59.88023952,,,,,space,1.5203,NAN,,NAN,1.16,4.84,,0,58,58,58,1,59,Riley,Rej,Participant_Images/667981cd5ba91c2ae804e4f3/667981cd5ba91c2ae804e4f3_Images/667981cd5ba91c2ae804e4f3_Image_1.jpeg,did not like,3.30081769,,,,,,,,,,,,,,,,,,,,,,
,,667981cd5ba91c2ae804e4f3,6685aa9113c938e83b4f1ea0,671be814f9e7ffc0d41d7b60,2024-10-25_15h07.10.350,WTP_SM_Choice,2022.2.1,Win32,59.88023952,,,,,,,,,,,,,,,,,,56,,,,,,space,352.5154,space,5.1249,0.01,1,1.3559,0,0,0,0,1,Go to target to buy self care items on fridays,Browse halloween decorations with my daughter,0.01,0.02,8.8,1,,,,
,,667981cd5ba91c2ae804e4f3,6685aa9113c938e83b4f1ea0,671be814f9e7ffc0d41d7b60,2024-10-25_15h07.10.350,WTP_SM_Choice,2022.2.1,Win32,59.88023952,,,,,,,,,,,,,,,,,,57,,,,,,,,,,0.02,1,1.8087,0,1,1,1,1,Do my makeup or hair,shop with my mom,0.02,0.02,4.4,1,,,,
,,667981cd5ba91c2ae804e4f3,6685aa9113c938e83b4f1ea0,671be814f9e7ffc0d41d7b60,2024-10-25_15h07.10.350,WTP_SM_Choice,2022.2.1,Win32,59.88023952,,,,,,,,,,,,,,,,,,58,,,,,,,,,,0.02,2,0.8682,0,2,2,2,1,Go to lunch with my husband and daughter on Fridays,Read by the window on a rainy day,0.03,0.02,4.4,0,,,,
,,667981cd5ba91c2ae804e4f3,6685aa9113c938e83b4f1ea0,671be814f9e7ffc0d41d7b60,2024-10-25_15h07.10.350,WTP_SM_Choice,2022.2.1,Win32,59.88023952,,,,,,,,,,,,,,,,,,59,,,,,,,,,,0.02,2,0.9516,0,3,3,3,1,Attend concerts with my friends,Do surveys online in the morning,0.04,0.02,4.4,0,,,,
,,667981cd5ba91c2ae804e4f3,6685aa9113c938e83b4f1ea0,671be814f9e7ffc0d41d7b60,2024-10-25_15h07.10.350,WTP_SM_Choice,2022.2.1,Win32,59.88023952,,,,,,,,,,,,,,,,,,60,,,,,,,,,,0.02,2,2.026,0,4,4,4,1,Get coffee with friends in the mornings,Do my makeup or hair,0.05,0.02,1.1,0,,,,
,,667981cd5ba91c2ae804e4f3,6685aa9113c938e83b4f1ea0,671be814f9e7ffc0d41d7b60,2024-10-25_15h07.10.350,WTP_SM_Choice,2022.2.1,Win32,59.88023952,,,,,,,NAN,,NAN,1.25,4.75,,0,59,59,59,1,60,Riley,Rej,Participant_Images/667981cd5ba91c2ae804e4f3/667981cd5ba91c2ae804e4f3_Images/667981cd5ba91c2ae804e4f3_Image_10.jpeg,did not like,1.661473164,,,,,,,,,,,,,,,,,,,,,,
,,667981cd5ba91c2ae804e4f3,6685aa9113c938e83b4f1ea0,671be814f9e7ffc0d41d7b60,2024-10-25_15h07.10.350,WTP_SM_Choice,2022.2.1,Win32,59.88023952,,,,,space,2.0513,NAN,,NAN,1.25,4.75,,0,60,60,60,1,61,Riley,Rej,Participant_Images/667981cd5ba91c2ae804e4f3/667981cd5ba91c2ae804e4f3_Images/667981cd5ba91c2ae804e4f3_Image_5.jpeg,did not like,3.613205605,,,,,,,,,,,,,,,,,,,,,,
,,667981cd5ba91c2ae804e4f3,6685aa9113c938e83b4f1ea0,671be814f9e7ffc0d41d7b60,2024-10-25_15h07.10.350,WTP_SM_Choice,2022.2.1,Win32,59.88023952,,,,,space,5.5781,NAN,,NAN,1.25,4.75,,0,61,61,61,1,62,Riley,Rej,Participant_Images/667981cd5ba91c2ae804e4f3/667981cd5ba91c2ae804e4f3_Images/667981cd5ba91c2ae804e4f3_Image_9.jpeg,liked,4.988446431,,,,,,,,,,,,,,,,,,,,,,
,,667981cd5ba91c2ae804e4f3,6685aa9113c938e83b4f1ea0,671be814f9e7ffc0d41d7b60,2024-10-25_15h07.10.350,WTP_SM_Choice,2022.2.1,Win32,59.88023952,,,,,space,5.4359,NAN,,NAN,1.25,4.75,,0,62,62,62,1,63,Riley,Rej,Participant_Images/667981cd5ba91c2ae804e4f3/667981cd5ba91c2ae804e4f3_Images/667981cd5ba91c2ae804e4f3_Image_4.jpeg,liked,3.470791822,,,,,,,,,,,,,,,,,,,,,,
,,667981cd5ba91c2ae804e4f3,6685aa9113c938e83b4f1ea0,671be814f9e7ffc0d41d7b60,2024-10-25_15h07.10.350,WTP_SM_Choice,2022.2.1,Win32,59.88023952,,,,,space,4.642,NAN,,NAN,1.25,4.75,,0,63,63,63,1,64,Riley,Rej,Participant_Images/667981cd5ba91c2ae804e4f3/667981cd5ba91c2ae804e4f3_Images/667981cd5ba91c2ae804e4f3_Image_20.jpeg,liked,3.820572462,,,,,,,,,,,,,,,,,,,,,,
,,667981cd5ba91c2ae804e4f3,6685aa9113c938e83b4f1ea0,671be814f9e7ffc0d41d7b60,2024-10-25_15h07.10.350,WTP_SM_Choice,2022.2.1,Win32,59.88023952,,,,,,,,,,,,,,,,,,61,,,,,,space,16.7444,space,1.2001,0.01,1,0.7425,0,0,0,0,1,Go to the theatre with my best friend,Go to target to buy self care items on fridays,0.01,0.03,3.3,0,,,,
,,667981cd5ba91c2ae804e4f3,6685aa9113c938e83b4f1ea0,671be814f9e7ffc0d41d7b60,2024-10-25_15h07.10.350,WTP_SM_Choice,2022.2.1,Win32,59.88023952,,,,,,,,,,,,,,,,,,62,,,,,,,,,,0.02,1,1.8747,0,1,1,1,1,Take naps when my kids are at school,Browse halloween decorations with my daughter,0.02,0.03,3.3,1,,,,
,,667981cd5ba91c2ae804e4f3,6685aa9113c938e83b4f1ea0,671be814f9e7ffc0d41d7b60,2024-10-25_15h07.10.350,WTP_SM_Choice,2022.2.1,Win32,59.88023952,,,,,,,,,,,,,,,,,,63,,,,,,,,,,0.03,2,1.0244,0,2,2,2,1,Browse halloween decorations with my daughter,Work out just before lunch,0.03,0.03,3.3,0,,,,
,,667981cd5ba91c2ae804e4f3,6685aa9113c938e83b4f1ea0,671be814f9e7ffc0d41d7b60,2024-10-25_15h07.10.350,WTP_SM_Choice,2022.2.1,Win32,59.88023952,,,,,,,,,,,,,,,,,,64,,,,,,,,,,0.03,2,1.0182,0,3,3,3,1,Attend fall festivals with my kids and husband,Reorganize my makeup drawers on sundays,0.04,0.03,1.1,0,,,,
,,667981cd5ba91c2ae804e4f3,6685aa9113c938e83b4f1ea0,671be814f9e7ffc0d41d7b60,2024-10-25_15h07.10.350,WTP_SM_Choice,2022.2.1,Win32,59.88023952,,,,,,,,,,,,,,,,,,65,,,,,,,,,,0.03,2,1.1517,0,4,4,4,1,Take naps when my kids are at school,Go to lunch with my husband and daughter on Fridays,0.05,0.03,1.1,1,,,,
,,667981cd5ba91c2ae804e4f3,6685aa9113c938e83b4f1ea0,671be814f9e7ffc0d41d7b60,2024-10-25_15h07.10.350,WTP_SM_Choice,2022.2.1,Win32,59.88023952,,,,,,,NAN,,NAN,1.37,4.63,,0,64,64,64,1,65,Riley,Rej,Participant_Images/667981cd5ba91c2ae804e4f3/667981cd5ba91c2ae804e4f3_Images/667981cd5ba91c2ae804e4f3_Image_2.jpeg,did not like,2.455989137,,,,,,,,,,,,,,,,,,,,,,
,,667981cd5ba91c2ae804e4f3,6685aa9113c938e83b4f1ea0,671be814f9e7ffc0d41d7b60,2024-10-25_15h07.10.350,WTP_SM_Choice,2022.2.1,Win32,59.88023952,,,,,space,3.5016,NAN,,NAN,1.37,4.63,,0,65,65,65,1,66,Riley,Rej,Participant_Images/667981cd5ba91c2ae804e4f3/667981cd5ba91c2ae804e4f3_Images/667981cd5ba91c2ae804e4f3_Image_16.jpeg,did not like,3.79605092,,,,,,,,,,,,,,,,,,,,,,
,,667981cd5ba91c2ae804e4f3,6685aa9113c938e83b4f1ea0,671be814f9e7ffc0d41d7b60,2024-10-25_15h07.10.350,WTP_SM_Choice,2022.2.1,Win32,59.88023952,,,,,space,1.041,NAN,,NAN,1.37,4.63,,0,66,66,66,1,67,Riley,Rej,Participant_Images/667981cd5ba91c2ae804e4f3/667981cd5ba91c2ae804e4f3_Images/667981cd5ba91c2ae804e4f3_Image_3.jpeg,did not like,3.562416326,,,,,,,,,,,,,,,,,,,,,,
,,667981cd5ba91c2ae804e4f3,6685aa9113c938e83b4f1ea0,671be814f9e7ffc0d41d7b60,2024-10-25_15h07.10.350,WTP_SM_Choice,2022.2.1,Win32,59.88023952,,,,,space,0.9938,NAN,,NAN,1.37,4.63,,0,67,67,67,1,68,Riley,Rej,Participant_Images/667981cd5ba91c2ae804e4f3/667981cd5ba91c2ae804e4f3_Images/667981cd5ba91c2ae804e4f3_Image_17.jpeg,liked,2.843822497,,,,,,,,,,,,,,,,,,,,,,
,,667981cd5ba91c2ae804e4f3,6685aa9113c938e83b4f1ea0,671be814f9e7ffc0d41d7b60,2024-10-25_15h07.10.350,WTP_SM_Choice,2022.2.1,Win32,59.88023952,,,,,space,1.2841,NAN,,NAN,1.37,4.63,,0,68,68,68,1,69,Riley,Rej,Participant_Images/667981cd5ba91c2ae804e4f3/667981cd5ba91c2ae804e4f3_Images/667981cd5ba91c2ae804e4f3_Image_21.jpeg,did not like,3.546495948,,,,,,,,,,,,,,,,,,,,,,
,,667981cd5ba91c2ae804e4f3,6685aa9113c938e83b4f1ea0,671be814f9e7ffc0d41d7b60,2024-10-25_15h07.10.350,WTP_SM_Choice,2022.2.1,Win32,59.88023952,,,,,,,,,,,,,,,,,,66,,,,,,space,1.1942,space,0.8734,0.01,1,0.7274,0,0,0,0,1,Work out just before lunch,shop with my mom,0.01,0.04,1.1,1,,,,
,,667981cd5ba91c2ae804e4f3,6685aa9113c938e83b4f1ea0,671be814f9e7ffc0d41d7b60,2024-10-25_15h07.10.350,WTP_SM_Choice,2022.2.1,Win32,59.88023952,,,,,,,,,,,,,,,,,,67,,,,,,,,,,0.02,1,1.6132,0,1,1,1,1,Get coffee with friends in the mornings,Write by the fireside late at night,0.02,0.04,8.8,0,,,,
,,667981cd5ba91c2ae804e4f3,6685aa9113c938e83b4f1ea0,671be814f9e7ffc0d41d7b60,2024-10-25_15h07.10.350,WTP_SM_Choice,2022.2.1,Win32,59.88023952,,,,,,,,,,,,,,,,,,68,,,,,,,,,,0.03,1,1.385,0,2,2,2,1,Go to lunch with my husband and daughter on Fridays,Write by the fireside late at night,0.03,0.04,4.4,0,,,,
,,667981cd5ba91c2ae804e4f3,6685aa9113c938e83b4f1ea0,671be814f9e7ffc0d41d7b60,2024-10-25_15h07.10.350,WTP_SM_Choice,2022.2.1,Win32,59.88023952,,,,,,,,,,,,,,,,,,69,,,,,,,,,,0.04,1,1.822,0,3,3,3,1,Write by the fireside late at night,Browse halloween decorations with my daughter,0.04,0.04,1.1,1,,,,
,,667981cd5ba91c2ae804e4f3,6685aa9113c938e83b4f1ea0,671be814f9e7ffc0d41d7b60,2024-10-25_15h07.10.350,WTP_SM_Choice,2022.2.1,Win32,59.88023952,,,,,,,,,,,,,,,,,,70,,,,,,,,,,0.04,2,1.8564,0,4,4,4,1,Write by the fireside late at night,Get Starbucks with my daughter after Pre-K,0.05,0.04,1.1,1,,,,
,,667981cd5ba91c2ae804e4f3,6685aa9113c938e83b4f1ea0,671be814f9e7ffc0d41d7b60,2024-10-25_15h07.10.350,WTP_SM_Choice,2022.2.1,Win32,59.88023952,,,,,,,NAN,,NAN,1.51,4.49,,0,69,69,69,1,70,Riley,Rej,Participant_Images/667981cd5ba91c2ae804e4f3/667981cd5ba91c2ae804e4f3_Images/667981cd5ba91c2ae804e4f3_Image_8.jpeg,did not like,1.672012706,,,,,,,,,,,,,,,,,,,,,,
,,667981cd5ba91c2ae804e4f3,6685aa9113c938e83b4f1ea0,671be814f9e7ffc0d41d7b60,2024-10-25_15h07.10.350,WTP_SM_Choice,2022.2.1,Win32,59.88023952,,,,,space,3.9527,NAN,,NAN,1.51,4.49,,0,70,70,70,1,71,Riley,Rej,Participant_Images/667981cd5ba91c2ae804e4f3/667981cd5ba91c2ae804e4f3_Images/667981cd5ba91c2ae804e4f3_Image_19.jpeg,did not like,4.942172136,,,,,,,,,,,,,,,,,,,,,,
,,667981cd5ba91c2ae804e4f3,6685aa9113c938e83b4f1ea0,671be814f9e7ffc0d41d7b60,2024-10-25_15h07.10.350,WTP_SM_Choice,2022.2.1,Win32,59.88023952,,,,,space,3.1519,NAN,,NAN,1.51,4.49,,0,71,71,71,1,72,Riley,Rej,Participant_Images/667981cd5ba91c2ae804e4f3/667981cd5ba91c2ae804e4f3_Images/667981cd5ba91c2ae804e4f3_Image_15.jpeg,did not like,2.50187214,,,,,,,,,,,,,,,,,,,,,,
,,667981cd5ba91c2ae804e4f3,6685aa9113c938e83b4f1ea0,671be814f9e7ffc0d41d7b60,2024-10-25_15h07.10.350,WTP_SM_Choice,2022.2.1,Win32,59.88023952,,,,,space,1.0183,NAN,,NAN,1.51,4.49,,0,72,72,72,1,73,Riley,Rej,Participant_Images/667981cd5ba91c2ae804e4f3/667981cd5ba91c2ae804e4f3_Images/667981cd5ba91c2ae804e4f3_Image_18.jpeg,liked,2.071164779,,,,,,,,,,,,,,,,,,,,,,
,,667981cd5ba91c2ae804e4f3,6685aa9113c938e83b4f1ea0,671be814f9e7ffc0d41d7b60,2024-10-25_15h07.10.350,WTP_SM_Choice,2022.2.1,Win32,59.88023952,,,,,space,3.8531,NAN,,NAN,1.51,4.49,,0,73,73,73,1,74,Riley,Rej,Participant_Images/667981cd5ba91c2ae804e4f3/667981cd5ba91c2ae804e4f3_Images/667981cd5ba91c2ae804e4f3_Image_7.jpeg,did not like,5.336503566,,,,,,,,,,,,,,,,,,,,,,
,,667981cd5ba91c2ae804e4f3,6685aa9113c938e83b4f1ea0,671be814f9e7ffc0d41d7b60,2024-10-25_15h07.10.350,WTP_SM_Choice,2022.2.1,Win32,59.88023952,,,,,,,,,,,,,,,,,,71,,,,,,space,0.817,space,0.593,0.01,1,0.8965,0,0,0,0,1,Work out just before lunch,Attend concerts with my friends,0.01,0.05,3.3,1,,,,
,,667981cd5ba91c2ae804e4f3,6685aa9113c938e83b4f1ea0,671be814f9e7ffc0d41d7b60,2024-10-25_15h07.10.350,WTP_SM_Choice,2022.2.1,Win32,59.88023952,,,,,,,,,,,,,,,,,,72,,,,,,,,,,0.02,1,1.981,0,1,1,1,1,Write by the fireside late at night,Attend concerts with my friends,0.02,0.05,8.8,1,,,,
,,667981cd5ba91c2ae804e4f3,6685aa9113c938e83b4f1ea0,671be814f9e7ffc0d41d7b60,2024-10-25_15h07.10.350,WTP_SM_Choice,2022.2.1,Win32,59.88023952,,,,,,,,,,,,,,,,,,73,,,,,,,,,,0.03,1,1.9076,0,2,2,2,1,Attend fall festivals with my kids and husband,Do yoga out on the porch on a sunny day,0.03,0.05,3.3,0,,,,
,,667981cd5ba91c2ae804e4f3,6685aa9113c938e83b4f1ea0,671be814f9e7ffc0d41d7b60,2024-10-25_15h07.10.350,WTP_SM_Choice,2022.2.1,Win32,59.88023952,,,,,,,,,,,,,,,,,,74,,,,,,,,,,0.04,1,1.7789,0,3,3,3,1,Take naps when my kids are at school,Watch movies with my husband after the kids have gone to bed ,0.04,0.05,4.4,1,,,,
,,667981cd5ba91c2ae804e4f3,6685aa9113c938e83b4f1ea0,671be814f9e7ffc0d41d7b60,2024-10-25_15h07.10.350,WTP_SM_Choice,2022.2.1,Win32,59.88023952,,,,,,,,,,,,,,,,,,75,,,,,,,,,,0.05,1,1.7141,0,4,4,4,1,shop with my mom,Go to target to buy self care items on fridays,0.05,0.05,3.3,0,,,,
,,667981cd5ba91c2ae804e4f3,6685aa9113c938e83b4f1ea0,671be814f9e7ffc0d41d7b60,2024-10-25_15h07.10.350,WTP_SM_Choice,2022.2.1,Win32,59.88023952,,,,,,,1,,4,1.66,4.34,,0,74,74,74,1,75,Riley,Rej,Participant_Images/667981cd5ba91c2ae804e4f3/667981cd5ba91c2ae804e4f3_Images/667981cd5ba91c2ae804e4f3_Image_12.jpeg,did not like,2.642157193,,,,,,,,,,,,,,,,,,,space,3.8681,,
,,667981cd5ba91c2ae804e4f3,6685aa9113c938e83b4f1ea0,671be814f9e7ffc0d41d7b60,2024-10-25_15h07.10.350,WTP_SM_Choice,2022.2.1,Win32,59.88023952,,,space,11.4412,space,4.3275,NAN,,NAN,1.66,4.34,,0,75,75,75,1,76,Alex,Acc,Participant_Images/667981cd5ba91c2ae804e4f3/667981cd5ba91c2ae804e4f3_Images/667981cd5ba91c2ae804e4f3_Image_21.jpeg,liked,4.456234322,,,,,,,,,,,,,,,,,,,,,,
,,667981cd5ba91c2ae804e4f3,6685aa9113c938e83b4f1ea0,671be814f9e7ffc0d41d7b60,2024-10-25_15h07.10.350,WTP_SM_Choice,2022.2.1,Win32,59.88023952,,,,,space,2.1083,NAN,,NAN,1.66,4.34,,0,76,76,76,1,77,Alex,Acc,Participant_Images/667981cd5ba91c2ae804e4f3/667981cd5ba91c2ae804e4f3_Images/667981cd5ba91c2ae804e4f3_Image_23.jpeg,liked,4.438512181,,,,,,,,,,,,,,,,,,,,,,
,,667981cd5ba91c2ae804e4f3,6685aa9113c938e83b4f1ea0,671be814f9e7ffc0d41d7b60,2024-10-25_15h07.10.350,WTP_SM_Choice,2022.2.1,Win32,59.88023952,,,,,space,1.5451,NAN,,NAN,1.66,4.34,,0,77,77,77,1,78,Alex,Acc,Participant_Images/667981cd5ba91c2ae804e4f3/667981cd5ba91c2ae804e4f3_Images/667981cd5ba91c2ae804e4f3_Image_14.jpeg,liked,2.682944783,,,,,,,,,,,,,,,,,,,,,,
,,667981cd5ba91c2ae804e4f3,6685aa9113c938e83b4f1ea0,671be814f9e7ffc0d41d7b60,2024-10-25_15h07.10.350,WTP_SM_Choice,2022.2.1,Win32,59.88023952,,,,,space,0.6708,NAN,,NAN,1.66,4.34,,0,78,78,78,1,79,Alex,Acc,Participant_Images/667981cd5ba91c2ae804e4f3/667981cd5ba91c2ae804e4f3_Images/667981cd5ba91c2ae804e4f3_Image_10.jpeg,liked,4.51984296,,,,,,,,,,,,,,,,,,,,,,
,,667981cd5ba91c2ae804e4f3,6685aa9113c938e83b4f1ea0,671be814f9e7ffc0d41d7b60,2024-10-25_15h07.10.350,WTP_SM_Choice,2022.2.1,Win32,59.88023952,,,,,,,,,,,,,,,,,,76,,,,,,space,2.6005,space,0.9084,0.01,2,0.9345,0,0,0,0,1,Do my makeup or hair,Attend fall festivals with my kids and husband,0.01,0.01,1.1,1,,,,
,,667981cd5ba91c2ae804e4f3,6685aa9113c938e83b4f1ea0,671be814f9e7ffc0d41d7b60,2024-10-25_15h07.10.350,WTP_SM_Choice,2022.2.1,Win32,59.88023952,,,,,,,,,,,,,,,,,,77,,,,,,,,,,0.01,2,1.2424,0,1,1,1,1,Go to target to buy self care items on fridays,Watch movies with my husband after the kids have gone to bed ,0.02,0.01,8.8,1,,,,
,,667981cd5ba91c2ae804e4f3,6685aa9113c938e83b4f1ea0,671be814f9e7ffc0d41d7b60,2024-10-25_15h07.10.350,WTP_SM_Choice,2022.2.1,Win32,59.88023952,,,,,,,,,,,,,,,,,,78,,,,,,,,,,0.01,2,1.086,0,2,2,2,1,Travel on the weekend with my family,Work out just before lunch,0.03,0.01,1.1,0,,,,
,,667981cd5ba91c2ae804e4f3,6685aa9113c938e83b4f1ea0,671be814f9e7ffc0d41d7b60,2024-10-25_15h07.10.350,WTP_SM_Choice,2022.2.1,Win32,59.88023952,,,,,,,,,,,,,,,,,,79,,,,,,,,,,0.01,2,1.4626,0,3,3,3,1,Work out just before lunch,Get Starbucks with my daughter after Pre-K,0.04,0.01,1.1,1,,,,
,,667981cd5ba91c2ae804e4f3,6685aa9113c938e83b4f1ea0,671be814f9e7ffc0d41d7b60,2024-10-25_15h07.10.350,WTP_SM_Choice,2022.2.1,Win32,59.88023952,,,,,,,,,,,,,,,,,,80,,,,,,,,,,0.01,2,1.1959,0,4,4,4,1,Reorganize my makeup drawers on sundays,Get coffee with friends in the mornings,0.05,0.01,4.4,1,,,,
,,667981cd5ba91c2ae804e4f3,6685aa9113c938e83b4f1ea0,671be814f9e7ffc0d41d7b60,2024-10-25_15h07.10.350,WTP_SM_Choice,2022.2.1,Win32,59.88023952,,,,,,,NAN,,NAN,1.71,4.29,,0,79,79,79,1,80,Alex,Acc,Participant_Images/667981cd5ba91c2ae804e4f3/667981cd5ba91c2ae804e4f3_Images/667981cd5ba91c2ae804e4f3_Image_25.jpeg,did not like,3.195382774,,,,,,,,,,,,,,,,,,,,,,
,,667981cd5ba91c2ae804e4f3,6685aa9113c938e83b4f1ea0,671be814f9e7ffc0d41d7b60,2024-10-25_15h07.10.350,WTP_SM_Choice,2022.2.1,Win32,59.88023952,,,,,space,2.0511,NAN,,NAN,1.71,4.29,,0,80,80,80,1,81,Alex,Acc,Participant_Images/667981cd5ba91c2ae804e4f3/667981cd5ba91c2ae804e4f3_Images/667981cd5ba91c2ae804e4f3_Image_1.jpeg,liked,1.779333479,,,,,,,,,,,,,,,,,,,,,,
,,667981cd5ba91c2ae804e4f3,6685aa9113c938e83b4f1ea0,671be814f9e7ffc0d41d7b60,2024-10-25_15h07.10.350,WTP_SM_Choice,2022.2.1,Win32,59.88023952,,,,,space,2.3067,NAN,,NAN,1.71,4.29,,0,81,81,81,1,82,Alex,Acc,Participant_Images/667981cd5ba91c2ae804e4f3/667981cd5ba91c2ae804e4f3_Images/667981cd5ba91c2ae804e4f3_Image_19.jpeg,liked,4.312468682,,,,,,,,,,,,,,,,,,,,,,
,,667981cd5ba91c2ae804e4f3,6685aa9113c938e83b4f1ea0,671be814f9e7ffc0d41d7b60,2024-10-25_15h07.10.350,WTP_SM_Choice,2022.2.1,Win32,59.88023952,,,,,space,3.5532,NAN,,NAN,1.71,4.29,,0,82,82,82,1,83,Alex,Acc,Participant_Images/667981cd5ba91c2ae804e4f3/667981cd5ba91c2ae804e4f3_Images/667981cd5ba91c2ae804e4f3_Image_22.jpeg,did not like,4.940433059,,,,,,,,,,,,,,,,,,,,,,
,,667981cd5ba91c2ae804e4f3,6685aa9113c938e83b4f1ea0,671be814f9e7ffc0d41d7b60,2024-10-25_15h07.10.350,WTP_SM_Choice,2022.2.1,Win32,59.88023952,,,,,space,4.2854,NAN,,NAN,1.71,4.29,,0,83,83,83,1,84,Alex,Acc,Participant_Images/667981cd5ba91c2ae804e4f3/667981cd5ba91c2ae804e4f3_Images/667981cd5ba91c2ae804e4f3_Image_6.jpeg,did not like,2.7105123,,,,,,,,,,,,,,,,,,,,,,
,,667981cd5ba91c2ae804e4f3,6685aa9113c938e83b4f1ea0,671be814f9e7ffc0d41d7b60,2024-10-25_15h07.10.350,WTP_SM_Choice,2022.2.1,Win32,59.88023952,,,,,,,,,,,,,,,,,,81,,,,,,space,1.0674,space,0.31,0.01,1,0.6726,0,0,0,0,1,Go to the theatre with my best friend,Do yoga out on the porch on a sunny day,0.01,0.02,3.3,0,,,,
,,667981cd5ba91c2ae804e4f3,6685aa9113c938e83b4f1ea0,671be814f9e7ffc0d41d7b60,2024-10-25_15h07.10.350,WTP_SM_Choice,2022.2.1,Win32,59.88023952,,,,,,,,,,,,,,,,,,82,,,,,,,,,,0.02,2,2.3648,0,1,1,1,1,Browse halloween decorations with my daughter,Reorganize my makeup drawers on sundays,0.02,0.02,4.4,0,,,,
,,667981cd5ba91c2ae804e4f3,6685aa9113c938e83b4f1ea0,671be814f9e7ffc0d41d7b60,2024-10-25_15h07.10.350,WTP_SM_Choice,2022.2.1,Win32,59.88023952,,,,,,,,,,,,,,,,,,83,,,,,,,,,,0.02,2,0.9596,0,2,2,2,1,Get Starbucks with my daughter after Pre-K,Take naps when my kids are at school,0.03,0.02,1.1,0,,,,
,,667981cd5ba91c2ae804e4f3,6685aa9113c938e83b4f1ea0,671be814f9e7ffc0d41d7b60,2024-10-25_15h07.10.350,WTP_SM_Choice,2022.2.1,Win32,59.88023952,,,,,,,,,,,,,,,,,,84,,,,,,,,,,0.02,2,5.2955,0,3,3,3,1,Work out just before lunch,Watch movies with my husband after the kids have gone to bed ,0.04,0.02,3.3,1,,,,
,,667981cd5ba91c2ae804e4f3,6685aa9113c938e83b4f1ea0,671be814f9e7ffc0d41d7b60,2024-10-25_15h07.10.350,WTP_SM_Choice,2022.2.1,Win32,59.88023952,,,,,,,,,,,,,,,,,,85,,,,,,,,,,0.02,2,2.4437,0,4,4,4,1,shop with my mom,Reorganize my makeup drawers on sundays,0.05,0.02,3.3,0,,,,
,,667981cd5ba91c2ae804e4f3,6685aa9113c938e83b4f1ea0,671be814f9e7ffc0d41d7b60,2024-10-25_15h07.10.350,WTP_SM_Choice,2022.2.1,Win32,59.88023952,,,,,,,NAN,,NAN,1.8,4.2,,0,84,84,84,1,85,Alex,Acc,Participant_Images/667981cd5ba91c2ae804e4f3/667981cd5ba91c2ae804e4f3_Images/667981cd5ba91c2ae804e4f3_Image_9.jpeg,did not like,3.602308302,,,,,,,,,,,,,,,,,,,,,,
,,667981cd5ba91c2ae804e4f3,6685aa9113c938e83b4f1ea0,671be814f9e7ffc0d41d7b60,2024-10-25_15h07.10.350,WTP_SM_Choice,2022.2.1,Win32,59.88023952,,,,,space,2.0467,NAN,,NAN,1.8,4.2,,0,85,85,85,1,86,Alex,Acc,Participant_Images/667981cd5ba91c2ae804e4f3/667981cd5ba91c2ae804e4f3_Images/667981cd5ba91c2ae804e4f3_Image_8.jpeg,liked,4.106391878,,,,,,,,,,,,,,,,,,,,,,
,,667981cd5ba91c2ae804e4f3,6685aa9113c938e83b4f1ea0,671be814f9e7ffc0d41d7b60,2024-10-25_15h07.10.350,WTP_SM_Choice,2022.2.1,Win32,59.88023952,,,,,space,3.0566,NAN,,NAN,1.8,4.2,,0,86,86,86,1,87,Alex,Acc,Participant_Images/667981cd5ba91c2ae804e4f3/667981cd5ba91c2ae804e4f3_Images/667981cd5ba91c2ae804e4f3_Image_13.jpeg,liked,3.799433026,,,,,,,,,,,,,,,,,,,,,,
,,667981cd5ba91c2ae804e4f3,6685aa9113c938e83b4f1ea0,671be814f9e7ffc0d41d7b60,2024-10-25_15h07.10.350,WTP_SM_Choice,2022.2.1,Win32,59.88023952,,,,,space,0.8903,NAN,,NAN,1.8,4.2,,0,87,87,87,1,88,Alex,Acc,Participant_Images/667981cd5ba91c2ae804e4f3/667981cd5ba91c2ae804e4f3_Images/667981cd5ba91c2ae804e4f3_Image_5.jpeg,liked,5.246980764,,,,,,,,,,,,,,,,,,,,,,
,,667981cd5ba91c2ae804e4f3,6685aa9113c938e83b4f1ea0,671be814f9e7ffc0d41d7b60,2024-10-25_15h07.10.350,WTP_SM_Choice,2022.2.1,Win32,59.88023952,,,,,space,0.9842,NAN,,NAN,1.8,4.2,,0,88,88,88,1,89,Alex,Acc,Participant_Images/667981cd5ba91c2ae804e4f3/667981cd5ba91c2ae804e4f3_Images/667981cd5ba91c2ae804e4f3_Image_4.jpeg,liked,3.30081769,,,,,,,,,,,,,,,,,,,,,,
,,667981cd5ba91c2ae804e4f3,6685aa9113c938e83b4f1ea0,671be814f9e7ffc0d41d7b60,2024-10-25_15h07.10.350,WTP_SM_Choice,2022.2.1,Win32,59.88023952,,,,,,,,,,,,,,,,,,86,,,,,,space,2.0632,space,1.379,0.01,1,1.3234,0,0,0,0,1,Browse halloween decorations with my daughter,Do my makeup or hair,0.01,0.03,1.1,0,,,,
,,667981cd5ba91c2ae804e4f3,6685aa9113c938e83b4f1ea0,671be814f9e7ffc0d41d7b60,2024-10-25_15h07.10.350,WTP_SM_Choice,2022.2.1,Win32,59.88023952,,,,,,,,,,,,,,,,,,87,,,,,,,,,,0.02,1,1.5433,0,1,1,1,1,Go to lunch with my husband and daughter on Fridays,Do yoga out on the porch on a sunny day,0.02,0.03,4.4,0,,,,
,,667981cd5ba91c2ae804e4f3,6685aa9113c938e83b4f1ea0,671be814f9e7ffc0d41d7b60,2024-10-25_15h07.10.350,WTP_SM_Choice,2022.2.1,Win32,59.88023952,,,,,,,,,,,,,,,,,,88,,,,,,,,,,0.03,1,2.3929,0,2,2,2,1,Travel on the weekend with my family,Take naps when my kids are at school,0.03,0.03,1.1,0,,,,
,,667981cd5ba91c2ae804e4f3,6685aa9113c938e83b4f1ea0,671be814f9e7ffc0d41d7b60,2024-10-25_15h07.10.350,WTP_SM_Choice,2022.2.1,Win32,59.88023952,,,,,,,,,,,,,,,,,,89,,,,,,,,,,0.03,2,1.9033,0,3,3,3,1,Do surveys online in the morning,Travel on the weekend with my family,0.04,0.03,3.3,1,,,,
,,667981cd5ba91c2ae804e4f3,6685aa9113c938e83b4f1ea0,671be814f9e7ffc0d41d7b60,2024-10-25_15h07.10.350,WTP_SM_Choice,2022.2.1,Win32,59.88023952,,,,,,,,,,,,,,,,,,90,,,,,,,,,,0.03,2,1.3137,0,4,4,4,1,Take naps when my kids are at school,Get coffee with friends in the mornings,0.05,0.03,8.8,1,,,,
,,667981cd5ba91c2ae804e4f3,6685aa9113c938e83b4f1ea0,671be814f9e7ffc0d41d7b60,2024-10-25_15h07.10.350,WTP_SM_Choice,2022.2.1,Win32,59.88023952,,,,,,,NAN,,NAN,1.92,4.08,,0,89,89,89,1,90,Alex,Acc,Participant_Images/667981cd5ba91c2ae804e4f3/667981cd5ba91c2ae804e4f3_Images/667981cd5ba91c2ae804e4f3_Image_18.jpeg,liked,1.661473164,,,,,,,,,,,,,,,,,,,,,,
,,667981cd5ba91c2ae804e4f3,6685aa9113c938e83b4f1ea0,671be814f9e7ffc0d41d7b60,2024-10-25_15h07.10.350,WTP_SM_Choice,2022.2.1,Win32,59.88023952,,,,,space,5.5113,NAN,,NAN,1.92,4.08,,0,90,90,90,1,91,Alex,Acc,Participant_Images/667981cd5ba91c2ae804e4f3/667981cd5ba91c2ae804e4f3_Images/667981cd5ba91c2ae804e4f3_Image_11.jpeg,did not like,3.613205605,,,,,,,,,,,,,,,,,,,,,,
,,667981cd5ba91c2ae804e4f3,6685aa9113c938e83b4f1ea0,671be814f9e7ffc0d41d7b60,2024-10-25_15h07.10.350,WTP_SM_Choice,2022.2.1,Win32,59.88023952,,,,,space,1.0683,NAN,,NAN,1.92,4.08,,0,91,91,91,1,92,Alex,Acc,Participant_Images/667981cd5ba91c2ae804e4f3/667981cd5ba91c2ae804e4f3_Images/667981cd5ba91c2ae804e4f3_Image_24.jpeg,liked,4.988446431,,,,,,,,,,,,,,,,,,,,,,
,,667981cd5ba91c2ae804e4f3,6685aa9113c938e83b4f1ea0,671be814f9e7ffc0d41d7b60,2024-10-25_15h07.10.350,WTP_SM_Choice,2022.2.1,Win32,59.88023952,,,,,space,0.8243,NAN,,NAN,1.92,4.08,,0,92,92,92,1,93,Alex,Acc,Participant_Images/667981cd5ba91c2ae804e4f3/667981cd5ba91c2ae804e4f3_Images/667981cd5ba91c2ae804e4f3_Image_12.jpeg,liked,3.470791822,,,,,,,,,,,,,,,,,,,,,,
,,667981cd5ba91c2ae804e4f3,6685aa9113c938e83b4f1ea0,671be814f9e7ffc0d41d7b60,2024-10-25_15h07.10.350,WTP_SM_Choice,2022.2.1,Win32,59.88023952,,,,,space,1.6075,NAN,,NAN,1.92,4.08,,0,93,93,93,1,94,Alex,Acc,Participant_Images/667981cd5ba91c2ae804e4f3/667981cd5ba91c2ae804e4f3_Images/667981cd5ba91c2ae804e4f3_Image_15.jpeg,liked,3.820572462,,,,,,,,,,,,,,,,,,,,,,
,,667981cd5ba91c2ae804e4f3,6685aa9113c938e83b4f1ea0,671be814f9e7ffc0d41d7b60,2024-10-25_15h07.10.350,WTP_SM_Choice,2022.2.1,Win32,59.88023952,,,,,,,,,,,,,,,,,,91,,,,,,space,3.251,space,7.3582,0.01,1,1.3906,0,0,0,0,1,Browse halloween decorations with my daughter,Play video games when everyone is asleep,0.01,0.04,3.3,0,,,,
,,667981cd5ba91c2ae804e4f3,6685aa9113c938e83b4f1ea0,671be814f9e7ffc0d41d7b60,2024-10-25_15h07.10.350,WTP_SM_Choice,2022.2.1,Win32,59.88023952,,,,,,,,,,,,,,,,,,92,,,,,,,,,,0.02,1,1.5108,0,1,1,1,1,Take naps when my kids are at school,shop with my mom,0.02,0.04,8.8,1,,,,
,,667981cd5ba91c2ae804e4f3,6685aa9113c938e83b4f1ea0,671be814f9e7ffc0d41d7b60,2024-10-25_15h07.10.350,WTP_SM_Choice,2022.2.1,Win32,59.88023952,,,,,,,,,,,,,,,,,,93,,,,,,,,,,0.03,1,2.3918,0,2,2,2,1,Attend concerts with my friends,Do yoga out on the porch on a sunny day,0.03,0.04,1.1,0,,,,
,,667981cd5ba91c2ae804e4f3,6685aa9113c938e83b4f1ea0,671be814f9e7ffc0d41d7b60,2024-10-25_15h07.10.350,WTP_SM_Choice,2022.2.1,Win32,59.88023952,,,,,,,,,,,,,,,,,,94,,,,,,,,,,0.04,1,2.0419,0,3,3,3,1,Attend fall festivals with my kids and husband,Go to target to buy self care items on fridays,0.04,0.04,4.4,0,,,,
,,667981cd5ba91c2ae804e4f3,6685aa9113c938e83b4f1ea0,671be814f9e7ffc0d41d7b60,2024-10-25_15h07.10.350,WTP_SM_Choice,2022.2.1,Win32,59.88023952,,,,,,,,,,,,,,,,,,95,,,,,,,,,,0.04,2,2.076,0,4,4,4,1,Work out just before lunch,Go to the theatre with my best friend,0.05,0.04,4.4,1,,,,
,,667981cd5ba91c2ae804e4f3,6685aa9113c938e83b4f1ea0,671be814f9e7ffc0d41d7b60,2024-10-25_15h07.10.350,WTP_SM_Choice,2022.2.1,Win32,59.88023952,,,,,,,NAN,,NAN,2.06,3.94,,0,94,94,94,1,95,Alex,Acc,Participant_Images/667981cd5ba91c2ae804e4f3/667981cd5ba91c2ae804e4f3_Images/667981cd5ba91c2ae804e4f3_Image_20.jpeg,liked,2.455989137,,,,,,,,,,,,,,,,,,,,,,
,,667981cd5ba91c2ae804e4f3,6685aa9113c938e83b4f1ea0,671be814f9e7ffc0d41d7b60,2024-10-25_15h07.10.350,WTP_SM_Choice,2022.2.1,Win32,59.88023952,,,,,space,2.1677,NAN,,NAN,2.06,3.94,,0,95,95,95,1,96,Alex,Acc,Participant_Images/667981cd5ba91c2ae804e4f3/667981cd5ba91c2ae804e4f3_Images/667981cd5ba91c2ae804e4f3_Image_2.jpeg,did not like,3.79605092,,,,,,,,,,,,,,,,,,,,,,
,,667981cd5ba91c2ae804e4f3,6685aa9113c938e83b4f1ea0,671be814f9e7ffc0d41d7b60,2024-10-25_15h07.10.350,WTP_SM_Choice,2022.2.1,Win32,59.88023952,,,,,space,2.0015,NAN,,NAN,2.06,3.94,,0,96,96,96,1,97,Alex,Acc,Participant_Images/667981cd5ba91c2ae804e4f3/667981cd5ba91c2ae804e4f3_Images/667981cd5ba91c2ae804e4f3_Image_3.jpeg,liked,3.562416326,,,,,,,,,,,,,,,,,,,,,,
,,667981cd5ba91c2ae804e4f3,6685aa9113c938e83b4f1ea0,671be814f9e7ffc0d41d7b60,2024-10-25_15h07.10.350,WTP_SM_Choice,2022.2.1,Win32,59.88023952,,,,,space,1.5751,NAN,,NAN,2.06,3.94,,0,97,97,97,1,98,Alex,Acc,Participant_Images/667981cd5ba91c2ae804e4f3/667981cd5ba91c2ae804e4f3_Images/667981cd5ba91c2ae804e4f3_Image_7.jpeg,liked,2.843822497,,,,,,,,,,,,,,,,,,,,,,
,,667981cd5ba91c2ae804e4f3,6685aa9113c938e83b4f1ea0,671be814f9e7ffc0d41d7b60,2024-10-25_15h07.10.350,WTP_SM_Choice,2022.2.1,Win32,59.88023952,,,,,space,1.101,NAN,,NAN,2.06,3.94,,0,98,98,98,1,99,Alex,Acc,Participant_Images/667981cd5ba91c2ae804e4f3/667981cd5ba91c2ae804e4f3_Images/667981cd5ba91c2ae804e4f3_Image_16.jpeg,liked,3.546495948,,,,,,,,,,,,,,,,,,,,,,
,,667981cd5ba91c2ae804e4f3,6685aa9113c938e83b4f1ea0,671be814f9e7ffc0d41d7b60,2024-10-25_15h07.10.350,WTP_SM_Choice,2022.2.1,Win32,59.88023952,,,,,,,,,,,,,,,,,,96,,,,,,space,1.55,space,0.3601,0.01,1,0.9258,0,0,0,0,1,Travel on the weekend with my family,Play video games when everyone is asleep,0.01,0.05,3.3,0,,,,
,,667981cd5ba91c2ae804e4f3,6685aa9113c938e83b4f1ea0,671be814f9e7ffc0d41d7b60,2024-10-25_15h07.10.350,WTP_SM_Choice,2022.2.1,Win32,59.88023952,,,,,,,,,,,,,,,,,,97,,,,,,,,,,0.02,1,1.8337,0,1,1,1,1,Reorganize my makeup drawers on sundays,Watch movies with my husband after the kids have gone to bed ,0.02,0.05,1.1,1,,,,
,,667981cd5ba91c2ae804e4f3,6685aa9113c938e83b4f1ea0,671be814f9e7ffc0d41d7b60,2024-10-25_15h07.10.350,WTP_SM_Choice,2022.2.1,Win32,59.88023952,,,,,,,,,,,,,,,,,,98,,,,,,,,,,0.03,1,1.3517,0,2,2,2,1,Get coffee with friends in the mornings,Read by the window on a rainy day,0.03,0.05,1.1,0,,,,
,,667981cd5ba91c2ae804e4f3,6685aa9113c938e83b4f1ea0,671be814f9e7ffc0d41d7b60,2024-10-25_15h07.10.350,WTP_SM_Choice,2022.2.1,Win32,59.88023952,,,,,,,,,,,,,,,,,,99,,,,,,,,,,0.04,1,2.0357,0,3,3,3,1,Do my makeup or hair,Travel on the weekend with my family,0.04,0.05,3.3,1,,,,
,,667981cd5ba91c2ae804e4f3,6685aa9113c938e83b4f1ea0,671be814f9e7ffc0d41d7b60,2024-10-25_15h07.10.350,WTP_SM_Choice,2022.2.1,Win32,59.88023952,,,,,,,,,,,,,,,,,,100,,,,,,,,,,0.05,1,1.7042,0,4,4,4,1,shop with my mom,Write by the fireside late at night,0.05,0.05,4.4,0,,,,
,,667981cd5ba91c2ae804e4f3,6685aa9113c938e83b4f1ea0,671be814f9e7ffc0d41d7b60,2024-10-25_15h07.10.350,WTP_SM_Choice,2022.2.1,Win32,59.88023952,,,,,,,2,,3,2.21,3.79,,0,99,99,99,1,100,Alex,Acc,Participant_Images/667981cd5ba91c2ae804e4f3/667981cd5ba91c2ae804e4f3_Images/667981cd5ba91c2ae804e4f3_Image_17.jpeg,did not like,1.672012706,,,,,,,,,,,,,,,,,,,space,4.6613,,
,,667981cd5ba91c2ae804e4f3,6685aa9113c938e83b4f1ea0,671be814f9e7ffc0d41d7b60,2024-10-25_15h07.10.350,WTP_SM_Choice,2022.2.1,Win32,59.88023952,,,,,,,,,,,,,,,,,,,,,,,,,,,,,,,,,,,,,,,,,,,,space,2.4821
