endwelcomescreen_keys.keys,endwelcomescreen_keys.rt,participant,STUDY_ID,SESSION_ID,date,expName,psychopyVersion,OS,frameRate,endinstructionscreen_keys.keys,endinstructionscreen_keys.rt,endpartnermatch_keys.keys,endpartnermatch_keys.rt,sharenextphoto_key.keys,sharenextphoto_key.rt,salience_rating,key_resp.keys,stress_level,subtract_bonus,TOTAL_TASK_BONUS,stresslevel_keypress.keys,entiretaskloop.thisRepN,entiretaskloop.thisTrialN,entiretaskloop.thisN,entiretaskloop.thisIndex,entiretaskloop.ran,TrialNumber,Partner,Condition,Photos,Feedback,FeedbackWait,WTP_ins_keys1.keys,WTP_ins_keys1.rt,WTP_ins_keys2.keys,WTP_ins_keys2.rt,decision_price,responses.keys,responses.rt,WTPTaskLoop.thisRepN,WTPTaskLoop.thisTrialN,WTPTaskLoop.thisN,WTPTaskLoop.thisIndex,WTPTaskLoop.ran,right,left,leftmoney,rightmoney,WTP_ITI,social_left,Resume_keys.keys,Resume_keys.rt,end_screen_keys.keys,end_screen_keys.rt
space,6.5765,6679bdceaa28479dfe378bb6,6685aa9113c938e83b4f1ea0,669bdea8896ecc9457722270,2024-07-20_11h59.56.276,WTP_SM_Choice,2022.2.1,MacIntel,60.24096386,,,,,,,,,,,,,,,,,,,,,,,,,,,,,,,,,,,,,,,,,,,,,
,,6679bdceaa28479dfe378bb6,6685aa9113c938e83b4f1ea0,669bdea8896ecc9457722270,2024-07-20_11h59.56.276,WTP_SM_Choice,2022.2.1,MacIntel,60.24096386,space,13.9441,,,,,,,,,,,,,,,,,,,,,,,,,,,,,,,,,,,,,,,,,,,
,,6679bdceaa28479dfe378bb6,6685aa9113c938e83b4f1ea0,669bdea8896ecc9457722270,2024-07-20_11h59.56.276,WTP_SM_Choice,2022.2.1,MacIntel,60.24096386,,,space,2.7637,space,2.4414,NAN,,NAN,0,6,,0,0,0,0,1,1,Charlie,Rej,Participant_Images/6679bdceaa28479dfe378bb6/6679bdceaa28479dfe378bb6_Images/6679bdceaa28479dfe378bb6_Image_7.jpeg,liked,3.613205605,,,,,,,,,,,,,,,,,,,,,,
,,6679bdceaa28479dfe378bb6,6685aa9113c938e83b4f1ea0,669bdea8896ecc9457722270,2024-07-20_11h59.56.276,WTP_SM_Choice,2022.2.1,MacIntel,60.24096386,,,,,space,1.5518,NAN,,NAN,0,6,,0,1,1,1,1,2,Charlie,Rej,Participant_Images/6679bdceaa28479dfe378bb6/6679bdceaa28479dfe378bb6_Images/6679bdceaa28479dfe378bb6_Image_22.jpeg,did not like,4.988446431,,,,,,,,,,,,,,,,,,,,,,
,,6679bdceaa28479dfe378bb6,6685aa9113c938e83b4f1ea0,669bdea8896ecc9457722270,2024-07-20_11h59.56.276,WTP_SM_Choice,2022.2.1,MacIntel,60.24096386,,,,,space,1.0669,NAN,,NAN,0,6,,0,2,2,2,1,3,Charlie,Rej,Participant_Images/6679bdceaa28479dfe378bb6/6679bdceaa28479dfe378bb6_Images/6679bdceaa28479dfe378bb6_Image_25.jpeg,did not like,3.470791822,,,,,,,,,,,,,,,,,,,,,,
,,6679bdceaa28479dfe378bb6,6685aa9113c938e83b4f1ea0,669bdea8896ecc9457722270,2024-07-20_11h59.56.276,WTP_SM_Choice,2022.2.1,MacIntel,60.24096386,,,,,space,3.1295,NAN,,NAN,0,6,,0,3,3,3,1,4,Charlie,Rej,Participant_Images/6679bdceaa28479dfe378bb6/6679bdceaa28479dfe378bb6_Images/6679bdceaa28479dfe378bb6_Image_3.jpeg,did not like,3.820572462,,,,,,,,,,,,,,,,,,,,,,
,,6679bdceaa28479dfe378bb6,6685aa9113c938e83b4f1ea0,669bdea8896ecc9457722270,2024-07-20_11h59.56.276,WTP_SM_Choice,2022.2.1,MacIntel,60.24096386,,,,,,,,,,,,,,,,,,1,,,,,,space,32.4089,space,14.9052,0.01,2,6.6343,0,0,0,0,1,go to home decor stores and judging the items ,swim in a pool with my friends,0.01,0.01,4.4,1,,,,
,,6679bdceaa28479dfe378bb6,6685aa9113c938e83b4f1ea0,669bdea8896ecc9457722270,2024-07-20_11h59.56.276,WTP_SM_Choice,2022.2.1,MacIntel,60.24096386,,,,,,,,,,,,,,,,,,2,,,,,,,,,,0.02,1,6.2677,0,1,1,1,1,drive around listening to music,swim in a pool with my friends,0.02,0.01,8.8,1,,,,
,,6679bdceaa28479dfe378bb6,6685aa9113c938e83b4f1ea0,669bdea8896ecc9457722270,2024-07-20_11h59.56.276,WTP_SM_Choice,2022.2.1,MacIntel,60.24096386,,,,,,,,,,,,,,,,,,3,,,,,,,,,,0.03,1,2.0323,0,2,2,2,1,watch real housewives with my friends ,drive around listening to music,0.03,0.01,3.3,0,,,,
,,6679bdceaa28479dfe378bb6,6685aa9113c938e83b4f1ea0,669bdea8896ecc9457722270,2024-07-20_11h59.56.276,WTP_SM_Choice,2022.2.1,MacIntel,60.24096386,,,,,,,,,,,,,,,,,,4,,,,,,,,,,0.01,2,3.0544,0,3,3,3,1,open up gifts with my friends,ride a bike around a lake,0.04,0.01,1.1,0,,,,
,,6679bdceaa28479dfe378bb6,6685aa9113c938e83b4f1ea0,669bdea8896ecc9457722270,2024-07-20_11h59.56.276,WTP_SM_Choice,2022.2.1,MacIntel,60.24096386,,,,,,,,,,,,,,,,,,5,,,,,,,,,,0.05,1,9.3384,0,4,4,4,1,go to stores and looking at pretty things,be on a boat with my friends,0.05,0.01,1.1,1,,,,
,,6679bdceaa28479dfe378bb6,6685aa9113c938e83b4f1ea0,669bdea8896ecc9457722270,2024-07-20_11h59.56.276,WTP_SM_Choice,2022.2.1,MacIntel,60.24096386,,,,,,,NAN,,NAN,0.12,5.88,,0,4,4,4,1,5,Charlie,Rej,Participant_Images/6679bdceaa28479dfe378bb6/6679bdceaa28479dfe378bb6_Images/6679bdceaa28479dfe378bb6_Image_2.jpeg,did not like,2.455989137,,,,,,,,,,,,,,,,,,,,,,
,,6679bdceaa28479dfe378bb6,6685aa9113c938e83b4f1ea0,669bdea8896ecc9457722270,2024-07-20_11h59.56.276,WTP_SM_Choice,2022.2.1,MacIntel,60.24096386,,,,,space,1.2991,NAN,,NAN,0.12,5.88,,0,5,5,5,1,6,Charlie,Rej,Participant_Images/6679bdceaa28479dfe378bb6/6679bdceaa28479dfe378bb6_Images/6679bdceaa28479dfe378bb6_Image_9.jpeg,liked,3.79605092,,,,,,,,,,,,,,,,,,,,,,
,,6679bdceaa28479dfe378bb6,6685aa9113c938e83b4f1ea0,669bdea8896ecc9457722270,2024-07-20_11h59.56.276,WTP_SM_Choice,2022.2.1,MacIntel,60.24096386,,,,,space,1.1982,NAN,,NAN,0.12,5.88,,0,6,6,6,1,7,Charlie,Rej,Participant_Images/6679bdceaa28479dfe378bb6/6679bdceaa28479dfe378bb6_Images/6679bdceaa28479dfe378bb6_Image_4.jpeg,did not like,3.562416326,,,,,,,,,,,,,,,,,,,,,,
,,6679bdceaa28479dfe378bb6,6685aa9113c938e83b4f1ea0,669bdea8896ecc9457722270,2024-07-20_11h59.56.276,WTP_SM_Choice,2022.2.1,MacIntel,60.24096386,,,,,space,1.55,NAN,,NAN,0.12,5.88,,0,7,7,7,1,8,Charlie,Rej,Participant_Images/6679bdceaa28479dfe378bb6/6679bdceaa28479dfe378bb6_Images/6679bdceaa28479dfe378bb6_Image_5.jpeg,did not like,2.843822497,,,,,,,,,,,,,,,,,,,,,,
,,6679bdceaa28479dfe378bb6,6685aa9113c938e83b4f1ea0,669bdea8896ecc9457722270,2024-07-20_11h59.56.276,WTP_SM_Choice,2022.2.1,MacIntel,60.24096386,,,,,space,1.182,NAN,,NAN,0.12,5.88,,0,8,8,8,1,9,Charlie,Rej,Participant_Images/6679bdceaa28479dfe378bb6/6679bdceaa28479dfe378bb6_Images/6679bdceaa28479dfe378bb6_Image_20.jpeg,did not like,3.546495948,,,,,,,,,,,,,,,,,,,,,,
,,6679bdceaa28479dfe378bb6,6685aa9113c938e83b4f1ea0,669bdea8896ecc9457722270,2024-07-20_11h59.56.276,WTP_SM_Choice,2022.2.1,MacIntel,60.24096386,,,,,,,,,,,,,,,,,,6,,,,,,space,9.4679,space,4.8006,0.01,1,2.1777,0,0,0,0,1,swim in a pool with my friends,browse the web about greek mythology,0.01,0.02,3.3,0,,,,
,,6679bdceaa28479dfe378bb6,6685aa9113c938e83b4f1ea0,669bdea8896ecc9457722270,2024-07-20_11h59.56.276,WTP_SM_Choice,2022.2.1,MacIntel,60.24096386,,,,,,,,,,,,,,,,,,7,,,,,,,,,,0.02,1,2.179,0,1,1,1,1,ride a bike around a lake,swim in a pool with my friends,0.02,0.02,1.1,1,,,,
,,6679bdceaa28479dfe378bb6,6685aa9113c938e83b4f1ea0,669bdea8896ecc9457722270,2024-07-20_11h59.56.276,WTP_SM_Choice,2022.2.1,MacIntel,60.24096386,,,,,,,,,,,,,,,,,,8,,,,,,,,,,0.02,2,3.4202,0,2,2,2,1,sit on a couch and catch up with my friends,design anything,0.03,0.02,1.1,0,,,,
,,6679bdceaa28479dfe378bb6,6685aa9113c938e83b4f1ea0,669bdea8896ecc9457722270,2024-07-20_11h59.56.276,WTP_SM_Choice,2022.2.1,MacIntel,60.24096386,,,,,,,,,,,,,,,,,,9,,,,,,,,,,0.02,2,3.7869,0,3,3,3,1,ride a bike around a lake,sit on a couch and catch up with my friends,0.04,0.02,4.4,1,,,,
,,6679bdceaa28479dfe378bb6,6685aa9113c938e83b4f1ea0,669bdea8896ecc9457722270,2024-07-20_11h59.56.276,WTP_SM_Choice,2022.2.1,MacIntel,60.24096386,,,,,,,,,,,,,,,,,,10,,,,,,,,,,0.02,2,2.8627,0,4,4,4,1,sit on a couch and catch up with my friends,watch true crime in my bedroom,0.05,0.02,1.1,0,,,,
,,6679bdceaa28479dfe378bb6,6685aa9113c938e83b4f1ea0,669bdea8896ecc9457722270,2024-07-20_11h59.56.276,WTP_SM_Choice,2022.2.1,MacIntel,60.24096386,,,,,,,NAN,,NAN,0.21,5.79,,0,9,9,9,1,10,Charlie,Rej,Participant_Images/6679bdceaa28479dfe378bb6/6679bdceaa28479dfe378bb6_Images/6679bdceaa28479dfe378bb6_Image_19.jpeg,liked,1.672012706,,,,,,,,,,,,,,,,,,,,,,
,,6679bdceaa28479dfe378bb6,6685aa9113c938e83b4f1ea0,669bdea8896ecc9457722270,2024-07-20_11h59.56.276,WTP_SM_Choice,2022.2.1,MacIntel,60.24096386,,,,,space,3.0545,NAN,,NAN,0.21,5.79,,0,10,10,10,1,11,Charlie,Rej,Participant_Images/6679bdceaa28479dfe378bb6/6679bdceaa28479dfe378bb6_Images/6679bdceaa28479dfe378bb6_Image_21.jpeg,did not like,4.942172136,,,,,,,,,,,,,,,,,,,,,,
,,6679bdceaa28479dfe378bb6,6685aa9113c938e83b4f1ea0,669bdea8896ecc9457722270,2024-07-20_11h59.56.276,WTP_SM_Choice,2022.2.1,MacIntel,60.24096386,,,,,space,1.4005,NAN,,NAN,0.21,5.79,,0,11,11,11,1,12,Charlie,Rej,Participant_Images/6679bdceaa28479dfe378bb6/6679bdceaa28479dfe378bb6_Images/6679bdceaa28479dfe378bb6_Image_18.jpeg,did not like,2.50187214,,,,,,,,,,,,,,,,,,,,,,
,,6679bdceaa28479dfe378bb6,6685aa9113c938e83b4f1ea0,669bdea8896ecc9457722270,2024-07-20_11h59.56.276,WTP_SM_Choice,2022.2.1,MacIntel,60.24096386,,,,,space,1.0678,NAN,,NAN,0.21,5.79,,0,12,12,12,1,13,Charlie,Rej,Participant_Images/6679bdceaa28479dfe378bb6/6679bdceaa28479dfe378bb6_Images/6679bdceaa28479dfe378bb6_Image_13.jpeg,did not like,2.071164779,,,,,,,,,,,,,,,,,,,,,,
,,6679bdceaa28479dfe378bb6,6685aa9113c938e83b4f1ea0,669bdea8896ecc9457722270,2024-07-20_11h59.56.276,WTP_SM_Choice,2022.2.1,MacIntel,60.24096386,,,,,space,1.1495,NAN,,NAN,0.21,5.79,,0,13,13,13,1,14,Charlie,Rej,Participant_Images/6679bdceaa28479dfe378bb6/6679bdceaa28479dfe378bb6_Images/6679bdceaa28479dfe378bb6_Image_1.jpeg,did not like,5.336503566,,,,,,,,,,,,,,,,,,,,,,
,,6679bdceaa28479dfe378bb6,6685aa9113c938e83b4f1ea0,669bdea8896ecc9457722270,2024-07-20_11h59.56.276,WTP_SM_Choice,2022.2.1,MacIntel,60.24096386,,,,,,,,,,,,,,,,,,11,,,,,,space,5.1364,space,2.4698,0.01,1,2.0809,0,0,0,0,1,watch true crime in my bedroom,go to italy with my friends and buy bags,0.01,0.03,3.3,1,,,,
,,6679bdceaa28479dfe378bb6,6685aa9113c938e83b4f1ea0,669bdea8896ecc9457722270,2024-07-20_11h59.56.276,WTP_SM_Choice,2022.2.1,MacIntel,60.24096386,,,,,,,,,,,,,,,,,,12,,,,,,,,,,0.02,1,3.4133,0,1,1,1,1,watch real housewives with my friends ,go through a starbucks drive thru when there are no other cars around,0.02,0.03,4.4,0,,,,
,,6679bdceaa28479dfe378bb6,6685aa9113c938e83b4f1ea0,669bdea8896ecc9457722270,2024-07-20_11h59.56.276,WTP_SM_Choice,2022.2.1,MacIntel,60.24096386,,,,,,,,,,,,,,,,,,13,,,,,,,,,,0.03,1,3.6626,0,2,2,2,1,eat crepes with my friends,go to stores and looking at pretty things,0.03,0.03,1.1,0,,,,
,,6679bdceaa28479dfe378bb6,6685aa9113c938e83b4f1ea0,669bdea8896ecc9457722270,2024-07-20_11h59.56.276,WTP_SM_Choice,2022.2.1,MacIntel,60.24096386,,,,,,,,,,,,,,,,,,14,,,,,,,,,,0.04,1,2.6361,0,3,3,3,1,go to stores and looking at pretty things,dance with my friends on a dance floor,0.04,0.03,3.3,1,,,,
,,6679bdceaa28479dfe378bb6,6685aa9113c938e83b4f1ea0,669bdea8896ecc9457722270,2024-07-20_11h59.56.276,WTP_SM_Choice,2022.2.1,MacIntel,60.24096386,,,,,,,,,,,,,,,,,,15,,,,,,,,,,0.05,1,4.9525,0,4,4,4,1,go to home decor stores and judging the items ,go to italy with my friends and buy bags,0.05,0.03,4.4,1,,,,
,,6679bdceaa28479dfe378bb6,6685aa9113c938e83b4f1ea0,669bdea8896ecc9457722270,2024-07-20_11h59.56.276,WTP_SM_Choice,2022.2.1,MacIntel,60.24096386,,,,,,,NAN,,NAN,0.36,5.64,,0,14,14,14,1,15,Charlie,Rej,Participant_Images/6679bdceaa28479dfe378bb6/6679bdceaa28479dfe378bb6_Images/6679bdceaa28479dfe378bb6_Image_10.jpeg,liked,2.642157193,,,,,,,,,,,,,,,,,,,,,,
,,6679bdceaa28479dfe378bb6,6685aa9113c938e83b4f1ea0,669bdea8896ecc9457722270,2024-07-20_11h59.56.276,WTP_SM_Choice,2022.2.1,MacIntel,60.24096386,,,,,space,1.0153,NAN,,NAN,0.36,5.64,,0,15,15,15,1,16,Charlie,Rej,Participant_Images/6679bdceaa28479dfe378bb6/6679bdceaa28479dfe378bb6_Images/6679bdceaa28479dfe378bb6_Image_8.jpeg,did not like,4.456234322,,,,,,,,,,,,,,,,,,,,,,
,,6679bdceaa28479dfe378bb6,6685aa9113c938e83b4f1ea0,669bdea8896ecc9457722270,2024-07-20_11h59.56.276,WTP_SM_Choice,2022.2.1,MacIntel,60.24096386,,,,,space,1.1712,NAN,,NAN,0.36,5.64,,0,16,16,16,1,17,Charlie,Rej,Participant_Images/6679bdceaa28479dfe378bb6/6679bdceaa28479dfe378bb6_Images/6679bdceaa28479dfe378bb6_Image_17.jpeg,liked,4.438512181,,,,,,,,,,,,,,,,,,,,,,
,,6679bdceaa28479dfe378bb6,6685aa9113c938e83b4f1ea0,669bdea8896ecc9457722270,2024-07-20_11h59.56.276,WTP_SM_Choice,2022.2.1,MacIntel,60.24096386,,,,,space,0.9668,NAN,,NAN,0.36,5.64,,0,17,17,17,1,18,Charlie,Rej,Participant_Images/6679bdceaa28479dfe378bb6/6679bdceaa28479dfe378bb6_Images/6679bdceaa28479dfe378bb6_Image_16.jpeg,did not like,2.682944783,,,,,,,,,,,,,,,,,,,,,,
,,6679bdceaa28479dfe378bb6,6685aa9113c938e83b4f1ea0,669bdea8896ecc9457722270,2024-07-20_11h59.56.276,WTP_SM_Choice,2022.2.1,MacIntel,60.24096386,,,,,space,0.8853,NAN,,NAN,0.36,5.64,,0,18,18,18,1,19,Charlie,Rej,Participant_Images/6679bdceaa28479dfe378bb6/6679bdceaa28479dfe378bb6_Images/6679bdceaa28479dfe378bb6_Image_15.jpeg,did not like,4.51984296,,,,,,,,,,,,,,,,,,,,,,
,,6679bdceaa28479dfe378bb6,6685aa9113c938e83b4f1ea0,669bdea8896ecc9457722270,2024-07-20_11h59.56.276,WTP_SM_Choice,2022.2.1,MacIntel,60.24096386,,,,,,,,,,,,,,,,,,16,,,,,,space,4.4347,space,2.3015,0.04,2,4.5962,0,0,0,0,1,design anything,watch real housewives with my friends ,0.01,0.04,1.1,1,,,,
,,6679bdceaa28479dfe378bb6,6685aa9113c938e83b4f1ea0,669bdea8896ecc9457722270,2024-07-20_11h59.56.276,WTP_SM_Choice,2022.2.1,MacIntel,60.24096386,,,,,,,,,,,,,,,,,,17,,,,,,,,,,0.02,1,2.318,0,1,1,1,1,watch true crime in my bedroom,eat chicken fingers by a pool with my friends,0.02,0.04,8.8,1,,,,
,,6679bdceaa28479dfe378bb6,6685aa9113c938e83b4f1ea0,669bdea8896ecc9457722270,2024-07-20_11h59.56.276,WTP_SM_Choice,2022.2.1,MacIntel,60.24096386,,,,,,,,,,,,,,,,,,18,,,,,,,,,,0.03,1,1.7669,0,2,2,2,1,watch true crime in my bedroom,watch real housewives with my friends ,0.03,0.04,3.3,1,,,,
,,6679bdceaa28479dfe378bb6,6685aa9113c938e83b4f1ea0,669bdea8896ecc9457722270,2024-07-20_11h59.56.276,WTP_SM_Choice,2022.2.1,MacIntel,60.24096386,,,,,,,,,,,,,,,,,,19,,,,,,,,,,0.04,1,2.7133,0,3,3,3,1,sit on a couch and catch up with my friends,drive around listening to music,0.04,0.04,3.3,0,,,,
,,6679bdceaa28479dfe378bb6,6685aa9113c938e83b4f1ea0,669bdea8896ecc9457722270,2024-07-20_11h59.56.276,WTP_SM_Choice,2022.2.1,MacIntel,60.24096386,,,,,,,,,,,,,,,,,,20,,,,,,,,,,0.04,2,3.5468,0,4,4,4,1,ride in a convertible by the ocean with my friends,drive around listening to music,0.05,0.04,1.1,0,,,,
,,6679bdceaa28479dfe378bb6,6685aa9113c938e83b4f1ea0,669bdea8896ecc9457722270,2024-07-20_11h59.56.276,WTP_SM_Choice,2022.2.1,MacIntel,60.24096386,,,,,,,NAN,,NAN,0.53,5.47,,0,19,19,19,1,20,Charlie,Rej,Participant_Images/6679bdceaa28479dfe378bb6/6679bdceaa28479dfe378bb6_Images/6679bdceaa28479dfe378bb6_Image_11.jpeg,did not like,3.195382774,,,,,,,,,,,,,,,,,,,,,,
,,6679bdceaa28479dfe378bb6,6685aa9113c938e83b4f1ea0,669bdea8896ecc9457722270,2024-07-20_11h59.56.276,WTP_SM_Choice,2022.2.1,MacIntel,60.24096386,,,,,space,1.3686,NAN,,NAN,0.53,5.47,,0,20,20,20,1,21,Charlie,Rej,Participant_Images/6679bdceaa28479dfe378bb6/6679bdceaa28479dfe378bb6_Images/6679bdceaa28479dfe378bb6_Image_24.jpeg,did not like,1.779333479,,,,,,,,,,,,,,,,,,,,,,
,,6679bdceaa28479dfe378bb6,6685aa9113c938e83b4f1ea0,669bdea8896ecc9457722270,2024-07-20_11h59.56.276,WTP_SM_Choice,2022.2.1,MacIntel,60.24096386,,,,,space,5.1478,NAN,,NAN,0.53,5.47,,0,21,21,21,1,22,Charlie,Rej,Participant_Images/6679bdceaa28479dfe378bb6/6679bdceaa28479dfe378bb6_Images/6679bdceaa28479dfe378bb6_Image_23.jpeg,liked,4.312468682,,,,,,,,,,,,,,,,,,,,,,
,,6679bdceaa28479dfe378bb6,6685aa9113c938e83b4f1ea0,669bdea8896ecc9457722270,2024-07-20_11h59.56.276,WTP_SM_Choice,2022.2.1,MacIntel,60.24096386,,,,,space,1.0307,NAN,,NAN,0.53,5.47,,0,22,22,22,1,23,Charlie,Rej,Participant_Images/6679bdceaa28479dfe378bb6/6679bdceaa28479dfe378bb6_Images/6679bdceaa28479dfe378bb6_Image_14.jpeg,did not like,4.940433059,,,,,,,,,,,,,,,,,,,,,,
,,6679bdceaa28479dfe378bb6,6685aa9113c938e83b4f1ea0,669bdea8896ecc9457722270,2024-07-20_11h59.56.276,WTP_SM_Choice,2022.2.1,MacIntel,60.24096386,,,,,space,1.1151,NAN,,NAN,0.53,5.47,,0,23,23,23,1,24,Charlie,Rej,Participant_Images/6679bdceaa28479dfe378bb6/6679bdceaa28479dfe378bb6_Images/6679bdceaa28479dfe378bb6_Image_6.jpeg,liked,2.7105123,,,,,,,,,,,,,,,,,,,,,,
,,6679bdceaa28479dfe378bb6,6685aa9113c938e83b4f1ea0,669bdea8896ecc9457722270,2024-07-20_11h59.56.276,WTP_SM_Choice,2022.2.1,MacIntel,60.24096386,,,,,,,,,,,,,,,,,,21,,,,,,space,2.9163,space,3.0191,0.01,1,2.8699,0,0,0,0,1,sit on a couch and catch up with my friends,go to home decor stores and judging the items ,0.01,0.05,8.8,0,,,,
,,6679bdceaa28479dfe378bb6,6685aa9113c938e83b4f1ea0,669bdea8896ecc9457722270,2024-07-20_11h59.56.276,WTP_SM_Choice,2022.2.1,MacIntel,60.24096386,,,,,,,,,,,,,,,,,,22,,,,,,,,,,0.05,2,4.0965,0,1,1,1,1,dance with my friends on a dance floor,browse the web about greek mythology,0.02,0.05,4.4,0,,,,
,,6679bdceaa28479dfe378bb6,6685aa9113c938e83b4f1ea0,669bdea8896ecc9457722270,2024-07-20_11h59.56.276,WTP_SM_Choice,2022.2.1,MacIntel,60.24096386,,,,,,,,,,,,,,,,,,23,,,,,,,,,,0.03,1,2.3122,0,2,2,2,1,watch true crime in my bedroom,swim in a pool with my friends,0.03,0.05,1.1,1,,,,
,,6679bdceaa28479dfe378bb6,6685aa9113c938e83b4f1ea0,669bdea8896ecc9457722270,2024-07-20_11h59.56.276,WTP_SM_Choice,2022.2.1,MacIntel,60.24096386,,,,,,,,,,,,,,,,,,24,,,,,,,,,,0.04,1,2.8701,0,3,3,3,1,browse the web about greek mythology,be on a boat with my friends,0.04,0.05,4.4,1,,,,
,,6679bdceaa28479dfe378bb6,6685aa9113c938e83b4f1ea0,669bdea8896ecc9457722270,2024-07-20_11h59.56.276,WTP_SM_Choice,2022.2.1,MacIntel,60.24096386,,,,,,,,,,,,,,,,,,25,,,,,,,,,,0.05,2,3.4136,0,4,4,4,1,swim in a pool with my friends,talk to myself about interesting things,0.05,0.05,3.3,0,,,,
,,6679bdceaa28479dfe378bb6,6685aa9113c938e83b4f1ea0,669bdea8896ecc9457722270,2024-07-20_11h59.56.276,WTP_SM_Choice,2022.2.1,MacIntel,60.24096386,,,,,,,5,,3,0.71,5.29,,0,24,24,24,1,25,Charlie,Rej,Participant_Images/6679bdceaa28479dfe378bb6/6679bdceaa28479dfe378bb6_Images/6679bdceaa28479dfe378bb6_Image_12.jpeg,did not like,3.602308302,,,,,,,,,,,,,,,,,,,space,1.2279,,
,,6679bdceaa28479dfe378bb6,6685aa9113c938e83b4f1ea0,669bdea8896ecc9457722270,2024-07-20_11h59.56.276,WTP_SM_Choice,2022.2.1,MacIntel,60.24096386,,,space,2.0944,space,1.1482,NAN,,NAN,0.71,5.29,,0,25,25,25,1,26,Alex,Rej,Participant_Images/6679bdceaa28479dfe378bb6/6679bdceaa28479dfe378bb6_Images/6679bdceaa28479dfe378bb6_Image_13.jpeg,liked,4.106391878,,,,,,,,,,,,,,,,,,,,,,
,,6679bdceaa28479dfe378bb6,6685aa9113c938e83b4f1ea0,669bdea8896ecc9457722270,2024-07-20_11h59.56.276,WTP_SM_Choice,2022.2.1,MacIntel,60.24096386,,,,,space,1.1012,NAN,,NAN,0.71,5.29,,0,26,26,26,1,27,Alex,Rej,Participant_Images/6679bdceaa28479dfe378bb6/6679bdceaa28479dfe378bb6_Images/6679bdceaa28479dfe378bb6_Image_18.jpeg,did not like,3.799433026,,,,,,,,,,,,,,,,,,,,,,
,,6679bdceaa28479dfe378bb6,6685aa9113c938e83b4f1ea0,669bdea8896ecc9457722270,2024-07-20_11h59.56.276,WTP_SM_Choice,2022.2.1,MacIntel,60.24096386,,,,,space,1.0975,NAN,,NAN,0.71,5.29,,0,27,27,27,1,28,Alex,Rej,Participant_Images/6679bdceaa28479dfe378bb6/6679bdceaa28479dfe378bb6_Images/6679bdceaa28479dfe378bb6_Image_15.jpeg,did not like,5.246980764,,,,,,,,,,,,,,,,,,,,,,
,,6679bdceaa28479dfe378bb6,6685aa9113c938e83b4f1ea0,669bdea8896ecc9457722270,2024-07-20_11h59.56.276,WTP_SM_Choice,2022.2.1,MacIntel,60.24096386,,,,,space,1.217,NAN,,NAN,0.71,5.29,,0,28,28,28,1,29,Alex,Rej,Participant_Images/6679bdceaa28479dfe378bb6/6679bdceaa28479dfe378bb6_Images/6679bdceaa28479dfe378bb6_Image_24.jpeg,liked,3.30081769,,,,,,,,,,,,,,,,,,,,,,
,,6679bdceaa28479dfe378bb6,6685aa9113c938e83b4f1ea0,669bdea8896ecc9457722270,2024-07-20_11h59.56.276,WTP_SM_Choice,2022.2.1,MacIntel,60.24096386,,,,,,,,,,,,,,,,,,26,,,,,,space,3.2495,space,4.2999,0.01,2,2.8788,0,0,0,0,1,open up gifts with my friends,go to home decor stores and judging the items ,0.01,0.01,4.4,0,,,,
,,6679bdceaa28479dfe378bb6,6685aa9113c938e83b4f1ea0,669bdea8896ecc9457722270,2024-07-20_11h59.56.276,WTP_SM_Choice,2022.2.1,MacIntel,60.24096386,,,,,,,,,,,,,,,,,,27,,,,,,,,,,0.01,2,3.4478,0,1,1,1,1,sit on a couch and catch up with my friends,browse the web about greek mythology,0.02,0.01,3.3,0,,,,
,,6679bdceaa28479dfe378bb6,6685aa9113c938e83b4f1ea0,669bdea8896ecc9457722270,2024-07-20_11h59.56.276,WTP_SM_Choice,2022.2.1,MacIntel,60.24096386,,,,,,,,,,,,,,,,,,28,,,,,,,,,,0.01,2,2.5144,0,2,2,2,1,eat crepes with my friends,browse the web about greek mythology,0.03,0.01,3.3,0,,,,
,,6679bdceaa28479dfe378bb6,6685aa9113c938e83b4f1ea0,669bdea8896ecc9457722270,2024-07-20_11h59.56.276,WTP_SM_Choice,2022.2.1,MacIntel,60.24096386,,,,,,,,,,,,,,,,,,29,,,,,,,,,,0.01,2,2.631,0,3,3,3,1,ride a bike around a lake,eat crepes with my friends,0.04,0.01,4.4,1,,,,
,,6679bdceaa28479dfe378bb6,6685aa9113c938e83b4f1ea0,669bdea8896ecc9457722270,2024-07-20_11h59.56.276,WTP_SM_Choice,2022.2.1,MacIntel,60.24096386,,,,,,,,,,,,,,,,,,30,,,,,,,,,,0.01,2,3.1647,0,4,4,4,1,talk to myself about interesting things,eat crepes with my friends,0.05,0.01,8.8,1,,,,
,,6679bdceaa28479dfe378bb6,6685aa9113c938e83b4f1ea0,669bdea8896ecc9457722270,2024-07-20_11h59.56.276,WTP_SM_Choice,2022.2.1,MacIntel,60.24096386,,,,,,,NAN,,NAN,0.76,5.24,,0,29,29,29,1,30,Alex,Rej,Participant_Images/6679bdceaa28479dfe378bb6/6679bdceaa28479dfe378bb6_Images/6679bdceaa28479dfe378bb6_Image_19.jpeg,liked,1.661473164,,,,,,,,,,,,,,,,,,,,,,
,,6679bdceaa28479dfe378bb6,6685aa9113c938e83b4f1ea0,669bdea8896ecc9457722270,2024-07-20_11h59.56.276,WTP_SM_Choice,2022.2.1,MacIntel,60.24096386,,,,,space,1.2156,NAN,,NAN,0.76,5.24,,0,30,30,30,1,31,Alex,Rej,Participant_Images/6679bdceaa28479dfe378bb6/6679bdceaa28479dfe378bb6_Images/6679bdceaa28479dfe378bb6_Image_17.jpeg,did not like,3.613205605,,,,,,,,,,,,,,,,,,,,,,
,,6679bdceaa28479dfe378bb6,6685aa9113c938e83b4f1ea0,669bdea8896ecc9457722270,2024-07-20_11h59.56.276,WTP_SM_Choice,2022.2.1,MacIntel,60.24096386,,,,,space,1.2492,NAN,,NAN,0.76,5.24,,0,31,31,31,1,32,Alex,Rej,Participant_Images/6679bdceaa28479dfe378bb6/6679bdceaa28479dfe378bb6_Images/6679bdceaa28479dfe378bb6_Image_16.jpeg,did not like,4.988446431,,,,,,,,,,,,,,,,,,,,,,
,,6679bdceaa28479dfe378bb6,6685aa9113c938e83b4f1ea0,669bdea8896ecc9457722270,2024-07-20_11h59.56.276,WTP_SM_Choice,2022.2.1,MacIntel,60.24096386,,,,,space,1.1154,NAN,,NAN,0.76,5.24,,0,32,32,32,1,33,Alex,Rej,Participant_Images/6679bdceaa28479dfe378bb6/6679bdceaa28479dfe378bb6_Images/6679bdceaa28479dfe378bb6_Image_3.jpeg,liked,3.470791822,,,,,,,,,,,,,,,,,,,,,,
,,6679bdceaa28479dfe378bb6,6685aa9113c938e83b4f1ea0,669bdea8896ecc9457722270,2024-07-20_11h59.56.276,WTP_SM_Choice,2022.2.1,MacIntel,60.24096386,,,,,space,1.2141,NAN,,NAN,0.76,5.24,,0,33,33,33,1,34,Alex,Rej,Participant_Images/6679bdceaa28479dfe378bb6/6679bdceaa28479dfe378bb6_Images/6679bdceaa28479dfe378bb6_Image_12.jpeg,did not like,3.820572462,,,,,,,,,,,,,,,,,,,,,,
,,6679bdceaa28479dfe378bb6,6685aa9113c938e83b4f1ea0,669bdea8896ecc9457722270,2024-07-20_11h59.56.276,WTP_SM_Choice,2022.2.1,MacIntel,60.24096386,,,,,,,,,,,,,,,,,,31,,,,,,space,3.3991,space,2.4348,0.02,2,1.8603,0,0,0,0,1,go to italy with my friends and buy bags,ride a bike around a lake,0.01,0.02,8.8,0,,,,
,,6679bdceaa28479dfe378bb6,6685aa9113c938e83b4f1ea0,669bdea8896ecc9457722270,2024-07-20_11h59.56.276,WTP_SM_Choice,2022.2.1,MacIntel,60.24096386,,,,,,,,,,,,,,,,,,32,,,,,,,,,,0.02,1,2.6969,0,1,1,1,1,go to home decor stores and judging the items ,be on a boat with my friends,0.02,0.02,1.1,1,,,,
,,6679bdceaa28479dfe378bb6,6685aa9113c938e83b4f1ea0,669bdea8896ecc9457722270,2024-07-20_11h59.56.276,WTP_SM_Choice,2022.2.1,MacIntel,60.24096386,,,,,,,,,,,,,,,,,,33,,,,,,,,,,0.03,1,4.9027,0,2,2,2,1,talk to myself about interesting things,ride in a convertible by the ocean with my friends,0.03,0.02,4.4,1,,,,
,,6679bdceaa28479dfe378bb6,6685aa9113c938e83b4f1ea0,669bdea8896ecc9457722270,2024-07-20_11h59.56.276,WTP_SM_Choice,2022.2.1,MacIntel,60.24096386,,,,,,,,,,,,,,,,,,34,,,,,,,,,,0.02,2,3.496,0,3,3,3,1,dance with my friends on a dance floor,swim in the warm clear ocean ,0.04,0.02,3.3,0,,,,
,,6679bdceaa28479dfe378bb6,6685aa9113c938e83b4f1ea0,669bdea8896ecc9457722270,2024-07-20_11h59.56.276,WTP_SM_Choice,2022.2.1,MacIntel,60.24096386,,,,,,,,,,,,,,,,,,35,,,,,,,,,,0.02,2,2.7853,0,4,4,4,1,ride in a convertible by the ocean with my friends,go to home decor stores and judging the items ,0.05,0.02,1.1,0,,,,
,,6679bdceaa28479dfe378bb6,6685aa9113c938e83b4f1ea0,669bdea8896ecc9457722270,2024-07-20_11h59.56.276,WTP_SM_Choice,2022.2.1,MacIntel,60.24096386,,,,,,,NAN,,NAN,0.87,5.13,,0,34,34,34,1,35,Alex,Rej,Participant_Images/6679bdceaa28479dfe378bb6/6679bdceaa28479dfe378bb6_Images/6679bdceaa28479dfe378bb6_Image_14.jpeg,did not like,2.455989137,,,,,,,,,,,,,,,,,,,,,,
,,6679bdceaa28479dfe378bb6,6685aa9113c938e83b4f1ea0,669bdea8896ecc9457722270,2024-07-20_11h59.56.276,WTP_SM_Choice,2022.2.1,MacIntel,60.24096386,,,,,space,1.0499,NAN,,NAN,0.87,5.13,,0,35,35,35,1,36,Alex,Rej,Participant_Images/6679bdceaa28479dfe378bb6/6679bdceaa28479dfe378bb6_Images/6679bdceaa28479dfe378bb6_Image_25.jpeg,did not like,3.79605092,,,,,,,,,,,,,,,,,,,,,,
,,6679bdceaa28479dfe378bb6,6685aa9113c938e83b4f1ea0,669bdea8896ecc9457722270,2024-07-20_11h59.56.276,WTP_SM_Choice,2022.2.1,MacIntel,60.24096386,,,,,space,1.1816,NAN,,NAN,0.87,5.13,,0,36,36,36,1,37,Alex,Rej,Participant_Images/6679bdceaa28479dfe378bb6/6679bdceaa28479dfe378bb6_Images/6679bdceaa28479dfe378bb6_Image_7.jpeg,did not like,3.562416326,,,,,,,,,,,,,,,,,,,,,,
,,6679bdceaa28479dfe378bb6,6685aa9113c938e83b4f1ea0,669bdea8896ecc9457722270,2024-07-20_11h59.56.276,WTP_SM_Choice,2022.2.1,MacIntel,60.24096386,,,,,space,1.483,NAN,,NAN,0.87,5.13,,0,37,37,37,1,38,Alex,Rej,Participant_Images/6679bdceaa28479dfe378bb6/6679bdceaa28479dfe378bb6_Images/6679bdceaa28479dfe378bb6_Image_23.jpeg,did not like,2.843822497,,,,,,,,,,,,,,,,,,,,,,
,,6679bdceaa28479dfe378bb6,6685aa9113c938e83b4f1ea0,669bdea8896ecc9457722270,2024-07-20_11h59.56.276,WTP_SM_Choice,2022.2.1,MacIntel,60.24096386,,,,,space,1.8157,NAN,,NAN,0.87,5.13,,0,38,38,38,1,39,Alex,Rej,Participant_Images/6679bdceaa28479dfe378bb6/6679bdceaa28479dfe378bb6_Images/6679bdceaa28479dfe378bb6_Image_21.jpeg,liked,3.546495948,,,,,,,,,,,,,,,,,,,,,,
,,6679bdceaa28479dfe378bb6,6685aa9113c938e83b4f1ea0,669bdea8896ecc9457722270,2024-07-20_11h59.56.276,WTP_SM_Choice,2022.2.1,MacIntel,60.24096386,,,,,,,,,,,,,,,,,,36,,,,,,space,3.2842,space,2.3144,0.01,1,2.2651,0,0,0,0,1,ride a bike around a lake,eat chicken fingers by a pool with my friends,0.01,0.03,3.3,1,,,,
,,6679bdceaa28479dfe378bb6,6685aa9113c938e83b4f1ea0,669bdea8896ecc9457722270,2024-07-20_11h59.56.276,WTP_SM_Choice,2022.2.1,MacIntel,60.24096386,,,,,,,,,,,,,,,,,,37,,,,,,,,,,0.03,2,3.7209,0,1,1,1,1,dance with my friends on a dance floor,go through a starbucks drive thru when there are no other cars around,0.02,0.03,1.1,0,,,,
,,6679bdceaa28479dfe378bb6,6685aa9113c938e83b4f1ea0,669bdea8896ecc9457722270,2024-07-20_11h59.56.276,WTP_SM_Choice,2022.2.1,MacIntel,60.24096386,,,,,,,,,,,,,,,,,,38,,,,,,,,,,0.03,1,4.6871,0,2,2,2,1,go through a starbucks drive thru when there are no other cars around,eat crepes with my friends,0.03,0.03,1.1,1,,,,
,,6679bdceaa28479dfe378bb6,6685aa9113c938e83b4f1ea0,669bdea8896ecc9457722270,2024-07-20_11h59.56.276,WTP_SM_Choice,2022.2.1,MacIntel,60.24096386,,,,,,,,,,,,,,,,,,39,,,,,,,,,,0.03,2,4.0521,0,3,3,3,1,drive around listening to music,be on a boat with my friends,0.04,0.03,3.3,1,,,,
,,6679bdceaa28479dfe378bb6,6685aa9113c938e83b4f1ea0,669bdea8896ecc9457722270,2024-07-20_11h59.56.276,WTP_SM_Choice,2022.2.1,MacIntel,60.24096386,,,,,,,,,,,,,,,,,,40,,,,,,,,,,0.03,2,2.1704,0,4,4,4,1,go to home decor stores and judging the items ,eat chicken fingers by a pool with my friends,0.05,0.03,4.4,1,,,,
,,6679bdceaa28479dfe378bb6,6685aa9113c938e83b4f1ea0,669bdea8896ecc9457722270,2024-07-20_11h59.56.276,WTP_SM_Choice,2022.2.1,MacIntel,60.24096386,,,,,,,NAN,,NAN,1,5,,0,39,39,39,1,40,Alex,Rej,Participant_Images/6679bdceaa28479dfe378bb6/6679bdceaa28479dfe378bb6_Images/6679bdceaa28479dfe378bb6_Image_9.jpeg,liked,1.672012706,,,,,,,,,,,,,,,,,,,,,,
,,6679bdceaa28479dfe378bb6,6685aa9113c938e83b4f1ea0,669bdea8896ecc9457722270,2024-07-20_11h59.56.276,WTP_SM_Choice,2022.2.1,MacIntel,60.24096386,,,,,space,1.3483,NAN,,NAN,1,5,,0,40,40,40,1,41,Alex,Rej,Participant_Images/6679bdceaa28479dfe378bb6/6679bdceaa28479dfe378bb6_Images/6679bdceaa28479dfe378bb6_Image_11.jpeg,did not like,4.942172136,,,,,,,,,,,,,,,,,,,,,,
,,6679bdceaa28479dfe378bb6,6685aa9113c938e83b4f1ea0,669bdea8896ecc9457722270,2024-07-20_11h59.56.276,WTP_SM_Choice,2022.2.1,MacIntel,60.24096386,,,,,space,1.7147,NAN,,NAN,1,5,,0,41,41,41,1,42,Alex,Rej,Participant_Images/6679bdceaa28479dfe378bb6/6679bdceaa28479dfe378bb6_Images/6679bdceaa28479dfe378bb6_Image_5.jpeg,did not like,2.50187214,,,,,,,,,,,,,,,,,,,,,,
,,6679bdceaa28479dfe378bb6,6685aa9113c938e83b4f1ea0,669bdea8896ecc9457722270,2024-07-20_11h59.56.276,WTP_SM_Choice,2022.2.1,MacIntel,60.24096386,,,,,space,4.4173,NAN,,NAN,1,5,,0,42,42,42,1,43,Alex,Rej,Participant_Images/6679bdceaa28479dfe378bb6/6679bdceaa28479dfe378bb6_Images/6679bdceaa28479dfe378bb6_Image_2.jpeg,did not like,2.071164779,,,,,,,,,,,,,,,,,,,,,,
,,6679bdceaa28479dfe378bb6,6685aa9113c938e83b4f1ea0,669bdea8896ecc9457722270,2024-07-20_11h59.56.276,WTP_SM_Choice,2022.2.1,MacIntel,60.24096386,,,,,space,1.2664,NAN,,NAN,1,5,,0,43,43,43,1,44,Alex,Rej,Participant_Images/6679bdceaa28479dfe378bb6/6679bdceaa28479dfe378bb6_Images/6679bdceaa28479dfe378bb6_Image_10.jpeg,did not like,5.336503566,,,,,,,,,,,,,,,,,,,,,,
,,6679bdceaa28479dfe378bb6,6685aa9113c938e83b4f1ea0,669bdea8896ecc9457722270,2024-07-20_11h59.56.276,WTP_SM_Choice,2022.2.1,MacIntel,60.24096386,,,,,,,,,,,,,,,,,,41,,,,,,space,2.3479,space,3.3155,0.01,1,2.3731,0,0,0,0,1,design anything,go to italy with my friends and buy bags,0.01,0.04,1.1,1,,,,
,,6679bdceaa28479dfe378bb6,6685aa9113c938e83b4f1ea0,669bdea8896ecc9457722270,2024-07-20_11h59.56.276,WTP_SM_Choice,2022.2.1,MacIntel,60.24096386,,,,,,,,,,,,,,,,,,42,,,,,,,,,,0.02,1,2.7807,0,1,1,1,1,ride in a convertible by the ocean with my friends,swim in the warm clear ocean ,0.02,0.04,3.3,0,,,,
,,6679bdceaa28479dfe378bb6,6685aa9113c938e83b4f1ea0,669bdea8896ecc9457722270,2024-07-20_11h59.56.276,WTP_SM_Choice,2022.2.1,MacIntel,60.24096386,,,,,,,,,,,,,,,,,,43,,,,,,,,,,0.04,2,3.9485,0,2,2,2,1,open up gifts with my friends,go through a starbucks drive thru when there are no other cars around,0.03,0.04,1.1,0,,,,
,,6679bdceaa28479dfe378bb6,6685aa9113c938e83b4f1ea0,669bdea8896ecc9457722270,2024-07-20_11h59.56.276,WTP_SM_Choice,2022.2.1,MacIntel,60.24096386,,,,,,,,,,,,,,,,,,44,,,,,,,,,,0.04,2,2.3545,0,3,3,3,1,be on a boat with my friends,ride a bike around a lake,0.04,0.04,1.1,0,,,,
,,6679bdceaa28479dfe378bb6,6685aa9113c938e83b4f1ea0,669bdea8896ecc9457722270,2024-07-20_11h59.56.276,WTP_SM_Choice,2022.2.1,MacIntel,60.24096386,,,,,,,,,,,,,,,,,,45,,,,,,,,,,0.05,1,4.2683,0,4,4,4,1,open up gifts with my friends,swim in the warm clear ocean ,0.05,0.04,4.4,0,,,,
,,6679bdceaa28479dfe378bb6,6685aa9113c938e83b4f1ea0,669bdea8896ecc9457722270,2024-07-20_11h59.56.276,WTP_SM_Choice,2022.2.1,MacIntel,60.24096386,,,,,,,NAN,,NAN,1.16,4.84,,0,44,44,44,1,45,Alex,Rej,Participant_Images/6679bdceaa28479dfe378bb6/6679bdceaa28479dfe378bb6_Images/6679bdceaa28479dfe378bb6_Image_20.jpeg,did not like,2.642157193,,,,,,,,,,,,,,,,,,,,,,
,,6679bdceaa28479dfe378bb6,6685aa9113c938e83b4f1ea0,669bdea8896ecc9457722270,2024-07-20_11h59.56.276,WTP_SM_Choice,2022.2.1,MacIntel,60.24096386,,,,,space,1.5171,NAN,,NAN,1.16,4.84,,0,45,45,45,1,46,Alex,Rej,Participant_Images/6679bdceaa28479dfe378bb6/6679bdceaa28479dfe378bb6_Images/6679bdceaa28479dfe378bb6_Image_8.jpeg,did not like,4.456234322,,,,,,,,,,,,,,,,,,,,,,
,,6679bdceaa28479dfe378bb6,6685aa9113c938e83b4f1ea0,669bdea8896ecc9457722270,2024-07-20_11h59.56.276,WTP_SM_Choice,2022.2.1,MacIntel,60.24096386,,,,,space,1.0344,NAN,,NAN,1.16,4.84,,0,46,46,46,1,47,Alex,Rej,Participant_Images/6679bdceaa28479dfe378bb6/6679bdceaa28479dfe378bb6_Images/6679bdceaa28479dfe378bb6_Image_6.jpeg,did not like,4.438512181,,,,,,,,,,,,,,,,,,,,,,
,,6679bdceaa28479dfe378bb6,6685aa9113c938e83b4f1ea0,669bdea8896ecc9457722270,2024-07-20_11h59.56.276,WTP_SM_Choice,2022.2.1,MacIntel,60.24096386,,,,,space,1.1323,NAN,,NAN,1.16,4.84,,0,47,47,47,1,48,Alex,Rej,Participant_Images/6679bdceaa28479dfe378bb6/6679bdceaa28479dfe378bb6_Images/6679bdceaa28479dfe378bb6_Image_1.jpeg,liked,2.682944783,,,,,,,,,,,,,,,,,,,,,,
,,6679bdceaa28479dfe378bb6,6685aa9113c938e83b4f1ea0,669bdea8896ecc9457722270,2024-07-20_11h59.56.276,WTP_SM_Choice,2022.2.1,MacIntel,60.24096386,,,,,space,0.6301,NAN,,NAN,1.16,4.84,,0,48,48,48,1,49,Alex,Rej,Participant_Images/6679bdceaa28479dfe378bb6/6679bdceaa28479dfe378bb6_Images/6679bdceaa28479dfe378bb6_Image_4.jpeg,did not like,4.51984296,,,,,,,,,,,,,,,,,,,,,,
,,6679bdceaa28479dfe378bb6,6685aa9113c938e83b4f1ea0,669bdea8896ecc9457722270,2024-07-20_11h59.56.276,WTP_SM_Choice,2022.2.1,MacIntel,60.24096386,,,,,,,,,,,,,,,,,,46,,,,,,space,2.3184,space,2.4677,0.01,1,1.9084,0,0,0,0,1,swim in the warm clear ocean ,watch real housewives with my friends ,0.01,0.05,8.8,1,,,,
,,6679bdceaa28479dfe378bb6,6685aa9113c938e83b4f1ea0,669bdea8896ecc9457722270,2024-07-20_11h59.56.276,WTP_SM_Choice,2022.2.1,MacIntel,60.24096386,,,,,,,,,,,,,,,,,,47,,,,,,,,,,0.05,2,2.9604,0,1,1,1,1,design anything,dance with my friends on a dance floor,0.02,0.05,1.1,1,,,,
,,6679bdceaa28479dfe378bb6,6685aa9113c938e83b4f1ea0,669bdea8896ecc9457722270,2024-07-20_11h59.56.276,WTP_SM_Choice,2022.2.1,MacIntel,60.24096386,,,,,,,,,,,,,,,,,,48,,,,,,,,,,0.03,1,3.3242,0,2,2,2,1,browse the web about greek mythology,ride in a convertible by the ocean with my friends,0.03,0.05,4.4,1,,,,
,,6679bdceaa28479dfe378bb6,6685aa9113c938e83b4f1ea0,669bdea8896ecc9457722270,2024-07-20_11h59.56.276,WTP_SM_Choice,2022.2.1,MacIntel,60.24096386,,,,,,,,,,,,,,,,,,49,,,,,,,,,,0.04,1,2.9305,0,3,3,3,1,go to stores and looking at pretty things,ride in a convertible by the ocean with my friends,0.04,0.05,3.3,1,,,,
,,6679bdceaa28479dfe378bb6,6685aa9113c938e83b4f1ea0,669bdea8896ecc9457722270,2024-07-20_11h59.56.276,WTP_SM_Choice,2022.2.1,MacIntel,60.24096386,,,,,,,,,,,,,,,,,,50,,,,,,,,,,0.05,1,3.1358,0,4,4,4,1,design anything,swim in a pool with my friends,0.05,0.05,1.1,1,,,,
,,6679bdceaa28479dfe378bb6,6685aa9113c938e83b4f1ea0,669bdea8896ecc9457722270,2024-07-20_11h59.56.276,WTP_SM_Choice,2022.2.1,MacIntel,60.24096386,,,,,,,4,,2,1.34,4.66,,0,49,49,49,1,50,Alex,Rej,Participant_Images/6679bdceaa28479dfe378bb6/6679bdceaa28479dfe378bb6_Images/6679bdceaa28479dfe378bb6_Image_22.jpeg,did not like,3.195382774,,,,,,,,,,,,,,,,,,,space,1.1318,,
,,6679bdceaa28479dfe378bb6,6685aa9113c938e83b4f1ea0,669bdea8896ecc9457722270,2024-07-20_11h59.56.276,WTP_SM_Choice,2022.2.1,MacIntel,60.24096386,,,space,2.3521,space,0.9312,NAN,,NAN,1.34,4.66,,0,50,50,50,1,51,Sam,Acc,Participant_Images/6679bdceaa28479dfe378bb6/6679bdceaa28479dfe378bb6_Images/6679bdceaa28479dfe378bb6_Image_11.jpeg,liked,1.779333479,,,,,,,,,,,,,,,,,,,,,,
,,6679bdceaa28479dfe378bb6,6685aa9113c938e83b4f1ea0,669bdea8896ecc9457722270,2024-07-20_11h59.56.276,WTP_SM_Choice,2022.2.1,MacIntel,60.24096386,,,,,space,1.6524,NAN,,NAN,1.34,4.66,,0,51,51,51,1,52,Sam,Acc,Participant_Images/6679bdceaa28479dfe378bb6/6679bdceaa28479dfe378bb6_Images/6679bdceaa28479dfe378bb6_Image_14.jpeg,liked,4.312468682,,,,,,,,,,,,,,,,,,,,,,
,,6679bdceaa28479dfe378bb6,6685aa9113c938e83b4f1ea0,669bdea8896ecc9457722270,2024-07-20_11h59.56.276,WTP_SM_Choice,2022.2.1,MacIntel,60.24096386,,,,,space,0.9159,NAN,,NAN,1.34,4.66,,0,52,52,52,1,53,Sam,Acc,Participant_Images/6679bdceaa28479dfe378bb6/6679bdceaa28479dfe378bb6_Images/6679bdceaa28479dfe378bb6_Image_7.jpeg,liked,4.940433059,,,,,,,,,,,,,,,,,,,,,,
,,6679bdceaa28479dfe378bb6,6685aa9113c938e83b4f1ea0,669bdea8896ecc9457722270,2024-07-20_11h59.56.276,WTP_SM_Choice,2022.2.1,MacIntel,60.24096386,,,,,space,1.2839,NAN,,NAN,1.34,4.66,,0,53,53,53,1,54,Sam,Acc,Participant_Images/6679bdceaa28479dfe378bb6/6679bdceaa28479dfe378bb6_Images/6679bdceaa28479dfe378bb6_Image_6.jpeg,liked,2.7105123,,,,,,,,,,,,,,,,,,,,,,
,,6679bdceaa28479dfe378bb6,6685aa9113c938e83b4f1ea0,669bdea8896ecc9457722270,2024-07-20_11h59.56.276,WTP_SM_Choice,2022.2.1,MacIntel,60.24096386,,,,,,,,,,,,,,,,,,51,,,,,,space,5.8166,space,4.3029,0.01,1,2.3601,0,0,0,0,1,go to italy with my friends and buy bags,swim in the warm clear ocean ,0.01,0.01,1.1,0,,,,
,,6679bdceaa28479dfe378bb6,6685aa9113c938e83b4f1ea0,669bdea8896ecc9457722270,2024-07-20_11h59.56.276,WTP_SM_Choice,2022.2.1,MacIntel,60.24096386,,,,,,,,,,,,,,,,,,52,,,,,,,,,,0.01,2,3.1028,0,1,1,1,1,eat chicken fingers by a pool with my friends,go to stores and looking at pretty things,0.02,0.01,3.3,0,,,,
,,6679bdceaa28479dfe378bb6,6685aa9113c938e83b4f1ea0,669bdea8896ecc9457722270,2024-07-20_11h59.56.276,WTP_SM_Choice,2022.2.1,MacIntel,60.24096386,,,,,,,,,,,,,,,,,,53,,,,,,,,,,0.01,2,2.7361,0,2,2,2,1,swim in a pool with my friends,go through a starbucks drive thru when there are no other cars around,0.03,0.01,1.1,0,,,,
,,6679bdceaa28479dfe378bb6,6685aa9113c938e83b4f1ea0,669bdea8896ecc9457722270,2024-07-20_11h59.56.276,WTP_SM_Choice,2022.2.1,MacIntel,60.24096386,,,,,,,,,,,,,,,,,,54,,,,,,,,,,0.01,2,4.0766,0,3,3,3,1,ride a bike around a lake,dance with my friends on a dance floor,0.04,0.01,4.4,1,,,,
,,6679bdceaa28479dfe378bb6,6685aa9113c938e83b4f1ea0,669bdea8896ecc9457722270,2024-07-20_11h59.56.276,WTP_SM_Choice,2022.2.1,MacIntel,60.24096386,,,,,,,,,,,,,,,,,,55,,,,,,,,,,0.01,2,2.4625,0,4,4,4,1,ride in a convertible by the ocean with my friends,watch true crime in my bedroom,0.05,0.01,1.1,0,,,,
,,6679bdceaa28479dfe378bb6,6685aa9113c938e83b4f1ea0,669bdea8896ecc9457722270,2024-07-20_11h59.56.276,WTP_SM_Choice,2022.2.1,MacIntel,60.24096386,,,,,,,NAN,,NAN,1.39,4.61,,0,54,54,54,1,55,Sam,Acc,Participant_Images/6679bdceaa28479dfe378bb6/6679bdceaa28479dfe378bb6_Images/6679bdceaa28479dfe378bb6_Image_13.jpeg,did not like,3.602308302,,,,,,,,,,,,,,,,,,,,,,
,,6679bdceaa28479dfe378bb6,6685aa9113c938e83b4f1ea0,669bdea8896ecc9457722270,2024-07-20_11h59.56.276,WTP_SM_Choice,2022.2.1,MacIntel,60.24096386,,,,,space,1.1499,NAN,,NAN,1.39,4.61,,0,55,55,55,1,56,Sam,Acc,Participant_Images/6679bdceaa28479dfe378bb6/6679bdceaa28479dfe378bb6_Images/6679bdceaa28479dfe378bb6_Image_24.jpeg,did not like,4.106391878,,,,,,,,,,,,,,,,,,,,,,
,,6679bdceaa28479dfe378bb6,6685aa9113c938e83b4f1ea0,669bdea8896ecc9457722270,2024-07-20_11h59.56.276,WTP_SM_Choice,2022.2.1,MacIntel,60.24096386,,,,,space,0.9842,NAN,,NAN,1.39,4.61,,0,56,56,56,1,57,Sam,Acc,Participant_Images/6679bdceaa28479dfe378bb6/6679bdceaa28479dfe378bb6_Images/6679bdceaa28479dfe378bb6_Image_10.jpeg,did not like,3.799433026,,,,,,,,,,,,,,,,,,,,,,
,,6679bdceaa28479dfe378bb6,6685aa9113c938e83b4f1ea0,669bdea8896ecc9457722270,2024-07-20_11h59.56.276,WTP_SM_Choice,2022.2.1,MacIntel,60.24096386,,,,,space,1.0676,NAN,,NAN,1.39,4.61,,0,57,57,57,1,58,Sam,Acc,Participant_Images/6679bdceaa28479dfe378bb6/6679bdceaa28479dfe378bb6_Images/6679bdceaa28479dfe378bb6_Image_15.jpeg,liked,5.246980764,,,,,,,,,,,,,,,,,,,,,,
,,6679bdceaa28479dfe378bb6,6685aa9113c938e83b4f1ea0,669bdea8896ecc9457722270,2024-07-20_11h59.56.276,WTP_SM_Choice,2022.2.1,MacIntel,60.24096386,,,,,space,1.083,NAN,,NAN,1.39,4.61,,0,58,58,58,1,59,Sam,Acc,Participant_Images/6679bdceaa28479dfe378bb6/6679bdceaa28479dfe378bb6_Images/6679bdceaa28479dfe378bb6_Image_21.jpeg,liked,3.30081769,,,,,,,,,,,,,,,,,,,,,,
,,6679bdceaa28479dfe378bb6,6685aa9113c938e83b4f1ea0,669bdea8896ecc9457722270,2024-07-20_11h59.56.276,WTP_SM_Choice,2022.2.1,MacIntel,60.24096386,,,,,,,,,,,,,,,,,,56,,,,,,space,2.8145,space,2.3166,0.01,1,2.4597,0,0,0,0,1,talk to myself about interesting things,go to italy with my friends and buy bags,0.01,0.02,8.8,1,,,,
,,6679bdceaa28479dfe378bb6,6685aa9113c938e83b4f1ea0,669bdea8896ecc9457722270,2024-07-20_11h59.56.276,WTP_SM_Choice,2022.2.1,MacIntel,60.24096386,,,,,,,,,,,,,,,,,,57,,,,,,,,,,0.02,1,2.4814,0,1,1,1,1,sit on a couch and catch up with my friends,swim in the warm clear ocean ,0.02,0.02,4.4,0,,,,
,,6679bdceaa28479dfe378bb6,6685aa9113c938e83b4f1ea0,669bdea8896ecc9457722270,2024-07-20_11h59.56.276,WTP_SM_Choice,2022.2.1,MacIntel,60.24096386,,,,,,,,,,,,,,,,,,58,,,,,,,,,,0.02,2,2.3454,0,2,2,2,1,be on a boat with my friends,watch true crime in my bedroom,0.03,0.02,4.4,0,,,,
,,6679bdceaa28479dfe378bb6,6685aa9113c938e83b4f1ea0,669bdea8896ecc9457722270,2024-07-20_11h59.56.276,WTP_SM_Choice,2022.2.1,MacIntel,60.24096386,,,,,,,,,,,,,,,,,,59,,,,,,,,,,0.02,2,2.0787,0,3,3,3,1,drive around listening to music,open up gifts with my friends,0.04,0.02,4.4,1,,,,
,,6679bdceaa28479dfe378bb6,6685aa9113c938e83b4f1ea0,669bdea8896ecc9457722270,2024-07-20_11h59.56.276,WTP_SM_Choice,2022.2.1,MacIntel,60.24096386,,,,,,,,,,,,,,,,,,60,,,,,,,,,,0.02,2,3.8273,0,4,4,4,1,eat chicken fingers by a pool with my friends,design anything,0.05,0.02,1.1,0,,,,
,,6679bdceaa28479dfe378bb6,6685aa9113c938e83b4f1ea0,669bdea8896ecc9457722270,2024-07-20_11h59.56.276,WTP_SM_Choice,2022.2.1,MacIntel,60.24096386,,,,,,,NAN,,NAN,1.48,4.52,,0,59,59,59,1,60,Sam,Acc,Participant_Images/6679bdceaa28479dfe378bb6/6679bdceaa28479dfe378bb6_Images/6679bdceaa28479dfe378bb6_Image_2.jpeg,liked,1.661473164,,,,,,,,,,,,,,,,,,,,,,
,,6679bdceaa28479dfe378bb6,6685aa9113c938e83b4f1ea0,669bdea8896ecc9457722270,2024-07-20_11h59.56.276,WTP_SM_Choice,2022.2.1,MacIntel,60.24096386,,,,,space,1.2175,NAN,,NAN,1.48,4.52,,0,60,60,60,1,61,Sam,Acc,Participant_Images/6679bdceaa28479dfe378bb6/6679bdceaa28479dfe378bb6_Images/6679bdceaa28479dfe378bb6_Image_22.jpeg,liked,3.613205605,,,,,,,,,,,,,,,,,,,,,,
,,6679bdceaa28479dfe378bb6,6685aa9113c938e83b4f1ea0,669bdea8896ecc9457722270,2024-07-20_11h59.56.276,WTP_SM_Choice,2022.2.1,MacIntel,60.24096386,,,,,space,1.248,NAN,,NAN,1.48,4.52,,0,61,61,61,1,62,Sam,Acc,Participant_Images/6679bdceaa28479dfe378bb6/6679bdceaa28479dfe378bb6_Images/6679bdceaa28479dfe378bb6_Image_20.jpeg,liked,4.988446431,,,,,,,,,,,,,,,,,,,,,,
,,6679bdceaa28479dfe378bb6,6685aa9113c938e83b4f1ea0,669bdea8896ecc9457722270,2024-07-20_11h59.56.276,WTP_SM_Choice,2022.2.1,MacIntel,60.24096386,,,,,space,1.1519,NAN,,NAN,1.48,4.52,,0,62,62,62,1,63,Sam,Acc,Participant_Images/6679bdceaa28479dfe378bb6/6679bdceaa28479dfe378bb6_Images/6679bdceaa28479dfe378bb6_Image_9.jpeg,liked,3.470791822,,,,,,,,,,,,,,,,,,,,,,
,,6679bdceaa28479dfe378bb6,6685aa9113c938e83b4f1ea0,669bdea8896ecc9457722270,2024-07-20_11h59.56.276,WTP_SM_Choice,2022.2.1,MacIntel,60.24096386,,,,,space,1.2338,NAN,,NAN,1.48,4.52,,0,63,63,63,1,64,Sam,Acc,Participant_Images/6679bdceaa28479dfe378bb6/6679bdceaa28479dfe378bb6_Images/6679bdceaa28479dfe378bb6_Image_25.jpeg,did not like,3.820572462,,,,,,,,,,,,,,,,,,,,,,
,,6679bdceaa28479dfe378bb6,6685aa9113c938e83b4f1ea0,669bdea8896ecc9457722270,2024-07-20_11h59.56.276,WTP_SM_Choice,2022.2.1,MacIntel,60.24096386,,,,,,,,,,,,,,,,,,61,,,,,,space,4.4351,space,3.2507,0.01,1,2.1303,0,0,0,0,1,watch real housewives with my friends ,go to home decor stores and judging the items ,0.01,0.03,3.3,0,,,,
,,6679bdceaa28479dfe378bb6,6685aa9113c938e83b4f1ea0,669bdea8896ecc9457722270,2024-07-20_11h59.56.276,WTP_SM_Choice,2022.2.1,MacIntel,60.24096386,,,,,,,,,,,,,,,,,,62,,,,,,,,,,0.02,1,2.9356,0,1,1,1,1,open up gifts with my friends,talk to myself about interesting things,0.02,0.03,3.3,0,,,,
,,6679bdceaa28479dfe378bb6,6685aa9113c938e83b4f1ea0,669bdea8896ecc9457722270,2024-07-20_11h59.56.276,WTP_SM_Choice,2022.2.1,MacIntel,60.24096386,,,,,,,,,,,,,,,,,,63,,,,,,,,,,0.03,2,2.3345,0,2,2,2,1,ride in a convertible by the ocean with my friends,ride a bike around a lake,0.03,0.03,3.3,0,,,,
,,6679bdceaa28479dfe378bb6,6685aa9113c938e83b4f1ea0,669bdea8896ecc9457722270,2024-07-20_11h59.56.276,WTP_SM_Choice,2022.2.1,MacIntel,60.24096386,,,,,,,,,,,,,,,,,,64,,,,,,,,,,0.04,1,2.9191,0,3,3,3,1,go to home decor stores and judging the items ,dance with my friends on a dance floor,0.04,0.03,1.1,1,,,,
,,6679bdceaa28479dfe378bb6,6685aa9113c938e83b4f1ea0,669bdea8896ecc9457722270,2024-07-20_11h59.56.276,WTP_SM_Choice,2022.2.1,MacIntel,60.24096386,,,,,,,,,,,,,,,,,,65,,,,,,,,,,0.03,2,2.4894,0,4,4,4,1,go to italy with my friends and buy bags,browse the web about greek mythology,0.05,0.03,1.1,0,,,,
,,6679bdceaa28479dfe378bb6,6685aa9113c938e83b4f1ea0,669bdea8896ecc9457722270,2024-07-20_11h59.56.276,WTP_SM_Choice,2022.2.1,MacIntel,60.24096386,,,,,,,NAN,,NAN,1.61,4.39,,0,64,64,64,1,65,Sam,Acc,Participant_Images/6679bdceaa28479dfe378bb6/6679bdceaa28479dfe378bb6_Images/6679bdceaa28479dfe378bb6_Image_23.jpeg,did not like,2.455989137,,,,,,,,,,,,,,,,,,,,,,
,,6679bdceaa28479dfe378bb6,6685aa9113c938e83b4f1ea0,669bdea8896ecc9457722270,2024-07-20_11h59.56.276,WTP_SM_Choice,2022.2.1,MacIntel,60.24096386,,,,,space,1.3018,NAN,,NAN,1.61,4.39,,0,65,65,65,1,66,Sam,Acc,Participant_Images/6679bdceaa28479dfe378bb6/6679bdceaa28479dfe378bb6_Images/6679bdceaa28479dfe378bb6_Image_19.jpeg,liked,3.79605092,,,,,,,,,,,,,,,,,,,,,,
,,6679bdceaa28479dfe378bb6,6685aa9113c938e83b4f1ea0,669bdea8896ecc9457722270,2024-07-20_11h59.56.276,WTP_SM_Choice,2022.2.1,MacIntel,60.24096386,,,,,space,1.1156,NAN,,NAN,1.61,4.39,,0,66,66,66,1,67,Sam,Acc,Participant_Images/6679bdceaa28479dfe378bb6/6679bdceaa28479dfe378bb6_Images/6679bdceaa28479dfe378bb6_Image_1.jpeg,liked,3.562416326,,,,,,,,,,,,,,,,,,,,,,
,,6679bdceaa28479dfe378bb6,6685aa9113c938e83b4f1ea0,669bdea8896ecc9457722270,2024-07-20_11h59.56.276,WTP_SM_Choice,2022.2.1,MacIntel,60.24096386,,,,,space,1.1824,NAN,,NAN,1.61,4.39,,0,67,67,67,1,68,Sam,Acc,Participant_Images/6679bdceaa28479dfe378bb6/6679bdceaa28479dfe378bb6_Images/6679bdceaa28479dfe378bb6_Image_5.jpeg,liked,2.843822497,,,,,,,,,,,,,,,,,,,,,,
,,6679bdceaa28479dfe378bb6,6685aa9113c938e83b4f1ea0,669bdea8896ecc9457722270,2024-07-20_11h59.56.276,WTP_SM_Choice,2022.2.1,MacIntel,60.24096386,,,,,space,1.3659,NAN,,NAN,1.61,4.39,,0,68,68,68,1,69,Sam,Acc,Participant_Images/6679bdceaa28479dfe378bb6/6679bdceaa28479dfe378bb6_Images/6679bdceaa28479dfe378bb6_Image_17.jpeg,liked,3.546495948,,,,,,,,,,,,,,,,,,,,,,
,,6679bdceaa28479dfe378bb6,6685aa9113c938e83b4f1ea0,669bdea8896ecc9457722270,2024-07-20_11h59.56.276,WTP_SM_Choice,2022.2.1,MacIntel,60.24096386,,,,,,,,,,,,,,,,,,66,,,,,,space,4.8658,space,3.0475,0.01,1,2.2279,0,0,0,0,1,go through a starbucks drive thru when there are no other cars around,be on a boat with my friends,0.01,0.04,1.1,1,,,,
,,6679bdceaa28479dfe378bb6,6685aa9113c938e83b4f1ea0,669bdea8896ecc9457722270,2024-07-20_11h59.56.276,WTP_SM_Choice,2022.2.1,MacIntel,60.24096386,,,,,,,,,,,,,,,,,,67,,,,,,,,,,0.04,2,3.541,0,1,1,1,1,design anything,eat crepes with my friends,0.02,0.04,8.8,1,,,,
,,6679bdceaa28479dfe378bb6,6685aa9113c938e83b4f1ea0,669bdea8896ecc9457722270,2024-07-20_11h59.56.276,WTP_SM_Choice,2022.2.1,MacIntel,60.24096386,,,,,,,,,,,,,,,,,,68,,,,,,,,,,0.03,1,2.1789,0,2,2,2,1,go through a starbucks drive thru when there are no other cars around,go to italy with my friends and buy bags,0.03,0.04,4.4,1,,,,
,,6679bdceaa28479dfe378bb6,6685aa9113c938e83b4f1ea0,669bdea8896ecc9457722270,2024-07-20_11h59.56.276,WTP_SM_Choice,2022.2.1,MacIntel,60.24096386,,,,,,,,,,,,,,,,,,69,,,,,,,,,,0.04,2,3.3117,0,3,3,3,1,go to stores and looking at pretty things,watch real housewives with my friends ,0.04,0.04,1.1,1,,,,
,,6679bdceaa28479dfe378bb6,6685aa9113c938e83b4f1ea0,669bdea8896ecc9457722270,2024-07-20_11h59.56.276,WTP_SM_Choice,2022.2.1,MacIntel,60.24096386,,,,,,,,,,,,,,,,,,70,,,,,,,,,,0.04,2,2.5686,0,4,4,4,1,eat crepes with my friends,drive around listening to music,0.05,0.04,1.1,0,,,,
,,6679bdceaa28479dfe378bb6,6685aa9113c938e83b4f1ea0,669bdea8896ecc9457722270,2024-07-20_11h59.56.276,WTP_SM_Choice,2022.2.1,MacIntel,60.24096386,,,,,,,NAN,,NAN,1.77,4.23,,0,69,69,69,1,70,Sam,Acc,Participant_Images/6679bdceaa28479dfe378bb6/6679bdceaa28479dfe378bb6_Images/6679bdceaa28479dfe378bb6_Image_16.jpeg,liked,1.672012706,,,,,,,,,,,,,,,,,,,,,,
,,6679bdceaa28479dfe378bb6,6685aa9113c938e83b4f1ea0,669bdea8896ecc9457722270,2024-07-20_11h59.56.276,WTP_SM_Choice,2022.2.1,MacIntel,60.24096386,,,,,space,1.2504,NAN,,NAN,1.77,4.23,,0,70,70,70,1,71,Sam,Acc,Participant_Images/6679bdceaa28479dfe378bb6/6679bdceaa28479dfe378bb6_Images/6679bdceaa28479dfe378bb6_Image_18.jpeg,liked,4.942172136,,,,,,,,,,,,,,,,,,,,,,
,,6679bdceaa28479dfe378bb6,6685aa9113c938e83b4f1ea0,669bdea8896ecc9457722270,2024-07-20_11h59.56.276,WTP_SM_Choice,2022.2.1,MacIntel,60.24096386,,,,,space,1.9161,NAN,,NAN,1.77,4.23,,0,71,71,71,1,72,Sam,Acc,Participant_Images/6679bdceaa28479dfe378bb6/6679bdceaa28479dfe378bb6_Images/6679bdceaa28479dfe378bb6_Image_8.jpeg,did not like,2.50187214,,,,,,,,,,,,,,,,,,,,,,
,,6679bdceaa28479dfe378bb6,6685aa9113c938e83b4f1ea0,669bdea8896ecc9457722270,2024-07-20_11h59.56.276,WTP_SM_Choice,2022.2.1,MacIntel,60.24096386,,,,,space,1.8493,NAN,,NAN,1.77,4.23,,0,72,72,72,1,73,Sam,Acc,Participant_Images/6679bdceaa28479dfe378bb6/6679bdceaa28479dfe378bb6_Images/6679bdceaa28479dfe378bb6_Image_3.jpeg,liked,2.071164779,,,,,,,,,,,,,,,,,,,,,,
,,6679bdceaa28479dfe378bb6,6685aa9113c938e83b4f1ea0,669bdea8896ecc9457722270,2024-07-20_11h59.56.276,WTP_SM_Choice,2022.2.1,MacIntel,60.24096386,,,,,space,1.0158,NAN,,NAN,1.77,4.23,,0,73,73,73,1,74,Sam,Acc,Participant_Images/6679bdceaa28479dfe378bb6/6679bdceaa28479dfe378bb6_Images/6679bdceaa28479dfe378bb6_Image_12.jpeg,liked,5.336503566,,,,,,,,,,,,,,,,,,,,,,
,,6679bdceaa28479dfe378bb6,6685aa9113c938e83b4f1ea0,669bdea8896ecc9457722270,2024-07-20_11h59.56.276,WTP_SM_Choice,2022.2.1,MacIntel,60.24096386,,,,,,,,,,,,,,,,,,71,,,,,,space,2.9345,space,1.9179,0.01,1,5.5806,0,0,0,0,1,go to home decor stores and judging the items ,eat crepes with my friends,0.01,0.05,3.3,1,,,,
,,6679bdceaa28479dfe378bb6,6685aa9113c938e83b4f1ea0,669bdea8896ecc9457722270,2024-07-20_11h59.56.276,WTP_SM_Choice,2022.2.1,MacIntel,60.24096386,,,,,,,,,,,,,,,,,,72,,,,,,,,,,0.02,1,2.1645,0,1,1,1,1,eat chicken fingers by a pool with my friends,talk to myself about interesting things,0.02,0.05,8.8,0,,,,
,,6679bdceaa28479dfe378bb6,6685aa9113c938e83b4f1ea0,669bdea8896ecc9457722270,2024-07-20_11h59.56.276,WTP_SM_Choice,2022.2.1,MacIntel,60.24096386,,,,,,,,,,,,,,,,,,73,,,,,,,,,,0.05,2,2.1781,0,2,2,2,1,go through a starbucks drive thru when there are no other cars around,eat chicken fingers by a pool with my friends,0.03,0.05,3.3,1,,,,
,,6679bdceaa28479dfe378bb6,6685aa9113c938e83b4f1ea0,669bdea8896ecc9457722270,2024-07-20_11h59.56.276,WTP_SM_Choice,2022.2.1,MacIntel,60.24096386,,,,,,,,,,,,,,,,,,74,,,,,,,,,,0.04,1,2.1132,0,3,3,3,1,design anything,open up gifts with my friends,0.04,0.05,4.4,1,,,,
,,6679bdceaa28479dfe378bb6,6685aa9113c938e83b4f1ea0,669bdea8896ecc9457722270,2024-07-20_11h59.56.276,WTP_SM_Choice,2022.2.1,MacIntel,60.24096386,,,,,,,,,,,,,,,,,,75,,,,,,,,,,0.05,2,3.1477,0,4,4,4,1,design anything,ride in a convertible by the ocean with my friends,0.05,0.05,3.3,1,,,,
,,6679bdceaa28479dfe378bb6,6685aa9113c938e83b4f1ea0,669bdea8896ecc9457722270,2024-07-20_11h59.56.276,WTP_SM_Choice,2022.2.1,MacIntel,60.24096386,,,,,,,4,,4,1.94,4.06,,0,74,74,74,1,75,Sam,Acc,Participant_Images/6679bdceaa28479dfe378bb6/6679bdceaa28479dfe378bb6_Images/6679bdceaa28479dfe378bb6_Image_4.jpeg,did not like,2.642157193,,,,,,,,,,,,,,,,,,,space,1.1646,,
,,6679bdceaa28479dfe378bb6,6685aa9113c938e83b4f1ea0,669bdea8896ecc9457722270,2024-07-20_11h59.56.276,WTP_SM_Choice,2022.2.1,MacIntel,60.24096386,,,space,2.7834,space,0.9816,NAN,,NAN,1.94,4.06,,0,75,75,75,1,76,Riley,Acc,Participant_Images/6679bdceaa28479dfe378bb6/6679bdceaa28479dfe378bb6_Images/6679bdceaa28479dfe378bb6_Image_1.jpeg,did not like,4.456234322,,,,,,,,,,,,,,,,,,,,,,
,,6679bdceaa28479dfe378bb6,6685aa9113c938e83b4f1ea0,669bdea8896ecc9457722270,2024-07-20_11h59.56.276,WTP_SM_Choice,2022.2.1,MacIntel,60.24096386,,,,,space,1.6981,NAN,,NAN,1.94,4.06,,0,76,76,76,1,77,Riley,Acc,Participant_Images/6679bdceaa28479dfe378bb6/6679bdceaa28479dfe378bb6_Images/6679bdceaa28479dfe378bb6_Image_4.jpeg,did not like,4.438512181,,,,,,,,,,,,,,,,,,,,,,
,,6679bdceaa28479dfe378bb6,6685aa9113c938e83b4f1ea0,669bdea8896ecc9457722270,2024-07-20_11h59.56.276,WTP_SM_Choice,2022.2.1,MacIntel,60.24096386,,,,,space,1.4861,NAN,,NAN,1.94,4.06,,0,77,77,77,1,78,Riley,Acc,Participant_Images/6679bdceaa28479dfe378bb6/6679bdceaa28479dfe378bb6_Images/6679bdceaa28479dfe378bb6_Image_5.jpeg,liked,2.682944783,,,,,,,,,,,,,,,,,,,,,,
,,6679bdceaa28479dfe378bb6,6685aa9113c938e83b4f1ea0,669bdea8896ecc9457722270,2024-07-20_11h59.56.276,WTP_SM_Choice,2022.2.1,MacIntel,60.24096386,,,,,space,1.2172,NAN,,NAN,1.94,4.06,,0,78,78,78,1,79,Riley,Acc,Participant_Images/6679bdceaa28479dfe378bb6/6679bdceaa28479dfe378bb6_Images/6679bdceaa28479dfe378bb6_Image_14.jpeg,liked,4.51984296,,,,,,,,,,,,,,,,,,,,,,
,,6679bdceaa28479dfe378bb6,6685aa9113c938e83b4f1ea0,669bdea8896ecc9457722270,2024-07-20_11h59.56.276,WTP_SM_Choice,2022.2.1,MacIntel,60.24096386,,,,,,,,,,,,,,,,,,76,,,,,,space,1.6496,space,2.2659,0.01,1,2.1118,0,0,0,0,1,eat chicken fingers by a pool with my friends,swim in the warm clear ocean ,0.01,0.01,1.1,0,,,,
,,6679bdceaa28479dfe378bb6,6685aa9113c938e83b4f1ea0,669bdea8896ecc9457722270,2024-07-20_11h59.56.276,WTP_SM_Choice,2022.2.1,MacIntel,60.24096386,,,,,,,,,,,,,,,,,,77,,,,,,,,,,0.01,2,3.3087,0,1,1,1,1,watch true crime in my bedroom,eat crepes with my friends,0.02,0.01,8.8,1,,,,
,,6679bdceaa28479dfe378bb6,6685aa9113c938e83b4f1ea0,669bdea8896ecc9457722270,2024-07-20_11h59.56.276,WTP_SM_Choice,2022.2.1,MacIntel,60.24096386,,,,,,,,,,,,,,,,,,78,,,,,,,,,,0.01,2,2.7115,0,2,2,2,1,sit on a couch and catch up with my friends,go to stores and looking at pretty things,0.03,0.01,1.1,0,,,,
,,6679bdceaa28479dfe378bb6,6685aa9113c938e83b4f1ea0,669bdea8896ecc9457722270,2024-07-20_11h59.56.276,WTP_SM_Choice,2022.2.1,MacIntel,60.24096386,,,,,,,,,,,,,,,,,,79,,,,,,,,,,0.01,2,2.4546,0,3,3,3,1,design anything,be on a boat with my friends,0.04,0.01,1.1,1,,,,
,,6679bdceaa28479dfe378bb6,6685aa9113c938e83b4f1ea0,669bdea8896ecc9457722270,2024-07-20_11h59.56.276,WTP_SM_Choice,2022.2.1,MacIntel,60.24096386,,,,,,,,,,,,,,,,,,80,,,,,,,,,,0.01,2,2.6191,0,4,4,4,1,go through a starbucks drive thru when there are no other cars around,ride in a convertible by the ocean with my friends,0.05,0.01,4.4,1,,,,
,,6679bdceaa28479dfe378bb6,6685aa9113c938e83b4f1ea0,669bdea8896ecc9457722270,2024-07-20_11h59.56.276,WTP_SM_Choice,2022.2.1,MacIntel,60.24096386,,,,,,,NAN,,NAN,1.99,4.01,,0,79,79,79,1,80,Riley,Acc,Participant_Images/6679bdceaa28479dfe378bb6/6679bdceaa28479dfe378bb6_Images/6679bdceaa28479dfe378bb6_Image_8.jpeg,liked,3.195382774,,,,,,,,,,,,,,,,,,,,,,
,,6679bdceaa28479dfe378bb6,6685aa9113c938e83b4f1ea0,669bdea8896ecc9457722270,2024-07-20_11h59.56.276,WTP_SM_Choice,2022.2.1,MacIntel,60.24096386,,,,,space,3.5655,NAN,,NAN,1.99,4.01,,0,80,80,80,1,81,Riley,Acc,Participant_Images/6679bdceaa28479dfe378bb6/6679bdceaa28479dfe378bb6_Images/6679bdceaa28479dfe378bb6_Image_11.jpeg,liked,1.779333479,,,,,,,,,,,,,,,,,,,,,,
,,6679bdceaa28479dfe378bb6,6685aa9113c938e83b4f1ea0,669bdea8896ecc9457722270,2024-07-20_11h59.56.276,WTP_SM_Choice,2022.2.1,MacIntel,60.24096386,,,,,space,1.1992,NAN,,NAN,1.99,4.01,,0,81,81,81,1,82,Riley,Acc,Participant_Images/6679bdceaa28479dfe378bb6/6679bdceaa28479dfe378bb6_Images/6679bdceaa28479dfe378bb6_Image_7.jpeg,liked,4.312468682,,,,,,,,,,,,,,,,,,,,,,
,,6679bdceaa28479dfe378bb6,6685aa9113c938e83b4f1ea0,669bdea8896ecc9457722270,2024-07-20_11h59.56.276,WTP_SM_Choice,2022.2.1,MacIntel,60.24096386,,,,,space,2.7162,NAN,,NAN,1.99,4.01,,0,82,82,82,1,83,Riley,Acc,Participant_Images/6679bdceaa28479dfe378bb6/6679bdceaa28479dfe378bb6_Images/6679bdceaa28479dfe378bb6_Image_10.jpeg,liked,4.940433059,,,,,,,,,,,,,,,,,,,,,,
,,6679bdceaa28479dfe378bb6,6685aa9113c938e83b4f1ea0,669bdea8896ecc9457722270,2024-07-20_11h59.56.276,WTP_SM_Choice,2022.2.1,MacIntel,60.24096386,,,,,space,1.9473,NAN,,NAN,1.99,4.01,,0,83,83,83,1,84,Riley,Acc,Participant_Images/6679bdceaa28479dfe378bb6/6679bdceaa28479dfe378bb6_Images/6679bdceaa28479dfe378bb6_Image_13.jpeg,liked,2.7105123,,,,,,,,,,,,,,,,,,,,,,
,,6679bdceaa28479dfe378bb6,6685aa9113c938e83b4f1ea0,669bdea8896ecc9457722270,2024-07-20_11h59.56.276,WTP_SM_Choice,2022.2.1,MacIntel,60.24096386,,,,,,,,,,,,,,,,,,81,,,,,,space,1.952,space,5.7493,0.01,1,1.3753,0,0,0,0,1,eat crepes with my friends,swim in the warm clear ocean ,0.01,0.02,3.3,0,,,,
,,6679bdceaa28479dfe378bb6,6685aa9113c938e83b4f1ea0,669bdea8896ecc9457722270,2024-07-20_11h59.56.276,WTP_SM_Choice,2022.2.1,MacIntel,60.24096386,,,,,,,,,,,,,,,,,,82,,,,,,,,,,0.02,1,3.8775,0,1,1,1,1,go through a starbucks drive thru when there are no other cars around,sit on a couch and catch up with my friends,0.02,0.02,4.4,1,,,,
,,6679bdceaa28479dfe378bb6,6685aa9113c938e83b4f1ea0,669bdea8896ecc9457722270,2024-07-20_11h59.56.276,WTP_SM_Choice,2022.2.1,MacIntel,60.24096386,,,,,,,,,,,,,,,,,,83,,,,,,,,,,0.03,1,2.3153,0,2,2,2,1,watch true crime in my bedroom,dance with my friends on a dance floor,0.03,0.02,1.1,1,,,,
,,6679bdceaa28479dfe378bb6,6685aa9113c938e83b4f1ea0,669bdea8896ecc9457722270,2024-07-20_11h59.56.276,WTP_SM_Choice,2022.2.1,MacIntel,60.24096386,,,,,,,,,,,,,,,,,,84,,,,,,,,,,0.02,2,2.8755,0,3,3,3,1,talk to myself about interesting things,sit on a couch and catch up with my friends,0.04,0.02,3.3,1,,,,
,,6679bdceaa28479dfe378bb6,6685aa9113c938e83b4f1ea0,669bdea8896ecc9457722270,2024-07-20_11h59.56.276,WTP_SM_Choice,2022.2.1,MacIntel,60.24096386,,,,,,,,,,,,,,,,,,85,,,,,,,,,,0.02,2,2.0837,0,4,4,4,1,dance with my friends on a dance floor,talk to myself about interesting things,0.05,0.02,3.3,0,,,,
,,6679bdceaa28479dfe378bb6,6685aa9113c938e83b4f1ea0,669bdea8896ecc9457722270,2024-07-20_11h59.56.276,WTP_SM_Choice,2022.2.1,MacIntel,60.24096386,,,,,,,NAN,,NAN,2.09,3.91,,0,84,84,84,1,85,Riley,Acc,Participant_Images/6679bdceaa28479dfe378bb6/6679bdceaa28479dfe378bb6_Images/6679bdceaa28479dfe378bb6_Image_25.jpeg,liked,3.602308302,,,,,,,,,,,,,,,,,,,,,,
,,6679bdceaa28479dfe378bb6,6685aa9113c938e83b4f1ea0,669bdea8896ecc9457722270,2024-07-20_11h59.56.276,WTP_SM_Choice,2022.2.1,MacIntel,60.24096386,,,,,space,2.8678,NAN,,NAN,2.09,3.91,,0,85,85,85,1,86,Riley,Acc,Participant_Images/6679bdceaa28479dfe378bb6/6679bdceaa28479dfe378bb6_Images/6679bdceaa28479dfe378bb6_Image_24.jpeg,liked,4.106391878,,,,,,,,,,,,,,,,,,,,,,
,,6679bdceaa28479dfe378bb6,6685aa9113c938e83b4f1ea0,669bdea8896ecc9457722270,2024-07-20_11h59.56.276,WTP_SM_Choice,2022.2.1,MacIntel,60.24096386,,,,,space,1.115,NAN,,NAN,2.09,3.91,,0,86,86,86,1,87,Riley,Acc,Participant_Images/6679bdceaa28479dfe378bb6/6679bdceaa28479dfe378bb6_Images/6679bdceaa28479dfe378bb6_Image_6.jpeg,liked,3.799433026,,,,,,,,,,,,,,,,,,,,,,
,,6679bdceaa28479dfe378bb6,6685aa9113c938e83b4f1ea0,669bdea8896ecc9457722270,2024-07-20_11h59.56.276,WTP_SM_Choice,2022.2.1,MacIntel,60.24096386,,,,,space,1.8988,NAN,,NAN,2.09,3.91,,0,87,87,87,1,88,Riley,Acc,Participant_Images/6679bdceaa28479dfe378bb6/6679bdceaa28479dfe378bb6_Images/6679bdceaa28479dfe378bb6_Image_23.jpeg,liked,5.246980764,,,,,,,,,,,,,,,,,,,,,,
,,6679bdceaa28479dfe378bb6,6685aa9113c938e83b4f1ea0,669bdea8896ecc9457722270,2024-07-20_11h59.56.276,WTP_SM_Choice,2022.2.1,MacIntel,60.24096386,,,,,space,1.2843,NAN,,NAN,2.09,3.91,,0,88,88,88,1,89,Riley,Acc,Participant_Images/6679bdceaa28479dfe378bb6/6679bdceaa28479dfe378bb6_Images/6679bdceaa28479dfe378bb6_Image_21.jpeg,did not like,3.30081769,,,,,,,,,,,,,,,,,,,,,,
,,6679bdceaa28479dfe378bb6,6685aa9113c938e83b4f1ea0,669bdea8896ecc9457722270,2024-07-20_11h59.56.276,WTP_SM_Choice,2022.2.1,MacIntel,60.24096386,,,,,,,,,,,,,,,,,,86,,,,,,space,3.7189,space,1.9837,0.01,1,2.0461,0,0,0,0,1,eat chicken fingers by a pool with my friends,browse the web about greek mythology,0.01,0.03,1.1,0,,,,
,,6679bdceaa28479dfe378bb6,6685aa9113c938e83b4f1ea0,669bdea8896ecc9457722270,2024-07-20_11h59.56.276,WTP_SM_Choice,2022.2.1,MacIntel,60.24096386,,,,,,,,,,,,,,,,,,87,,,,,,,,,,0.02,1,2.2268,0,1,1,1,1,go to stores and looking at pretty things,swim in a pool with my friends,0.02,0.03,4.4,1,,,,
,,6679bdceaa28479dfe378bb6,6685aa9113c938e83b4f1ea0,669bdea8896ecc9457722270,2024-07-20_11h59.56.276,WTP_SM_Choice,2022.2.1,MacIntel,60.24096386,,,,,,,,,,,,,,,,,,88,,,,,,,,,,0.03,1,3.5811,0,2,2,2,1,be on a boat with my friends,swim in the warm clear ocean ,0.03,0.03,1.1,0,,,,
,,6679bdceaa28479dfe378bb6,6685aa9113c938e83b4f1ea0,669bdea8896ecc9457722270,2024-07-20_11h59.56.276,WTP_SM_Choice,2022.2.1,MacIntel,60.24096386,,,,,,,,,,,,,,,,,,89,,,,,,,,,,0.03,2,3.9617,0,3,3,3,1,go to stores and looking at pretty things,open up gifts with my friends,0.04,0.03,3.3,1,,,,
,,6679bdceaa28479dfe378bb6,6685aa9113c938e83b4f1ea0,669bdea8896ecc9457722270,2024-07-20_11h59.56.276,WTP_SM_Choice,2022.2.1,MacIntel,60.24096386,,,,,,,,,,,,,,,,,,90,,,,,,,,,,0.03,2,2.3462,0,4,4,4,1,dance with my friends on a dance floor,drive around listening to music,0.05,0.03,8.8,0,,,,
,,6679bdceaa28479dfe378bb6,6685aa9113c938e83b4f1ea0,669bdea8896ecc9457722270,2024-07-20_11h59.56.276,WTP_SM_Choice,2022.2.1,MacIntel,60.24096386,,,,,,,NAN,,NAN,2.21,3.79,,0,89,89,89,1,90,Riley,Acc,Participant_Images/6679bdceaa28479dfe378bb6/6679bdceaa28479dfe378bb6_Images/6679bdceaa28479dfe378bb6_Image_22.jpeg,liked,1.661473164,,,,,,,,,,,,,,,,,,,,,,
,,6679bdceaa28479dfe378bb6,6685aa9113c938e83b4f1ea0,669bdea8896ecc9457722270,2024-07-20_11h59.56.276,WTP_SM_Choice,2022.2.1,MacIntel,60.24096386,,,,,space,0.7513,NAN,,NAN,2.21,3.79,,0,90,90,90,1,91,Riley,Acc,Participant_Images/6679bdceaa28479dfe378bb6/6679bdceaa28479dfe378bb6_Images/6679bdceaa28479dfe378bb6_Image_3.jpeg,liked,3.613205605,,,,,,,,,,,,,,,,,,,,,,
,,6679bdceaa28479dfe378bb6,6685aa9113c938e83b4f1ea0,669bdea8896ecc9457722270,2024-07-20_11h59.56.276,WTP_SM_Choice,2022.2.1,MacIntel,60.24096386,,,,,space,0.9159,NAN,,NAN,2.21,3.79,,0,91,91,91,1,92,Riley,Acc,Participant_Images/6679bdceaa28479dfe378bb6/6679bdceaa28479dfe378bb6_Images/6679bdceaa28479dfe378bb6_Image_17.jpeg,liked,4.988446431,,,,,,,,,,,,,,,,,,,,,,
,,6679bdceaa28479dfe378bb6,6685aa9113c938e83b4f1ea0,669bdea8896ecc9457722270,2024-07-20_11h59.56.276,WTP_SM_Choice,2022.2.1,MacIntel,60.24096386,,,,,space,1.2828,NAN,,NAN,2.21,3.79,,0,92,92,92,1,93,Riley,Acc,Participant_Images/6679bdceaa28479dfe378bb6/6679bdceaa28479dfe378bb6_Images/6679bdceaa28479dfe378bb6_Image_12.jpeg,did not like,3.470791822,,,,,,,,,,,,,,,,,,,,,,
,,6679bdceaa28479dfe378bb6,6685aa9113c938e83b4f1ea0,669bdea8896ecc9457722270,2024-07-20_11h59.56.276,WTP_SM_Choice,2022.2.1,MacIntel,60.24096386,,,,,space,0.7995,NAN,,NAN,2.21,3.79,,0,93,93,93,1,94,Riley,Acc,Participant_Images/6679bdceaa28479dfe378bb6/6679bdceaa28479dfe378bb6_Images/6679bdceaa28479dfe378bb6_Image_2.jpeg,did not like,3.820572462,,,,,,,,,,,,,,,,,,,,,,
,,6679bdceaa28479dfe378bb6,6685aa9113c938e83b4f1ea0,669bdea8896ecc9457722270,2024-07-20_11h59.56.276,WTP_SM_Choice,2022.2.1,MacIntel,60.24096386,,,,,,,,,,,,,,,,,,91,,,,,,space,4.8691,space,2.7172,0.04,2,4.0281,0,0,0,0,1,be on a boat with my friends,talk to myself about interesting things,0.01,0.04,3.3,0,,,,
,,6679bdceaa28479dfe378bb6,6685aa9113c938e83b4f1ea0,669bdea8896ecc9457722270,2024-07-20_11h59.56.276,WTP_SM_Choice,2022.2.1,MacIntel,60.24096386,,,,,,,,,,,,,,,,,,92,,,,,,,,,,0.02,1,2.2633,0,1,1,1,1,swim in a pool with my friends,swim in the warm clear ocean ,0.02,0.04,8.8,0,,,,
,,6679bdceaa28479dfe378bb6,6685aa9113c938e83b4f1ea0,669bdea8896ecc9457722270,2024-07-20_11h59.56.276,WTP_SM_Choice,2022.2.1,MacIntel,60.24096386,,,,,,,,,,,,,,,,,,93,,,,,,,,,,0.03,1,2.4292,0,2,2,2,1,watch real housewives with my friends ,ride a bike around a lake,0.03,0.04,1.1,0,,,,
,,6679bdceaa28479dfe378bb6,6685aa9113c938e83b4f1ea0,669bdea8896ecc9457722270,2024-07-20_11h59.56.276,WTP_SM_Choice,2022.2.1,MacIntel,60.24096386,,,,,,,,,,,,,,,,,,94,,,,,,,,,,0.04,2,2.818,0,3,3,3,1,talk to myself about interesting things,watch real housewives with my friends ,0.04,0.04,4.4,1,,,,
,,6679bdceaa28479dfe378bb6,6685aa9113c938e83b4f1ea0,669bdea8896ecc9457722270,2024-07-20_11h59.56.276,WTP_SM_Choice,2022.2.1,MacIntel,60.24096386,,,,,,,,,,,,,,,,,,95,,,,,,,,,,0.05,1,2.997,0,4,4,4,1,open up gifts with my friends,browse the web about greek mythology,0.05,0.04,4.4,0,,,,
,,6679bdceaa28479dfe378bb6,6685aa9113c938e83b4f1ea0,669bdea8896ecc9457722270,2024-07-20_11h59.56.276,WTP_SM_Choice,2022.2.1,MacIntel,60.24096386,,,,,,,NAN,,NAN,2.39,3.61,,0,94,94,94,1,95,Riley,Acc,Participant_Images/6679bdceaa28479dfe378bb6/6679bdceaa28479dfe378bb6_Images/6679bdceaa28479dfe378bb6_Image_15.jpeg,liked,2.455989137,,,,,,,,,,,,,,,,,,,,,,
,,6679bdceaa28479dfe378bb6,6685aa9113c938e83b4f1ea0,669bdea8896ecc9457722270,2024-07-20_11h59.56.276,WTP_SM_Choice,2022.2.1,MacIntel,60.24096386,,,,,space,1.0158,NAN,,NAN,2.39,3.61,,0,95,95,95,1,96,Riley,Acc,Participant_Images/6679bdceaa28479dfe378bb6/6679bdceaa28479dfe378bb6_Images/6679bdceaa28479dfe378bb6_Image_9.jpeg,liked,3.79605092,,,,,,,,,,,,,,,,,,,,,,
,,6679bdceaa28479dfe378bb6,6685aa9113c938e83b4f1ea0,669bdea8896ecc9457722270,2024-07-20_11h59.56.276,WTP_SM_Choice,2022.2.1,MacIntel,60.24096386,,,,,space,0.7322,NAN,,NAN,2.39,3.61,,0,96,96,96,1,97,Riley,Acc,Participant_Images/6679bdceaa28479dfe378bb6/6679bdceaa28479dfe378bb6_Images/6679bdceaa28479dfe378bb6_Image_20.jpeg,did not like,3.562416326,,,,,,,,,,,,,,,,,,,,,,
,,6679bdceaa28479dfe378bb6,6685aa9113c938e83b4f1ea0,669bdea8896ecc9457722270,2024-07-20_11h59.56.276,WTP_SM_Choice,2022.2.1,MacIntel,60.24096386,,,,,space,0.6677,NAN,,NAN,2.39,3.61,,0,97,97,97,1,98,Riley,Acc,Participant_Images/6679bdceaa28479dfe378bb6/6679bdceaa28479dfe378bb6_Images/6679bdceaa28479dfe378bb6_Image_18.jpeg,liked,2.843822497,,,,,,,,,,,,,,,,,,,,,,
,,6679bdceaa28479dfe378bb6,6685aa9113c938e83b4f1ea0,669bdea8896ecc9457722270,2024-07-20_11h59.56.276,WTP_SM_Choice,2022.2.1,MacIntel,60.24096386,,,,,space,1.6323,NAN,,NAN,2.39,3.61,,0,98,98,98,1,99,Riley,Acc,Participant_Images/6679bdceaa28479dfe378bb6/6679bdceaa28479dfe378bb6_Images/6679bdceaa28479dfe378bb6_Image_16.jpeg,did not like,3.546495948,,,,,,,,,,,,,,,,,,,,,,
,,6679bdceaa28479dfe378bb6,6685aa9113c938e83b4f1ea0,669bdea8896ecc9457722270,2024-07-20_11h59.56.276,WTP_SM_Choice,2022.2.1,MacIntel,60.24096386,,,,,,,,,,,,,,,,,,96,,,,,,space,3.3668,space,2.0312,0.01,1,1.8437,0,0,0,0,1,drive around listening to music,go to italy with my friends and buy bags,0.01,0.05,3.3,1,,,,
,,6679bdceaa28479dfe378bb6,6685aa9113c938e83b4f1ea0,669bdea8896ecc9457722270,2024-07-20_11h59.56.276,WTP_SM_Choice,2022.2.1,MacIntel,60.24096386,,,,,,,,,,,,,,,,,,97,,,,,,,,,,0.02,1,2.3221,0,1,1,1,1,eat chicken fingers by a pool with my friends,drive around listening to music,0.02,0.05,1.1,0,,,,
,,6679bdceaa28479dfe378bb6,6685aa9113c938e83b4f1ea0,669bdea8896ecc9457722270,2024-07-20_11h59.56.276,WTP_SM_Choice,2022.2.1,MacIntel,60.24096386,,,,,,,,,,,,,,,,,,98,,,,,,,,,,0.03,1,2.4515,0,2,2,2,1,watch real housewives with my friends ,browse the web about greek mythology,0.03,0.05,1.1,0,,,,
,,6679bdceaa28479dfe378bb6,6685aa9113c938e83b4f1ea0,669bdea8896ecc9457722270,2024-07-20_11h59.56.276,WTP_SM_Choice,2022.2.1,MacIntel,60.24096386,,,,,,,,,,,,,,,,,,99,,,,,,,,,,0.04,1,3.1684,0,3,3,3,1,go to stores and looking at pretty things,go to italy with my friends and buy bags,0.04,0.05,3.3,1,,,,
,,6679bdceaa28479dfe378bb6,6685aa9113c938e83b4f1ea0,669bdea8896ecc9457722270,2024-07-20_11h59.56.276,WTP_SM_Choice,2022.2.1,MacIntel,60.24096386,,,,,,,,,,,,,,,,,,100,,,,,,,,,,0.05,2,2.5871,0,4,4,4,1,open up gifts with my friends,watch true crime in my bedroom,0.05,0.05,4.4,0,,,,
,,6679bdceaa28479dfe378bb6,6685aa9113c938e83b4f1ea0,669bdea8896ecc9457722270,2024-07-20_11h59.56.276,WTP_SM_Choice,2022.2.1,MacIntel,60.24096386,,,,,,,4,,2,2.54,3.46,,0,99,99,99,1,100,Riley,Acc,Participant_Images/6679bdceaa28479dfe378bb6/6679bdceaa28479dfe378bb6_Images/6679bdceaa28479dfe378bb6_Image_19.jpeg,liked,1.672012706,,,,,,,,,,,,,,,,,,,space,0.9843,,
,,6679bdceaa28479dfe378bb6,6685aa9113c938e83b4f1ea0,669bdea8896ecc9457722270,2024-07-20_11h59.56.276,WTP_SM_Choice,2022.2.1,MacIntel,60.24096386,,,,,,,,,,,,,,,,,,,,,,,,,,,,,,,,,,,,,,,,,,,,space,4.0095
