endwelcomescreen_keys.keys,endwelcomescreen_keys.rt,participant,STUDY_ID,SESSION_ID,date,expName,psychopyVersion,OS,frameRate,endinstructionscreen_keys.keys,endinstructionscreen_keys.rt,endpartnermatch_keys.keys,endpartnermatch_keys.rt,sharenextphoto_key.keys,sharenextphoto_key.rt,salience_rating,key_resp.keys,stress_level,subtract_bonus,TOTAL_TASK_BONUS,stresslevel_keypress.keys,entiretaskloop.thisRepN,entiretaskloop.thisTrialN,entiretaskloop.thisN,entiretaskloop.thisIndex,entiretaskloop.ran,TrialNumber,Partner,Condition,Photos,Feedback,FeedbackWait,WTP_ins_keys1.keys,WTP_ins_keys1.rt,WTP_ins_keys2.keys,WTP_ins_keys2.rt,decision_price,responses.keys,responses.rt,WTPTaskLoop.thisRepN,WTPTaskLoop.thisTrialN,WTPTaskLoop.thisN,WTPTaskLoop.thisIndex,WTPTaskLoop.ran,right,left,leftmoney,rightmoney,WTP_ITI,social_left,Resume_keys.keys,Resume_keys.rt,end_screen_keys.keys,end_screen_keys.rt
space,6.2852,66800683809f48e85f663f86,6685aa9113c938e83b4f1ea0,66d0b0dce3fe8f36c581a565,2024-08-29_12h45.27.221,WTP_SM_Choice,2022.2.1,Win32,163.9344262,,,,,,,,,,,,,,,,,,,,,,,,,,,,,,,,,,,,,,,,,,,,,
,,66800683809f48e85f663f86,6685aa9113c938e83b4f1ea0,66d0b0dce3fe8f36c581a565,2024-08-29_12h45.27.221,WTP_SM_Choice,2022.2.1,Win32,163.9344262,space,12.0156,,,,,,,,,,,,,,,,,,,,,,,,,,,,,,,,,,,,,,,,,,,
,,66800683809f48e85f663f86,6685aa9113c938e83b4f1ea0,66d0b0dce3fe8f36c581a565,2024-08-29_12h45.27.221,WTP_SM_Choice,2022.2.1,Win32,163.9344262,,,space,2.2153,space,1.6603,NAN,,NAN,0,6,,0,0,0,0,1,1,Sam,Acc,Participant_Images/66800683809f48e85f663f86/66800683809f48e85f663f86_Images/66800683809f48e85f663f86_Image_21.jpeg,liked,3.613205605,,,,,,,,,,,,,,,,,,,,,,
,,66800683809f48e85f663f86,6685aa9113c938e83b4f1ea0,66d0b0dce3fe8f36c581a565,2024-08-29_12h45.27.221,WTP_SM_Choice,2022.2.1,Win32,163.9344262,,,,,space,0.9308,NAN,,NAN,0,6,,0,1,1,1,1,2,Sam,Acc,Participant_Images/66800683809f48e85f663f86/66800683809f48e85f663f86_Images/66800683809f48e85f663f86_Image_19.jpeg,liked,4.988446431,,,,,,,,,,,,,,,,,,,,,,
,,66800683809f48e85f663f86,6685aa9113c938e83b4f1ea0,66d0b0dce3fe8f36c581a565,2024-08-29_12h45.27.221,WTP_SM_Choice,2022.2.1,Win32,163.9344262,,,,,space,0.9473,NAN,,NAN,0,6,,0,2,2,2,1,3,Sam,Acc,Participant_Images/66800683809f48e85f663f86/66800683809f48e85f663f86_Images/66800683809f48e85f663f86_Image_18.jpeg,did not like,3.470791822,,,,,,,,,,,,,,,,,,,,,,
,,66800683809f48e85f663f86,6685aa9113c938e83b4f1ea0,66d0b0dce3fe8f36c581a565,2024-08-29_12h45.27.221,WTP_SM_Choice,2022.2.1,Win32,163.9344262,,,,,space,0.9538,NAN,,NAN,0,6,,0,3,3,3,1,4,Sam,Acc,Participant_Images/66800683809f48e85f663f86/66800683809f48e85f663f86_Images/66800683809f48e85f663f86_Image_15.jpeg,liked,3.820572462,,,,,,,,,,,,,,,,,,,,,,
,,66800683809f48e85f663f86,6685aa9113c938e83b4f1ea0,66d0b0dce3fe8f36c581a565,2024-08-29_12h45.27.221,WTP_SM_Choice,2022.2.1,Win32,163.9344262,,,,,,,,,,,,,,,,,,1,,,,,,space,17.271,space,6.8155,0.01,2,9.5265,0,0,0,0,1,Playing video games with my friends.,Play video games when we all have the time,0.01,0.01,4.4,1,,,,
,,66800683809f48e85f663f86,6685aa9113c938e83b4f1ea0,66d0b0dce3fe8f36c581a565,2024-08-29_12h45.27.221,WTP_SM_Choice,2022.2.1,Win32,163.9344262,,,,,,,,,,,,,,,,,,2,,,,,,,,,,0.02,1,7.7341,0,1,1,1,1,Stay up late to watch my favorite show,Help around at my uncles shop to spend time with him and earn money,0.02,0.01,8.8,1,,,,
,,66800683809f48e85f663f86,6685aa9113c938e83b4f1ea0,66d0b0dce3fe8f36c581a565,2024-08-29_12h45.27.221,WTP_SM_Choice,2022.2.1,Win32,163.9344262,,,,,,,,,,,,,,,,,,3,,,,,,,,,,0.01,2,7.5244,0,2,2,2,1,Watch my favorite content creators on youtube,Travel to see my sister and her roommate in texas,0.03,0.01,3.3,1,,,,
,,66800683809f48e85f663f86,6685aa9113c938e83b4f1ea0,66d0b0dce3fe8f36c581a565,2024-08-29_12h45.27.221,WTP_SM_Choice,2022.2.1,Win32,163.9344262,,,,,,,,,,,,,,,,,,4,,,,,,,,,,0.04,1,5.8906,0,3,3,3,1,Watch my favorite content creators on youtube,Spend the holidays over a familys,0.04,0.01,1.1,1,,,,
,,66800683809f48e85f663f86,6685aa9113c938e83b4f1ea0,66d0b0dce3fe8f36c581a565,2024-08-29_12h45.27.221,WTP_SM_Choice,2022.2.1,Win32,163.9344262,,,,,,,,,,,,,,,,,,5,,,,,,,,,,0.01,2,6.2923,0,4,4,4,1,Take my dogs out for a nice walk,Watch movies with my mom,0.05,0.01,1.1,1,,,,
,,66800683809f48e85f663f86,6685aa9113c938e83b4f1ea0,66d0b0dce3fe8f36c581a565,2024-08-29_12h45.27.221,WTP_SM_Choice,2022.2.1,Win32,163.9344262,,,,,,,NAN,,NAN,0.09,5.91,,0,4,4,4,1,5,Sam,Acc,Participant_Images/66800683809f48e85f663f86/66800683809f48e85f663f86_Images/66800683809f48e85f663f86_Image_13.jpeg,liked,2.455989137,,,,,,,,,,,,,,,,,,,,,,
,,66800683809f48e85f663f86,6685aa9113c938e83b4f1ea0,66d0b0dce3fe8f36c581a565,2024-08-29_12h45.27.221,WTP_SM_Choice,2022.2.1,Win32,163.9344262,,,,,space,1.4283,NAN,,NAN,0.09,5.91,,0,5,5,5,1,6,Sam,Acc,Participant_Images/66800683809f48e85f663f86/66800683809f48e85f663f86_Images/66800683809f48e85f663f86_Image_2.jpeg,liked,3.79605092,,,,,,,,,,,,,,,,,,,,,,
,,66800683809f48e85f663f86,6685aa9113c938e83b4f1ea0,66d0b0dce3fe8f36c581a565,2024-08-29_12h45.27.221,WTP_SM_Choice,2022.2.1,Win32,163.9344262,,,,,space,1.0168,NAN,,NAN,0.09,5.91,,0,6,6,6,1,7,Sam,Acc,Participant_Images/66800683809f48e85f663f86/66800683809f48e85f663f86_Images/66800683809f48e85f663f86_Image_24.jpeg,liked,3.562416326,,,,,,,,,,,,,,,,,,,,,,
,,66800683809f48e85f663f86,6685aa9113c938e83b4f1ea0,66d0b0dce3fe8f36c581a565,2024-08-29_12h45.27.221,WTP_SM_Choice,2022.2.1,Win32,163.9344262,,,,,space,1.3134,NAN,,NAN,0.09,5.91,,0,7,7,7,1,8,Sam,Acc,Participant_Images/66800683809f48e85f663f86/66800683809f48e85f663f86_Images/66800683809f48e85f663f86_Image_5.jpeg,liked,2.843822497,,,,,,,,,,,,,,,,,,,,,,
,,66800683809f48e85f663f86,6685aa9113c938e83b4f1ea0,66d0b0dce3fe8f36c581a565,2024-08-29_12h45.27.221,WTP_SM_Choice,2022.2.1,Win32,163.9344262,,,,,space,1.3161,NAN,,NAN,0.09,5.91,,0,8,8,8,1,9,Sam,Acc,Participant_Images/66800683809f48e85f663f86/66800683809f48e85f663f86_Images/66800683809f48e85f663f86_Image_10.jpeg,liked,3.546495948,,,,,,,,,,,,,,,,,,,,,,
,,66800683809f48e85f663f86,6685aa9113c938e83b4f1ea0,66d0b0dce3fe8f36c581a565,2024-08-29_12h45.27.221,WTP_SM_Choice,2022.2.1,Win32,163.9344262,,,,,,,,,,,,,,,,,,6,,,,,,space,8.4991,space,4.3044,0.01,1,2.9973,0,0,0,0,1,Play video games when we all have the time,Sketch characters and random ideas on my iPad,0.01,0.02,3.3,0,,,,
,,66800683809f48e85f663f86,6685aa9113c938e83b4f1ea0,66d0b0dce3fe8f36c581a565,2024-08-29_12h45.27.221,WTP_SM_Choice,2022.2.1,Win32,163.9344262,,,,,,,,,,,,,,,,,,7,,,,,,,,,,0.02,1,3.2254,0,1,1,1,1,Talk with my dad on the phone,Look online to find art ideas,0.02,0.02,1.1,0,,,,
,,66800683809f48e85f663f86,6685aa9113c938e83b4f1ea0,66d0b0dce3fe8f36c581a565,2024-08-29_12h45.27.221,WTP_SM_Choice,2022.2.1,Win32,163.9344262,,,,,,,,,,,,,,,,,,8,,,,,,,,,,0.02,2,3.0666,0,2,2,2,1,Travel to see my sister and her roommate in texas,Look online to find art ideas,0.03,0.02,1.1,0,,,,
,,66800683809f48e85f663f86,6685aa9113c938e83b4f1ea0,66d0b0dce3fe8f36c581a565,2024-08-29_12h45.27.221,WTP_SM_Choice,2022.2.1,Win32,163.9344262,,,,,,,,,,,,,,,,,,9,,,,,,,,,,0.02,2,3.2946,0,3,3,3,1,Spend the holidays over a familys,Stay up late to watch my favorite show,0.04,0.02,4.4,0,,,,
,,66800683809f48e85f663f86,6685aa9113c938e83b4f1ea0,66d0b0dce3fe8f36c581a565,2024-08-29_12h45.27.221,WTP_SM_Choice,2022.2.1,Win32,163.9344262,,,,,,,,,,,,,,,,,,10,,,,,,,,,,0.02,2,4.9687,0,4,4,4,1,Cook breakfast for my mom,Go to the grocery store and running into cool people at the graphic tees section,0.05,0.02,1.1,1,,,,
,,66800683809f48e85f663f86,6685aa9113c938e83b4f1ea0,66d0b0dce3fe8f36c581a565,2024-08-29_12h45.27.221,WTP_SM_Choice,2022.2.1,Win32,163.9344262,,,,,,,NAN,,NAN,0.18,5.82,,0,9,9,9,1,10,Sam,Acc,Participant_Images/66800683809f48e85f663f86/66800683809f48e85f663f86_Images/66800683809f48e85f663f86_Image_14.jpeg,liked,1.672012706,,,,,,,,,,,,,,,,,,,,,,
,,66800683809f48e85f663f86,6685aa9113c938e83b4f1ea0,66d0b0dce3fe8f36c581a565,2024-08-29_12h45.27.221,WTP_SM_Choice,2022.2.1,Win32,163.9344262,,,,,space,1.1927,NAN,,NAN,0.18,5.82,,0,10,10,10,1,11,Sam,Acc,Participant_Images/66800683809f48e85f663f86/66800683809f48e85f663f86_Images/66800683809f48e85f663f86_Image_25.jpeg,liked,4.942172136,,,,,,,,,,,,,,,,,,,,,,
,,66800683809f48e85f663f86,6685aa9113c938e83b4f1ea0,66d0b0dce3fe8f36c581a565,2024-08-29_12h45.27.221,WTP_SM_Choice,2022.2.1,Win32,163.9344262,,,,,space,1.1342,NAN,,NAN,0.18,5.82,,0,11,11,11,1,12,Sam,Acc,Participant_Images/66800683809f48e85f663f86/66800683809f48e85f663f86_Images/66800683809f48e85f663f86_Image_9.jpeg,liked,2.50187214,,,,,,,,,,,,,,,,,,,,,,
,,66800683809f48e85f663f86,6685aa9113c938e83b4f1ea0,66d0b0dce3fe8f36c581a565,2024-08-29_12h45.27.221,WTP_SM_Choice,2022.2.1,Win32,163.9344262,,,,,space,1.4354,NAN,,NAN,0.18,5.82,,0,12,12,12,1,13,Sam,Acc,Participant_Images/66800683809f48e85f663f86/66800683809f48e85f663f86_Images/66800683809f48e85f663f86_Image_23.jpeg,did not like,2.071164779,,,,,,,,,,,,,,,,,,,,,,
,,66800683809f48e85f663f86,6685aa9113c938e83b4f1ea0,66d0b0dce3fe8f36c581a565,2024-08-29_12h45.27.221,WTP_SM_Choice,2022.2.1,Win32,163.9344262,,,,,space,1.2912,NAN,,NAN,0.18,5.82,,0,13,13,13,1,14,Sam,Acc,Participant_Images/66800683809f48e85f663f86/66800683809f48e85f663f86_Images/66800683809f48e85f663f86_Image_20.jpeg,did not like,5.336503566,,,,,,,,,,,,,,,,,,,,,,
,,66800683809f48e85f663f86,6685aa9113c938e83b4f1ea0,66d0b0dce3fe8f36c581a565,2024-08-29_12h45.27.221,WTP_SM_Choice,2022.2.1,Win32,163.9344262,,,,,,,,,,,,,,,,,,11,,,,,,space,1.7088,space,0.8561,0.01,1,2.7298,0,0,0,0,1,Stay up late to watch my favorite show,Travel to see my brother and sister in law in mississippi,0.01,0.03,3.3,1,,,,
,,66800683809f48e85f663f86,6685aa9113c938e83b4f1ea0,66d0b0dce3fe8f36c581a565,2024-08-29_12h45.27.221,WTP_SM_Choice,2022.2.1,Win32,163.9344262,,,,,,,,,,,,,,,,,,12,,,,,,,,,,0.03,2,3.8163,0,1,1,1,1,Sketch characters and random ideas on my iPad,Help around at my uncles shop to spend time with him and earn money,0.02,0.03,4.4,1,,,,
,,66800683809f48e85f663f86,6685aa9113c938e83b4f1ea0,66d0b0dce3fe8f36c581a565,2024-08-29_12h45.27.221,WTP_SM_Choice,2022.2.1,Win32,163.9344262,,,,,,,,,,,,,,,,,,13,,,,,,,,,,0.03,1,4.1875,0,2,2,2,1,Help around at my uncles shop to spend time with him and earn money,Listen to my favorite disney and alternative songs,0.03,0.03,1.1,0,,,,
,,66800683809f48e85f663f86,6685aa9113c938e83b4f1ea0,66d0b0dce3fe8f36c581a565,2024-08-29_12h45.27.221,WTP_SM_Choice,2022.2.1,Win32,163.9344262,,,,,,,,,,,,,,,,,,14,,,,,,,,,,0.03,2,4.4809,0,3,3,3,1,Help around at my uncles shop to spend time with him and earn money,Watch my favorite content creators on youtube,0.04,0.03,3.3,0,,,,
,,66800683809f48e85f663f86,6685aa9113c938e83b4f1ea0,66d0b0dce3fe8f36c581a565,2024-08-29_12h45.27.221,WTP_SM_Choice,2022.2.1,Win32,163.9344262,,,,,,,,,,,,,,,,,,15,,,,,,,,,,0.03,2,3.0747,0,4,4,4,1,Go to the grocery store and running into cool people at the graphic tees section,Watch my favorite content creators on youtube,0.05,0.03,4.4,0,,,,
,,66800683809f48e85f663f86,6685aa9113c938e83b4f1ea0,66d0b0dce3fe8f36c581a565,2024-08-29_12h45.27.221,WTP_SM_Choice,2022.2.1,Win32,163.9344262,,,,,,,NAN,,NAN,0.31,5.69,,0,14,14,14,1,15,Sam,Acc,Participant_Images/66800683809f48e85f663f86/66800683809f48e85f663f86_Images/66800683809f48e85f663f86_Image_4.jpeg,liked,2.642157193,,,,,,,,,,,,,,,,,,,,,,
,,66800683809f48e85f663f86,6685aa9113c938e83b4f1ea0,66d0b0dce3fe8f36c581a565,2024-08-29_12h45.27.221,WTP_SM_Choice,2022.2.1,Win32,163.9344262,,,,,space,1.3707,NAN,,NAN,0.31,5.69,,0,15,15,15,1,16,Sam,Acc,Participant_Images/66800683809f48e85f663f86/66800683809f48e85f663f86_Images/66800683809f48e85f663f86_Image_12.jpeg,did not like,4.456234322,,,,,,,,,,,,,,,,,,,,,,
,,66800683809f48e85f663f86,6685aa9113c938e83b4f1ea0,66d0b0dce3fe8f36c581a565,2024-08-29_12h45.27.221,WTP_SM_Choice,2022.2.1,Win32,163.9344262,,,,,space,1.2319,NAN,,NAN,0.31,5.69,,0,16,16,16,1,17,Sam,Acc,Participant_Images/66800683809f48e85f663f86/66800683809f48e85f663f86_Images/66800683809f48e85f663f86_Image_1.jpeg,liked,4.438512181,,,,,,,,,,,,,,,,,,,,,,
,,66800683809f48e85f663f86,6685aa9113c938e83b4f1ea0,66d0b0dce3fe8f36c581a565,2024-08-29_12h45.27.221,WTP_SM_Choice,2022.2.1,Win32,163.9344262,,,,,space,0.9527,NAN,,NAN,0.31,5.69,,0,17,17,17,1,18,Sam,Acc,Participant_Images/66800683809f48e85f663f86/66800683809f48e85f663f86_Images/66800683809f48e85f663f86_Image_22.jpeg,did not like,2.682944783,,,,,,,,,,,,,,,,,,,,,,
,,66800683809f48e85f663f86,6685aa9113c938e83b4f1ea0,66d0b0dce3fe8f36c581a565,2024-08-29_12h45.27.221,WTP_SM_Choice,2022.2.1,Win32,163.9344262,,,,,space,1.2703,NAN,,NAN,0.31,5.69,,0,18,18,18,1,19,Sam,Acc,Participant_Images/66800683809f48e85f663f86/66800683809f48e85f663f86_Images/66800683809f48e85f663f86_Image_6.jpeg,did not like,4.51984296,,,,,,,,,,,,,,,,,,,,,,
,,66800683809f48e85f663f86,6685aa9113c938e83b4f1ea0,66d0b0dce3fe8f36c581a565,2024-08-29_12h45.27.221,WTP_SM_Choice,2022.2.1,Win32,163.9344262,,,,,,,,,,,,,,,,,,16,,,,,,space,1.2582,space,0.4219,0.01,1,1.8294,0,0,0,0,1,Tutor my down stairs neighbor in math and art,Cook breakfast for my mom,0.01,0.04,1.1,0,,,,
,,66800683809f48e85f663f86,6685aa9113c938e83b4f1ea0,66d0b0dce3fe8f36c581a565,2024-08-29_12h45.27.221,WTP_SM_Choice,2022.2.1,Win32,163.9344262,,,,,,,,,,,,,,,,,,17,,,,,,,,,,0.02,1,3.8542,0,1,1,1,1,Tutor my down stairs neighbor in math and art,Listen to my favorite disney and alternative songs,0.02,0.04,8.8,0,,,,
,,66800683809f48e85f663f86,6685aa9113c938e83b4f1ea0,66d0b0dce3fe8f36c581a565,2024-08-29_12h45.27.221,WTP_SM_Choice,2022.2.1,Win32,163.9344262,,,,,,,,,,,,,,,,,,18,,,,,,,,,,0.04,2,3.7934,0,2,2,2,1,Cook breakfast for my mom,Help my little cousin study her japanese,0.03,0.04,3.3,1,,,,
,,66800683809f48e85f663f86,6685aa9113c938e83b4f1ea0,66d0b0dce3fe8f36c581a565,2024-08-29_12h45.27.221,WTP_SM_Choice,2022.2.1,Win32,163.9344262,,,,,,,,,,,,,,,,,,19,,,,,,,,,,0.04,2,4.1344,0,3,3,3,1,Help my little cousin study her japanese,Take my dogs out for a nice walk,0.04,0.04,3.3,0,,,,
,,66800683809f48e85f663f86,6685aa9113c938e83b4f1ea0,66d0b0dce3fe8f36c581a565,2024-08-29_12h45.27.221,WTP_SM_Choice,2022.2.1,Win32,163.9344262,,,,,,,,,,,,,,,,,,20,,,,,,,,,,0.04,2,5.2395,0,4,4,4,1,Travel to see my sister and her roommate in texas,Sketch characters and random ideas on my iPad,0.05,0.04,1.1,0,,,,
,,66800683809f48e85f663f86,6685aa9113c938e83b4f1ea0,66d0b0dce3fe8f36c581a565,2024-08-29_12h45.27.221,WTP_SM_Choice,2022.2.1,Win32,163.9344262,,,,,,,NAN,,NAN,0.46,5.54,,0,19,19,19,1,20,Sam,Acc,Participant_Images/66800683809f48e85f663f86/66800683809f48e85f663f86_Images/66800683809f48e85f663f86_Image_16.jpeg,liked,3.195382774,,,,,,,,,,,,,,,,,,,,,,
,,66800683809f48e85f663f86,6685aa9113c938e83b4f1ea0,66d0b0dce3fe8f36c581a565,2024-08-29_12h45.27.221,WTP_SM_Choice,2022.2.1,Win32,163.9344262,,,,,space,1.4151,NAN,,NAN,0.46,5.54,,0,20,20,20,1,21,Sam,Acc,Participant_Images/66800683809f48e85f663f86/66800683809f48e85f663f86_Images/66800683809f48e85f663f86_Image_3.jpeg,liked,1.779333479,,,,,,,,,,,,,,,,,,,,,,
,,66800683809f48e85f663f86,6685aa9113c938e83b4f1ea0,66d0b0dce3fe8f36c581a565,2024-08-29_12h45.27.221,WTP_SM_Choice,2022.2.1,Win32,163.9344262,,,,,space,0.814,NAN,,NAN,0.46,5.54,,0,21,21,21,1,22,Sam,Acc,Participant_Images/66800683809f48e85f663f86/66800683809f48e85f663f86_Images/66800683809f48e85f663f86_Image_11.jpeg,did not like,4.312468682,,,,,,,,,,,,,,,,,,,,,,
,,66800683809f48e85f663f86,6685aa9113c938e83b4f1ea0,66d0b0dce3fe8f36c581a565,2024-08-29_12h45.27.221,WTP_SM_Choice,2022.2.1,Win32,163.9344262,,,,,space,0.9628,NAN,,NAN,0.46,5.54,,0,22,22,22,1,23,Sam,Acc,Participant_Images/66800683809f48e85f663f86/66800683809f48e85f663f86_Images/66800683809f48e85f663f86_Image_8.jpeg,liked,4.940433059,,,,,,,,,,,,,,,,,,,,,,
,,66800683809f48e85f663f86,6685aa9113c938e83b4f1ea0,66d0b0dce3fe8f36c581a565,2024-08-29_12h45.27.221,WTP_SM_Choice,2022.2.1,Win32,163.9344262,,,,,space,1.2202,NAN,,NAN,0.46,5.54,,0,23,23,23,1,24,Sam,Acc,Participant_Images/66800683809f48e85f663f86/66800683809f48e85f663f86_Images/66800683809f48e85f663f86_Image_17.jpeg,liked,2.7105123,,,,,,,,,,,,,,,,,,,,,,
,,66800683809f48e85f663f86,6685aa9113c938e83b4f1ea0,66d0b0dce3fe8f36c581a565,2024-08-29_12h45.27.221,WTP_SM_Choice,2022.2.1,Win32,163.9344262,,,,,,,,,,,,,,,,,,21,,,,,,space,2.823,space,1.2975,0.01,1,5.1629,0,0,0,0,1,Sleep in some days to cuddle up with my cats,Travel to see my brother and sister in law in mississippi,0.01,0.05,8.8,1,,,,
,,66800683809f48e85f663f86,6685aa9113c938e83b4f1ea0,66d0b0dce3fe8f36c581a565,2024-08-29_12h45.27.221,WTP_SM_Choice,2022.2.1,Win32,163.9344262,,,,,,,,,,,,,,,,,,22,,,,,,,,,,0.05,2,3.8747,0,1,1,1,1,Sketch characters and random ideas on my iPad,Talk with my dad on the phone,0.02,0.05,4.4,1,,,,
,,66800683809f48e85f663f86,6685aa9113c938e83b4f1ea0,66d0b0dce3fe8f36c581a565,2024-08-29_12h45.27.221,WTP_SM_Choice,2022.2.1,Win32,163.9344262,,,,,,,,,,,,,,,,,,23,,,,,,,,,,0.03,1,4.3184,0,2,2,2,1,Playing video games with my friends.,Help around at my uncles shop to spend time with him and earn money,0.03,0.05,1.1,1,,,,
,,66800683809f48e85f663f86,6685aa9113c938e83b4f1ea0,66d0b0dce3fe8f36c581a565,2024-08-29_12h45.27.221,WTP_SM_Choice,2022.2.1,Win32,163.9344262,,,,,,,,,,,,,,,,,,24,,,,,,,,,,0.04,1,1.8936,0,3,3,3,1,Travel to see my brother and sister in law in mississippi,Playing video games with my friends.,0.04,0.05,4.4,0,,,,
,,66800683809f48e85f663f86,6685aa9113c938e83b4f1ea0,66d0b0dce3fe8f36c581a565,2024-08-29_12h45.27.221,WTP_SM_Choice,2022.2.1,Win32,163.9344262,,,,,,,,,,,,,,,,,,25,,,,,,,,,,0.05,2,3.8263,0,4,4,4,1,Tutor my down stairs neighbor in math and art,Watch my favorite content creators on youtube,0.05,0.05,3.3,0,,,,
,,66800683809f48e85f663f86,6685aa9113c938e83b4f1ea0,66d0b0dce3fe8f36c581a565,2024-08-29_12h45.27.221,WTP_SM_Choice,2022.2.1,Win32,163.9344262,,,,,,,4,,7,0.64,5.36,,0,24,24,24,1,25,Sam,Acc,Participant_Images/66800683809f48e85f663f86/66800683809f48e85f663f86_Images/66800683809f48e85f663f86_Image_7.jpeg,liked,3.602308302,,,,,,,,,,,,,,,,,,,space,0.9741,,
,,66800683809f48e85f663f86,6685aa9113c938e83b4f1ea0,66d0b0dce3fe8f36c581a565,2024-08-29_12h45.27.221,WTP_SM_Choice,2022.2.1,Win32,163.9344262,,,space,2.1589,space,1.0323,NAN,,NAN,0.64,5.36,,0,25,25,25,1,26,Charlie,Rej,Participant_Images/66800683809f48e85f663f86/66800683809f48e85f663f86_Images/66800683809f48e85f663f86_Image_6.jpeg,did not like,4.106391878,,,,,,,,,,,,,,,,,,,,,,
,,66800683809f48e85f663f86,6685aa9113c938e83b4f1ea0,66d0b0dce3fe8f36c581a565,2024-08-29_12h45.27.221,WTP_SM_Choice,2022.2.1,Win32,163.9344262,,,,,space,0.7705,NAN,,NAN,0.64,5.36,,0,26,26,26,1,27,Charlie,Rej,Participant_Images/66800683809f48e85f663f86/66800683809f48e85f663f86_Images/66800683809f48e85f663f86_Image_4.jpeg,liked,3.799433026,,,,,,,,,,,,,,,,,,,,,,
,,66800683809f48e85f663f86,6685aa9113c938e83b4f1ea0,66d0b0dce3fe8f36c581a565,2024-08-29_12h45.27.221,WTP_SM_Choice,2022.2.1,Win32,163.9344262,,,,,space,0.5612,NAN,,NAN,0.64,5.36,,0,27,27,27,1,28,Charlie,Rej,Participant_Images/66800683809f48e85f663f86/66800683809f48e85f663f86_Images/66800683809f48e85f663f86_Image_25.jpeg,did not like,5.246980764,,,,,,,,,,,,,,,,,,,,,,
,,66800683809f48e85f663f86,6685aa9113c938e83b4f1ea0,66d0b0dce3fe8f36c581a565,2024-08-29_12h45.27.221,WTP_SM_Choice,2022.2.1,Win32,163.9344262,,,,,space,0.5296,NAN,,NAN,0.64,5.36,,0,28,28,28,1,29,Charlie,Rej,Participant_Images/66800683809f48e85f663f86/66800683809f48e85f663f86_Images/66800683809f48e85f663f86_Image_20.jpeg,did not like,3.30081769,,,,,,,,,,,,,,,,,,,,,,
,,66800683809f48e85f663f86,6685aa9113c938e83b4f1ea0,66d0b0dce3fe8f36c581a565,2024-08-29_12h45.27.221,WTP_SM_Choice,2022.2.1,Win32,163.9344262,,,,,,,,,,,,,,,,,,26,,,,,,space,0.6488,space,0.6036,0.01,1,2.941,0,0,0,0,1,Look online to find art ideas,Spend the holidays over a familys,0.01,0.01,4.4,1,,,,
,,66800683809f48e85f663f86,6685aa9113c938e83b4f1ea0,66d0b0dce3fe8f36c581a565,2024-08-29_12h45.27.221,WTP_SM_Choice,2022.2.1,Win32,163.9344262,,,,,,,,,,,,,,,,,,27,,,,,,,,,,0.01,2,2.2166,0,1,1,1,1,Travel to see my brother and sister in law in mississippi,Take my dogs out for a nice walk,0.02,0.01,3.3,0,,,,
,,66800683809f48e85f663f86,6685aa9113c938e83b4f1ea0,66d0b0dce3fe8f36c581a565,2024-08-29_12h45.27.221,WTP_SM_Choice,2022.2.1,Win32,163.9344262,,,,,,,,,,,,,,,,,,28,,,,,,,,,,0.01,2,1.9266,0,2,2,2,1,Go to the grocery store and running into cool people at the graphic tees section,Take my dogs out for a nice walk,0.03,0.01,3.3,0,,,,
,,66800683809f48e85f663f86,6685aa9113c938e83b4f1ea0,66d0b0dce3fe8f36c581a565,2024-08-29_12h45.27.221,WTP_SM_Choice,2022.2.1,Win32,163.9344262,,,,,,,,,,,,,,,,,,29,,,,,,,,,,0.01,2,2.4476,0,3,3,3,1,Stay up late to watch my favorite show,Travel to see my sister and her roommate in texas,0.04,0.01,4.4,1,,,,
,,66800683809f48e85f663f86,6685aa9113c938e83b4f1ea0,66d0b0dce3fe8f36c581a565,2024-08-29_12h45.27.221,WTP_SM_Choice,2022.2.1,Win32,163.9344262,,,,,,,,,,,,,,,,,,30,,,,,,,,,,0.01,2,2.5184,0,4,4,4,1,Sleep in some days to cuddle up with my cats,Go to the grocery store and running into cool people at the graphic tees section,0.05,0.01,8.8,1,,,,
,,66800683809f48e85f663f86,6685aa9113c938e83b4f1ea0,66d0b0dce3fe8f36c581a565,2024-08-29_12h45.27.221,WTP_SM_Choice,2022.2.1,Win32,163.9344262,,,,,,,NAN,,NAN,0.69,5.31,,0,29,29,29,1,30,Charlie,Rej,Participant_Images/66800683809f48e85f663f86/66800683809f48e85f663f86_Images/66800683809f48e85f663f86_Image_15.jpeg,did not like,1.661473164,,,,,,,,,,,,,,,,,,,,,,
,,66800683809f48e85f663f86,6685aa9113c938e83b4f1ea0,66d0b0dce3fe8f36c581a565,2024-08-29_12h45.27.221,WTP_SM_Choice,2022.2.1,Win32,163.9344262,,,,,space,0.7132,NAN,,NAN,0.69,5.31,,0,30,30,30,1,31,Charlie,Rej,Participant_Images/66800683809f48e85f663f86/66800683809f48e85f663f86_Images/66800683809f48e85f663f86_Image_12.jpeg,did not like,3.613205605,,,,,,,,,,,,,,,,,,,,,,
,,66800683809f48e85f663f86,6685aa9113c938e83b4f1ea0,66d0b0dce3fe8f36c581a565,2024-08-29_12h45.27.221,WTP_SM_Choice,2022.2.1,Win32,163.9344262,,,,,space,0.7171,NAN,,NAN,0.69,5.31,,0,31,31,31,1,32,Charlie,Rej,Participant_Images/66800683809f48e85f663f86/66800683809f48e85f663f86_Images/66800683809f48e85f663f86_Image_1.jpeg,liked,4.988446431,,,,,,,,,,,,,,,,,,,,,,
,,66800683809f48e85f663f86,6685aa9113c938e83b4f1ea0,66d0b0dce3fe8f36c581a565,2024-08-29_12h45.27.221,WTP_SM_Choice,2022.2.1,Win32,163.9344262,,,,,space,1.8917,NAN,,NAN,0.69,5.31,,0,32,32,32,1,33,Charlie,Rej,Participant_Images/66800683809f48e85f663f86/66800683809f48e85f663f86_Images/66800683809f48e85f663f86_Image_5.jpeg,did not like,3.470791822,,,,,,,,,,,,,,,,,,,,,,
,,66800683809f48e85f663f86,6685aa9113c938e83b4f1ea0,66d0b0dce3fe8f36c581a565,2024-08-29_12h45.27.221,WTP_SM_Choice,2022.2.1,Win32,163.9344262,,,,,space,1.0681,NAN,,NAN,0.69,5.31,,0,33,33,33,1,34,Charlie,Rej,Participant_Images/66800683809f48e85f663f86/66800683809f48e85f663f86_Images/66800683809f48e85f663f86_Image_9.jpeg,liked,3.820572462,,,,,,,,,,,,,,,,,,,,,,
,,66800683809f48e85f663f86,6685aa9113c938e83b4f1ea0,66d0b0dce3fe8f36c581a565,2024-08-29_12h45.27.221,WTP_SM_Choice,2022.2.1,Win32,163.9344262,,,,,,,,,,,,,,,,,,31,,,,,,space,1.3748,space,5.2389,0.01,1,2.9814,0,0,0,0,1,Go to the grocery store and running into cool people at the graphic tees section,Read web comics on my phone in bed,0.01,0.02,8.8,0,,,,
,,66800683809f48e85f663f86,6685aa9113c938e83b4f1ea0,66d0b0dce3fe8f36c581a565,2024-08-29_12h45.27.221,WTP_SM_Choice,2022.2.1,Win32,163.9344262,,,,,,,,,,,,,,,,,,32,,,,,,,,,,0.02,1,3.1584,0,1,1,1,1,Go to the grocery store and running into cool people at the graphic tees section,Look online to find art ideas,0.02,0.02,1.1,0,,,,
,,66800683809f48e85f663f86,6685aa9113c938e83b4f1ea0,66d0b0dce3fe8f36c581a565,2024-08-29_12h45.27.221,WTP_SM_Choice,2022.2.1,Win32,163.9344262,,,,,,,,,,,,,,,,,,33,,,,,,,,,,0.02,2,3.0505,0,2,2,2,1,Read web comics on my phone in bed,Travel to see my sister and her roommate in texas,0.03,0.02,4.4,1,,,,
,,66800683809f48e85f663f86,6685aa9113c938e83b4f1ea0,66d0b0dce3fe8f36c581a565,2024-08-29_12h45.27.221,WTP_SM_Choice,2022.2.1,Win32,163.9344262,,,,,,,,,,,,,,,,,,34,,,,,,,,,,0.02,2,3.1968,0,3,3,3,1,Sketch characters and random ideas on my iPad,Help my little cousin study her japanese,0.04,0.02,3.3,1,,,,
,,66800683809f48e85f663f86,6685aa9113c938e83b4f1ea0,66d0b0dce3fe8f36c581a565,2024-08-29_12h45.27.221,WTP_SM_Choice,2022.2.1,Win32,163.9344262,,,,,,,,,,,,,,,,,,35,,,,,,,,,,0.02,2,7.1273,0,4,4,4,1,Sleep in some days to cuddle up with my cats,Talk with my dad on the phone,0.05,0.02,1.1,1,,,,
,,66800683809f48e85f663f86,6685aa9113c938e83b4f1ea0,66d0b0dce3fe8f36c581a565,2024-08-29_12h45.27.221,WTP_SM_Choice,2022.2.1,Win32,163.9344262,,,,,,,NAN,,NAN,0.78,5.22,,0,34,34,34,1,35,Charlie,Rej,Participant_Images/66800683809f48e85f663f86/66800683809f48e85f663f86_Images/66800683809f48e85f663f86_Image_10.jpeg,did not like,2.455989137,,,,,,,,,,,,,,,,,,,,,,
,,66800683809f48e85f663f86,6685aa9113c938e83b4f1ea0,66d0b0dce3fe8f36c581a565,2024-08-29_12h45.27.221,WTP_SM_Choice,2022.2.1,Win32,163.9344262,,,,,space,0.7809,NAN,,NAN,0.78,5.22,,0,35,35,35,1,36,Charlie,Rej,Participant_Images/66800683809f48e85f663f86/66800683809f48e85f663f86_Images/66800683809f48e85f663f86_Image_3.jpeg,did not like,3.79605092,,,,,,,,,,,,,,,,,,,,,,
,,66800683809f48e85f663f86,6685aa9113c938e83b4f1ea0,66d0b0dce3fe8f36c581a565,2024-08-29_12h45.27.221,WTP_SM_Choice,2022.2.1,Win32,163.9344262,,,,,space,0.4824,NAN,,NAN,0.78,5.22,,0,36,36,36,1,37,Charlie,Rej,Participant_Images/66800683809f48e85f663f86/66800683809f48e85f663f86_Images/66800683809f48e85f663f86_Image_19.jpeg,did not like,3.562416326,,,,,,,,,,,,,,,,,,,,,,
,,66800683809f48e85f663f86,6685aa9113c938e83b4f1ea0,66d0b0dce3fe8f36c581a565,2024-08-29_12h45.27.221,WTP_SM_Choice,2022.2.1,Win32,163.9344262,,,,,space,2.1082,NAN,,NAN,0.78,5.22,,0,37,37,37,1,38,Charlie,Rej,Participant_Images/66800683809f48e85f663f86/66800683809f48e85f663f86_Images/66800683809f48e85f663f86_Image_16.jpeg,did not like,2.843822497,,,,,,,,,,,,,,,,,,,,,,
,,66800683809f48e85f663f86,6685aa9113c938e83b4f1ea0,66d0b0dce3fe8f36c581a565,2024-08-29_12h45.27.221,WTP_SM_Choice,2022.2.1,Win32,163.9344262,,,,,space,1.2217,NAN,,NAN,0.78,5.22,,0,38,38,38,1,39,Charlie,Rej,Participant_Images/66800683809f48e85f663f86/66800683809f48e85f663f86_Images/66800683809f48e85f663f86_Image_7.jpeg,liked,3.546495948,,,,,,,,,,,,,,,,,,,,,,
,,66800683809f48e85f663f86,6685aa9113c938e83b4f1ea0,66d0b0dce3fe8f36c581a565,2024-08-29_12h45.27.221,WTP_SM_Choice,2022.2.1,Win32,163.9344262,,,,,,,,,,,,,,,,,,36,,,,,,space,0.8393,space,3.638,0.01,1,2.6338,0,0,0,0,1,Cook breakfast for my mom,Watch movies with my mom,0.01,0.03,3.3,1,,,,
,,66800683809f48e85f663f86,6685aa9113c938e83b4f1ea0,66d0b0dce3fe8f36c581a565,2024-08-29_12h45.27.221,WTP_SM_Choice,2022.2.1,Win32,163.9344262,,,,,,,,,,,,,,,,,,37,,,,,,,,,,0.02,1,5.6718,0,1,1,1,1,Playing video games with my friends.,Travel to see my sister and her roommate in texas,0.02,0.03,1.1,1,,,,
,,66800683809f48e85f663f86,6685aa9113c938e83b4f1ea0,66d0b0dce3fe8f36c581a565,2024-08-29_12h45.27.221,WTP_SM_Choice,2022.2.1,Win32,163.9344262,,,,,,,,,,,,,,,,,,38,,,,,,,,,,0.03,2,2.8519,0,2,2,2,1,Read web comics on my phone in bed,Talk with my dad on the phone,0.03,0.03,1.1,1,,,,
,,66800683809f48e85f663f86,6685aa9113c938e83b4f1ea0,66d0b0dce3fe8f36c581a565,2024-08-29_12h45.27.221,WTP_SM_Choice,2022.2.1,Win32,163.9344262,,,,,,,,,,,,,,,,,,39,,,,,,,,,,0.03,2,2.7378,0,3,3,3,1,Watch my favorite content creators on youtube,Travel to see my brother and sister in law in mississippi,0.04,0.03,3.3,1,,,,
,,66800683809f48e85f663f86,6685aa9113c938e83b4f1ea0,66d0b0dce3fe8f36c581a565,2024-08-29_12h45.27.221,WTP_SM_Choice,2022.2.1,Win32,163.9344262,,,,,,,,,,,,,,,,,,40,,,,,,,,,,0.03,2,2.2407,0,4,4,4,1,Stay up late to watch my favorite show,Tutor my down stairs neighbor in math and art,0.05,0.03,4.4,1,,,,
,,66800683809f48e85f663f86,6685aa9113c938e83b4f1ea0,66d0b0dce3fe8f36c581a565,2024-08-29_12h45.27.221,WTP_SM_Choice,2022.2.1,Win32,163.9344262,,,,,,,NAN,,NAN,0.9,5.1,,0,39,39,39,1,40,Charlie,Rej,Participant_Images/66800683809f48e85f663f86/66800683809f48e85f663f86_Images/66800683809f48e85f663f86_Image_14.jpeg,did not like,1.672012706,,,,,,,,,,,,,,,,,,,,,,
,,66800683809f48e85f663f86,6685aa9113c938e83b4f1ea0,66d0b0dce3fe8f36c581a565,2024-08-29_12h45.27.221,WTP_SM_Choice,2022.2.1,Win32,163.9344262,,,,,space,1.1,NAN,,NAN,0.9,5.1,,0,40,40,40,1,41,Charlie,Rej,Participant_Images/66800683809f48e85f663f86/66800683809f48e85f663f86_Images/66800683809f48e85f663f86_Image_24.jpeg,liked,4.942172136,,,,,,,,,,,,,,,,,,,,,,
,,66800683809f48e85f663f86,6685aa9113c938e83b4f1ea0,66d0b0dce3fe8f36c581a565,2024-08-29_12h45.27.221,WTP_SM_Choice,2022.2.1,Win32,163.9344262,,,,,space,1.6995,NAN,,NAN,0.9,5.1,,0,41,41,41,1,42,Charlie,Rej,Participant_Images/66800683809f48e85f663f86/66800683809f48e85f663f86_Images/66800683809f48e85f663f86_Image_11.jpeg,did not like,2.50187214,,,,,,,,,,,,,,,,,,,,,,
,,66800683809f48e85f663f86,6685aa9113c938e83b4f1ea0,66d0b0dce3fe8f36c581a565,2024-08-29_12h45.27.221,WTP_SM_Choice,2022.2.1,Win32,163.9344262,,,,,space,1.0949,NAN,,NAN,0.9,5.1,,0,42,42,42,1,43,Charlie,Rej,Participant_Images/66800683809f48e85f663f86/66800683809f48e85f663f86_Images/66800683809f48e85f663f86_Image_18.jpeg,liked,2.071164779,,,,,,,,,,,,,,,,,,,,,,
,,66800683809f48e85f663f86,6685aa9113c938e83b4f1ea0,66d0b0dce3fe8f36c581a565,2024-08-29_12h45.27.221,WTP_SM_Choice,2022.2.1,Win32,163.9344262,,,,,space,0.4926,NAN,,NAN,0.9,5.1,,0,43,43,43,1,44,Charlie,Rej,Participant_Images/66800683809f48e85f663f86/66800683809f48e85f663f86_Images/66800683809f48e85f663f86_Image_8.jpeg,did not like,5.336503566,,,,,,,,,,,,,,,,,,,,,,
,,66800683809f48e85f663f86,6685aa9113c938e83b4f1ea0,66d0b0dce3fe8f36c581a565,2024-08-29_12h45.27.221,WTP_SM_Choice,2022.2.1,Win32,163.9344262,,,,,,,,,,,,,,,,,,41,,,,,,space,1.0646,space,0.6666,0.01,1,1.9972,0,0,0,0,1,Sleep in some days to cuddle up with my cats,Tutor my down stairs neighbor in math and art,0.01,0.04,1.1,1,,,,
,,66800683809f48e85f663f86,6685aa9113c938e83b4f1ea0,66d0b0dce3fe8f36c581a565,2024-08-29_12h45.27.221,WTP_SM_Choice,2022.2.1,Win32,163.9344262,,,,,,,,,,,,,,,,,,42,,,,,,,,,,0.02,1,2.13,0,1,1,1,1,Playing video games with my friends.,Help my little cousin study her japanese,0.02,0.04,3.3,1,,,,
,,66800683809f48e85f663f86,6685aa9113c938e83b4f1ea0,66d0b0dce3fe8f36c581a565,2024-08-29_12h45.27.221,WTP_SM_Choice,2022.2.1,Win32,163.9344262,,,,,,,,,,,,,,,,,,43,,,,,,,,,,0.04,2,1.6617,0,2,2,2,1,Playing video games with my friends.,Talk with my dad on the phone,0.03,0.04,1.1,1,,,,
,,66800683809f48e85f663f86,6685aa9113c938e83b4f1ea0,66d0b0dce3fe8f36c581a565,2024-08-29_12h45.27.221,WTP_SM_Choice,2022.2.1,Win32,163.9344262,,,,,,,,,,,,,,,,,,44,,,,,,,,,,0.04,1,2.8258,0,3,3,3,1,Help my little cousin study her japanese,Listen to my favorite disney and alternative songs,0.04,0.04,1.1,0,,,,
,,66800683809f48e85f663f86,6685aa9113c938e83b4f1ea0,66d0b0dce3fe8f36c581a565,2024-08-29_12h45.27.221,WTP_SM_Choice,2022.2.1,Win32,163.9344262,,,,,,,,,,,,,,,,,,45,,,,,,,,,,0.05,1,3.7133,0,4,4,4,1,Go to the grocery store and running into cool people at the graphic tees section,Stay up late to watch my favorite show,0.05,0.04,4.4,0,,,,
,,66800683809f48e85f663f86,6685aa9113c938e83b4f1ea0,66d0b0dce3fe8f36c581a565,2024-08-29_12h45.27.221,WTP_SM_Choice,2022.2.1,Win32,163.9344262,,,,,,,NAN,,NAN,1.06,4.94,,0,44,44,44,1,45,Charlie,Rej,Participant_Images/66800683809f48e85f663f86/66800683809f48e85f663f86_Images/66800683809f48e85f663f86_Image_2.jpeg,did not like,2.642157193,,,,,,,,,,,,,,,,,,,,,,
,,66800683809f48e85f663f86,6685aa9113c938e83b4f1ea0,66d0b0dce3fe8f36c581a565,2024-08-29_12h45.27.221,WTP_SM_Choice,2022.2.1,Win32,163.9344262,,,,,space,0.458,NAN,,NAN,1.06,4.94,,0,45,45,45,1,46,Charlie,Rej,Participant_Images/66800683809f48e85f663f86/66800683809f48e85f663f86_Images/66800683809f48e85f663f86_Image_17.jpeg,liked,4.456234322,,,,,,,,,,,,,,,,,,,,,,
,,66800683809f48e85f663f86,6685aa9113c938e83b4f1ea0,66d0b0dce3fe8f36c581a565,2024-08-29_12h45.27.221,WTP_SM_Choice,2022.2.1,Win32,163.9344262,,,,,space,0.4262,NAN,,NAN,1.06,4.94,,0,46,46,46,1,47,Charlie,Rej,Participant_Images/66800683809f48e85f663f86/66800683809f48e85f663f86_Images/66800683809f48e85f663f86_Image_22.jpeg,did not like,4.438512181,,,,,,,,,,,,,,,,,,,,,,
,,66800683809f48e85f663f86,6685aa9113c938e83b4f1ea0,66d0b0dce3fe8f36c581a565,2024-08-29_12h45.27.221,WTP_SM_Choice,2022.2.1,Win32,163.9344262,,,,,space,0.3952,NAN,,NAN,1.06,4.94,,0,47,47,47,1,48,Charlie,Rej,Participant_Images/66800683809f48e85f663f86/66800683809f48e85f663f86_Images/66800683809f48e85f663f86_Image_21.jpeg,did not like,2.682944783,,,,,,,,,,,,,,,,,,,,,,
,,66800683809f48e85f663f86,6685aa9113c938e83b4f1ea0,66d0b0dce3fe8f36c581a565,2024-08-29_12h45.27.221,WTP_SM_Choice,2022.2.1,Win32,163.9344262,,,,,space,0.51,NAN,,NAN,1.06,4.94,,0,48,48,48,1,49,Charlie,Rej,Participant_Images/66800683809f48e85f663f86/66800683809f48e85f663f86_Images/66800683809f48e85f663f86_Image_13.jpeg,did not like,4.51984296,,,,,,,,,,,,,,,,,,,,,,
,,66800683809f48e85f663f86,6685aa9113c938e83b4f1ea0,66d0b0dce3fe8f36c581a565,2024-08-29_12h45.27.221,WTP_SM_Choice,2022.2.1,Win32,163.9344262,,,,,,,,,,,,,,,,,,46,,,,,,space,2.5047,space,0.7106,0.01,1,2.2545,0,0,0,0,1,Sleep in some days to cuddle up with my cats,Travel to see my sister and her roommate in texas,0.01,0.05,8.8,1,,,,
,,66800683809f48e85f663f86,6685aa9113c938e83b4f1ea0,66d0b0dce3fe8f36c581a565,2024-08-29_12h45.27.221,WTP_SM_Choice,2022.2.1,Win32,163.9344262,,,,,,,,,,,,,,,,,,47,,,,,,,,,,0.02,1,1.8438,0,1,1,1,1,Look online to find art ideas,Help my little cousin study her japanese,0.02,0.05,1.1,1,,,,
,,66800683809f48e85f663f86,6685aa9113c938e83b4f1ea0,66d0b0dce3fe8f36c581a565,2024-08-29_12h45.27.221,WTP_SM_Choice,2022.2.1,Win32,163.9344262,,,,,,,,,,,,,,,,,,48,,,,,,,,,,0.03,1,1.9506,0,2,2,2,1,Help around at my uncles shop to spend time with him and earn money,Read web comics on my phone in bed,0.03,0.05,4.4,0,,,,
,,66800683809f48e85f663f86,6685aa9113c938e83b4f1ea0,66d0b0dce3fe8f36c581a565,2024-08-29_12h45.27.221,WTP_SM_Choice,2022.2.1,Win32,163.9344262,,,,,,,,,,,,,,,,,,49,,,,,,,,,,0.04,1,2.2629,0,3,3,3,1,Playing video games with my friends.,Watch movies with my mom,0.04,0.05,3.3,1,,,,
,,66800683809f48e85f663f86,6685aa9113c938e83b4f1ea0,66d0b0dce3fe8f36c581a565,2024-08-29_12h45.27.221,WTP_SM_Choice,2022.2.1,Win32,163.9344262,,,,,,,,,,,,,,,,,,50,,,,,,,,,,0.05,1,3.5425,0,4,4,4,1,Listen to my favorite disney and alternative songs,Travel to see my brother and sister in law in mississippi,0.05,0.05,1.1,1,,,,
,,66800683809f48e85f663f86,6685aa9113c938e83b4f1ea0,66d0b0dce3fe8f36c581a565,2024-08-29_12h45.27.221,WTP_SM_Choice,2022.2.1,Win32,163.9344262,,,,,,,1,,7,1.21,4.79,,0,49,49,49,1,50,Charlie,Rej,Participant_Images/66800683809f48e85f663f86/66800683809f48e85f663f86_Images/66800683809f48e85f663f86_Image_23.jpeg,did not like,3.195382774,,,,,,,,,,,,,,,,,,,space,0.8458,,
,,66800683809f48e85f663f86,6685aa9113c938e83b4f1ea0,66d0b0dce3fe8f36c581a565,2024-08-29_12h45.27.221,WTP_SM_Choice,2022.2.1,Win32,163.9344262,,,space,1.9196,space,0.8154,NAN,,NAN,1.21,4.79,,0,50,50,50,1,51,Alex,Rej,Participant_Images/66800683809f48e85f663f86/66800683809f48e85f663f86_Images/66800683809f48e85f663f86_Image_18.jpeg,did not like,1.779333479,,,,,,,,,,,,,,,,,,,,,,
,,66800683809f48e85f663f86,6685aa9113c938e83b4f1ea0,66d0b0dce3fe8f36c581a565,2024-08-29_12h45.27.221,WTP_SM_Choice,2022.2.1,Win32,163.9344262,,,,,space,0.7608,NAN,,NAN,1.21,4.79,,0,51,51,51,1,52,Alex,Rej,Participant_Images/66800683809f48e85f663f86/66800683809f48e85f663f86_Images/66800683809f48e85f663f86_Image_6.jpeg,liked,4.312468682,,,,,,,,,,,,,,,,,,,,,,
,,66800683809f48e85f663f86,6685aa9113c938e83b4f1ea0,66d0b0dce3fe8f36c581a565,2024-08-29_12h45.27.221,WTP_SM_Choice,2022.2.1,Win32,163.9344262,,,,,space,1.15,NAN,,NAN,1.21,4.79,,0,52,52,52,1,53,Alex,Rej,Participant_Images/66800683809f48e85f663f86/66800683809f48e85f663f86_Images/66800683809f48e85f663f86_Image_12.jpeg,liked,4.940433059,,,,,,,,,,,,,,,,,,,,,,
,,66800683809f48e85f663f86,6685aa9113c938e83b4f1ea0,66d0b0dce3fe8f36c581a565,2024-08-29_12h45.27.221,WTP_SM_Choice,2022.2.1,Win32,163.9344262,,,,,space,0.9045,NAN,,NAN,1.21,4.79,,0,53,53,53,1,54,Alex,Rej,Participant_Images/66800683809f48e85f663f86/66800683809f48e85f663f86_Images/66800683809f48e85f663f86_Image_21.jpeg,liked,2.7105123,,,,,,,,,,,,,,,,,,,,,,
,,66800683809f48e85f663f86,6685aa9113c938e83b4f1ea0,66d0b0dce3fe8f36c581a565,2024-08-29_12h45.27.221,WTP_SM_Choice,2022.2.1,Win32,163.9344262,,,,,,,,,,,,,,,,,,51,,,,,,space,1.0253,space,0.7225,0.01,2,1.9533,0,0,0,0,1,Play video games when we all have the time,Take my dogs out for a nice walk,0.01,0.01,1.1,0,,,,
,,66800683809f48e85f663f86,6685aa9113c938e83b4f1ea0,66d0b0dce3fe8f36c581a565,2024-08-29_12h45.27.221,WTP_SM_Choice,2022.2.1,Win32,163.9344262,,,,,,,,,,,,,,,,,,52,,,,,,,,,,0.01,2,3.3522,0,1,1,1,1,Travel to see my brother and sister in law in mississippi,Sketch characters and random ideas on my iPad,0.02,0.01,3.3,0,,,,
,,66800683809f48e85f663f86,6685aa9113c938e83b4f1ea0,66d0b0dce3fe8f36c581a565,2024-08-29_12h45.27.221,WTP_SM_Choice,2022.2.1,Win32,163.9344262,,,,,,,,,,,,,,,,,,53,,,,,,,,,,0.01,2,2.2916,0,2,2,2,1,Help around at my uncles shop to spend time with him and earn money,Cook breakfast for my mom,0.03,0.01,1.1,0,,,,
,,66800683809f48e85f663f86,6685aa9113c938e83b4f1ea0,66d0b0dce3fe8f36c581a565,2024-08-29_12h45.27.221,WTP_SM_Choice,2022.2.1,Win32,163.9344262,,,,,,,,,,,,,,,,,,54,,,,,,,,,,0.01,2,3.0948,0,3,3,3,1,Watch my favorite content creators on youtube,Watch movies with my mom,0.04,0.01,4.4,1,,,,
,,66800683809f48e85f663f86,6685aa9113c938e83b4f1ea0,66d0b0dce3fe8f36c581a565,2024-08-29_12h45.27.221,WTP_SM_Choice,2022.2.1,Win32,163.9344262,,,,,,,,,,,,,,,,,,55,,,,,,,,,,0.01,2,2.4315,0,4,4,4,1,Stay up late to watch my favorite show,Play video games when we all have the time,0.05,0.01,1.1,1,,,,
,,66800683809f48e85f663f86,6685aa9113c938e83b4f1ea0,66d0b0dce3fe8f36c581a565,2024-08-29_12h45.27.221,WTP_SM_Choice,2022.2.1,Win32,163.9344262,,,,,,,NAN,,NAN,1.26,4.74,,0,54,54,54,1,55,Alex,Rej,Participant_Images/66800683809f48e85f663f86/66800683809f48e85f663f86_Images/66800683809f48e85f663f86_Image_13.jpeg,did not like,3.602308302,,,,,,,,,,,,,,,,,,,,,,
,,66800683809f48e85f663f86,6685aa9113c938e83b4f1ea0,66d0b0dce3fe8f36c581a565,2024-08-29_12h45.27.221,WTP_SM_Choice,2022.2.1,Win32,163.9344262,,,,,space,0.8612,NAN,,NAN,1.26,4.74,,0,55,55,55,1,56,Alex,Rej,Participant_Images/66800683809f48e85f663f86/66800683809f48e85f663f86_Images/66800683809f48e85f663f86_Image_3.jpeg,did not like,4.106391878,,,,,,,,,,,,,,,,,,,,,,
,,66800683809f48e85f663f86,6685aa9113c938e83b4f1ea0,66d0b0dce3fe8f36c581a565,2024-08-29_12h45.27.221,WTP_SM_Choice,2022.2.1,Win32,163.9344262,,,,,space,7.15,NAN,,NAN,1.26,4.74,,0,56,56,56,1,57,Alex,Rej,Participant_Images/66800683809f48e85f663f86/66800683809f48e85f663f86_Images/66800683809f48e85f663f86_Image_16.jpeg,liked,3.799433026,,,,,,,,,,,,,,,,,,,,,,
,,66800683809f48e85f663f86,6685aa9113c938e83b4f1ea0,66d0b0dce3fe8f36c581a565,2024-08-29_12h45.27.221,WTP_SM_Choice,2022.2.1,Win32,163.9344262,,,,,space,0.7019,NAN,,NAN,1.26,4.74,,0,57,57,57,1,58,Alex,Rej,Participant_Images/66800683809f48e85f663f86/66800683809f48e85f663f86_Images/66800683809f48e85f663f86_Image_17.jpeg,did not like,5.246980764,,,,,,,,,,,,,,,,,,,,,,
,,66800683809f48e85f663f86,6685aa9113c938e83b4f1ea0,66d0b0dce3fe8f36c581a565,2024-08-29_12h45.27.221,WTP_SM_Choice,2022.2.1,Win32,163.9344262,,,,,space,0.7931,NAN,,NAN,1.26,4.74,,0,58,58,58,1,59,Alex,Rej,Participant_Images/66800683809f48e85f663f86/66800683809f48e85f663f86_Images/66800683809f48e85f663f86_Image_10.jpeg,did not like,3.30081769,,,,,,,,,,,,,,,,,,,,,,
,,66800683809f48e85f663f86,6685aa9113c938e83b4f1ea0,66d0b0dce3fe8f36c581a565,2024-08-29_12h45.27.221,WTP_SM_Choice,2022.2.1,Win32,163.9344262,,,,,,,,,,,,,,,,,,56,,,,,,space,1.0416,space,1.2587,0.01,1,1.6048,0,0,0,0,1,Spend the holidays over a familys,Listen to my favorite disney and alternative songs,0.01,0.02,8.8,0,,,,
,,66800683809f48e85f663f86,6685aa9113c938e83b4f1ea0,66d0b0dce3fe8f36c581a565,2024-08-29_12h45.27.221,WTP_SM_Choice,2022.2.1,Win32,163.9344262,,,,,,,,,,,,,,,,,,57,,,,,,,,,,0.02,1,2.956,0,1,1,1,1,Talk with my dad on the phone,Watch my favorite content creators on youtube,0.02,0.02,4.4,0,,,,
,,66800683809f48e85f663f86,6685aa9113c938e83b4f1ea0,66d0b0dce3fe8f36c581a565,2024-08-29_12h45.27.221,WTP_SM_Choice,2022.2.1,Win32,163.9344262,,,,,,,,,,,,,,,,,,58,,,,,,,,,,0.02,2,2.6812,0,2,2,2,1,Listen to my favorite disney and alternative songs,Go to the grocery store and running into cool people at the graphic tees section,0.03,0.02,4.4,1,,,,
,,66800683809f48e85f663f86,6685aa9113c938e83b4f1ea0,66d0b0dce3fe8f36c581a565,2024-08-29_12h45.27.221,WTP_SM_Choice,2022.2.1,Win32,163.9344262,,,,,,,,,,,,,,,,,,59,,,,,,,,,,0.04,1,4.8701,0,3,3,3,1,Spend the holidays over a familys,Read web comics on my phone in bed,0.04,0.02,4.4,0,,,,
,,66800683809f48e85f663f86,6685aa9113c938e83b4f1ea0,66d0b0dce3fe8f36c581a565,2024-08-29_12h45.27.221,WTP_SM_Choice,2022.2.1,Win32,163.9344262,,,,,,,,,,,,,,,,,,60,,,,,,,,,,0.02,2,2.2676,0,4,4,4,1,Sleep in some days to cuddle up with my cats,Help around at my uncles shop to spend time with him and earn money,0.05,0.02,1.1,1,,,,
,,66800683809f48e85f663f86,6685aa9113c938e83b4f1ea0,66d0b0dce3fe8f36c581a565,2024-08-29_12h45.27.221,WTP_SM_Choice,2022.2.1,Win32,163.9344262,,,,,,,NAN,,NAN,1.37,4.63,,0,59,59,59,1,60,Alex,Rej,Participant_Images/66800683809f48e85f663f86/66800683809f48e85f663f86_Images/66800683809f48e85f663f86_Image_14.jpeg,did not like,1.661473164,,,,,,,,,,,,,,,,,,,,,,
,,66800683809f48e85f663f86,6685aa9113c938e83b4f1ea0,66d0b0dce3fe8f36c581a565,2024-08-29_12h45.27.221,WTP_SM_Choice,2022.2.1,Win32,163.9344262,,,,,space,0.9404,NAN,,NAN,1.37,4.63,,0,60,60,60,1,61,Alex,Rej,Participant_Images/66800683809f48e85f663f86/66800683809f48e85f663f86_Images/66800683809f48e85f663f86_Image_24.jpeg,did not like,3.613205605,,,,,,,,,,,,,,,,,,,,,,
,,66800683809f48e85f663f86,6685aa9113c938e83b4f1ea0,66d0b0dce3fe8f36c581a565,2024-08-29_12h45.27.221,WTP_SM_Choice,2022.2.1,Win32,163.9344262,,,,,space,0.7983,NAN,,NAN,1.37,4.63,,0,61,61,61,1,62,Alex,Rej,Participant_Images/66800683809f48e85f663f86/66800683809f48e85f663f86_Images/66800683809f48e85f663f86_Image_5.jpeg,liked,4.988446431,,,,,,,,,,,,,,,,,,,,,,
,,66800683809f48e85f663f86,6685aa9113c938e83b4f1ea0,66d0b0dce3fe8f36c581a565,2024-08-29_12h45.27.221,WTP_SM_Choice,2022.2.1,Win32,163.9344262,,,,,space,0.7037,NAN,,NAN,1.37,4.63,,0,62,62,62,1,63,Alex,Rej,Participant_Images/66800683809f48e85f663f86/66800683809f48e85f663f86_Images/66800683809f48e85f663f86_Image_22.jpeg,did not like,3.470791822,,,,,,,,,,,,,,,,,,,,,,
,,66800683809f48e85f663f86,6685aa9113c938e83b4f1ea0,66d0b0dce3fe8f36c581a565,2024-08-29_12h45.27.221,WTP_SM_Choice,2022.2.1,Win32,163.9344262,,,,,space,1.2865,NAN,,NAN,1.37,4.63,,0,63,63,63,1,64,Alex,Rej,Participant_Images/66800683809f48e85f663f86/66800683809f48e85f663f86_Images/66800683809f48e85f663f86_Image_9.jpeg,liked,3.820572462,,,,,,,,,,,,,,,,,,,,,,
,,66800683809f48e85f663f86,6685aa9113c938e83b4f1ea0,66d0b0dce3fe8f36c581a565,2024-08-29_12h45.27.221,WTP_SM_Choice,2022.2.1,Win32,163.9344262,,,,,,,,,,,,,,,,,,61,,,,,,space,0.8868,space,154.8688,0.01,1,1.7223,0,0,0,0,1,Help around at my uncles shop to spend time with him and earn money,Look online to find art ideas,0.01,0.03,3.3,0,,,,
,,66800683809f48e85f663f86,6685aa9113c938e83b4f1ea0,66d0b0dce3fe8f36c581a565,2024-08-29_12h45.27.221,WTP_SM_Choice,2022.2.1,Win32,163.9344262,,,,,,,,,,,,,,,,,,62,,,,,,,,,,0.02,1,2.7841,0,1,1,1,1,Sketch characters and random ideas on my iPad,Spend the holidays over a familys,0.02,0.03,3.3,1,,,,
,,66800683809f48e85f663f86,6685aa9113c938e83b4f1ea0,66d0b0dce3fe8f36c581a565,2024-08-29_12h45.27.221,WTP_SM_Choice,2022.2.1,Win32,163.9344262,,,,,,,,,,,,,,,,,,63,,,,,,,,,,0.03,1,2.4779,0,2,2,2,1,Spend the holidays over a familys,Cook breakfast for my mom,0.03,0.03,3.3,0,,,,
,,66800683809f48e85f663f86,6685aa9113c938e83b4f1ea0,66d0b0dce3fe8f36c581a565,2024-08-29_12h45.27.221,WTP_SM_Choice,2022.2.1,Win32,163.9344262,,,,,,,,,,,,,,,,,,64,,,,,,,,,,0.03,2,3.4796,0,3,3,3,1,Play video games when we all have the time,Read web comics on my phone in bed,0.04,0.03,1.1,0,,,,
,,66800683809f48e85f663f86,6685aa9113c938e83b4f1ea0,66d0b0dce3fe8f36c581a565,2024-08-29_12h45.27.221,WTP_SM_Choice,2022.2.1,Win32,163.9344262,,,,,,,,,,,,,,,,,,65,,,,,,,,,,0.03,2,2.2813,0,4,4,4,1,Look online to find art ideas,Travel to see my brother and sister in law in mississippi,0.05,0.03,1.1,1,,,,
,,66800683809f48e85f663f86,6685aa9113c938e83b4f1ea0,66d0b0dce3fe8f36c581a565,2024-08-29_12h45.27.221,WTP_SM_Choice,2022.2.1,Win32,163.9344262,,,,,,,NAN,,NAN,1.49,4.51,,0,64,64,64,1,65,Alex,Rej,Participant_Images/66800683809f48e85f663f86/66800683809f48e85f663f86_Images/66800683809f48e85f663f86_Image_19.jpeg,liked,2.455989137,,,,,,,,,,,,,,,,,,,,,,
,,66800683809f48e85f663f86,6685aa9113c938e83b4f1ea0,66d0b0dce3fe8f36c581a565,2024-08-29_12h45.27.221,WTP_SM_Choice,2022.2.1,Win32,163.9344262,,,,,space,1.2607,NAN,,NAN,1.49,4.51,,0,65,65,65,1,66,Alex,Rej,Participant_Images/66800683809f48e85f663f86/66800683809f48e85f663f86_Images/66800683809f48e85f663f86_Image_15.jpeg,did not like,3.79605092,,,,,,,,,,,,,,,,,,,,,,
,,66800683809f48e85f663f86,6685aa9113c938e83b4f1ea0,66d0b0dce3fe8f36c581a565,2024-08-29_12h45.27.221,WTP_SM_Choice,2022.2.1,Win32,163.9344262,,,,,space,0.4532,NAN,,NAN,1.49,4.51,,0,66,66,66,1,67,Alex,Rej,Participant_Images/66800683809f48e85f663f86/66800683809f48e85f663f86_Images/66800683809f48e85f663f86_Image_23.jpeg,did not like,3.562416326,,,,,,,,,,,,,,,,,,,,,,
,,66800683809f48e85f663f86,6685aa9113c938e83b4f1ea0,66d0b0dce3fe8f36c581a565,2024-08-29_12h45.27.221,WTP_SM_Choice,2022.2.1,Win32,163.9344262,,,,,space,0.7249,NAN,,NAN,1.49,4.51,,0,67,67,67,1,68,Alex,Rej,Participant_Images/66800683809f48e85f663f86/66800683809f48e85f663f86_Images/66800683809f48e85f663f86_Image_7.jpeg,did not like,2.843822497,,,,,,,,,,,,,,,,,,,,,,
,,66800683809f48e85f663f86,6685aa9113c938e83b4f1ea0,66d0b0dce3fe8f36c581a565,2024-08-29_12h45.27.221,WTP_SM_Choice,2022.2.1,Win32,163.9344262,,,,,space,0.5095,NAN,,NAN,1.49,4.51,,0,68,68,68,1,69,Alex,Rej,Participant_Images/66800683809f48e85f663f86/66800683809f48e85f663f86_Images/66800683809f48e85f663f86_Image_1.jpeg,did not like,3.546495948,,,,,,,,,,,,,,,,,,,,,,
,,66800683809f48e85f663f86,6685aa9113c938e83b4f1ea0,66d0b0dce3fe8f36c581a565,2024-08-29_12h45.27.221,WTP_SM_Choice,2022.2.1,Win32,163.9344262,,,,,,,,,,,,,,,,,,66,,,,,,space,1.1563,space,1.1617,0.01,1,3.0837,0,0,0,0,1,Read web comics on my phone in bed,Tutor my down stairs neighbor in math and art,0.01,0.04,1.1,1,,,,
,,66800683809f48e85f663f86,6685aa9113c938e83b4f1ea0,66d0b0dce3fe8f36c581a565,2024-08-29_12h45.27.221,WTP_SM_Choice,2022.2.1,Win32,163.9344262,,,,,,,,,,,,,,,,,,67,,,,,,,,,,0.02,1,1.518,0,1,1,1,1,Help my little cousin study her japanese,Read web comics on my phone in bed,0.02,0.04,8.8,0,,,,
,,66800683809f48e85f663f86,6685aa9113c938e83b4f1ea0,66d0b0dce3fe8f36c581a565,2024-08-29_12h45.27.221,WTP_SM_Choice,2022.2.1,Win32,163.9344262,,,,,,,,,,,,,,,,,,68,,,,,,,,,,0.03,1,2.5809,0,2,2,2,1,Play video games when we all have the time,Listen to my favorite disney and alternative songs,0.03,0.04,4.4,0,,,,
,,66800683809f48e85f663f86,6685aa9113c938e83b4f1ea0,66d0b0dce3fe8f36c581a565,2024-08-29_12h45.27.221,WTP_SM_Choice,2022.2.1,Win32,163.9344262,,,,,,,,,,,,,,,,,,69,,,,,,,,,,0.04,1,2.2082,0,3,3,3,1,Help my little cousin study her japanese,Watch my favorite content creators on youtube,0.04,0.04,1.1,0,,,,
,,66800683809f48e85f663f86,6685aa9113c938e83b4f1ea0,66d0b0dce3fe8f36c581a565,2024-08-29_12h45.27.221,WTP_SM_Choice,2022.2.1,Win32,163.9344262,,,,,,,,,,,,,,,,,,70,,,,,,,,,,0.05,1,2.2283,0,4,4,4,1,Play video games when we all have the time,Sleep in some days to cuddle up with my cats,0.05,0.04,1.1,0,,,,
,,66800683809f48e85f663f86,6685aa9113c938e83b4f1ea0,66d0b0dce3fe8f36c581a565,2024-08-29_12h45.27.221,WTP_SM_Choice,2022.2.1,Win32,163.9344262,,,,,,,NAN,,NAN,1.64,4.36,,0,69,69,69,1,70,Alex,Rej,Participant_Images/66800683809f48e85f663f86/66800683809f48e85f663f86_Images/66800683809f48e85f663f86_Image_25.jpeg,did not like,1.672012706,,,,,,,,,,,,,,,,,,,,,,
,,66800683809f48e85f663f86,6685aa9113c938e83b4f1ea0,66d0b0dce3fe8f36c581a565,2024-08-29_12h45.27.221,WTP_SM_Choice,2022.2.1,Win32,163.9344262,,,,,space,0.4975,NAN,,NAN,1.64,4.36,,0,70,70,70,1,71,Alex,Rej,Participant_Images/66800683809f48e85f663f86/66800683809f48e85f663f86_Images/66800683809f48e85f663f86_Image_2.jpeg,did not like,4.942172136,,,,,,,,,,,,,,,,,,,,,,
,,66800683809f48e85f663f86,6685aa9113c938e83b4f1ea0,66d0b0dce3fe8f36c581a565,2024-08-29_12h45.27.221,WTP_SM_Choice,2022.2.1,Win32,163.9344262,,,,,space,0.9299,NAN,,NAN,1.64,4.36,,0,71,71,71,1,72,Alex,Rej,Participant_Images/66800683809f48e85f663f86/66800683809f48e85f663f86_Images/66800683809f48e85f663f86_Image_20.jpeg,did not like,2.50187214,,,,,,,,,,,,,,,,,,,,,,
,,66800683809f48e85f663f86,6685aa9113c938e83b4f1ea0,66d0b0dce3fe8f36c581a565,2024-08-29_12h45.27.221,WTP_SM_Choice,2022.2.1,Win32,163.9344262,,,,,space,0.9402,NAN,,NAN,1.64,4.36,,0,72,72,72,1,73,Alex,Rej,Participant_Images/66800683809f48e85f663f86/66800683809f48e85f663f86_Images/66800683809f48e85f663f86_Image_4.jpeg,did not like,2.071164779,,,,,,,,,,,,,,,,,,,,,,
,,66800683809f48e85f663f86,6685aa9113c938e83b4f1ea0,66d0b0dce3fe8f36c581a565,2024-08-29_12h45.27.221,WTP_SM_Choice,2022.2.1,Win32,163.9344262,,,,,space,0.6438,NAN,,NAN,1.64,4.36,,0,73,73,73,1,74,Alex,Rej,Participant_Images/66800683809f48e85f663f86/66800683809f48e85f663f86_Images/66800683809f48e85f663f86_Image_11.jpeg,did not like,5.336503566,,,,,,,,,,,,,,,,,,,,,,
,,66800683809f48e85f663f86,6685aa9113c938e83b4f1ea0,66d0b0dce3fe8f36c581a565,2024-08-29_12h45.27.221,WTP_SM_Choice,2022.2.1,Win32,163.9344262,,,,,,,,,,,,,,,,,,71,,,,,,space,1.0559,space,0.6267,0.01,1,1.7619,0,0,0,0,1,Cook breakfast for my mom,Travel to see my sister and her roommate in texas,0.01,0.05,3.3,1,,,,
,,66800683809f48e85f663f86,6685aa9113c938e83b4f1ea0,66d0b0dce3fe8f36c581a565,2024-08-29_12h45.27.221,WTP_SM_Choice,2022.2.1,Win32,163.9344262,,,,,,,,,,,,,,,,,,72,,,,,,,,,,0.02,1,2.0964,0,1,1,1,1,Take my dogs out for a nice walk,Spend the holidays over a familys,0.02,0.05,8.8,1,,,,
,,66800683809f48e85f663f86,6685aa9113c938e83b4f1ea0,66d0b0dce3fe8f36c581a565,2024-08-29_12h45.27.221,WTP_SM_Choice,2022.2.1,Win32,163.9344262,,,,,,,,,,,,,,,,,,73,,,,,,,,,,0.03,1,2.1686,0,2,2,2,1,Stay up late to watch my favorite show,Help my little cousin study her japanese,0.03,0.05,3.3,1,,,,
,,66800683809f48e85f663f86,6685aa9113c938e83b4f1ea0,66d0b0dce3fe8f36c581a565,2024-08-29_12h45.27.221,WTP_SM_Choice,2022.2.1,Win32,163.9344262,,,,,,,,,,,,,,,,,,74,,,,,,,,,,0.04,1,2.1622,0,3,3,3,1,Watch movies with my mom,Look online to find art ideas,0.04,0.05,4.4,0,,,,
,,66800683809f48e85f663f86,6685aa9113c938e83b4f1ea0,66d0b0dce3fe8f36c581a565,2024-08-29_12h45.27.221,WTP_SM_Choice,2022.2.1,Win32,163.9344262,,,,,,,,,,,,,,,,,,75,,,,,,,,,,0.05,2,2.3086,0,4,4,4,1,Read web comics on my phone in bed,Watch movies with my mom,0.05,0.05,3.3,1,,,,
,,66800683809f48e85f663f86,6685aa9113c938e83b4f1ea0,66d0b0dce3fe8f36c581a565,2024-08-29_12h45.27.221,WTP_SM_Choice,2022.2.1,Win32,163.9344262,,,,,,,1,,4,1.79,4.21,,0,74,74,74,1,75,Alex,Rej,Participant_Images/66800683809f48e85f663f86/66800683809f48e85f663f86_Images/66800683809f48e85f663f86_Image_8.jpeg,did not like,2.642157193,,,,,,,,,,,,,,,,,,,space,2.3346,,
,,66800683809f48e85f663f86,6685aa9113c938e83b4f1ea0,66d0b0dce3fe8f36c581a565,2024-08-29_12h45.27.221,WTP_SM_Choice,2022.2.1,Win32,163.9344262,,,space,14.3921,space,0.7958,NAN,,NAN,1.79,4.21,,0,75,75,75,1,76,Riley,Acc,Participant_Images/66800683809f48e85f663f86/66800683809f48e85f663f86_Images/66800683809f48e85f663f86_Image_19.jpeg,did not like,4.456234322,,,,,,,,,,,,,,,,,,,,,,
,,66800683809f48e85f663f86,6685aa9113c938e83b4f1ea0,66d0b0dce3fe8f36c581a565,2024-08-29_12h45.27.221,WTP_SM_Choice,2022.2.1,Win32,163.9344262,,,,,space,2.3739,NAN,,NAN,1.79,4.21,,0,76,76,76,1,77,Riley,Acc,Participant_Images/66800683809f48e85f663f86/66800683809f48e85f663f86_Images/66800683809f48e85f663f86_Image_6.jpeg,liked,4.438512181,,,,,,,,,,,,,,,,,,,,,,
,,66800683809f48e85f663f86,6685aa9113c938e83b4f1ea0,66d0b0dce3fe8f36c581a565,2024-08-29_12h45.27.221,WTP_SM_Choice,2022.2.1,Win32,163.9344262,,,,,space,1.6347,NAN,,NAN,1.79,4.21,,0,77,77,77,1,78,Riley,Acc,Participant_Images/66800683809f48e85f663f86/66800683809f48e85f663f86_Images/66800683809f48e85f663f86_Image_12.jpeg,liked,2.682944783,,,,,,,,,,,,,,,,,,,,,,
,,66800683809f48e85f663f86,6685aa9113c938e83b4f1ea0,66d0b0dce3fe8f36c581a565,2024-08-29_12h45.27.221,WTP_SM_Choice,2022.2.1,Win32,163.9344262,,,,,space,1.6745,NAN,,NAN,1.79,4.21,,0,78,78,78,1,79,Riley,Acc,Participant_Images/66800683809f48e85f663f86/66800683809f48e85f663f86_Images/66800683809f48e85f663f86_Image_7.jpeg,liked,4.51984296,,,,,,,,,,,,,,,,,,,,,,
,,66800683809f48e85f663f86,6685aa9113c938e83b4f1ea0,66d0b0dce3fe8f36c581a565,2024-08-29_12h45.27.221,WTP_SM_Choice,2022.2.1,Win32,163.9344262,,,,,,,,,,,,,,,,,,76,,,,,,space,1.6589,space,0.9711,0.01,1,3.7889,0,0,0,0,1,Cook breakfast for my mom,Play video games when we all have the time,0.01,0.01,1.1,1,,,,
,,66800683809f48e85f663f86,6685aa9113c938e83b4f1ea0,66d0b0dce3fe8f36c581a565,2024-08-29_12h45.27.221,WTP_SM_Choice,2022.2.1,Win32,163.9344262,,,,,,,,,,,,,,,,,,77,,,,,,,,,,0.01,2,2.2562,0,1,1,1,1,Watch movies with my mom,Stay up late to watch my favorite show,0.02,0.01,8.8,0,,,,
,,66800683809f48e85f663f86,6685aa9113c938e83b4f1ea0,66d0b0dce3fe8f36c581a565,2024-08-29_12h45.27.221,WTP_SM_Choice,2022.2.1,Win32,163.9344262,,,,,,,,,,,,,,,,,,78,,,,,,,,,,0.01,2,1.7378,0,2,2,2,1,Sketch characters and random ideas on my iPad,Watch movies with my mom,0.03,0.01,1.1,1,,,,
,,66800683809f48e85f663f86,6685aa9113c938e83b4f1ea0,66d0b0dce3fe8f36c581a565,2024-08-29_12h45.27.221,WTP_SM_Choice,2022.2.1,Win32,163.9344262,,,,,,,,,,,,,,,,,,79,,,,,,,,,,0.01,2,1.4953,0,3,3,3,1,Help my little cousin study her japanese,Sleep in some days to cuddle up with my cats,0.04,0.01,1.1,0,,,,
,,66800683809f48e85f663f86,6685aa9113c938e83b4f1ea0,66d0b0dce3fe8f36c581a565,2024-08-29_12h45.27.221,WTP_SM_Choice,2022.2.1,Win32,163.9344262,,,,,,,,,,,,,,,,,,80,,,,,,,,,,0.01,2,1.7714,0,4,4,4,1,Watch movies with my mom,Listen to my favorite disney and alternative songs,0.05,0.01,4.4,0,,,,
,,66800683809f48e85f663f86,6685aa9113c938e83b4f1ea0,66d0b0dce3fe8f36c581a565,2024-08-29_12h45.27.221,WTP_SM_Choice,2022.2.1,Win32,163.9344262,,,,,,,NAN,,NAN,1.84,4.16,,0,79,79,79,1,80,Riley,Acc,Participant_Images/66800683809f48e85f663f86/66800683809f48e85f663f86_Images/66800683809f48e85f663f86_Image_15.jpeg,liked,3.195382774,,,,,,,,,,,,,,,,,,,,,,
,,66800683809f48e85f663f86,6685aa9113c938e83b4f1ea0,66d0b0dce3fe8f36c581a565,2024-08-29_12h45.27.221,WTP_SM_Choice,2022.2.1,Win32,163.9344262,,,,,space,0.8073,NAN,,NAN,1.84,4.16,,0,80,80,80,1,81,Riley,Acc,Participant_Images/66800683809f48e85f663f86/66800683809f48e85f663f86_Images/66800683809f48e85f663f86_Image_9.jpeg,liked,1.779333479,,,,,,,,,,,,,,,,,,,,,,
,,66800683809f48e85f663f86,6685aa9113c938e83b4f1ea0,66d0b0dce3fe8f36c581a565,2024-08-29_12h45.27.221,WTP_SM_Choice,2022.2.1,Win32,163.9344262,,,,,space,0.7594,NAN,,NAN,1.84,4.16,,0,81,81,81,1,82,Riley,Acc,Participant_Images/66800683809f48e85f663f86/66800683809f48e85f663f86_Images/66800683809f48e85f663f86_Image_8.jpeg,liked,4.312468682,,,,,,,,,,,,,,,,,,,,,,
,,66800683809f48e85f663f86,6685aa9113c938e83b4f1ea0,66d0b0dce3fe8f36c581a565,2024-08-29_12h45.27.221,WTP_SM_Choice,2022.2.1,Win32,163.9344262,,,,,space,0.6161,NAN,,NAN,1.84,4.16,,0,82,82,82,1,83,Riley,Acc,Participant_Images/66800683809f48e85f663f86/66800683809f48e85f663f86_Images/66800683809f48e85f663f86_Image_14.jpeg,liked,4.940433059,,,,,,,,,,,,,,,,,,,,,,
,,66800683809f48e85f663f86,6685aa9113c938e83b4f1ea0,66d0b0dce3fe8f36c581a565,2024-08-29_12h45.27.221,WTP_SM_Choice,2022.2.1,Win32,163.9344262,,,,,space,0.7009,NAN,,NAN,1.84,4.16,,0,83,83,83,1,84,Riley,Acc,Participant_Images/66800683809f48e85f663f86/66800683809f48e85f663f86_Images/66800683809f48e85f663f86_Image_22.jpeg,liked,2.7105123,,,,,,,,,,,,,,,,,,,,,,
,,66800683809f48e85f663f86,6685aa9113c938e83b4f1ea0,66d0b0dce3fe8f36c581a565,2024-08-29_12h45.27.221,WTP_SM_Choice,2022.2.1,Win32,163.9344262,,,,,,,,,,,,,,,,,,81,,,,,,space,1.0074,space,0.9802,0.01,1,1.4618,0,0,0,0,1,Travel to see my sister and her roommate in texas,Take my dogs out for a nice walk,0.01,0.02,3.3,0,,,,
,,66800683809f48e85f663f86,6685aa9113c938e83b4f1ea0,66d0b0dce3fe8f36c581a565,2024-08-29_12h45.27.221,WTP_SM_Choice,2022.2.1,Win32,163.9344262,,,,,,,,,,,,,,,,,,82,,,,,,,,,,0.02,1,2.8239,0,1,1,1,1,Take my dogs out for a nice walk,Tutor my down stairs neighbor in math and art,0.02,0.02,4.4,1,,,,
,,66800683809f48e85f663f86,6685aa9113c938e83b4f1ea0,66d0b0dce3fe8f36c581a565,2024-08-29_12h45.27.221,WTP_SM_Choice,2022.2.1,Win32,163.9344262,,,,,,,,,,,,,,,,,,83,,,,,,,,,,0.02,2,1.9108,0,2,2,2,1,Travel to see my sister and her roommate in texas,Listen to my favorite disney and alternative songs,0.03,0.02,1.1,0,,,,
,,66800683809f48e85f663f86,6685aa9113c938e83b4f1ea0,66d0b0dce3fe8f36c581a565,2024-08-29_12h45.27.221,WTP_SM_Choice,2022.2.1,Win32,163.9344262,,,,,,,,,,,,,,,,,,84,,,,,,,,,,0.02,2,1.8339,0,3,3,3,1,Travel to see my brother and sister in law in mississippi,Read web comics on my phone in bed,0.04,0.02,3.3,0,,,,
,,66800683809f48e85f663f86,6685aa9113c938e83b4f1ea0,66d0b0dce3fe8f36c581a565,2024-08-29_12h45.27.221,WTP_SM_Choice,2022.2.1,Win32,163.9344262,,,,,,,,,,,,,,,,,,85,,,,,,,,,,0.02,2,1.5287,0,4,4,4,1,Look online to find art ideas,Play video games when we all have the time,0.05,0.02,3.3,1,,,,
,,66800683809f48e85f663f86,6685aa9113c938e83b4f1ea0,66d0b0dce3fe8f36c581a565,2024-08-29_12h45.27.221,WTP_SM_Choice,2022.2.1,Win32,163.9344262,,,,,,,NAN,,NAN,1.93,4.07,,0,84,84,84,1,85,Riley,Acc,Participant_Images/66800683809f48e85f663f86/66800683809f48e85f663f86_Images/66800683809f48e85f663f86_Image_20.jpeg,did not like,3.602308302,,,,,,,,,,,,,,,,,,,,,,
,,66800683809f48e85f663f86,6685aa9113c938e83b4f1ea0,66d0b0dce3fe8f36c581a565,2024-08-29_12h45.27.221,WTP_SM_Choice,2022.2.1,Win32,163.9344262,,,,,space,0.7709,NAN,,NAN,1.93,4.07,,0,85,85,85,1,86,Riley,Acc,Participant_Images/66800683809f48e85f663f86/66800683809f48e85f663f86_Images/66800683809f48e85f663f86_Image_4.jpeg,did not like,4.106391878,,,,,,,,,,,,,,,,,,,,,,
,,66800683809f48e85f663f86,6685aa9113c938e83b4f1ea0,66d0b0dce3fe8f36c581a565,2024-08-29_12h45.27.221,WTP_SM_Choice,2022.2.1,Win32,163.9344262,,,,,space,0.5406,NAN,,NAN,1.93,4.07,,0,86,86,86,1,87,Riley,Acc,Participant_Images/66800683809f48e85f663f86/66800683809f48e85f663f86_Images/66800683809f48e85f663f86_Image_1.jpeg,liked,3.799433026,,,,,,,,,,,,,,,,,,,,,,
,,66800683809f48e85f663f86,6685aa9113c938e83b4f1ea0,66d0b0dce3fe8f36c581a565,2024-08-29_12h45.27.221,WTP_SM_Choice,2022.2.1,Win32,163.9344262,,,,,space,0.7742,NAN,,NAN,1.93,4.07,,0,87,87,87,1,88,Riley,Acc,Participant_Images/66800683809f48e85f663f86/66800683809f48e85f663f86_Images/66800683809f48e85f663f86_Image_11.jpeg,did not like,5.246980764,,,,,,,,,,,,,,,,,,,,,,
,,66800683809f48e85f663f86,6685aa9113c938e83b4f1ea0,66d0b0dce3fe8f36c581a565,2024-08-29_12h45.27.221,WTP_SM_Choice,2022.2.1,Win32,163.9344262,,,,,space,0.6672,NAN,,NAN,1.93,4.07,,0,88,88,88,1,89,Riley,Acc,Participant_Images/66800683809f48e85f663f86/66800683809f48e85f663f86_Images/66800683809f48e85f663f86_Image_25.jpeg,liked,3.30081769,,,,,,,,,,,,,,,,,,,,,,
,,66800683809f48e85f663f86,6685aa9113c938e83b4f1ea0,66d0b0dce3fe8f36c581a565,2024-08-29_12h45.27.221,WTP_SM_Choice,2022.2.1,Win32,163.9344262,,,,,,,,,,,,,,,,,,86,,,,,,space,1.9036,space,0.5181,0.01,1,1.1831,0,0,0,0,1,Tutor my down stairs neighbor in math and art,Sketch characters and random ideas on my iPad,0.01,0.03,1.1,0,,,,
,,66800683809f48e85f663f86,6685aa9113c938e83b4f1ea0,66d0b0dce3fe8f36c581a565,2024-08-29_12h45.27.221,WTP_SM_Choice,2022.2.1,Win32,163.9344262,,,,,,,,,,,,,,,,,,87,,,,,,,,,,0.02,1,1.8984,0,1,1,1,1,Go to the grocery store and running into cool people at the graphic tees section,Sketch characters and random ideas on my iPad,0.02,0.03,4.4,0,,,,
,,66800683809f48e85f663f86,6685aa9113c938e83b4f1ea0,66d0b0dce3fe8f36c581a565,2024-08-29_12h45.27.221,WTP_SM_Choice,2022.2.1,Win32,163.9344262,,,,,,,,,,,,,,,,,,88,,,,,,,,,,0.03,1,1.6191,0,2,2,2,1,Sleep in some days to cuddle up with my cats,Spend the holidays over a familys,0.03,0.03,1.1,1,,,,
,,66800683809f48e85f663f86,6685aa9113c938e83b4f1ea0,66d0b0dce3fe8f36c581a565,2024-08-29_12h45.27.221,WTP_SM_Choice,2022.2.1,Win32,163.9344262,,,,,,,,,,,,,,,,,,89,,,,,,,,,,0.04,1,1.7521,0,3,3,3,1,Watch my favorite content creators on youtube,Play video games when we all have the time,0.04,0.03,3.3,1,,,,
,,66800683809f48e85f663f86,6685aa9113c938e83b4f1ea0,66d0b0dce3fe8f36c581a565,2024-08-29_12h45.27.221,WTP_SM_Choice,2022.2.1,Win32,163.9344262,,,,,,,,,,,,,,,,,,90,,,,,,,,,,0.03,2,2.1077,0,4,4,4,1,Watch movies with my mom,Sleep in some days to cuddle up with my cats,0.05,0.03,8.8,0,,,,
,,66800683809f48e85f663f86,6685aa9113c938e83b4f1ea0,66d0b0dce3fe8f36c581a565,2024-08-29_12h45.27.221,WTP_SM_Choice,2022.2.1,Win32,163.9344262,,,,,,,NAN,,NAN,2.06,3.94,,0,89,89,89,1,90,Riley,Acc,Participant_Images/66800683809f48e85f663f86/66800683809f48e85f663f86_Images/66800683809f48e85f663f86_Image_10.jpeg,liked,1.661473164,,,,,,,,,,,,,,,,,,,,,,
,,66800683809f48e85f663f86,6685aa9113c938e83b4f1ea0,66d0b0dce3fe8f36c581a565,2024-08-29_12h45.27.221,WTP_SM_Choice,2022.2.1,Win32,163.9344262,,,,,space,0.6577,NAN,,NAN,2.06,3.94,,0,90,90,90,1,91,Riley,Acc,Participant_Images/66800683809f48e85f663f86/66800683809f48e85f663f86_Images/66800683809f48e85f663f86_Image_13.jpeg,liked,3.613205605,,,,,,,,,,,,,,,,,,,,,,
,,66800683809f48e85f663f86,6685aa9113c938e83b4f1ea0,66d0b0dce3fe8f36c581a565,2024-08-29_12h45.27.221,WTP_SM_Choice,2022.2.1,Win32,163.9344262,,,,,space,0.64,NAN,,NAN,2.06,3.94,,0,91,91,91,1,92,Riley,Acc,Participant_Images/66800683809f48e85f663f86/66800683809f48e85f663f86_Images/66800683809f48e85f663f86_Image_17.jpeg,liked,4.988446431,,,,,,,,,,,,,,,,,,,,,,
,,66800683809f48e85f663f86,6685aa9113c938e83b4f1ea0,66d0b0dce3fe8f36c581a565,2024-08-29_12h45.27.221,WTP_SM_Choice,2022.2.1,Win32,163.9344262,,,,,space,0.6972,NAN,,NAN,2.06,3.94,,0,92,92,92,1,93,Riley,Acc,Participant_Images/66800683809f48e85f663f86/66800683809f48e85f663f86_Images/66800683809f48e85f663f86_Image_2.jpeg,liked,3.470791822,,,,,,,,,,,,,,,,,,,,,,
,,66800683809f48e85f663f86,6685aa9113c938e83b4f1ea0,66d0b0dce3fe8f36c581a565,2024-08-29_12h45.27.221,WTP_SM_Choice,2022.2.1,Win32,163.9344262,,,,,space,0.707,NAN,,NAN,2.06,3.94,,0,93,93,93,1,94,Riley,Acc,Participant_Images/66800683809f48e85f663f86/66800683809f48e85f663f86_Images/66800683809f48e85f663f86_Image_5.jpeg,did not like,3.820572462,,,,,,,,,,,,,,,,,,,,,,
,,66800683809f48e85f663f86,6685aa9113c938e83b4f1ea0,66d0b0dce3fe8f36c581a565,2024-08-29_12h45.27.221,WTP_SM_Choice,2022.2.1,Win32,163.9344262,,,,,,,,,,,,,,,,,,91,,,,,,space,1.0981,space,0.6306,0.01,1,1.3477,0,0,0,0,1,Talk with my dad on the phone,Stay up late to watch my favorite show,0.01,0.04,3.3,0,,,,
,,66800683809f48e85f663f86,6685aa9113c938e83b4f1ea0,66d0b0dce3fe8f36c581a565,2024-08-29_12h45.27.221,WTP_SM_Choice,2022.2.1,Win32,163.9344262,,,,,,,,,,,,,,,,,,92,,,,,,,,,,0.02,1,1.4233,0,1,1,1,1,Spend the holidays over a familys,Playing video games with my friends.,0.02,0.04,8.8,0,,,,
,,66800683809f48e85f663f86,6685aa9113c938e83b4f1ea0,66d0b0dce3fe8f36c581a565,2024-08-29_12h45.27.221,WTP_SM_Choice,2022.2.1,Win32,163.9344262,,,,,,,,,,,,,,,,,,93,,,,,,,,,,0.03,1,2.2224,0,2,2,2,1,Talk with my dad on the phone,Listen to my favorite disney and alternative songs,0.03,0.04,1.1,0,,,,
,,66800683809f48e85f663f86,6685aa9113c938e83b4f1ea0,66d0b0dce3fe8f36c581a565,2024-08-29_12h45.27.221,WTP_SM_Choice,2022.2.1,Win32,163.9344262,,,,,,,,,,,,,,,,,,94,,,,,,,,,,0.04,1,1.6003,0,3,3,3,1,Talk with my dad on the phone,Cook breakfast for my mom,0.04,0.04,4.4,0,,,,
,,66800683809f48e85f663f86,6685aa9113c938e83b4f1ea0,66d0b0dce3fe8f36c581a565,2024-08-29_12h45.27.221,WTP_SM_Choice,2022.2.1,Win32,163.9344262,,,,,,,,,,,,,,,,,,95,,,,,,,,,,0.04,2,1.8788,0,4,4,4,1,Take my dogs out for a nice walk,Help around at my uncles shop to spend time with him and earn money,0.05,0.04,4.4,1,,,,
,,66800683809f48e85f663f86,6685aa9113c938e83b4f1ea0,66d0b0dce3fe8f36c581a565,2024-08-29_12h45.27.221,WTP_SM_Choice,2022.2.1,Win32,163.9344262,,,,,,,NAN,,NAN,2.2,3.8,,0,94,94,94,1,95,Riley,Acc,Participant_Images/66800683809f48e85f663f86/66800683809f48e85f663f86_Images/66800683809f48e85f663f86_Image_21.jpeg,liked,2.455989137,,,,,,,,,,,,,,,,,,,,,,
,,66800683809f48e85f663f86,6685aa9113c938e83b4f1ea0,66d0b0dce3fe8f36c581a565,2024-08-29_12h45.27.221,WTP_SM_Choice,2022.2.1,Win32,163.9344262,,,,,space,5.3806,NAN,,NAN,2.2,3.8,,0,95,95,95,1,96,Riley,Acc,Participant_Images/66800683809f48e85f663f86/66800683809f48e85f663f86_Images/66800683809f48e85f663f86_Image_3.jpeg,liked,3.79605092,,,,,,,,,,,,,,,,,,,,,,
,,66800683809f48e85f663f86,6685aa9113c938e83b4f1ea0,66d0b0dce3fe8f36c581a565,2024-08-29_12h45.27.221,WTP_SM_Choice,2022.2.1,Win32,163.9344262,,,,,space,4.8508,NAN,,NAN,2.2,3.8,,0,96,96,96,1,97,Riley,Acc,Participant_Images/66800683809f48e85f663f86/66800683809f48e85f663f86_Images/66800683809f48e85f663f86_Image_24.jpeg,did not like,3.562416326,,,,,,,,,,,,,,,,,,,,,,
,,66800683809f48e85f663f86,6685aa9113c938e83b4f1ea0,66d0b0dce3fe8f36c581a565,2024-08-29_12h45.27.221,WTP_SM_Choice,2022.2.1,Win32,163.9344262,,,,,space,2.2132,NAN,,NAN,2.2,3.8,,0,97,97,97,1,98,Riley,Acc,Participant_Images/66800683809f48e85f663f86/66800683809f48e85f663f86_Images/66800683809f48e85f663f86_Image_18.jpeg,liked,2.843822497,,,,,,,,,,,,,,,,,,,,,,
,,66800683809f48e85f663f86,6685aa9113c938e83b4f1ea0,66d0b0dce3fe8f36c581a565,2024-08-29_12h45.27.221,WTP_SM_Choice,2022.2.1,Win32,163.9344262,,,,,space,2.4409,NAN,,NAN,2.2,3.8,,0,98,98,98,1,99,Riley,Acc,Participant_Images/66800683809f48e85f663f86/66800683809f48e85f663f86_Images/66800683809f48e85f663f86_Image_16.jpeg,liked,3.546495948,,,,,,,,,,,,,,,,,,,,,,
,,66800683809f48e85f663f86,6685aa9113c938e83b4f1ea0,66d0b0dce3fe8f36c581a565,2024-08-29_12h45.27.221,WTP_SM_Choice,2022.2.1,Win32,163.9344262,,,,,,,,,,,,,,,,,,96,,,,,,space,18.2318,space,1.0429,0.01,1,1.6241,0,0,0,0,1,Playing video games with my friends.,Tutor my down stairs neighbor in math and art,0.01,0.05,3.3,1,,,,
,,66800683809f48e85f663f86,6685aa9113c938e83b4f1ea0,66d0b0dce3fe8f36c581a565,2024-08-29_12h45.27.221,WTP_SM_Choice,2022.2.1,Win32,163.9344262,,,,,,,,,,,,,,,,,,97,,,,,,,,,,0.02,1,1.3774,0,1,1,1,1,Talk with my dad on the phone,Take my dogs out for a nice walk,0.02,0.05,1.1,0,,,,
,,66800683809f48e85f663f86,6685aa9113c938e83b4f1ea0,66d0b0dce3fe8f36c581a565,2024-08-29_12h45.27.221,WTP_SM_Choice,2022.2.1,Win32,163.9344262,,,,,,,,,,,,,,,,,,98,,,,,,,,,,0.03,1,6.5668,0,2,2,2,1,Playing video games with my friends.,Go to the grocery store and running into cool people at the graphic tees section,0.03,0.05,1.1,1,,,,
,,66800683809f48e85f663f86,6685aa9113c938e83b4f1ea0,66d0b0dce3fe8f36c581a565,2024-08-29_12h45.27.221,WTP_SM_Choice,2022.2.1,Win32,163.9344262,,,,,,,,,,,,,,,,,,99,,,,,,,,,,0.05,2,6.3456,0,3,3,3,1,Tutor my down stairs neighbor in math and art,Look online to find art ideas,0.04,0.05,3.3,0,,,,
,,66800683809f48e85f663f86,6685aa9113c938e83b4f1ea0,66d0b0dce3fe8f36c581a565,2024-08-29_12h45.27.221,WTP_SM_Choice,2022.2.1,Win32,163.9344262,,,,,,,,,,,,,,,,,,100,,,,,,,,,,0.05,1,5.9059,0,4,4,4,1,Travel to see my brother and sister in law in mississippi,Cook breakfast for my mom,0.05,0.05,4.4,0,,,,
,,66800683809f48e85f663f86,6685aa9113c938e83b4f1ea0,66d0b0dce3fe8f36c581a565,2024-08-29_12h45.27.221,WTP_SM_Choice,2022.2.1,Win32,163.9344262,,,,,,,4,,8,2.36,3.64,,0,99,99,99,1,100,Riley,Acc,Participant_Images/66800683809f48e85f663f86/66800683809f48e85f663f86_Images/66800683809f48e85f663f86_Image_23.jpeg,did not like,1.672012706,,,,,,,,,,,,,,,,,,,space,0.9155,,
,,66800683809f48e85f663f86,6685aa9113c938e83b4f1ea0,66d0b0dce3fe8f36c581a565,2024-08-29_12h45.27.221,WTP_SM_Choice,2022.2.1,Win32,163.9344262,,,,,,,,,,,,,,,,,,,,,,,,,,,,,,,,,,,,,,,,,,,,space,2.8545
