endwelcomescreen_keys.keys,endwelcomescreen_keys.rt,participant,STUDY_ID,SESSION_ID,date,expName,psychopyVersion,OS,frameRate,endinstructionscreen_keys.keys,endinstructionscreen_keys.rt,endpartnermatch_keys.keys,endpartnermatch_keys.rt,sharenextphoto_key.keys,sharenextphoto_key.rt,salience_rating,key_resp.keys,stress_level,subtract_bonus,TOTAL_TASK_BONUS,stresslevel_keypress.keys,entiretaskloop.thisRepN,entiretaskloop.thisTrialN,entiretaskloop.thisN,entiretaskloop.thisIndex,entiretaskloop.ran,TrialNumber,Partner,Condition,Photos,Feedback,FeedbackWait,WTP_ins_keys1.keys,WTP_ins_keys1.rt,WTP_ins_keys2.keys,WTP_ins_keys2.rt,decision_price,responses.keys,responses.rt,WTPTaskLoop.thisRepN,WTPTaskLoop.thisTrialN,WTPTaskLoop.thisN,WTPTaskLoop.thisIndex,WTPTaskLoop.ran,right,left,leftmoney,rightmoney,WTP_ITI,social_left,Resume_keys.keys,Resume_keys.rt,end_screen_keys.keys,end_screen_keys.rt
space,5.3996,6683b31d16dd162d502a8b00,6685aa9113c938e83b4f1ea0,66c554f05a327895c68568b4,2024-08-20_19h46.44.236,WTP_SM_Choice,2022.2.1,MacIntel,114.9425287,,,,,,,,,,,,,,,,,,,,,,,,,,,,,,,,,,,,,,,,,,,,,
,,6683b31d16dd162d502a8b00,6685aa9113c938e83b4f1ea0,66c554f05a327895c68568b4,2024-08-20_19h46.44.236,WTP_SM_Choice,2022.2.1,MacIntel,114.9425287,space,20.0548,,,,,,,,,,,,,,,,,,,,,,,,,,,,,,,,,,,,,,,,,,,
,,6683b31d16dd162d502a8b00,6685aa9113c938e83b4f1ea0,66c554f05a327895c68568b4,2024-08-20_19h46.44.236,WTP_SM_Choice,2022.2.1,MacIntel,114.9425287,,,space,3.2228,space,1.2114,NAN,,NAN,0,6,,0,0,0,0,1,1,Sam,Acc,Participant_Images/6683b31d16dd162d502a8b00/6683b31d16dd162d502a8b00_Images/6683b31d16dd162d502a8b00_Image_24.jpeg,liked,3.613205605,,,,,,,,,,,,,,,,,,,,,,
,,6683b31d16dd162d502a8b00,6685aa9113c938e83b4f1ea0,66c554f05a327895c68568b4,2024-08-20_19h46.44.236,WTP_SM_Choice,2022.2.1,MacIntel,114.9425287,,,,,space,0.8593,NAN,,NAN,0,6,,0,1,1,1,1,2,Sam,Acc,Participant_Images/6683b31d16dd162d502a8b00/6683b31d16dd162d502a8b00_Images/6683b31d16dd162d502a8b00_Image_8.jpeg,liked,4.988446431,,,,,,,,,,,,,,,,,,,,,,
,,6683b31d16dd162d502a8b00,6685aa9113c938e83b4f1ea0,66c554f05a327895c68568b4,2024-08-20_19h46.44.236,WTP_SM_Choice,2022.2.1,MacIntel,114.9425287,,,,,space,0.7402,NAN,,NAN,0,6,,0,2,2,2,1,3,Sam,Acc,Participant_Images/6683b31d16dd162d502a8b00/6683b31d16dd162d502a8b00_Images/6683b31d16dd162d502a8b00_Image_2.jpeg,liked,3.470791822,,,,,,,,,,,,,,,,,,,,,,
,,6683b31d16dd162d502a8b00,6685aa9113c938e83b4f1ea0,66c554f05a327895c68568b4,2024-08-20_19h46.44.236,WTP_SM_Choice,2022.2.1,MacIntel,114.9425287,,,,,space,0.9802,NAN,,NAN,0,6,,0,3,3,3,1,4,Sam,Acc,Participant_Images/6683b31d16dd162d502a8b00/6683b31d16dd162d502a8b00_Images/6683b31d16dd162d502a8b00_Image_17.jpeg,did not like,3.820572462,,,,,,,,,,,,,,,,,,,,,,
,,6683b31d16dd162d502a8b00,6685aa9113c938e83b4f1ea0,66c554f05a327895c68568b4,2024-08-20_19h46.44.236,WTP_SM_Choice,2022.2.1,MacIntel,114.9425287,,,,,,,,,,,,,,,,,,1,,,,,,space,27.6578,space,6.8065,0.01,2,5.228,0,0,0,0,1,Walk through the neighborhood with my dogs and family,Swim in the pool on a cloudy day,0.01,0.01,4.4,0,,,,
,,6683b31d16dd162d502a8b00,6685aa9113c938e83b4f1ea0,66c554f05a327895c68568b4,2024-08-20_19h46.44.236,WTP_SM_Choice,2022.2.1,MacIntel,114.9425287,,,,,,,,,,,,,,,,,,2,,,,,,,,,,0.01,2,4.8615,0,1,1,1,1,Watch star wars movies on my couch on a rainy day,Watch scary movies in october with my significant other,0.02,0.01,8.8,1,,,,
,,6683b31d16dd162d502a8b00,6685aa9113c938e83b4f1ea0,66c554f05a327895c68568b4,2024-08-20_19h46.44.236,WTP_SM_Choice,2022.2.1,MacIntel,114.9425287,,,,,,,,,,,,,,,,,,3,,,,,,,,,,0.03,1,3.9282,0,2,2,2,1,Work late on a weeknight with my significant other,Drink a strong cup of coffee first thing in the morning,0.03,0.01,3.3,0,,,,
,,6683b31d16dd162d502a8b00,6685aa9113c938e83b4f1ea0,66c554f05a327895c68568b4,2024-08-20_19h46.44.236,WTP_SM_Choice,2022.2.1,MacIntel,114.9425287,,,,,,,,,,,,,,,,,,4,,,,,,,,,,0.01,2,4.5054,0,3,3,3,1,Watch football all day on sunday with my friends,Bake myself some fresh chocolate chip cookies,0.04,0.01,1.1,0,,,,
,,6683b31d16dd162d502a8b00,6685aa9113c938e83b4f1ea0,66c554f05a327895c68568b4,2024-08-20_19h46.44.236,WTP_SM_Choice,2022.2.1,MacIntel,114.9425287,,,,,,,,,,,,,,,,,,5,,,,,,,,,,0.01,2,3.0507,0,4,4,4,1,Bake myself some fresh chocolate chip cookies,Drink beers at the local brewery with my friends,0.05,0.01,1.1,1,,,,
,,6683b31d16dd162d502a8b00,6685aa9113c938e83b4f1ea0,66c554f05a327895c68568b4,2024-08-20_19h46.44.236,WTP_SM_Choice,2022.2.1,MacIntel,114.9425287,,,,,,,NAN,,NAN,0.07,5.93,,0,4,4,4,1,5,Sam,Acc,Participant_Images/6683b31d16dd162d502a8b00/6683b31d16dd162d502a8b00_Images/6683b31d16dd162d502a8b00_Image_7.jpeg,liked,2.455989137,,,,,,,,,,,,,,,,,,,,,,
,,6683b31d16dd162d502a8b00,6685aa9113c938e83b4f1ea0,66c554f05a327895c68568b4,2024-08-20_19h46.44.236,WTP_SM_Choice,2022.2.1,MacIntel,114.9425287,,,,,space,0.8544,NAN,,NAN,0.07,5.93,,0,5,5,5,1,6,Sam,Acc,Participant_Images/6683b31d16dd162d502a8b00/6683b31d16dd162d502a8b00_Images/6683b31d16dd162d502a8b00_Image_12.jpeg,liked,3.79605092,,,,,,,,,,,,,,,,,,,,,,
,,6683b31d16dd162d502a8b00,6685aa9113c938e83b4f1ea0,66c554f05a327895c68568b4,2024-08-20_19h46.44.236,WTP_SM_Choice,2022.2.1,MacIntel,114.9425287,,,,,space,0.6646,NAN,,NAN,0.07,5.93,,0,6,6,6,1,7,Sam,Acc,Participant_Images/6683b31d16dd162d502a8b00/6683b31d16dd162d502a8b00_Images/6683b31d16dd162d502a8b00_Image_21.jpeg,liked,3.562416326,,,,,,,,,,,,,,,,,,,,,,
,,6683b31d16dd162d502a8b00,6685aa9113c938e83b4f1ea0,66c554f05a327895c68568b4,2024-08-20_19h46.44.236,WTP_SM_Choice,2022.2.1,MacIntel,114.9425287,,,,,space,0.9538,NAN,,NAN,0.07,5.93,,0,7,7,7,1,8,Sam,Acc,Participant_Images/6683b31d16dd162d502a8b00/6683b31d16dd162d502a8b00_Images/6683b31d16dd162d502a8b00_Image_25.jpeg,did not like,2.843822497,,,,,,,,,,,,,,,,,,,,,,
,,6683b31d16dd162d502a8b00,6685aa9113c938e83b4f1ea0,66c554f05a327895c68568b4,2024-08-20_19h46.44.236,WTP_SM_Choice,2022.2.1,MacIntel,114.9425287,,,,,space,0.7777,NAN,,NAN,0.07,5.93,,0,8,8,8,1,9,Sam,Acc,Participant_Images/6683b31d16dd162d502a8b00/6683b31d16dd162d502a8b00_Images/6683b31d16dd162d502a8b00_Image_1.jpeg,liked,3.546495948,,,,,,,,,,,,,,,,,,,,,,
,,6683b31d16dd162d502a8b00,6685aa9113c938e83b4f1ea0,66c554f05a327895c68568b4,2024-08-20_19h46.44.236,WTP_SM_Choice,2022.2.1,MacIntel,114.9425287,,,,,,,,,,,,,,,,,,6,,,,,,space,5.9088,space,2.7757,0.02,2,3.7876,0,0,0,0,1,Go with my family to the zoo on a Saturday morning,Scroll tiktok on my phone at the end of a long day,0.01,0.02,3.3,0,,,,
,,6683b31d16dd162d502a8b00,6685aa9113c938e83b4f1ea0,66c554f05a327895c68568b4,2024-08-20_19h46.44.236,WTP_SM_Choice,2022.2.1,MacIntel,114.9425287,,,,,,,,,,,,,,,,,,7,,,,,,,,,,0.02,2,2.3765,0,1,1,1,1,Bake myself some fresh chocolate chip cookies,Work late on a weeknight with my significant other,0.02,0.02,1.1,1,,,,
,,6683b31d16dd162d502a8b00,6685aa9113c938e83b4f1ea0,66c554f05a327895c68568b4,2024-08-20_19h46.44.236,WTP_SM_Choice,2022.2.1,MacIntel,114.9425287,,,,,,,,,,,,,,,,,,8,,,,,,,,,,0.02,2,3.1139,0,2,2,2,1,Watch football all day on sunday with my friends,Browse amazon for impulse purchases after I've gotten paid,0.03,0.02,1.1,0,,,,
,,6683b31d16dd162d502a8b00,6685aa9113c938e83b4f1ea0,66c554f05a327895c68568b4,2024-08-20_19h46.44.236,WTP_SM_Choice,2022.2.1,MacIntel,114.9425287,,,,,,,,,,,,,,,,,,9,,,,,,,,,,0.02,2,2.3628,0,3,3,3,1,Walk through the neighborhood with my dogs and family,Bake myself some fresh chocolate chip cookies,0.04,0.02,4.4,0,,,,
,,6683b31d16dd162d502a8b00,6685aa9113c938e83b4f1ea0,66c554f05a327895c68568b4,2024-08-20_19h46.44.236,WTP_SM_Choice,2022.2.1,MacIntel,114.9425287,,,,,,,,,,,,,,,,,,10,,,,,,,,,,0.05,1,3.3548,0,4,4,4,1,Swim in the pool on a cloudy day,Go out to dinner with my significant other on a friday night,0.05,0.02,1.1,1,,,,
,,6683b31d16dd162d502a8b00,6685aa9113c938e83b4f1ea0,66c554f05a327895c68568b4,2024-08-20_19h46.44.236,WTP_SM_Choice,2022.2.1,MacIntel,114.9425287,,,,,,,NAN,,NAN,0.2,5.8,,0,9,9,9,1,10,Sam,Acc,Participant_Images/6683b31d16dd162d502a8b00/6683b31d16dd162d502a8b00_Images/6683b31d16dd162d502a8b00_Image_13.jpeg,liked,1.672012706,,,,,,,,,,,,,,,,,,,,,,
,,6683b31d16dd162d502a8b00,6685aa9113c938e83b4f1ea0,66c554f05a327895c68568b4,2024-08-20_19h46.44.236,WTP_SM_Choice,2022.2.1,MacIntel,114.9425287,,,,,space,1.0746,NAN,,NAN,0.2,5.8,,0,10,10,10,1,11,Sam,Acc,Participant_Images/6683b31d16dd162d502a8b00/6683b31d16dd162d502a8b00_Images/6683b31d16dd162d502a8b00_Image_15.jpeg,liked,4.942172136,,,,,,,,,,,,,,,,,,,,,,
,,6683b31d16dd162d502a8b00,6685aa9113c938e83b4f1ea0,66c554f05a327895c68568b4,2024-08-20_19h46.44.236,WTP_SM_Choice,2022.2.1,MacIntel,114.9425287,,,,,space,0.8016,NAN,,NAN,0.2,5.8,,0,11,11,11,1,12,Sam,Acc,Participant_Images/6683b31d16dd162d502a8b00/6683b31d16dd162d502a8b00_Images/6683b31d16dd162d502a8b00_Image_10.jpeg,did not like,2.50187214,,,,,,,,,,,,,,,,,,,,,,
,,6683b31d16dd162d502a8b00,6685aa9113c938e83b4f1ea0,66c554f05a327895c68568b4,2024-08-20_19h46.44.236,WTP_SM_Choice,2022.2.1,MacIntel,114.9425287,,,,,space,1.3859,NAN,,NAN,0.2,5.8,,0,12,12,12,1,13,Sam,Acc,Participant_Images/6683b31d16dd162d502a8b00/6683b31d16dd162d502a8b00_Images/6683b31d16dd162d502a8b00_Image_23.jpeg,liked,2.071164779,,,,,,,,,,,,,,,,,,,,,,
,,6683b31d16dd162d502a8b00,6685aa9113c938e83b4f1ea0,66c554f05a327895c68568b4,2024-08-20_19h46.44.236,WTP_SM_Choice,2022.2.1,MacIntel,114.9425287,,,,,space,1.085,NAN,,NAN,0.2,5.8,,0,13,13,13,1,14,Sam,Acc,Participant_Images/6683b31d16dd162d502a8b00/6683b31d16dd162d502a8b00_Images/6683b31d16dd162d502a8b00_Image_22.jpeg,liked,5.336503566,,,,,,,,,,,,,,,,,,,,,,
,,6683b31d16dd162d502a8b00,6685aa9113c938e83b4f1ea0,66c554f05a327895c68568b4,2024-08-20_19h46.44.236,WTP_SM_Choice,2022.2.1,MacIntel,114.9425287,,,,,,,,,,,,,,,,,,11,,,,,,space,1.9419,space,1.4932,0.03,2,2.1158,0,0,0,0,1,Scroll tiktok on my phone at the end of a long day,Work late on a weeknight with my significant other,0.01,0.03,3.3,1,,,,
,,6683b31d16dd162d502a8b00,6685aa9113c938e83b4f1ea0,66c554f05a327895c68568b4,2024-08-20_19h46.44.236,WTP_SM_Choice,2022.2.1,MacIntel,114.9425287,,,,,,,,,,,,,,,,,,12,,,,,,,,,,0.03,2,3.7115,0,1,1,1,1,Go on a coffee run to Starbucks,Walk through the neighborhood with my dogs and family,0.02,0.03,4.4,1,,,,
,,6683b31d16dd162d502a8b00,6685aa9113c938e83b4f1ea0,66c554f05a327895c68568b4,2024-08-20_19h46.44.236,WTP_SM_Choice,2022.2.1,MacIntel,114.9425287,,,,,,,,,,,,,,,,,,13,,,,,,,,,,0.03,2,2.6675,0,2,2,2,1,Go out to dinner with my significant other on a friday night,Watch star wars movies on my couch on a rainy day,0.03,0.03,1.1,0,,,,
,,6683b31d16dd162d502a8b00,6685aa9113c938e83b4f1ea0,66c554f05a327895c68568b4,2024-08-20_19h46.44.236,WTP_SM_Choice,2022.2.1,MacIntel,114.9425287,,,,,,,,,,,,,,,,,,14,,,,,,,,,,0.03,2,4.2586,0,3,3,3,1,Go to target with my family on sundays,Go for a run in my neighborhood on a cloudy morning,0.04,0.03,3.3,0,,,,
,,6683b31d16dd162d502a8b00,6685aa9113c938e83b4f1ea0,66c554f05a327895c68568b4,2024-08-20_19h46.44.236,WTP_SM_Choice,2022.2.1,MacIntel,114.9425287,,,,,,,,,,,,,,,,,,15,,,,,,,,,,0.03,2,2.1565,0,4,4,4,1,Swim in the pool on a cloudy day,Work late on a weeknight with my significant other,0.05,0.03,4.4,1,,,,
,,6683b31d16dd162d502a8b00,6685aa9113c938e83b4f1ea0,66c554f05a327895c68568b4,2024-08-20_19h46.44.236,WTP_SM_Choice,2022.2.1,MacIntel,114.9425287,,,,,,,NAN,,NAN,0.35,5.65,,0,14,14,14,1,15,Sam,Acc,Participant_Images/6683b31d16dd162d502a8b00/6683b31d16dd162d502a8b00_Images/6683b31d16dd162d502a8b00_Image_9.jpeg,liked,2.642157193,,,,,,,,,,,,,,,,,,,,,,
,,6683b31d16dd162d502a8b00,6685aa9113c938e83b4f1ea0,66c554f05a327895c68568b4,2024-08-20_19h46.44.236,WTP_SM_Choice,2022.2.1,MacIntel,114.9425287,,,,,space,0.7858,NAN,,NAN,0.35,5.65,,0,15,15,15,1,16,Sam,Acc,Participant_Images/6683b31d16dd162d502a8b00/6683b31d16dd162d502a8b00_Images/6683b31d16dd162d502a8b00_Image_16.jpeg,did not like,4.456234322,,,,,,,,,,,,,,,,,,,,,,
,,6683b31d16dd162d502a8b00,6685aa9113c938e83b4f1ea0,66c554f05a327895c68568b4,2024-08-20_19h46.44.236,WTP_SM_Choice,2022.2.1,MacIntel,114.9425287,,,,,space,0.989,NAN,,NAN,0.35,5.65,,0,16,16,16,1,17,Sam,Acc,Participant_Images/6683b31d16dd162d502a8b00/6683b31d16dd162d502a8b00_Images/6683b31d16dd162d502a8b00_Image_5.jpeg,liked,4.438512181,,,,,,,,,,,,,,,,,,,,,,
,,6683b31d16dd162d502a8b00,6685aa9113c938e83b4f1ea0,66c554f05a327895c68568b4,2024-08-20_19h46.44.236,WTP_SM_Choice,2022.2.1,MacIntel,114.9425287,,,,,space,0.995,NAN,,NAN,0.35,5.65,,0,17,17,17,1,18,Sam,Acc,Participant_Images/6683b31d16dd162d502a8b00/6683b31d16dd162d502a8b00_Images/6683b31d16dd162d502a8b00_Image_14.jpeg,did not like,2.682944783,,,,,,,,,,,,,,,,,,,,,,
,,6683b31d16dd162d502a8b00,6685aa9113c938e83b4f1ea0,66c554f05a327895c68568b4,2024-08-20_19h46.44.236,WTP_SM_Choice,2022.2.1,MacIntel,114.9425287,,,,,space,1.1174,NAN,,NAN,0.35,5.65,,0,18,18,18,1,19,Sam,Acc,Participant_Images/6683b31d16dd162d502a8b00/6683b31d16dd162d502a8b00_Images/6683b31d16dd162d502a8b00_Image_4.jpeg,liked,4.51984296,,,,,,,,,,,,,,,,,,,,,,
,,6683b31d16dd162d502a8b00,6685aa9113c938e83b4f1ea0,66c554f05a327895c68568b4,2024-08-20_19h46.44.236,WTP_SM_Choice,2022.2.1,MacIntel,114.9425287,,,,,,,,,,,,,,,,,,16,,,,,,space,1.5574,space,2.0832,0.04,2,2.4885,0,0,0,0,1,Go out to dinner with my significant other on a friday night,Clean up the house on an early sunday morning,0.01,0.04,1.1,0,,,,
,,6683b31d16dd162d502a8b00,6685aa9113c938e83b4f1ea0,66c554f05a327895c68568b4,2024-08-20_19h46.44.236,WTP_SM_Choice,2022.2.1,MacIntel,114.9425287,,,,,,,,,,,,,,,,,,17,,,,,,,,,,0.04,2,4.4035,0,1,1,1,1,Go out to dinner with my significant other on a friday night,Scroll tiktok on my phone at the end of a long day,0.02,0.04,8.8,0,,,,
,,6683b31d16dd162d502a8b00,6685aa9113c938e83b4f1ea0,66c554f05a327895c68568b4,2024-08-20_19h46.44.236,WTP_SM_Choice,2022.2.1,MacIntel,114.9425287,,,,,,,,,,,,,,,,,,18,,,,,,,,,,0.03,1,2.7077,0,2,2,2,1,Write in my journal about the things that I've done this week,Go to target with my family on sundays,0.03,0.04,3.3,1,,,,
,,6683b31d16dd162d502a8b00,6685aa9113c938e83b4f1ea0,66c554f05a327895c68568b4,2024-08-20_19h46.44.236,WTP_SM_Choice,2022.2.1,MacIntel,114.9425287,,,,,,,,,,,,,,,,,,19,,,,,,,,,,0.04,1,2.7245,0,3,3,3,1,Go on a coffee run to Starbucks,Watch football all day on sunday with my friends,0.04,0.04,3.3,1,,,,
,,6683b31d16dd162d502a8b00,6685aa9113c938e83b4f1ea0,66c554f05a327895c68568b4,2024-08-20_19h46.44.236,WTP_SM_Choice,2022.2.1,MacIntel,114.9425287,,,,,,,,,,,,,,,,,,20,,,,,,,,,,0.04,2,2.0697,0,4,4,4,1,Walk through the neighborhood with my dogs and family,Write in my journal about the things that I've done this week,0.05,0.04,1.1,0,,,,
,,6683b31d16dd162d502a8b00,6685aa9113c938e83b4f1ea0,66c554f05a327895c68568b4,2024-08-20_19h46.44.236,WTP_SM_Choice,2022.2.1,MacIntel,114.9425287,,,,,,,NAN,,NAN,0.54,5.46,,0,19,19,19,1,20,Sam,Acc,Participant_Images/6683b31d16dd162d502a8b00/6683b31d16dd162d502a8b00_Images/6683b31d16dd162d502a8b00_Image_18.jpeg,did not like,3.195382774,,,,,,,,,,,,,,,,,,,,,,
,,6683b31d16dd162d502a8b00,6685aa9113c938e83b4f1ea0,66c554f05a327895c68568b4,2024-08-20_19h46.44.236,WTP_SM_Choice,2022.2.1,MacIntel,114.9425287,,,,,space,0.8175,NAN,,NAN,0.54,5.46,,0,20,20,20,1,21,Sam,Acc,Participant_Images/6683b31d16dd162d502a8b00/6683b31d16dd162d502a8b00_Images/6683b31d16dd162d502a8b00_Image_11.jpeg,did not like,1.779333479,,,,,,,,,,,,,,,,,,,,,,
,,6683b31d16dd162d502a8b00,6685aa9113c938e83b4f1ea0,66c554f05a327895c68568b4,2024-08-20_19h46.44.236,WTP_SM_Choice,2022.2.1,MacIntel,114.9425287,,,,,space,0.6798,NAN,,NAN,0.54,5.46,,0,21,21,21,1,22,Sam,Acc,Participant_Images/6683b31d16dd162d502a8b00/6683b31d16dd162d502a8b00_Images/6683b31d16dd162d502a8b00_Image_3.jpeg,liked,4.312468682,,,,,,,,,,,,,,,,,,,,,,
,,6683b31d16dd162d502a8b00,6685aa9113c938e83b4f1ea0,66c554f05a327895c68568b4,2024-08-20_19h46.44.236,WTP_SM_Choice,2022.2.1,MacIntel,114.9425287,,,,,space,0.7587,NAN,,NAN,0.54,5.46,,0,22,22,22,1,23,Sam,Acc,Participant_Images/6683b31d16dd162d502a8b00/6683b31d16dd162d502a8b00_Images/6683b31d16dd162d502a8b00_Image_20.jpeg,liked,4.940433059,,,,,,,,,,,,,,,,,,,,,,
,,6683b31d16dd162d502a8b00,6685aa9113c938e83b4f1ea0,66c554f05a327895c68568b4,2024-08-20_19h46.44.236,WTP_SM_Choice,2022.2.1,MacIntel,114.9425287,,,,,space,0.8203,NAN,,NAN,0.54,5.46,,0,23,23,23,1,24,Sam,Acc,Participant_Images/6683b31d16dd162d502a8b00/6683b31d16dd162d502a8b00_Images/6683b31d16dd162d502a8b00_Image_6.jpeg,liked,2.7105123,,,,,,,,,,,,,,,,,,,,,,
,,6683b31d16dd162d502a8b00,6685aa9113c938e83b4f1ea0,66c554f05a327895c68568b4,2024-08-20_19h46.44.236,WTP_SM_Choice,2022.2.1,MacIntel,114.9425287,,,,,,,,,,,,,,,,,,21,,,,,,space,1.1301,space,1.3454,0.01,1,2.6945,0,0,0,0,1,Cook a nice dinner with my family on a sunday night,Bake myself some fresh chocolate chip cookies,0.01,0.05,8.8,0,,,,
,,6683b31d16dd162d502a8b00,6685aa9113c938e83b4f1ea0,66c554f05a327895c68568b4,2024-08-20_19h46.44.236,WTP_SM_Choice,2022.2.1,MacIntel,114.9425287,,,,,,,,,,,,,,,,,,22,,,,,,,,,,0.02,1,3.1567,0,1,1,1,1,Browse amazon for impulse purchases after I've gotten paid,Go to target with my family on sundays,0.02,0.05,4.4,1,,,,
,,6683b31d16dd162d502a8b00,6685aa9113c938e83b4f1ea0,66c554f05a327895c68568b4,2024-08-20_19h46.44.236,WTP_SM_Choice,2022.2.1,MacIntel,114.9425287,,,,,,,,,,,,,,,,,,23,,,,,,,,,,0.05,2,1.938,0,2,2,2,1,Go on a coffee run to Starbucks,Work late on a weeknight with my significant other,0.03,0.05,1.1,1,,,,
,,6683b31d16dd162d502a8b00,6685aa9113c938e83b4f1ea0,66c554f05a327895c68568b4,2024-08-20_19h46.44.236,WTP_SM_Choice,2022.2.1,MacIntel,114.9425287,,,,,,,,,,,,,,,,,,24,,,,,,,,,,0.04,1,2.2391,0,3,3,3,1,Browse amazon for impulse purchases after I've gotten paid,Watch scary movies in october with my significant other,0.04,0.05,4.4,1,,,,
,,6683b31d16dd162d502a8b00,6685aa9113c938e83b4f1ea0,66c554f05a327895c68568b4,2024-08-20_19h46.44.236,WTP_SM_Choice,2022.2.1,MacIntel,114.9425287,,,,,,,,,,,,,,,,,,25,,,,,,,,,,0.05,1,2.1129,0,4,4,4,1,Swim in the pool on a cloudy day,Watch scary movies in october with my significant other,0.05,0.05,3.3,1,,,,
,,6683b31d16dd162d502a8b00,6685aa9113c938e83b4f1ea0,66c554f05a327895c68568b4,2024-08-20_19h46.44.236,WTP_SM_Choice,2022.2.1,MacIntel,114.9425287,,,,,,,1,,3,0.71,5.29,,0,24,24,24,1,25,Sam,Acc,Participant_Images/6683b31d16dd162d502a8b00/6683b31d16dd162d502a8b00_Images/6683b31d16dd162d502a8b00_Image_19.jpeg,liked,3.602308302,,,,,,,,,,,,,,,,,,,space,1.3471,,
,,6683b31d16dd162d502a8b00,6685aa9113c938e83b4f1ea0,66c554f05a327895c68568b4,2024-08-20_19h46.44.236,WTP_SM_Choice,2022.2.1,MacIntel,114.9425287,,,space,2.826,space,0.8662,NAN,,NAN,0.71,5.29,,0,25,25,25,1,26,Charlie,Rej,Participant_Images/6683b31d16dd162d502a8b00/6683b31d16dd162d502a8b00_Images/6683b31d16dd162d502a8b00_Image_11.jpeg,did not like,4.106391878,,,,,,,,,,,,,,,,,,,,,,
,,6683b31d16dd162d502a8b00,6685aa9113c938e83b4f1ea0,66c554f05a327895c68568b4,2024-08-20_19h46.44.236,WTP_SM_Choice,2022.2.1,MacIntel,114.9425287,,,,,space,0.4651,NAN,,NAN,0.71,5.29,,0,26,26,26,1,27,Charlie,Rej,Participant_Images/6683b31d16dd162d502a8b00/6683b31d16dd162d502a8b00_Images/6683b31d16dd162d502a8b00_Image_2.jpeg,did not like,3.799433026,,,,,,,,,,,,,,,,,,,,,,
,,6683b31d16dd162d502a8b00,6685aa9113c938e83b4f1ea0,66c554f05a327895c68568b4,2024-08-20_19h46.44.236,WTP_SM_Choice,2022.2.1,MacIntel,114.9425287,,,,,space,0.9042,NAN,,NAN,0.71,5.29,,0,27,27,27,1,28,Charlie,Rej,Participant_Images/6683b31d16dd162d502a8b00/6683b31d16dd162d502a8b00_Images/6683b31d16dd162d502a8b00_Image_19.jpeg,did not like,5.246980764,,,,,,,,,,,,,,,,,,,,,,
,,6683b31d16dd162d502a8b00,6685aa9113c938e83b4f1ea0,66c554f05a327895c68568b4,2024-08-20_19h46.44.236,WTP_SM_Choice,2022.2.1,MacIntel,114.9425287,,,,,space,0.6512,NAN,,NAN,0.71,5.29,,0,28,28,28,1,29,Charlie,Rej,Participant_Images/6683b31d16dd162d502a8b00/6683b31d16dd162d502a8b00_Images/6683b31d16dd162d502a8b00_Image_20.jpeg,did not like,3.30081769,,,,,,,,,,,,,,,,,,,,,,
,,6683b31d16dd162d502a8b00,6685aa9113c938e83b4f1ea0,66c554f05a327895c68568b4,2024-08-20_19h46.44.236,WTP_SM_Choice,2022.2.1,MacIntel,114.9425287,,,,,,,,,,,,,,,,,,26,,,,,,space,1.542,space,1.2577,0.01,2,1.8531,0,0,0,0,1,Browse amazon for impulse purchases after I've gotten paid,Work late on a weeknight with my significant other,0.01,0.01,4.4,1,,,,
,,6683b31d16dd162d502a8b00,6685aa9113c938e83b4f1ea0,66c554f05a327895c68568b4,2024-08-20_19h46.44.236,WTP_SM_Choice,2022.2.1,MacIntel,114.9425287,,,,,,,,,,,,,,,,,,27,,,,,,,,,,0.02,1,3.3147,0,1,1,1,1,Go on a coffee run to Starbucks,Watch scary movies in october with my significant other,0.02,0.01,3.3,1,,,,
,,6683b31d16dd162d502a8b00,6685aa9113c938e83b4f1ea0,66c554f05a327895c68568b4,2024-08-20_19h46.44.236,WTP_SM_Choice,2022.2.1,MacIntel,114.9425287,,,,,,,,,,,,,,,,,,28,,,,,,,,,,0.03,1,3.064,0,2,2,2,1,Scroll tiktok on my phone at the end of a long day,Watch football all day on sunday with my friends,0.03,0.01,3.3,1,,,,
,,6683b31d16dd162d502a8b00,6685aa9113c938e83b4f1ea0,66c554f05a327895c68568b4,2024-08-20_19h46.44.236,WTP_SM_Choice,2022.2.1,MacIntel,114.9425287,,,,,,,,,,,,,,,,,,29,,,,,,,,,,0.04,1,2.8967,0,3,3,3,1,Bake myself some fresh chocolate chip cookies,Go out to dinner with my significant other on a friday night,0.04,0.01,4.4,1,,,,
,,6683b31d16dd162d502a8b00,6685aa9113c938e83b4f1ea0,66c554f05a327895c68568b4,2024-08-20_19h46.44.236,WTP_SM_Choice,2022.2.1,MacIntel,114.9425287,,,,,,,,,,,,,,,,,,30,,,,,,,,,,0.01,2,2.9737,0,4,4,4,1,Drink beers at the local brewery with my friends,Drink a strong cup of coffee first thing in the morning,0.05,0.01,8.8,0,,,,
,,6683b31d16dd162d502a8b00,6685aa9113c938e83b4f1ea0,66c554f05a327895c68568b4,2024-08-20_19h46.44.236,WTP_SM_Choice,2022.2.1,MacIntel,114.9425287,,,,,,,NAN,,NAN,0.82,5.18,,0,29,29,29,1,30,Charlie,Rej,Participant_Images/6683b31d16dd162d502a8b00/6683b31d16dd162d502a8b00_Images/6683b31d16dd162d502a8b00_Image_17.jpeg,did not like,1.661473164,,,,,,,,,,,,,,,,,,,,,,
,,6683b31d16dd162d502a8b00,6685aa9113c938e83b4f1ea0,66c554f05a327895c68568b4,2024-08-20_19h46.44.236,WTP_SM_Choice,2022.2.1,MacIntel,114.9425287,,,,,space,1.4486,NAN,,NAN,0.82,5.18,,0,30,30,30,1,31,Charlie,Rej,Participant_Images/6683b31d16dd162d502a8b00/6683b31d16dd162d502a8b00_Images/6683b31d16dd162d502a8b00_Image_7.jpeg,liked,3.613205605,,,,,,,,,,,,,,,,,,,,,,
,,6683b31d16dd162d502a8b00,6685aa9113c938e83b4f1ea0,66c554f05a327895c68568b4,2024-08-20_19h46.44.236,WTP_SM_Choice,2022.2.1,MacIntel,114.9425287,,,,,space,3.7854,NAN,,NAN,0.82,5.18,,0,31,31,31,1,32,Charlie,Rej,Participant_Images/6683b31d16dd162d502a8b00/6683b31d16dd162d502a8b00_Images/6683b31d16dd162d502a8b00_Image_6.jpeg,did not like,4.988446431,,,,,,,,,,,,,,,,,,,,,,
,,6683b31d16dd162d502a8b00,6685aa9113c938e83b4f1ea0,66c554f05a327895c68568b4,2024-08-20_19h46.44.236,WTP_SM_Choice,2022.2.1,MacIntel,114.9425287,,,,,space,4.0866,NAN,,NAN,0.82,5.18,,0,32,32,32,1,33,Charlie,Rej,Participant_Images/6683b31d16dd162d502a8b00/6683b31d16dd162d502a8b00_Images/6683b31d16dd162d502a8b00_Image_21.jpeg,did not like,3.470791822,,,,,,,,,,,,,,,,,,,,,,
,,6683b31d16dd162d502a8b00,6685aa9113c938e83b4f1ea0,66c554f05a327895c68568b4,2024-08-20_19h46.44.236,WTP_SM_Choice,2022.2.1,MacIntel,114.9425287,,,,,space,1.4686,NAN,,NAN,0.82,5.18,,0,33,33,33,1,34,Charlie,Rej,Participant_Images/6683b31d16dd162d502a8b00/6683b31d16dd162d502a8b00_Images/6683b31d16dd162d502a8b00_Image_24.jpeg,did not like,3.820572462,,,,,,,,,,,,,,,,,,,,,,
,,6683b31d16dd162d502a8b00,6685aa9113c938e83b4f1ea0,66c554f05a327895c68568b4,2024-08-20_19h46.44.236,WTP_SM_Choice,2022.2.1,MacIntel,114.9425287,,,,,,,,,,,,,,,,,,31,,,,,,space,1.3858,space,1.7702,0.01,1,6.0306,0,0,0,0,1,Plan for the week ahead with my significant other on sunday afternoon,Scroll tiktok on my phone at the end of a long day,0.01,0.02,8.8,0,,,,
,,6683b31d16dd162d502a8b00,6685aa9113c938e83b4f1ea0,66c554f05a327895c68568b4,2024-08-20_19h46.44.236,WTP_SM_Choice,2022.2.1,MacIntel,114.9425287,,,,,,,,,,,,,,,,,,32,,,,,,,,,,0.02,2,2.6795,0,1,1,1,1,Watch star wars movies on my couch on a rainy day,Go to target with my family on sundays,0.02,0.02,1.1,1,,,,
,,6683b31d16dd162d502a8b00,6685aa9113c938e83b4f1ea0,66c554f05a327895c68568b4,2024-08-20_19h46.44.236,WTP_SM_Choice,2022.2.1,MacIntel,114.9425287,,,,,,,,,,,,,,,,,,33,,,,,,,,,,0.02,2,2.4458,0,2,2,2,1,Bake myself some fresh chocolate chip cookies,Plan for the week ahead with my significant other on sunday afternoon,0.03,0.02,4.4,1,,,,
,,6683b31d16dd162d502a8b00,6685aa9113c938e83b4f1ea0,66c554f05a327895c68568b4,2024-08-20_19h46.44.236,WTP_SM_Choice,2022.2.1,MacIntel,114.9425287,,,,,,,,,,,,,,,,,,34,,,,,,,,,,0.02,2,3.5538,0,3,3,3,1,Drink a strong cup of coffee first thing in the morning,Cook a nice dinner with my family on a sunday night,0.04,0.02,3.3,1,,,,
,,6683b31d16dd162d502a8b00,6685aa9113c938e83b4f1ea0,66c554f05a327895c68568b4,2024-08-20_19h46.44.236,WTP_SM_Choice,2022.2.1,MacIntel,114.9425287,,,,,,,,,,,,,,,,,,35,,,,,,,,,,0.02,2,4.5113,0,4,4,4,1,Go with my family to the zoo on a Saturday morning,Go for a run in my neighborhood on a cloudy morning,0.05,0.02,1.1,0,,,,
,,6683b31d16dd162d502a8b00,6685aa9113c938e83b4f1ea0,66c554f05a327895c68568b4,2024-08-20_19h46.44.236,WTP_SM_Choice,2022.2.1,MacIntel,114.9425287,,,,,,,NAN,,NAN,0.91,5.09,,0,34,34,34,1,35,Charlie,Rej,Participant_Images/6683b31d16dd162d502a8b00/6683b31d16dd162d502a8b00_Images/6683b31d16dd162d502a8b00_Image_18.jpeg,did not like,2.455989137,,,,,,,,,,,,,,,,,,,,,,
,,6683b31d16dd162d502a8b00,6685aa9113c938e83b4f1ea0,66c554f05a327895c68568b4,2024-08-20_19h46.44.236,WTP_SM_Choice,2022.2.1,MacIntel,114.9425287,,,,,space,0.884,NAN,,NAN,0.91,5.09,,0,35,35,35,1,36,Charlie,Rej,Participant_Images/6683b31d16dd162d502a8b00/6683b31d16dd162d502a8b00_Images/6683b31d16dd162d502a8b00_Image_23.jpeg,did not like,3.79605092,,,,,,,,,,,,,,,,,,,,,,
,,6683b31d16dd162d502a8b00,6685aa9113c938e83b4f1ea0,66c554f05a327895c68568b4,2024-08-20_19h46.44.236,WTP_SM_Choice,2022.2.1,MacIntel,114.9425287,,,,,space,0.9617,NAN,,NAN,0.91,5.09,,0,36,36,36,1,37,Charlie,Rej,Participant_Images/6683b31d16dd162d502a8b00/6683b31d16dd162d502a8b00_Images/6683b31d16dd162d502a8b00_Image_9.jpeg,did not like,3.562416326,,,,,,,,,,,,,,,,,,,,,,
,,6683b31d16dd162d502a8b00,6685aa9113c938e83b4f1ea0,66c554f05a327895c68568b4,2024-08-20_19h46.44.236,WTP_SM_Choice,2022.2.1,MacIntel,114.9425287,,,,,space,1.2,NAN,,NAN,0.91,5.09,,0,37,37,37,1,38,Charlie,Rej,Participant_Images/6683b31d16dd162d502a8b00/6683b31d16dd162d502a8b00_Images/6683b31d16dd162d502a8b00_Image_10.jpeg,did not like,2.843822497,,,,,,,,,,,,,,,,,,,,,,
,,6683b31d16dd162d502a8b00,6685aa9113c938e83b4f1ea0,66c554f05a327895c68568b4,2024-08-20_19h46.44.236,WTP_SM_Choice,2022.2.1,MacIntel,114.9425287,,,,,space,1.1164,NAN,,NAN,0.91,5.09,,0,38,38,38,1,39,Charlie,Rej,Participant_Images/6683b31d16dd162d502a8b00/6683b31d16dd162d502a8b00_Images/6683b31d16dd162d502a8b00_Image_15.jpeg,did not like,3.546495948,,,,,,,,,,,,,,,,,,,,,,
,,6683b31d16dd162d502a8b00,6685aa9113c938e83b4f1ea0,66c554f05a327895c68568b4,2024-08-20_19h46.44.236,WTP_SM_Choice,2022.2.1,MacIntel,114.9425287,,,,,,,,,,,,,,,,,,36,,,,,,space,1.2706,space,1.0082,0.01,1,2.2388,0,0,0,0,1,Write in my journal about the things that I've done this week,Watch football all day on sunday with my friends,0.01,0.03,3.3,1,,,,
,,6683b31d16dd162d502a8b00,6685aa9113c938e83b4f1ea0,66c554f05a327895c68568b4,2024-08-20_19h46.44.236,WTP_SM_Choice,2022.2.1,MacIntel,114.9425287,,,,,,,,,,,,,,,,,,37,,,,,,,,,,0.03,2,1.7181,0,1,1,1,1,Watch scary movies in october with my significant other,Write in my journal about the things that I've done this week,0.02,0.03,1.1,0,,,,
,,6683b31d16dd162d502a8b00,6685aa9113c938e83b4f1ea0,66c554f05a327895c68568b4,2024-08-20_19h46.44.236,WTP_SM_Choice,2022.2.1,MacIntel,114.9425287,,,,,,,,,,,,,,,,,,38,,,,,,,,,,0.03,2,3.1767,0,2,2,2,1,Swim in the pool on a cloudy day,Plan for the week ahead with my significant other on sunday afternoon,0.03,0.03,1.1,1,,,,
,,6683b31d16dd162d502a8b00,6685aa9113c938e83b4f1ea0,66c554f05a327895c68568b4,2024-08-20_19h46.44.236,WTP_SM_Choice,2022.2.1,MacIntel,114.9425287,,,,,,,,,,,,,,,,,,39,,,,,,,,,,0.04,1,2.9245,0,3,3,3,1,Drink a strong cup of coffee first thing in the morning,Go out to dinner with my significant other on a friday night,0.04,0.03,3.3,1,,,,
,,6683b31d16dd162d502a8b00,6685aa9113c938e83b4f1ea0,66c554f05a327895c68568b4,2024-08-20_19h46.44.236,WTP_SM_Choice,2022.2.1,MacIntel,114.9425287,,,,,,,,,,,,,,,,,,40,,,,,,,,,,0.05,1,4.0571,0,4,4,4,1,Cook a nice dinner with my family on a sunday night,Watch star wars movies on my couch on a rainy day,0.05,0.03,4.4,0,,,,
,,6683b31d16dd162d502a8b00,6685aa9113c938e83b4f1ea0,66c554f05a327895c68568b4,2024-08-20_19h46.44.236,WTP_SM_Choice,2022.2.1,MacIntel,114.9425287,,,,,,,NAN,,NAN,1.07,4.93,,0,39,39,39,1,40,Charlie,Rej,Participant_Images/6683b31d16dd162d502a8b00/6683b31d16dd162d502a8b00_Images/6683b31d16dd162d502a8b00_Image_1.jpeg,did not like,1.672012706,,,,,,,,,,,,,,,,,,,,,,
,,6683b31d16dd162d502a8b00,6685aa9113c938e83b4f1ea0,66c554f05a327895c68568b4,2024-08-20_19h46.44.236,WTP_SM_Choice,2022.2.1,MacIntel,114.9425287,,,,,space,1.6974,NAN,,NAN,1.07,4.93,,0,40,40,40,1,41,Charlie,Rej,Participant_Images/6683b31d16dd162d502a8b00/6683b31d16dd162d502a8b00_Images/6683b31d16dd162d502a8b00_Image_25.jpeg,liked,4.942172136,,,,,,,,,,,,,,,,,,,,,,
,,6683b31d16dd162d502a8b00,6685aa9113c938e83b4f1ea0,66c554f05a327895c68568b4,2024-08-20_19h46.44.236,WTP_SM_Choice,2022.2.1,MacIntel,114.9425287,,,,,space,1.9334,NAN,,NAN,1.07,4.93,,0,41,41,41,1,42,Charlie,Rej,Participant_Images/6683b31d16dd162d502a8b00/6683b31d16dd162d502a8b00_Images/6683b31d16dd162d502a8b00_Image_12.jpeg,did not like,2.50187214,,,,,,,,,,,,,,,,,,,,,,
,,6683b31d16dd162d502a8b00,6685aa9113c938e83b4f1ea0,66c554f05a327895c68568b4,2024-08-20_19h46.44.236,WTP_SM_Choice,2022.2.1,MacIntel,114.9425287,,,,,space,0.8601,NAN,,NAN,1.07,4.93,,0,42,42,42,1,43,Charlie,Rej,Participant_Images/6683b31d16dd162d502a8b00/6683b31d16dd162d502a8b00_Images/6683b31d16dd162d502a8b00_Image_5.jpeg,liked,2.071164779,,,,,,,,,,,,,,,,,,,,,,
,,6683b31d16dd162d502a8b00,6685aa9113c938e83b4f1ea0,66c554f05a327895c68568b4,2024-08-20_19h46.44.236,WTP_SM_Choice,2022.2.1,MacIntel,114.9425287,,,,,space,0.6436,NAN,,NAN,1.07,4.93,,0,43,43,43,1,44,Charlie,Rej,Participant_Images/6683b31d16dd162d502a8b00/6683b31d16dd162d502a8b00_Images/6683b31d16dd162d502a8b00_Image_4.jpeg,liked,5.336503566,,,,,,,,,,,,,,,,,,,,,,
,,6683b31d16dd162d502a8b00,6685aa9113c938e83b4f1ea0,66c554f05a327895c68568b4,2024-08-20_19h46.44.236,WTP_SM_Choice,2022.2.1,MacIntel,114.9425287,,,,,,,,,,,,,,,,,,41,,,,,,space,1.2468,space,0.7339,0.01,1,1.9969,0,0,0,0,1,Plan for the week ahead with my significant other on sunday afternoon,Drink a strong cup of coffee first thing in the morning,0.01,0.04,1.1,0,,,,
,,6683b31d16dd162d502a8b00,6685aa9113c938e83b4f1ea0,66c554f05a327895c68568b4,2024-08-20_19h46.44.236,WTP_SM_Choice,2022.2.1,MacIntel,114.9425287,,,,,,,,,,,,,,,,,,42,,,,,,,,,,0.02,1,4.6392,0,1,1,1,1,Scroll tiktok on my phone at the end of a long day,Go to target with my family on sundays,0.02,0.04,3.3,1,,,,
,,6683b31d16dd162d502a8b00,6685aa9113c938e83b4f1ea0,66c554f05a327895c68568b4,2024-08-20_19h46.44.236,WTP_SM_Choice,2022.2.1,MacIntel,114.9425287,,,,,,,,,,,,,,,,,,43,,,,,,,,,,0.03,1,3.6425,0,2,2,2,1,Swim in the pool on a cloudy day,Go with my family to the zoo on a Saturday morning,0.03,0.04,1.1,1,,,,
,,6683b31d16dd162d502a8b00,6685aa9113c938e83b4f1ea0,66c554f05a327895c68568b4,2024-08-20_19h46.44.236,WTP_SM_Choice,2022.2.1,MacIntel,114.9425287,,,,,,,,,,,,,,,,,,44,,,,,,,,,,0.04,2,3.1872,0,3,3,3,1,Go with my family to the zoo on a Saturday morning,Browse amazon for impulse purchases after I've gotten paid,0.04,0.04,1.1,0,,,,
,,6683b31d16dd162d502a8b00,6685aa9113c938e83b4f1ea0,66c554f05a327895c68568b4,2024-08-20_19h46.44.236,WTP_SM_Choice,2022.2.1,MacIntel,114.9425287,,,,,,,,,,,,,,,,,,45,,,,,,,,,,0.04,2,1.9603,0,4,4,4,1,Watch scary movies in october with my significant other,Go for a run in my neighborhood on a cloudy morning,0.05,0.04,4.4,0,,,,
,,6683b31d16dd162d502a8b00,6685aa9113c938e83b4f1ea0,66c554f05a327895c68568b4,2024-08-20_19h46.44.236,WTP_SM_Choice,2022.2.1,MacIntel,114.9425287,,,,,,,NAN,,NAN,1.21,4.79,,0,44,44,44,1,45,Charlie,Rej,Participant_Images/6683b31d16dd162d502a8b00/6683b31d16dd162d502a8b00_Images/6683b31d16dd162d502a8b00_Image_13.jpeg,did not like,2.642157193,,,,,,,,,,,,,,,,,,,,,,
,,6683b31d16dd162d502a8b00,6685aa9113c938e83b4f1ea0,66c554f05a327895c68568b4,2024-08-20_19h46.44.236,WTP_SM_Choice,2022.2.1,MacIntel,114.9425287,,,,,space,1.0724,NAN,,NAN,1.21,4.79,,0,45,45,45,1,46,Charlie,Rej,Participant_Images/6683b31d16dd162d502a8b00/6683b31d16dd162d502a8b00_Images/6683b31d16dd162d502a8b00_Image_16.jpeg,liked,4.456234322,,,,,,,,,,,,,,,,,,,,,,
,,6683b31d16dd162d502a8b00,6685aa9113c938e83b4f1ea0,66c554f05a327895c68568b4,2024-08-20_19h46.44.236,WTP_SM_Choice,2022.2.1,MacIntel,114.9425287,,,,,space,0.5666,NAN,,NAN,1.21,4.79,,0,46,46,46,1,47,Charlie,Rej,Participant_Images/6683b31d16dd162d502a8b00/6683b31d16dd162d502a8b00_Images/6683b31d16dd162d502a8b00_Image_14.jpeg,did not like,4.438512181,,,,,,,,,,,,,,,,,,,,,,
,,6683b31d16dd162d502a8b00,6685aa9113c938e83b4f1ea0,66c554f05a327895c68568b4,2024-08-20_19h46.44.236,WTP_SM_Choice,2022.2.1,MacIntel,114.9425287,,,,,space,1.7048,NAN,,NAN,1.21,4.79,,0,47,47,47,1,48,Charlie,Rej,Participant_Images/6683b31d16dd162d502a8b00/6683b31d16dd162d502a8b00_Images/6683b31d16dd162d502a8b00_Image_8.jpeg,liked,2.682944783,,,,,,,,,,,,,,,,,,,,,,
,,6683b31d16dd162d502a8b00,6685aa9113c938e83b4f1ea0,66c554f05a327895c68568b4,2024-08-20_19h46.44.236,WTP_SM_Choice,2022.2.1,MacIntel,114.9425287,,,,,space,0.5988,NAN,,NAN,1.21,4.79,,0,48,48,48,1,49,Charlie,Rej,Participant_Images/6683b31d16dd162d502a8b00/6683b31d16dd162d502a8b00_Images/6683b31d16dd162d502a8b00_Image_3.jpeg,did not like,4.51984296,,,,,,,,,,,,,,,,,,,,,,
,,6683b31d16dd162d502a8b00,6685aa9113c938e83b4f1ea0,66c554f05a327895c68568b4,2024-08-20_19h46.44.236,WTP_SM_Choice,2022.2.1,MacIntel,114.9425287,,,,,,,,,,,,,,,,,,46,,,,,,space,1.521,space,1.2304,0.05,2,3.4145,0,0,0,0,1,Drink beers at the local brewery with my friends,Write in my journal about the things that I've done this week,0.01,0.05,8.8,0,,,,
,,6683b31d16dd162d502a8b00,6685aa9113c938e83b4f1ea0,66c554f05a327895c68568b4,2024-08-20_19h46.44.236,WTP_SM_Choice,2022.2.1,MacIntel,114.9425287,,,,,,,,,,,,,,,,,,47,,,,,,,,,,0.02,1,2.7985,0,1,1,1,1,Scroll tiktok on my phone at the end of a long day,Drink beers at the local brewery with my friends,0.02,0.05,1.1,1,,,,
,,6683b31d16dd162d502a8b00,6685aa9113c938e83b4f1ea0,66c554f05a327895c68568b4,2024-08-20_19h46.44.236,WTP_SM_Choice,2022.2.1,MacIntel,114.9425287,,,,,,,,,,,,,,,,,,48,,,,,,,,,,0.03,1,2.9621,0,2,2,2,1,Browse amazon for impulse purchases after I've gotten paid,Go out to dinner with my significant other on a friday night,0.03,0.05,4.4,1,,,,
,,6683b31d16dd162d502a8b00,6685aa9113c938e83b4f1ea0,66c554f05a327895c68568b4,2024-08-20_19h46.44.236,WTP_SM_Choice,2022.2.1,MacIntel,114.9425287,,,,,,,,,,,,,,,,,,49,,,,,,,,,,0.04,1,5.8373,0,3,3,3,1,Plan for the week ahead with my significant other on sunday afternoon,Clean up the house on an early sunday morning,0.04,0.05,3.3,0,,,,
,,6683b31d16dd162d502a8b00,6685aa9113c938e83b4f1ea0,66c554f05a327895c68568b4,2024-08-20_19h46.44.236,WTP_SM_Choice,2022.2.1,MacIntel,114.9425287,,,,,,,,,,,,,,,,,,50,,,,,,,,,,0.05,2,2.9089,0,4,4,4,1,Walk through the neighborhood with my dogs and family,Browse amazon for impulse purchases after I've gotten paid,0.05,0.05,1.1,0,,,,
,,6683b31d16dd162d502a8b00,6685aa9113c938e83b4f1ea0,66c554f05a327895c68568b4,2024-08-20_19h46.44.236,WTP_SM_Choice,2022.2.1,MacIntel,114.9425287,,,,,,,1,,2,1.4,4.6,,0,49,49,49,1,50,Charlie,Rej,Participant_Images/6683b31d16dd162d502a8b00/6683b31d16dd162d502a8b00_Images/6683b31d16dd162d502a8b00_Image_22.jpeg,liked,3.195382774,,,,,,,,,,,,,,,,,,,space,1.1918,,
,,6683b31d16dd162d502a8b00,6685aa9113c938e83b4f1ea0,66c554f05a327895c68568b4,2024-08-20_19h46.44.236,WTP_SM_Choice,2022.2.1,MacIntel,114.9425287,,,space,1.9809,space,1.9286,NAN,,NAN,1.4,4.6,,0,50,50,50,1,51,Riley,Rej,Participant_Images/6683b31d16dd162d502a8b00/6683b31d16dd162d502a8b00_Images/6683b31d16dd162d502a8b00_Image_18.jpeg,did not like,1.779333479,,,,,,,,,,,,,,,,,,,,,,
,,6683b31d16dd162d502a8b00,6685aa9113c938e83b4f1ea0,66c554f05a327895c68568b4,2024-08-20_19h46.44.236,WTP_SM_Choice,2022.2.1,MacIntel,114.9425287,,,,,space,3.1657,NAN,,NAN,1.4,4.6,,0,51,51,51,1,52,Riley,Rej,Participant_Images/6683b31d16dd162d502a8b00/6683b31d16dd162d502a8b00_Images/6683b31d16dd162d502a8b00_Image_5.jpeg,did not like,4.312468682,,,,,,,,,,,,,,,,,,,,,,
,,6683b31d16dd162d502a8b00,6685aa9113c938e83b4f1ea0,66c554f05a327895c68568b4,2024-08-20_19h46.44.236,WTP_SM_Choice,2022.2.1,MacIntel,114.9425287,,,,,space,0.6408,NAN,,NAN,1.4,4.6,,0,52,52,52,1,53,Riley,Rej,Participant_Images/6683b31d16dd162d502a8b00/6683b31d16dd162d502a8b00_Images/6683b31d16dd162d502a8b00_Image_11.jpeg,did not like,4.940433059,,,,,,,,,,,,,,,,,,,,,,
,,6683b31d16dd162d502a8b00,6685aa9113c938e83b4f1ea0,66c554f05a327895c68568b4,2024-08-20_19h46.44.236,WTP_SM_Choice,2022.2.1,MacIntel,114.9425287,,,,,space,4.1392,NAN,,NAN,1.4,4.6,,0,53,53,53,1,54,Riley,Rej,Participant_Images/6683b31d16dd162d502a8b00/6683b31d16dd162d502a8b00_Images/6683b31d16dd162d502a8b00_Image_4.jpeg,did not like,2.7105123,,,,,,,,,,,,,,,,,,,,,,
,,6683b31d16dd162d502a8b00,6685aa9113c938e83b4f1ea0,66c554f05a327895c68568b4,2024-08-20_19h46.44.236,WTP_SM_Choice,2022.2.1,MacIntel,114.9425287,,,,,,,,,,,,,,,,,,51,,,,,,space,3.426,space,1.1106,0.01,2,3.1791,0,0,0,0,1,Watch star wars movies on my couch on a rainy day,Walk through the neighborhood with my dogs and family,0.01,0.01,1.1,1,,,,
,,6683b31d16dd162d502a8b00,6685aa9113c938e83b4f1ea0,66c554f05a327895c68568b4,2024-08-20_19h46.44.236,WTP_SM_Choice,2022.2.1,MacIntel,114.9425287,,,,,,,,,,,,,,,,,,52,,,,,,,,,,0.02,1,4.1488,0,1,1,1,1,Drink a strong cup of coffee first thing in the morning,Watch football all day on sunday with my friends,0.02,0.01,3.3,1,,,,
,,6683b31d16dd162d502a8b00,6685aa9113c938e83b4f1ea0,66c554f05a327895c68568b4,2024-08-20_19h46.44.236,WTP_SM_Choice,2022.2.1,MacIntel,114.9425287,,,,,,,,,,,,,,,,,,53,,,,,,,,,,0.01,2,2.7224,0,2,2,2,1,Watch football all day on sunday with my friends,Watch star wars movies on my couch on a rainy day,0.03,0.01,1.1,0,,,,
,,6683b31d16dd162d502a8b00,6685aa9113c938e83b4f1ea0,66c554f05a327895c68568b4,2024-08-20_19h46.44.236,WTP_SM_Choice,2022.2.1,MacIntel,114.9425287,,,,,,,,,,,,,,,,,,54,,,,,,,,,,0.01,2,4.4834,0,3,3,3,1,Go to target with my family on sundays,Clean up the house on an early sunday morning,0.04,0.01,4.4,0,,,,
,,6683b31d16dd162d502a8b00,6685aa9113c938e83b4f1ea0,66c554f05a327895c68568b4,2024-08-20_19h46.44.236,WTP_SM_Choice,2022.2.1,MacIntel,114.9425287,,,,,,,,,,,,,,,,,,55,,,,,,,,,,0.01,2,2.785,0,4,4,4,1,Go with my family to the zoo on a Saturday morning,Write in my journal about the things that I've done this week,0.05,0.01,1.1,0,,,,
,,6683b31d16dd162d502a8b00,6685aa9113c938e83b4f1ea0,66c554f05a327895c68568b4,2024-08-20_19h46.44.236,WTP_SM_Choice,2022.2.1,MacIntel,114.9425287,,,,,,,NAN,,NAN,1.46,4.54,,0,54,54,54,1,55,Riley,Rej,Participant_Images/6683b31d16dd162d502a8b00/6683b31d16dd162d502a8b00_Images/6683b31d16dd162d502a8b00_Image_19.jpeg,liked,3.602308302,,,,,,,,,,,,,,,,,,,,,,
,,6683b31d16dd162d502a8b00,6685aa9113c938e83b4f1ea0,66c554f05a327895c68568b4,2024-08-20_19h46.44.236,WTP_SM_Choice,2022.2.1,MacIntel,114.9425287,,,,,space,7.1397,NAN,,NAN,1.46,4.54,,0,55,55,55,1,56,Riley,Rej,Participant_Images/6683b31d16dd162d502a8b00/6683b31d16dd162d502a8b00_Images/6683b31d16dd162d502a8b00_Image_17.jpeg,liked,4.106391878,,,,,,,,,,,,,,,,,,,,,,
,,6683b31d16dd162d502a8b00,6685aa9113c938e83b4f1ea0,66c554f05a327895c68568b4,2024-08-20_19h46.44.236,WTP_SM_Choice,2022.2.1,MacIntel,114.9425287,,,,,space,0.749,NAN,,NAN,1.46,4.54,,0,56,56,56,1,57,Riley,Rej,Participant_Images/6683b31d16dd162d502a8b00/6683b31d16dd162d502a8b00_Images/6683b31d16dd162d502a8b00_Image_14.jpeg,did not like,3.799433026,,,,,,,,,,,,,,,,,,,,,,
,,6683b31d16dd162d502a8b00,6685aa9113c938e83b4f1ea0,66c554f05a327895c68568b4,2024-08-20_19h46.44.236,WTP_SM_Choice,2022.2.1,MacIntel,114.9425287,,,,,space,1.766,NAN,,NAN,1.46,4.54,,0,57,57,57,1,58,Riley,Rej,Participant_Images/6683b31d16dd162d502a8b00/6683b31d16dd162d502a8b00_Images/6683b31d16dd162d502a8b00_Image_10.jpeg,did not like,5.246980764,,,,,,,,,,,,,,,,,,,,,,
,,6683b31d16dd162d502a8b00,6685aa9113c938e83b4f1ea0,66c554f05a327895c68568b4,2024-08-20_19h46.44.236,WTP_SM_Choice,2022.2.1,MacIntel,114.9425287,,,,,space,0.8846,NAN,,NAN,1.46,4.54,,0,58,58,58,1,59,Riley,Rej,Participant_Images/6683b31d16dd162d502a8b00/6683b31d16dd162d502a8b00_Images/6683b31d16dd162d502a8b00_Image_2.jpeg,did not like,3.30081769,,,,,,,,,,,,,,,,,,,,,,
,,6683b31d16dd162d502a8b00,6685aa9113c938e83b4f1ea0,66c554f05a327895c68568b4,2024-08-20_19h46.44.236,WTP_SM_Choice,2022.2.1,MacIntel,114.9425287,,,,,,,,,,,,,,,,,,56,,,,,,space,0.7387,space,0.962,0.02,2,4.3054,0,0,0,0,1,Go to target with my family on sundays,Swim in the pool on a cloudy day,0.01,0.02,8.8,0,,,,
,,6683b31d16dd162d502a8b00,6685aa9113c938e83b4f1ea0,66c554f05a327895c68568b4,2024-08-20_19h46.44.236,WTP_SM_Choice,2022.2.1,MacIntel,114.9425287,,,,,,,,,,,,,,,,,,57,,,,,,,,,,0.02,1,1.9376,0,1,1,1,1,Go for a run in my neighborhood on a cloudy morning,Watch football all day on sunday with my friends,0.02,0.02,4.4,1,,,,
,,6683b31d16dd162d502a8b00,6685aa9113c938e83b4f1ea0,66c554f05a327895c68568b4,2024-08-20_19h46.44.236,WTP_SM_Choice,2022.2.1,MacIntel,114.9425287,,,,,,,,,,,,,,,,,,58,,,,,,,,,,0.02,2,4.0213,0,2,2,2,1,Work late on a weeknight with my significant other,Go for a run in my neighborhood on a cloudy morning,0.03,0.02,4.4,0,,,,
,,6683b31d16dd162d502a8b00,6685aa9113c938e83b4f1ea0,66c554f05a327895c68568b4,2024-08-20_19h46.44.236,WTP_SM_Choice,2022.2.1,MacIntel,114.9425287,,,,,,,,,,,,,,,,,,59,,,,,,,,,,0.04,1,5.5288,0,3,3,3,1,Plan for the week ahead with my significant other on sunday afternoon,Go on a coffee run to Starbucks,0.04,0.02,4.4,0,,,,
,,6683b31d16dd162d502a8b00,6685aa9113c938e83b4f1ea0,66c554f05a327895c68568b4,2024-08-20_19h46.44.236,WTP_SM_Choice,2022.2.1,MacIntel,114.9425287,,,,,,,,,,,,,,,,,,60,,,,,,,,,,0.02,2,3.3161,0,4,4,4,1,Go out to dinner with my significant other on a friday night,Go for a run in my neighborhood on a cloudy morning,0.05,0.02,1.1,0,,,,
,,6683b31d16dd162d502a8b00,6685aa9113c938e83b4f1ea0,66c554f05a327895c68568b4,2024-08-20_19h46.44.236,WTP_SM_Choice,2022.2.1,MacIntel,114.9425287,,,,,,,NAN,,NAN,1.58,4.42,,0,59,59,59,1,60,Riley,Rej,Participant_Images/6683b31d16dd162d502a8b00/6683b31d16dd162d502a8b00_Images/6683b31d16dd162d502a8b00_Image_23.jpeg,liked,1.661473164,,,,,,,,,,,,,,,,,,,,,,
,,6683b31d16dd162d502a8b00,6685aa9113c938e83b4f1ea0,66c554f05a327895c68568b4,2024-08-20_19h46.44.236,WTP_SM_Choice,2022.2.1,MacIntel,114.9425287,,,,,space,1.3179,NAN,,NAN,1.58,4.42,,0,60,60,60,1,61,Riley,Rej,Participant_Images/6683b31d16dd162d502a8b00/6683b31d16dd162d502a8b00_Images/6683b31d16dd162d502a8b00_Image_12.jpeg,did not like,3.613205605,,,,,,,,,,,,,,,,,,,,,,
,,6683b31d16dd162d502a8b00,6685aa9113c938e83b4f1ea0,66c554f05a327895c68568b4,2024-08-20_19h46.44.236,WTP_SM_Choice,2022.2.1,MacIntel,114.9425287,,,,,space,3.5417,NAN,,NAN,1.58,4.42,,0,61,61,61,1,62,Riley,Rej,Participant_Images/6683b31d16dd162d502a8b00/6683b31d16dd162d502a8b00_Images/6683b31d16dd162d502a8b00_Image_20.jpeg,did not like,4.988446431,,,,,,,,,,,,,,,,,,,,,,
,,6683b31d16dd162d502a8b00,6685aa9113c938e83b4f1ea0,66c554f05a327895c68568b4,2024-08-20_19h46.44.236,WTP_SM_Choice,2022.2.1,MacIntel,114.9425287,,,,,space,3.2399,NAN,,NAN,1.58,4.42,,0,62,62,62,1,63,Riley,Rej,Participant_Images/6683b31d16dd162d502a8b00/6683b31d16dd162d502a8b00_Images/6683b31d16dd162d502a8b00_Image_25.jpeg,did not like,3.470791822,,,,,,,,,,,,,,,,,,,,,,
,,6683b31d16dd162d502a8b00,6685aa9113c938e83b4f1ea0,66c554f05a327895c68568b4,2024-08-20_19h46.44.236,WTP_SM_Choice,2022.2.1,MacIntel,114.9425287,,,,,space,4.877,NAN,,NAN,1.58,4.42,,0,63,63,63,1,64,Riley,Rej,Participant_Images/6683b31d16dd162d502a8b00/6683b31d16dd162d502a8b00_Images/6683b31d16dd162d502a8b00_Image_7.jpeg,did not like,3.820572462,,,,,,,,,,,,,,,,,,,,,,
,,6683b31d16dd162d502a8b00,6685aa9113c938e83b4f1ea0,66c554f05a327895c68568b4,2024-08-20_19h46.44.236,WTP_SM_Choice,2022.2.1,MacIntel,114.9425287,,,,,,,,,,,,,,,,,,61,,,,,,space,6.9121,space,12.4934,0.01,1,1.8771,0,0,0,0,1,Cook a nice dinner with my family on a sunday night,Go on a coffee run to Starbucks,0.01,0.03,3.3,0,,,,
,,6683b31d16dd162d502a8b00,6685aa9113c938e83b4f1ea0,66c554f05a327895c68568b4,2024-08-20_19h46.44.236,WTP_SM_Choice,2022.2.1,MacIntel,114.9425287,,,,,,,,,,,,,,,,,,62,,,,,,,,,,0.03,2,6.5017,0,1,1,1,1,Drink a strong cup of coffee first thing in the morning,Go with my family to the zoo on a Saturday morning,0.02,0.03,3.3,1,,,,
,,6683b31d16dd162d502a8b00,6685aa9113c938e83b4f1ea0,66c554f05a327895c68568b4,2024-08-20_19h46.44.236,WTP_SM_Choice,2022.2.1,MacIntel,114.9425287,,,,,,,,,,,,,,,,,,63,,,,,,,,,,0.03,2,5.1893,0,2,2,2,1,Go out to dinner with my significant other on a friday night,Write in my journal about the things that I've done this week,0.03,0.03,3.3,0,,,,
,,6683b31d16dd162d502a8b00,6685aa9113c938e83b4f1ea0,66c554f05a327895c68568b4,2024-08-20_19h46.44.236,WTP_SM_Choice,2022.2.1,MacIntel,114.9425287,,,,,,,,,,,,,,,,,,64,,,,,,,,,,0.03,2,5.1997,0,3,3,3,1,Watch star wars movies on my couch on a rainy day,Work late on a weeknight with my significant other,0.04,0.03,1.1,1,,,,
,,6683b31d16dd162d502a8b00,6685aa9113c938e83b4f1ea0,66c554f05a327895c68568b4,2024-08-20_19h46.44.236,WTP_SM_Choice,2022.2.1,MacIntel,114.9425287,,,,,,,,,,,,,,,,,,65,,,,,,,,,,0.05,1,2.3806,0,4,4,4,1,Go for a run in my neighborhood on a cloudy morning,Drink beers at the local brewery with my friends,0.05,0.03,1.1,1,,,,
,,6683b31d16dd162d502a8b00,6685aa9113c938e83b4f1ea0,66c554f05a327895c68568b4,2024-08-20_19h46.44.236,WTP_SM_Choice,2022.2.1,MacIntel,114.9425287,,,,,,,NAN,,NAN,1.73,4.27,,0,64,64,64,1,65,Riley,Rej,Participant_Images/6683b31d16dd162d502a8b00/6683b31d16dd162d502a8b00_Images/6683b31d16dd162d502a8b00_Image_15.jpeg,liked,2.455989137,,,,,,,,,,,,,,,,,,,,,,
,,6683b31d16dd162d502a8b00,6685aa9113c938e83b4f1ea0,66c554f05a327895c68568b4,2024-08-20_19h46.44.236,WTP_SM_Choice,2022.2.1,MacIntel,114.9425287,,,,,space,1.596,NAN,,NAN,1.73,4.27,,0,65,65,65,1,66,Riley,Rej,Participant_Images/6683b31d16dd162d502a8b00/6683b31d16dd162d502a8b00_Images/6683b31d16dd162d502a8b00_Image_16.jpeg,did not like,3.79605092,,,,,,,,,,,,,,,,,,,,,,
,,6683b31d16dd162d502a8b00,6685aa9113c938e83b4f1ea0,66c554f05a327895c68568b4,2024-08-20_19h46.44.236,WTP_SM_Choice,2022.2.1,MacIntel,114.9425287,,,,,space,1.4683,NAN,,NAN,1.73,4.27,,0,66,66,66,1,67,Riley,Rej,Participant_Images/6683b31d16dd162d502a8b00/6683b31d16dd162d502a8b00_Images/6683b31d16dd162d502a8b00_Image_6.jpeg,did not like,3.562416326,,,,,,,,,,,,,,,,,,,,,,
,,6683b31d16dd162d502a8b00,6685aa9113c938e83b4f1ea0,66c554f05a327895c68568b4,2024-08-20_19h46.44.236,WTP_SM_Choice,2022.2.1,MacIntel,114.9425287,,,,,space,0.9358,NAN,,NAN,1.73,4.27,,0,67,67,67,1,68,Riley,Rej,Participant_Images/6683b31d16dd162d502a8b00/6683b31d16dd162d502a8b00_Images/6683b31d16dd162d502a8b00_Image_8.jpeg,did not like,2.843822497,,,,,,,,,,,,,,,,,,,,,,
,,6683b31d16dd162d502a8b00,6685aa9113c938e83b4f1ea0,66c554f05a327895c68568b4,2024-08-20_19h46.44.236,WTP_SM_Choice,2022.2.1,MacIntel,114.9425287,,,,,space,0.7034,NAN,,NAN,1.73,4.27,,0,68,68,68,1,69,Riley,Rej,Participant_Images/6683b31d16dd162d502a8b00/6683b31d16dd162d502a8b00_Images/6683b31d16dd162d502a8b00_Image_1.jpeg,did not like,3.546495948,,,,,,,,,,,,,,,,,,,,,,
,,6683b31d16dd162d502a8b00,6685aa9113c938e83b4f1ea0,66c554f05a327895c68568b4,2024-08-20_19h46.44.236,WTP_SM_Choice,2022.2.1,MacIntel,114.9425287,,,,,,,,,,,,,,,,,,66,,,,,,space,1.0696,space,1.3337,0.01,1,3.1878,0,0,0,0,1,Write in my journal about the things that I've done this week,Work late on a weeknight with my significant other,0.01,0.04,1.1,1,,,,
,,6683b31d16dd162d502a8b00,6685aa9113c938e83b4f1ea0,66c554f05a327895c68568b4,2024-08-20_19h46.44.236,WTP_SM_Choice,2022.2.1,MacIntel,114.9425287,,,,,,,,,,,,,,,,,,67,,,,,,,,,,0.04,2,2.6687,0,1,1,1,1,Watch star wars movies on my couch on a rainy day,Plan for the week ahead with my significant other on sunday afternoon,0.02,0.04,8.8,1,,,,
,,6683b31d16dd162d502a8b00,6685aa9113c938e83b4f1ea0,66c554f05a327895c68568b4,2024-08-20_19h46.44.236,WTP_SM_Choice,2022.2.1,MacIntel,114.9425287,,,,,,,,,,,,,,,,,,68,,,,,,,,,,0.04,2,7.745,0,2,2,2,1,Scroll tiktok on my phone at the end of a long day,Cook a nice dinner with my family on a sunday night,0.03,0.04,4.4,1,,,,
,,6683b31d16dd162d502a8b00,6685aa9113c938e83b4f1ea0,66c554f05a327895c68568b4,2024-08-20_19h46.44.236,WTP_SM_Choice,2022.2.1,MacIntel,114.9425287,,,,,,,,,,,,,,,,,,69,,,,,,,,,,0.04,2,3.3283,0,3,3,3,1,Watch scary movies in october with my significant other,Scroll tiktok on my phone at the end of a long day,0.04,0.04,1.1,0,,,,
,,6683b31d16dd162d502a8b00,6685aa9113c938e83b4f1ea0,66c554f05a327895c68568b4,2024-08-20_19h46.44.236,WTP_SM_Choice,2022.2.1,MacIntel,114.9425287,,,,,,,,,,,,,,,,,,70,,,,,,,,,,0.05,1,2.6222,0,4,4,4,1,Go to target with my family on sundays,Go on a coffee run to Starbucks,0.05,0.04,1.1,0,,,,
,,6683b31d16dd162d502a8b00,6685aa9113c938e83b4f1ea0,66c554f05a327895c68568b4,2024-08-20_19h46.44.236,WTP_SM_Choice,2022.2.1,MacIntel,114.9425287,,,,,,,NAN,,NAN,1.91,4.09,,0,69,69,69,1,70,Riley,Rej,Participant_Images/6683b31d16dd162d502a8b00/6683b31d16dd162d502a8b00_Images/6683b31d16dd162d502a8b00_Image_24.jpeg,liked,1.672012706,,,,,,,,,,,,,,,,,,,,,,
,,6683b31d16dd162d502a8b00,6685aa9113c938e83b4f1ea0,66c554f05a327895c68568b4,2024-08-20_19h46.44.236,WTP_SM_Choice,2022.2.1,MacIntel,114.9425287,,,,,space,1.1626,NAN,,NAN,1.91,4.09,,0,70,70,70,1,71,Riley,Rej,Participant_Images/6683b31d16dd162d502a8b00/6683b31d16dd162d502a8b00_Images/6683b31d16dd162d502a8b00_Image_22.jpeg,did not like,4.942172136,,,,,,,,,,,,,,,,,,,,,,
,,6683b31d16dd162d502a8b00,6685aa9113c938e83b4f1ea0,66c554f05a327895c68568b4,2024-08-20_19h46.44.236,WTP_SM_Choice,2022.2.1,MacIntel,114.9425287,,,,,space,3.1274,NAN,,NAN,1.91,4.09,,0,71,71,71,1,72,Riley,Rej,Participant_Images/6683b31d16dd162d502a8b00/6683b31d16dd162d502a8b00_Images/6683b31d16dd162d502a8b00_Image_3.jpeg,did not like,2.50187214,,,,,,,,,,,,,,,,,,,,,,
,,6683b31d16dd162d502a8b00,6685aa9113c938e83b4f1ea0,66c554f05a327895c68568b4,2024-08-20_19h46.44.236,WTP_SM_Choice,2022.2.1,MacIntel,114.9425287,,,,,space,0.966,NAN,,NAN,1.91,4.09,,0,72,72,72,1,73,Riley,Rej,Participant_Images/6683b31d16dd162d502a8b00/6683b31d16dd162d502a8b00_Images/6683b31d16dd162d502a8b00_Image_9.jpeg,liked,2.071164779,,,,,,,,,,,,,,,,,,,,,,
,,6683b31d16dd162d502a8b00,6685aa9113c938e83b4f1ea0,66c554f05a327895c68568b4,2024-08-20_19h46.44.236,WTP_SM_Choice,2022.2.1,MacIntel,114.9425287,,,,,space,5.1874,NAN,,NAN,1.91,4.09,,0,73,73,73,1,74,Riley,Rej,Participant_Images/6683b31d16dd162d502a8b00/6683b31d16dd162d502a8b00_Images/6683b31d16dd162d502a8b00_Image_21.jpeg,did not like,5.336503566,,,,,,,,,,,,,,,,,,,,,,
,,6683b31d16dd162d502a8b00,6685aa9113c938e83b4f1ea0,66c554f05a327895c68568b4,2024-08-20_19h46.44.236,WTP_SM_Choice,2022.2.1,MacIntel,114.9425287,,,,,,,,,,,,,,,,,,71,,,,,,space,5.3571,space,1.1716,0.01,1,2.87,0,0,0,0,1,Walk through the neighborhood with my dogs and family,Drink a strong cup of coffee first thing in the morning,0.01,0.05,3.3,0,,,,
,,6683b31d16dd162d502a8b00,6685aa9113c938e83b4f1ea0,66c554f05a327895c68568b4,2024-08-20_19h46.44.236,WTP_SM_Choice,2022.2.1,MacIntel,114.9425287,,,,,,,,,,,,,,,,,,72,,,,,,,,,,0.02,1,2.1894,0,1,1,1,1,Browse amazon for impulse purchases after I've gotten paid,Drink beers at the local brewery with my friends,0.02,0.05,8.8,1,,,,
,,6683b31d16dd162d502a8b00,6685aa9113c938e83b4f1ea0,66c554f05a327895c68568b4,2024-08-20_19h46.44.236,WTP_SM_Choice,2022.2.1,MacIntel,114.9425287,,,,,,,,,,,,,,,,,,73,,,,,,,,,,0.03,1,3.0173,0,2,2,2,1,Go to target with my family on sundays,Bake myself some fresh chocolate chip cookies,0.03,0.05,3.3,0,,,,
,,6683b31d16dd162d502a8b00,6685aa9113c938e83b4f1ea0,66c554f05a327895c68568b4,2024-08-20_19h46.44.236,WTP_SM_Choice,2022.2.1,MacIntel,114.9425287,,,,,,,,,,,,,,,,,,74,,,,,,,,,,0.05,2,2.8109,0,3,3,3,1,Watch scary movies in october with my significant other,Clean up the house on an early sunday morning,0.04,0.05,4.4,0,,,,
,,6683b31d16dd162d502a8b00,6685aa9113c938e83b4f1ea0,66c554f05a327895c68568b4,2024-08-20_19h46.44.236,WTP_SM_Choice,2022.2.1,MacIntel,114.9425287,,,,,,,,,,,,,,,,,,75,,,,,,,,,,0.05,1,3.7019,0,4,4,4,1,Work late on a weeknight with my significant other,Clean up the house on an early sunday morning,0.05,0.05,3.3,0,,,,
,,6683b31d16dd162d502a8b00,6685aa9113c938e83b4f1ea0,66c554f05a327895c68568b4,2024-08-20_19h46.44.236,WTP_SM_Choice,2022.2.1,MacIntel,114.9425287,,,,,,,1,,1,2.07,3.93,,0,74,74,74,1,75,Riley,Rej,Participant_Images/6683b31d16dd162d502a8b00/6683b31d16dd162d502a8b00_Images/6683b31d16dd162d502a8b00_Image_13.jpeg,liked,2.642157193,,,,,,,,,,,,,,,,,,,space,0.986,,
,,6683b31d16dd162d502a8b00,6685aa9113c938e83b4f1ea0,66c554f05a327895c68568b4,2024-08-20_19h46.44.236,WTP_SM_Choice,2022.2.1,MacIntel,114.9425287,,,space,2.6038,space,1.583,NAN,,NAN,2.07,3.93,,0,75,75,75,1,76,Alex,Acc,Participant_Images/6683b31d16dd162d502a8b00/6683b31d16dd162d502a8b00_Images/6683b31d16dd162d502a8b00_Image_8.jpeg,liked,4.456234322,,,,,,,,,,,,,,,,,,,,,,
,,6683b31d16dd162d502a8b00,6685aa9113c938e83b4f1ea0,66c554f05a327895c68568b4,2024-08-20_19h46.44.236,WTP_SM_Choice,2022.2.1,MacIntel,114.9425287,,,,,space,0.9498,NAN,,NAN,2.07,3.93,,0,76,76,76,1,77,Alex,Acc,Participant_Images/6683b31d16dd162d502a8b00/6683b31d16dd162d502a8b00_Images/6683b31d16dd162d502a8b00_Image_12.jpeg,liked,4.438512181,,,,,,,,,,,,,,,,,,,,,,
,,6683b31d16dd162d502a8b00,6685aa9113c938e83b4f1ea0,66c554f05a327895c68568b4,2024-08-20_19h46.44.236,WTP_SM_Choice,2022.2.1,MacIntel,114.9425287,,,,,space,1.7353,NAN,,NAN,2.07,3.93,,0,77,77,77,1,78,Alex,Acc,Participant_Images/6683b31d16dd162d502a8b00/6683b31d16dd162d502a8b00_Images/6683b31d16dd162d502a8b00_Image_16.jpeg,liked,2.682944783,,,,,,,,,,,,,,,,,,,,,,
,,6683b31d16dd162d502a8b00,6685aa9113c938e83b4f1ea0,66c554f05a327895c68568b4,2024-08-20_19h46.44.236,WTP_SM_Choice,2022.2.1,MacIntel,114.9425287,,,,,space,1.5968,NAN,,NAN,2.07,3.93,,0,78,78,78,1,79,Alex,Acc,Participant_Images/6683b31d16dd162d502a8b00/6683b31d16dd162d502a8b00_Images/6683b31d16dd162d502a8b00_Image_15.jpeg,liked,4.51984296,,,,,,,,,,,,,,,,,,,,,,
,,6683b31d16dd162d502a8b00,6685aa9113c938e83b4f1ea0,66c554f05a327895c68568b4,2024-08-20_19h46.44.236,WTP_SM_Choice,2022.2.1,MacIntel,114.9425287,,,,,,,,,,,,,,,,,,76,,,,,,space,1.5111,space,1.2383,0.01,2,2.778,0,0,0,0,1,Watch star wars movies on my couch on a rainy day,Go with my family to the zoo on a Saturday morning,0.01,0.01,1.1,1,,,,
,,6683b31d16dd162d502a8b00,6685aa9113c938e83b4f1ea0,66c554f05a327895c68568b4,2024-08-20_19h46.44.236,WTP_SM_Choice,2022.2.1,MacIntel,114.9425287,,,,,,,,,,,,,,,,,,77,,,,,,,,,,0.02,1,2.4832,0,1,1,1,1,Browse amazon for impulse purchases after I've gotten paid,Cook a nice dinner with my family on a sunday night,0.02,0.01,8.8,1,,,,
,,6683b31d16dd162d502a8b00,6685aa9113c938e83b4f1ea0,66c554f05a327895c68568b4,2024-08-20_19h46.44.236,WTP_SM_Choice,2022.2.1,MacIntel,114.9425287,,,,,,,,,,,,,,,,,,78,,,,,,,,,,0.01,2,2.7044,0,2,2,2,1,Go out to dinner with my significant other on a friday night,Go on a coffee run to Starbucks,0.03,0.01,1.1,0,,,,
,,6683b31d16dd162d502a8b00,6685aa9113c938e83b4f1ea0,66c554f05a327895c68568b4,2024-08-20_19h46.44.236,WTP_SM_Choice,2022.2.1,MacIntel,114.9425287,,,,,,,,,,,,,,,,,,79,,,,,,,,,,0.01,2,2.3304,0,3,3,3,1,Drink beers at the local brewery with my friends,Watch star wars movies on my couch on a rainy day,0.04,0.01,1.1,0,,,,
,,6683b31d16dd162d502a8b00,6685aa9113c938e83b4f1ea0,66c554f05a327895c68568b4,2024-08-20_19h46.44.236,WTP_SM_Choice,2022.2.1,MacIntel,114.9425287,,,,,,,,,,,,,,,,,,80,,,,,,,,,,0.05,1,4.1027,0,4,4,4,1,Clean up the house on an early sunday morning,Cook a nice dinner with my family on a sunday night,0.05,0.01,4.4,1,,,,
,,6683b31d16dd162d502a8b00,6685aa9113c938e83b4f1ea0,66c554f05a327895c68568b4,2024-08-20_19h46.44.236,WTP_SM_Choice,2022.2.1,MacIntel,114.9425287,,,,,,,NAN,,NAN,2.17,3.83,,0,79,79,79,1,80,Alex,Acc,Participant_Images/6683b31d16dd162d502a8b00/6683b31d16dd162d502a8b00_Images/6683b31d16dd162d502a8b00_Image_20.jpeg,liked,3.195382774,,,,,,,,,,,,,,,,,,,,,,
,,6683b31d16dd162d502a8b00,6685aa9113c938e83b4f1ea0,66c554f05a327895c68568b4,2024-08-20_19h46.44.236,WTP_SM_Choice,2022.2.1,MacIntel,114.9425287,,,,,space,1.4856,NAN,,NAN,2.17,3.83,,0,80,80,80,1,81,Alex,Acc,Participant_Images/6683b31d16dd162d502a8b00/6683b31d16dd162d502a8b00_Images/6683b31d16dd162d502a8b00_Image_25.jpeg,did not like,1.779333479,,,,,,,,,,,,,,,,,,,,,,
,,6683b31d16dd162d502a8b00,6685aa9113c938e83b4f1ea0,66c554f05a327895c68568b4,2024-08-20_19h46.44.236,WTP_SM_Choice,2022.2.1,MacIntel,114.9425287,,,,,space,1.9921,NAN,,NAN,2.17,3.83,,0,81,81,81,1,82,Alex,Acc,Participant_Images/6683b31d16dd162d502a8b00/6683b31d16dd162d502a8b00_Images/6683b31d16dd162d502a8b00_Image_10.jpeg,did not like,4.312468682,,,,,,,,,,,,,,,,,,,,,,
,,6683b31d16dd162d502a8b00,6685aa9113c938e83b4f1ea0,66c554f05a327895c68568b4,2024-08-20_19h46.44.236,WTP_SM_Choice,2022.2.1,MacIntel,114.9425287,,,,,space,0.6946,NAN,,NAN,2.17,3.83,,0,82,82,82,1,83,Alex,Acc,Participant_Images/6683b31d16dd162d502a8b00/6683b31d16dd162d502a8b00_Images/6683b31d16dd162d502a8b00_Image_13.jpeg,liked,4.940433059,,,,,,,,,,,,,,,,,,,,,,
,,6683b31d16dd162d502a8b00,6685aa9113c938e83b4f1ea0,66c554f05a327895c68568b4,2024-08-20_19h46.44.236,WTP_SM_Choice,2022.2.1,MacIntel,114.9425287,,,,,space,2.2586,NAN,,NAN,2.17,3.83,,0,83,83,83,1,84,Alex,Acc,Participant_Images/6683b31d16dd162d502a8b00/6683b31d16dd162d502a8b00_Images/6683b31d16dd162d502a8b00_Image_17.jpeg,liked,2.7105123,,,,,,,,,,,,,,,,,,,,,,
,,6683b31d16dd162d502a8b00,6685aa9113c938e83b4f1ea0,66c554f05a327895c68568b4,2024-08-20_19h46.44.236,WTP_SM_Choice,2022.2.1,MacIntel,114.9425287,,,,,,,,,,,,,,,,,,81,,,,,,space,2.207,space,0.8256,0.01,1,2.0401,0,0,0,0,1,Clean up the house on an early sunday morning,Go with my family to the zoo on a Saturday morning,0.01,0.02,3.3,1,,,,
,,6683b31d16dd162d502a8b00,6685aa9113c938e83b4f1ea0,66c554f05a327895c68568b4,2024-08-20_19h46.44.236,WTP_SM_Choice,2022.2.1,MacIntel,114.9425287,,,,,,,,,,,,,,,,,,82,,,,,,,,,,0.02,1,5.4921,0,1,1,1,1,Plan for the week ahead with my significant other on sunday afternoon,Browse amazon for impulse purchases after I've gotten paid,0.02,0.02,4.4,0,,,,
,,6683b31d16dd162d502a8b00,6685aa9113c938e83b4f1ea0,66c554f05a327895c68568b4,2024-08-20_19h46.44.236,WTP_SM_Choice,2022.2.1,MacIntel,114.9425287,,,,,,,,,,,,,,,,,,83,,,,,,,,,,0.03,1,3.4618,0,2,2,2,1,Clean up the house on an early sunday morning,Watch football all day on sunday with my friends,0.03,0.02,1.1,1,,,,
,,6683b31d16dd162d502a8b00,6685aa9113c938e83b4f1ea0,66c554f05a327895c68568b4,2024-08-20_19h46.44.236,WTP_SM_Choice,2022.2.1,MacIntel,114.9425287,,,,,,,,,,,,,,,,,,84,,,,,,,,,,0.04,1,1.9074,0,3,3,3,1,Clean up the house on an early sunday morning,Drink beers at the local brewery with my friends,0.04,0.02,3.3,1,,,,
,,6683b31d16dd162d502a8b00,6685aa9113c938e83b4f1ea0,66c554f05a327895c68568b4,2024-08-20_19h46.44.236,WTP_SM_Choice,2022.2.1,MacIntel,114.9425287,,,,,,,,,,,,,,,,,,85,,,,,,,,,,0.02,2,1.7855,0,4,4,4,1,Go on a coffee run to Starbucks,Go with my family to the zoo on a Saturday morning,0.05,0.02,3.3,1,,,,
,,6683b31d16dd162d502a8b00,6685aa9113c938e83b4f1ea0,66c554f05a327895c68568b4,2024-08-20_19h46.44.236,WTP_SM_Choice,2022.2.1,MacIntel,114.9425287,,,,,,,NAN,,NAN,2.29,3.71,,0,84,84,84,1,85,Alex,Acc,Participant_Images/6683b31d16dd162d502a8b00/6683b31d16dd162d502a8b00_Images/6683b31d16dd162d502a8b00_Image_11.jpeg,did not like,3.602308302,,,,,,,,,,,,,,,,,,,,,,
,,6683b31d16dd162d502a8b00,6685aa9113c938e83b4f1ea0,66c554f05a327895c68568b4,2024-08-20_19h46.44.236,WTP_SM_Choice,2022.2.1,MacIntel,114.9425287,,,,,space,0.704,NAN,,NAN,2.29,3.71,,0,85,85,85,1,86,Alex,Acc,Participant_Images/6683b31d16dd162d502a8b00/6683b31d16dd162d502a8b00_Images/6683b31d16dd162d502a8b00_Image_24.jpeg,liked,4.106391878,,,,,,,,,,,,,,,,,,,,,,
,,6683b31d16dd162d502a8b00,6685aa9113c938e83b4f1ea0,66c554f05a327895c68568b4,2024-08-20_19h46.44.236,WTP_SM_Choice,2022.2.1,MacIntel,114.9425287,,,,,space,0.978,NAN,,NAN,2.29,3.71,,0,86,86,86,1,87,Alex,Acc,Participant_Images/6683b31d16dd162d502a8b00/6683b31d16dd162d502a8b00_Images/6683b31d16dd162d502a8b00_Image_18.jpeg,liked,3.799433026,,,,,,,,,,,,,,,,,,,,,,
,,6683b31d16dd162d502a8b00,6685aa9113c938e83b4f1ea0,66c554f05a327895c68568b4,2024-08-20_19h46.44.236,WTP_SM_Choice,2022.2.1,MacIntel,114.9425287,,,,,space,2.9917,NAN,,NAN,2.29,3.71,,0,87,87,87,1,88,Alex,Acc,Participant_Images/6683b31d16dd162d502a8b00/6683b31d16dd162d502a8b00_Images/6683b31d16dd162d502a8b00_Image_1.jpeg,liked,5.246980764,,,,,,,,,,,,,,,,,,,,,,
,,6683b31d16dd162d502a8b00,6685aa9113c938e83b4f1ea0,66c554f05a327895c68568b4,2024-08-20_19h46.44.236,WTP_SM_Choice,2022.2.1,MacIntel,114.9425287,,,,,space,1.0347,NAN,,NAN,2.29,3.71,,0,88,88,88,1,89,Alex,Acc,Participant_Images/6683b31d16dd162d502a8b00/6683b31d16dd162d502a8b00_Images/6683b31d16dd162d502a8b00_Image_5.jpeg,liked,3.30081769,,,,,,,,,,,,,,,,,,,,,,
,,6683b31d16dd162d502a8b00,6685aa9113c938e83b4f1ea0,66c554f05a327895c68568b4,2024-08-20_19h46.44.236,WTP_SM_Choice,2022.2.1,MacIntel,114.9425287,,,,,,,,,,,,,,,,,,86,,,,,,space,3.0091,space,1.5928,0.01,1,3.7679,0,0,0,0,1,Go to target with my family on sundays,Drink a strong cup of coffee first thing in the morning,0.01,0.03,1.1,0,,,,
,,6683b31d16dd162d502a8b00,6685aa9113c938e83b4f1ea0,66c554f05a327895c68568b4,2024-08-20_19h46.44.236,WTP_SM_Choice,2022.2.1,MacIntel,114.9425287,,,,,,,,,,,,,,,,,,87,,,,,,,,,,0.02,1,2.5716,0,1,1,1,1,Go on a coffee run to Starbucks,Drink beers at the local brewery with my friends,0.02,0.03,4.4,1,,,,
,,6683b31d16dd162d502a8b00,6685aa9113c938e83b4f1ea0,66c554f05a327895c68568b4,2024-08-20_19h46.44.236,WTP_SM_Choice,2022.2.1,MacIntel,114.9425287,,,,,,,,,,,,,,,,,,88,,,,,,,,,,0.03,1,2.236,0,2,2,2,1,Go with my family to the zoo on a Saturday morning,Bake myself some fresh chocolate chip cookies,0.03,0.03,1.1,0,,,,
,,6683b31d16dd162d502a8b00,6685aa9113c938e83b4f1ea0,66c554f05a327895c68568b4,2024-08-20_19h46.44.236,WTP_SM_Choice,2022.2.1,MacIntel,114.9425287,,,,,,,,,,,,,,,,,,89,,,,,,,,,,0.04,1,3.3594,0,3,3,3,1,Cook a nice dinner with my family on a sunday night,Swim in the pool on a cloudy day,0.04,0.03,3.3,0,,,,
,,6683b31d16dd162d502a8b00,6685aa9113c938e83b4f1ea0,66c554f05a327895c68568b4,2024-08-20_19h46.44.236,WTP_SM_Choice,2022.2.1,MacIntel,114.9425287,,,,,,,,,,,,,,,,,,90,,,,,,,,,,0.03,2,2.7333,0,4,4,4,1,Watch football all day on sunday with my friends,Swim in the pool on a cloudy day,0.05,0.03,8.8,0,,,,
,,6683b31d16dd162d502a8b00,6685aa9113c938e83b4f1ea0,66c554f05a327895c68568b4,2024-08-20_19h46.44.236,WTP_SM_Choice,2022.2.1,MacIntel,114.9425287,,,,,,,NAN,,NAN,2.42,3.58,,0,89,89,89,1,90,Alex,Acc,Participant_Images/6683b31d16dd162d502a8b00/6683b31d16dd162d502a8b00_Images/6683b31d16dd162d502a8b00_Image_4.jpeg,liked,1.661473164,,,,,,,,,,,,,,,,,,,,,,
,,6683b31d16dd162d502a8b00,6685aa9113c938e83b4f1ea0,66c554f05a327895c68568b4,2024-08-20_19h46.44.236,WTP_SM_Choice,2022.2.1,MacIntel,114.9425287,,,,,space,0.5394,NAN,,NAN,2.42,3.58,,0,90,90,90,1,91,Alex,Acc,Participant_Images/6683b31d16dd162d502a8b00/6683b31d16dd162d502a8b00_Images/6683b31d16dd162d502a8b00_Image_21.jpeg,liked,3.613205605,,,,,,,,,,,,,,,,,,,,,,
,,6683b31d16dd162d502a8b00,6685aa9113c938e83b4f1ea0,66c554f05a327895c68568b4,2024-08-20_19h46.44.236,WTP_SM_Choice,2022.2.1,MacIntel,114.9425287,,,,,space,0.6272,NAN,,NAN,2.42,3.58,,0,91,91,91,1,92,Alex,Acc,Participant_Images/6683b31d16dd162d502a8b00/6683b31d16dd162d502a8b00_Images/6683b31d16dd162d502a8b00_Image_19.jpeg,liked,4.988446431,,,,,,,,,,,,,,,,,,,,,,
,,6683b31d16dd162d502a8b00,6685aa9113c938e83b4f1ea0,66c554f05a327895c68568b4,2024-08-20_19h46.44.236,WTP_SM_Choice,2022.2.1,MacIntel,114.9425287,,,,,space,0.4777,NAN,,NAN,2.42,3.58,,0,92,92,92,1,93,Alex,Acc,Participant_Images/6683b31d16dd162d502a8b00/6683b31d16dd162d502a8b00_Images/6683b31d16dd162d502a8b00_Image_2.jpeg,liked,3.470791822,,,,,,,,,,,,,,,,,,,,,,
,,6683b31d16dd162d502a8b00,6685aa9113c938e83b4f1ea0,66c554f05a327895c68568b4,2024-08-20_19h46.44.236,WTP_SM_Choice,2022.2.1,MacIntel,114.9425287,,,,,space,0.8004,NAN,,NAN,2.42,3.58,,0,93,93,93,1,94,Alex,Acc,Participant_Images/6683b31d16dd162d502a8b00/6683b31d16dd162d502a8b00_Images/6683b31d16dd162d502a8b00_Image_14.jpeg,did not like,3.820572462,,,,,,,,,,,,,,,,,,,,,,
,,6683b31d16dd162d502a8b00,6685aa9113c938e83b4f1ea0,66c554f05a327895c68568b4,2024-08-20_19h46.44.236,WTP_SM_Choice,2022.2.1,MacIntel,114.9425287,,,,,,,,,,,,,,,,,,91,,,,,,space,0.885,space,1.4972,0.01,1,2.2005,0,0,0,0,1,Write in my journal about the things that I've done this week,Plan for the week ahead with my significant other on sunday afternoon,0.01,0.04,3.3,1,,,,
,,6683b31d16dd162d502a8b00,6685aa9113c938e83b4f1ea0,66c554f05a327895c68568b4,2024-08-20_19h46.44.236,WTP_SM_Choice,2022.2.1,MacIntel,114.9425287,,,,,,,,,,,,,,,,,,92,,,,,,,,,,0.02,1,3.1883,0,1,1,1,1,Swim in the pool on a cloudy day,Drink beers at the local brewery with my friends,0.02,0.04,8.8,1,,,,
,,6683b31d16dd162d502a8b00,6685aa9113c938e83b4f1ea0,66c554f05a327895c68568b4,2024-08-20_19h46.44.236,WTP_SM_Choice,2022.2.1,MacIntel,114.9425287,,,,,,,,,,,,,,,,,,93,,,,,,,,,,0.03,1,2.8326,0,2,2,2,1,Drink a strong cup of coffee first thing in the morning,Watch scary movies in october with my significant other,0.03,0.04,1.1,1,,,,
,,6683b31d16dd162d502a8b00,6685aa9113c938e83b4f1ea0,66c554f05a327895c68568b4,2024-08-20_19h46.44.236,WTP_SM_Choice,2022.2.1,MacIntel,114.9425287,,,,,,,,,,,,,,,,,,94,,,,,,,,,,0.04,2,4.3698,0,3,3,3,1,Plan for the week ahead with my significant other on sunday afternoon,Go for a run in my neighborhood on a cloudy morning,0.04,0.04,4.4,0,,,,
,,6683b31d16dd162d502a8b00,6685aa9113c938e83b4f1ea0,66c554f05a327895c68568b4,2024-08-20_19h46.44.236,WTP_SM_Choice,2022.2.1,MacIntel,114.9425287,,,,,,,,,,,,,,,,,,95,,,,,,,,,,0.04,2,3.0351,0,4,4,4,1,Watch scary movies in october with my significant other,Bake myself some fresh chocolate chip cookies,0.05,0.04,4.4,0,,,,
,,6683b31d16dd162d502a8b00,6685aa9113c938e83b4f1ea0,66c554f05a327895c68568b4,2024-08-20_19h46.44.236,WTP_SM_Choice,2022.2.1,MacIntel,114.9425287,,,,,,,NAN,,NAN,2.56,3.44,,0,94,94,94,1,95,Alex,Acc,Participant_Images/6683b31d16dd162d502a8b00/6683b31d16dd162d502a8b00_Images/6683b31d16dd162d502a8b00_Image_9.jpeg,did not like,2.455989137,,,,,,,,,,,,,,,,,,,,,,
,,6683b31d16dd162d502a8b00,6685aa9113c938e83b4f1ea0,66c554f05a327895c68568b4,2024-08-20_19h46.44.236,WTP_SM_Choice,2022.2.1,MacIntel,114.9425287,,,,,space,2.443,NAN,,NAN,2.56,3.44,,0,95,95,95,1,96,Alex,Acc,Participant_Images/6683b31d16dd162d502a8b00/6683b31d16dd162d502a8b00_Images/6683b31d16dd162d502a8b00_Image_23.jpeg,did not like,3.79605092,,,,,,,,,,,,,,,,,,,,,,
,,6683b31d16dd162d502a8b00,6685aa9113c938e83b4f1ea0,66c554f05a327895c68568b4,2024-08-20_19h46.44.236,WTP_SM_Choice,2022.2.1,MacIntel,114.9425287,,,,,space,0.4119,NAN,,NAN,2.56,3.44,,0,96,96,96,1,97,Alex,Acc,Participant_Images/6683b31d16dd162d502a8b00/6683b31d16dd162d502a8b00_Images/6683b31d16dd162d502a8b00_Image_3.jpeg,liked,3.562416326,,,,,,,,,,,,,,,,,,,,,,
,,6683b31d16dd162d502a8b00,6685aa9113c938e83b4f1ea0,66c554f05a327895c68568b4,2024-08-20_19h46.44.236,WTP_SM_Choice,2022.2.1,MacIntel,114.9425287,,,,,space,0.8338,NAN,,NAN,2.56,3.44,,0,97,97,97,1,98,Alex,Acc,Participant_Images/6683b31d16dd162d502a8b00/6683b31d16dd162d502a8b00_Images/6683b31d16dd162d502a8b00_Image_22.jpeg,liked,2.843822497,,,,,,,,,,,,,,,,,,,,,,
,,6683b31d16dd162d502a8b00,6685aa9113c938e83b4f1ea0,66c554f05a327895c68568b4,2024-08-20_19h46.44.236,WTP_SM_Choice,2022.2.1,MacIntel,114.9425287,,,,,space,1.64,NAN,,NAN,2.56,3.44,,0,98,98,98,1,99,Alex,Acc,Participant_Images/6683b31d16dd162d502a8b00/6683b31d16dd162d502a8b00_Images/6683b31d16dd162d502a8b00_Image_7.jpeg,did not like,3.546495948,,,,,,,,,,,,,,,,,,,,,,
,,6683b31d16dd162d502a8b00,6685aa9113c938e83b4f1ea0,66c554f05a327895c68568b4,2024-08-20_19h46.44.236,WTP_SM_Choice,2022.2.1,MacIntel,114.9425287,,,,,,,,,,,,,,,,,,96,,,,,,space,4.7071,space,1.1837,0.01,1,2.1154,0,0,0,0,1,Clean up the house on an early sunday morning,Walk through the neighborhood with my dogs and family,0.01,0.05,3.3,1,,,,
,,6683b31d16dd162d502a8b00,6685aa9113c938e83b4f1ea0,66c554f05a327895c68568b4,2024-08-20_19h46.44.236,WTP_SM_Choice,2022.2.1,MacIntel,114.9425287,,,,,,,,,,,,,,,,,,97,,,,,,,,,,0.05,2,3.4025,0,1,1,1,1,Walk through the neighborhood with my dogs and family,Go for a run in my neighborhood on a cloudy morning,0.02,0.05,1.1,0,,,,
,,6683b31d16dd162d502a8b00,6685aa9113c938e83b4f1ea0,66c554f05a327895c68568b4,2024-08-20_19h46.44.236,WTP_SM_Choice,2022.2.1,MacIntel,114.9425287,,,,,,,,,,,,,,,,,,98,,,,,,,,,,0.05,2,3.1131,0,2,2,2,1,Cook a nice dinner with my family on a sunday night,Write in my journal about the things that I've done this week,0.03,0.05,1.1,0,,,,
,,6683b31d16dd162d502a8b00,6685aa9113c938e83b4f1ea0,66c554f05a327895c68568b4,2024-08-20_19h46.44.236,WTP_SM_Choice,2022.2.1,MacIntel,114.9425287,,,,,,,,,,,,,,,,,,99,,,,,,,,,,0.04,1,5.8062,0,3,3,3,1,Scroll tiktok on my phone at the end of a long day,Walk through the neighborhood with my dogs and family,0.04,0.05,3.3,1,,,,
,,6683b31d16dd162d502a8b00,6685aa9113c938e83b4f1ea0,66c554f05a327895c68568b4,2024-08-20_19h46.44.236,WTP_SM_Choice,2022.2.1,MacIntel,114.9425287,,,,,,,,,,,,,,,,,,100,,,,,,,,,,0.05,1,8.0243,0,4,4,4,1,Cook a nice dinner with my family on a sunday night,Go for a run in my neighborhood on a cloudy morning,0.05,0.05,4.4,0,,,,
,,6683b31d16dd162d502a8b00,6685aa9113c938e83b4f1ea0,66c554f05a327895c68568b4,2024-08-20_19h46.44.236,WTP_SM_Choice,2022.2.1,MacIntel,114.9425287,,,,,,,3,,4,2.76,3.24,,0,99,99,99,1,100,Alex,Acc,Participant_Images/6683b31d16dd162d502a8b00/6683b31d16dd162d502a8b00_Images/6683b31d16dd162d502a8b00_Image_6.jpeg,liked,1.672012706,,,,,,,,,,,,,,,,,,,space,1.3986,,
,,6683b31d16dd162d502a8b00,6685aa9113c938e83b4f1ea0,66c554f05a327895c68568b4,2024-08-20_19h46.44.236,WTP_SM_Choice,2022.2.1,MacIntel,114.9425287,,,,,,,,,,,,,,,,,,,,,,,,,,,,,,,,,,,,,,,,,,,,space,2.8558
