endwelcomescreen_keys.keys,endwelcomescreen_keys.rt,participant,STUDY_ID,SESSION_ID,date,expName,psychopyVersion,OS,frameRate,endinstructionscreen_keys.keys,endinstructionscreen_keys.rt,endpartnermatch_keys.keys,endpartnermatch_keys.rt,sharenextphoto_key.keys,sharenextphoto_key.rt,salience_rating,key_resp.keys,stress_level,subtract_bonus,TOTAL_TASK_BONUS,stresslevel_keypress.keys,entiretaskloop.thisRepN,entiretaskloop.thisTrialN,entiretaskloop.thisN,entiretaskloop.thisIndex,entiretaskloop.ran,TrialNumber,Partner,Condition,Photos,Feedback,FeedbackWait,WTP_ins_keys1.keys,WTP_ins_keys1.rt,WTP_ins_keys2.keys,WTP_ins_keys2.rt,decision_price,responses.keys,responses.rt,WTPTaskLoop.thisRepN,WTPTaskLoop.thisTrialN,WTPTaskLoop.thisN,WTPTaskLoop.thisIndex,WTPTaskLoop.ran,right,left,leftmoney,rightmoney,WTP_ITI,social_left,Resume_keys.keys,Resume_keys.rt,end_screen_keys.keys,end_screen_keys.rt
space,2.9874,6686247e6177b8b37bdd0463,6685aa9113c938e83b4f1ea0,67230bef617b4f90a6cbc8c7,2024-10-30_23h49.13.165,WTP_SM_Choice,2022.2.1,Win32,144.9275362,,,,,,,,,,,,,,,,,,,,,,,,,,,,,,,,,,,,,,,,,,,,,
,,6686247e6177b8b37bdd0463,6685aa9113c938e83b4f1ea0,67230bef617b4f90a6cbc8c7,2024-10-30_23h49.13.165,WTP_SM_Choice,2022.2.1,Win32,144.9275362,space,13.7317,,,,,,,,,,,,,,,,,,,,,,,,,,,,,,,,,,,,,,,,,,,
,,6686247e6177b8b37bdd0463,6685aa9113c938e83b4f1ea0,67230bef617b4f90a6cbc8c7,2024-10-30_23h49.13.165,WTP_SM_Choice,2022.2.1,Win32,144.9275362,,,space,1.7048,space,1.3434,NAN,,NAN,0,6,,0,0,0,0,1,1,Riley,Acc,Participant_Images/6686247e6177b8b37bdd0463/6686247e6177b8b37bdd0463_Images/6686247e6177b8b37bdd0463_Image_6.jpeg,liked,3.613205605,,,,,,,,,,,,,,,,,,,,,,
,,6686247e6177b8b37bdd0463,6685aa9113c938e83b4f1ea0,67230bef617b4f90a6cbc8c7,2024-10-30_23h49.13.165,WTP_SM_Choice,2022.2.1,Win32,144.9275362,,,,,space,1.0261,NAN,,NAN,0,6,,0,1,1,1,1,2,Riley,Acc,Participant_Images/6686247e6177b8b37bdd0463/6686247e6177b8b37bdd0463_Images/6686247e6177b8b37bdd0463_Image_9.jpeg,liked,4.988446431,,,,,,,,,,,,,,,,,,,,,,
,,6686247e6177b8b37bdd0463,6685aa9113c938e83b4f1ea0,67230bef617b4f90a6cbc8c7,2024-10-30_23h49.13.165,WTP_SM_Choice,2022.2.1,Win32,144.9275362,,,,,space,0.4743,NAN,,NAN,0,6,,0,2,2,2,1,3,Riley,Acc,Participant_Images/6686247e6177b8b37bdd0463/6686247e6177b8b37bdd0463_Images/6686247e6177b8b37bdd0463_Image_22.jpeg,liked,3.470791822,,,,,,,,,,,,,,,,,,,,,,
,,6686247e6177b8b37bdd0463,6685aa9113c938e83b4f1ea0,67230bef617b4f90a6cbc8c7,2024-10-30_23h49.13.165,WTP_SM_Choice,2022.2.1,Win32,144.9275362,,,,,space,0.362,NAN,,NAN,0,6,,0,3,3,3,1,4,Riley,Acc,Participant_Images/6686247e6177b8b37bdd0463/6686247e6177b8b37bdd0463_Images/6686247e6177b8b37bdd0463_Image_8.jpeg,liked,3.820572462,,,,,,,,,,,,,,,,,,,,,,
,,6686247e6177b8b37bdd0463,6685aa9113c938e83b4f1ea0,67230bef617b4f90a6cbc8c7,2024-10-30_23h49.13.165,WTP_SM_Choice,2022.2.1,Win32,144.9275362,,,,,,,,,,,,,,,,,,1,,,,,,space,14.0043,space,9.0018,0.01,2,6.0841,0,0,0,0,1,learn more about my religion in a group,Start a new project,0.01,0.01,4.4,0,,,,
,,6686247e6177b8b37bdd0463,6685aa9113c938e83b4f1ea0,67230bef617b4f90a6cbc8c7,2024-10-30_23h49.13.165,WTP_SM_Choice,2022.2.1,Win32,144.9275362,,,,,,,,,,,,,,,,,,2,,,,,,,,,,0.02,1,2.4958,0,1,1,1,1,Have a study session with my gf,Play video games,0.02,0.01,8.8,0,,,,
,,6686247e6177b8b37bdd0463,6685aa9113c938e83b4f1ea0,67230bef617b4f90a6cbc8c7,2024-10-30_23h49.13.165,WTP_SM_Choice,2022.2.1,Win32,144.9275362,,,,,,,,,,,,,,,,,,3,,,,,,,,,,0.03,1,2.6108,0,2,2,2,1,cook outside,Play league soccer on sundays with my team,0.03,0.01,3.3,1,,,,
,,6686247e6177b8b37bdd0463,6685aa9113c938e83b4f1ea0,67230bef617b4f90a6cbc8c7,2024-10-30_23h49.13.165,WTP_SM_Choice,2022.2.1,Win32,144.9275362,,,,,,,,,,,,,,,,,,4,,,,,,,,,,0.01,2,1.8261,0,3,3,3,1,Watch the sunset,Drink with friends at a party,0.04,0.01,1.1,1,,,,
,,6686247e6177b8b37bdd0463,6685aa9113c938e83b4f1ea0,67230bef617b4f90a6cbc8c7,2024-10-30_23h49.13.165,WTP_SM_Choice,2022.2.1,Win32,144.9275362,,,,,,,,,,,,,,,,,,5,,,,,,,,,,0.01,2,1.1758,0,4,4,4,1,Do exercise,Have a study session with my gf,0.05,0.01,1.1,1,,,,
,,6686247e6177b8b37bdd0463,6685aa9113c938e83b4f1ea0,67230bef617b4f90a6cbc8c7,2024-10-30_23h49.13.165,WTP_SM_Choice,2022.2.1,Win32,144.9275362,,,,,,,NAN,,NAN,0.08,5.92,,0,4,4,4,1,5,Riley,Acc,Participant_Images/6686247e6177b8b37bdd0463/6686247e6177b8b37bdd0463_Images/6686247e6177b8b37bdd0463_Image_23.jpeg,liked,2.455989137,,,,,,,,,,,,,,,,,,,,,,
,,6686247e6177b8b37bdd0463,6685aa9113c938e83b4f1ea0,67230bef617b4f90a6cbc8c7,2024-10-30_23h49.13.165,WTP_SM_Choice,2022.2.1,Win32,144.9275362,,,,,space,1.0917,NAN,,NAN,0.08,5.92,,0,5,5,5,1,6,Riley,Acc,Participant_Images/6686247e6177b8b37bdd0463/6686247e6177b8b37bdd0463_Images/6686247e6177b8b37bdd0463_Image_2.jpeg,liked,3.79605092,,,,,,,,,,,,,,,,,,,,,,
,,6686247e6177b8b37bdd0463,6685aa9113c938e83b4f1ea0,67230bef617b4f90a6cbc8c7,2024-10-30_23h49.13.165,WTP_SM_Choice,2022.2.1,Win32,144.9275362,,,,,space,0.7191,NAN,,NAN,0.08,5.92,,0,6,6,6,1,7,Riley,Acc,Participant_Images/6686247e6177b8b37bdd0463/6686247e6177b8b37bdd0463_Images/6686247e6177b8b37bdd0463_Image_13.jpeg,did not like,3.562416326,,,,,,,,,,,,,,,,,,,,,,
,,6686247e6177b8b37bdd0463,6685aa9113c938e83b4f1ea0,67230bef617b4f90a6cbc8c7,2024-10-30_23h49.13.165,WTP_SM_Choice,2022.2.1,Win32,144.9275362,,,,,space,0.4301,NAN,,NAN,0.08,5.92,,0,7,7,7,1,8,Riley,Acc,Participant_Images/6686247e6177b8b37bdd0463/6686247e6177b8b37bdd0463_Images/6686247e6177b8b37bdd0463_Image_5.jpeg,liked,2.843822497,,,,,,,,,,,,,,,,,,,,,,
,,6686247e6177b8b37bdd0463,6685aa9113c938e83b4f1ea0,67230bef617b4f90a6cbc8c7,2024-10-30_23h49.13.165,WTP_SM_Choice,2022.2.1,Win32,144.9275362,,,,,space,0.3467,NAN,,NAN,0.08,5.92,,0,8,8,8,1,9,Riley,Acc,Participant_Images/6686247e6177b8b37bdd0463/6686247e6177b8b37bdd0463_Images/6686247e6177b8b37bdd0463_Image_4.jpeg,liked,3.546495948,,,,,,,,,,,,,,,,,,,,,,
,,6686247e6177b8b37bdd0463,6685aa9113c938e83b4f1ea0,67230bef617b4f90a6cbc8c7,2024-10-30_23h49.13.165,WTP_SM_Choice,2022.2.1,Win32,144.9275362,,,,,,,,,,,,,,,,,,6,,,,,,space,11.1068,space,3.4623,0.01,1,1.0685,0,0,0,0,1,Watch tv shows,Drink with friends at a party,0.01,0.02,3.3,1,,,,
,,6686247e6177b8b37bdd0463,6685aa9113c938e83b4f1ea0,67230bef617b4f90a6cbc8c7,2024-10-30_23h49.13.165,WTP_SM_Choice,2022.2.1,Win32,144.9275362,,,,,,,,,,,,,,,,,,7,,,,,,,,,,0.02,2,3.7847,0,1,1,1,1,cook outside,Do new activities with people,0.02,0.02,1.1,1,,,,
,,6686247e6177b8b37bdd0463,6685aa9113c938e83b4f1ea0,67230bef617b4f90a6cbc8c7,2024-10-30_23h49.13.165,WTP_SM_Choice,2022.2.1,Win32,144.9275362,,,,,,,,,,,,,,,,,,8,,,,,,,,,,0.02,2,1.4906,0,2,2,2,1,Drink with friends at a party,Play soccer,0.03,0.02,1.1,0,,,,
,,6686247e6177b8b37bdd0463,6685aa9113c938e83b4f1ea0,67230bef617b4f90a6cbc8c7,2024-10-30_23h49.13.165,WTP_SM_Choice,2022.2.1,Win32,144.9275362,,,,,,,,,,,,,,,,,,9,,,,,,,,,,0.02,2,1.24,0,3,3,3,1,Do new activities with people,Watch tv shows,0.04,0.02,4.4,0,,,,
,,6686247e6177b8b37bdd0463,6685aa9113c938e83b4f1ea0,67230bef617b4f90a6cbc8c7,2024-10-30_23h49.13.165,WTP_SM_Choice,2022.2.1,Win32,144.9275362,,,,,,,,,,,,,,,,,,10,,,,,,,,,,0.02,2,1.1576,0,4,4,4,1,Go on a date with significant other,Watch tv shows,0.05,0.02,1.1,0,,,,
,,6686247e6177b8b37bdd0463,6685aa9113c938e83b4f1ea0,67230bef617b4f90a6cbc8c7,2024-10-30_23h49.13.165,WTP_SM_Choice,2022.2.1,Win32,144.9275362,,,,,,,NAN,,NAN,0.17,5.83,,0,9,9,9,1,10,Riley,Acc,Participant_Images/6686247e6177b8b37bdd0463/6686247e6177b8b37bdd0463_Images/6686247e6177b8b37bdd0463_Image_16.jpeg,liked,1.672012706,,,,,,,,,,,,,,,,,,,,,,
,,6686247e6177b8b37bdd0463,6685aa9113c938e83b4f1ea0,67230bef617b4f90a6cbc8c7,2024-10-30_23h49.13.165,WTP_SM_Choice,2022.2.1,Win32,144.9275362,,,,,space,2.7655,NAN,,NAN,0.17,5.83,,0,10,10,10,1,11,Riley,Acc,Participant_Images/6686247e6177b8b37bdd0463/6686247e6177b8b37bdd0463_Images/6686247e6177b8b37bdd0463_Image_3.jpeg,did not like,4.942172136,,,,,,,,,,,,,,,,,,,,,,
,,6686247e6177b8b37bdd0463,6685aa9113c938e83b4f1ea0,67230bef617b4f90a6cbc8c7,2024-10-30_23h49.13.165,WTP_SM_Choice,2022.2.1,Win32,144.9275362,,,,,space,0.7866,NAN,,NAN,0.17,5.83,,0,11,11,11,1,12,Riley,Acc,Participant_Images/6686247e6177b8b37bdd0463/6686247e6177b8b37bdd0463_Images/6686247e6177b8b37bdd0463_Image_25.jpeg,liked,2.50187214,,,,,,,,,,,,,,,,,,,,,,
,,6686247e6177b8b37bdd0463,6685aa9113c938e83b4f1ea0,67230bef617b4f90a6cbc8c7,2024-10-30_23h49.13.165,WTP_SM_Choice,2022.2.1,Win32,144.9275362,,,,,space,1.4584,NAN,,NAN,0.17,5.83,,0,12,12,12,1,13,Riley,Acc,Participant_Images/6686247e6177b8b37bdd0463/6686247e6177b8b37bdd0463_Images/6686247e6177b8b37bdd0463_Image_24.jpeg,did not like,2.071164779,,,,,,,,,,,,,,,,,,,,,,
,,6686247e6177b8b37bdd0463,6685aa9113c938e83b4f1ea0,67230bef617b4f90a6cbc8c7,2024-10-30_23h49.13.165,WTP_SM_Choice,2022.2.1,Win32,144.9275362,,,,,space,0.4144,NAN,,NAN,0.17,5.83,,0,13,13,13,1,14,Riley,Acc,Participant_Images/6686247e6177b8b37bdd0463/6686247e6177b8b37bdd0463_Images/6686247e6177b8b37bdd0463_Image_1.jpeg,liked,5.336503566,,,,,,,,,,,,,,,,,,,,,,
,,6686247e6177b8b37bdd0463,6685aa9113c938e83b4f1ea0,67230bef617b4f90a6cbc8c7,2024-10-30_23h49.13.165,WTP_SM_Choice,2022.2.1,Win32,144.9275362,,,,,,,,,,,,,,,,,,11,,,,,,space,4.7359,space,2.0025,0.01,1,1.1341,0,0,0,0,1,Watch the sunset,Do new activities with people,0.01,0.03,3.3,1,,,,
,,6686247e6177b8b37bdd0463,6685aa9113c938e83b4f1ea0,67230bef617b4f90a6cbc8c7,2024-10-30_23h49.13.165,WTP_SM_Choice,2022.2.1,Win32,144.9275362,,,,,,,,,,,,,,,,,,12,,,,,,,,,,0.02,1,0.9719,0,1,1,1,1,Have a study session with my gf,Watch tv shows,0.02,0.03,4.4,0,,,,
,,6686247e6177b8b37bdd0463,6685aa9113c938e83b4f1ea0,67230bef617b4f90a6cbc8c7,2024-10-30_23h49.13.165,WTP_SM_Choice,2022.2.1,Win32,144.9275362,,,,,,,,,,,,,,,,,,13,,,,,,,,,,0.03,1,1.4775,0,2,2,2,1,Play league soccer on sundays with my team,Buy new items,0.03,0.03,1.1,0,,,,
,,6686247e6177b8b37bdd0463,6685aa9113c938e83b4f1ea0,67230bef617b4f90a6cbc8c7,2024-10-30_23h49.13.165,WTP_SM_Choice,2022.2.1,Win32,144.9275362,,,,,,,,,,,,,,,,,,14,,,,,,,,,,0.03,2,1.1497,0,3,3,3,1,Do a coding project,Watch a movie with my gf on the weekend,0.04,0.03,3.3,1,,,,
,,6686247e6177b8b37bdd0463,6685aa9113c938e83b4f1ea0,67230bef617b4f90a6cbc8c7,2024-10-30_23h49.13.165,WTP_SM_Choice,2022.2.1,Win32,144.9275362,,,,,,,,,,,,,,,,,,15,,,,,,,,,,0.03,2,1.1434,0,4,4,4,1,Watch the sunset,Go to mexico with family in vacations,0.05,0.03,4.4,1,,,,
,,6686247e6177b8b37bdd0463,6685aa9113c938e83b4f1ea0,67230bef617b4f90a6cbc8c7,2024-10-30_23h49.13.165,WTP_SM_Choice,2022.2.1,Win32,144.9275362,,,,,,,NAN,,NAN,0.29,5.71,,0,14,14,14,1,15,Riley,Acc,Participant_Images/6686247e6177b8b37bdd0463/6686247e6177b8b37bdd0463_Images/6686247e6177b8b37bdd0463_Image_12.jpeg,liked,2.642157193,,,,,,,,,,,,,,,,,,,,,,
,,6686247e6177b8b37bdd0463,6685aa9113c938e83b4f1ea0,67230bef617b4f90a6cbc8c7,2024-10-30_23h49.13.165,WTP_SM_Choice,2022.2.1,Win32,144.9275362,,,,,space,2.5674,NAN,,NAN,0.29,5.71,,0,15,15,15,1,16,Riley,Acc,Participant_Images/6686247e6177b8b37bdd0463/6686247e6177b8b37bdd0463_Images/6686247e6177b8b37bdd0463_Image_21.jpeg,liked,4.456234322,,,,,,,,,,,,,,,,,,,,,,
,,6686247e6177b8b37bdd0463,6685aa9113c938e83b4f1ea0,67230bef617b4f90a6cbc8c7,2024-10-30_23h49.13.165,WTP_SM_Choice,2022.2.1,Win32,144.9275362,,,,,space,1.9,NAN,,NAN,0.29,5.71,,0,16,16,16,1,17,Riley,Acc,Participant_Images/6686247e6177b8b37bdd0463/6686247e6177b8b37bdd0463_Images/6686247e6177b8b37bdd0463_Image_7.jpeg,did not like,4.438512181,,,,,,,,,,,,,,,,,,,,,,
,,6686247e6177b8b37bdd0463,6685aa9113c938e83b4f1ea0,67230bef617b4f90a6cbc8c7,2024-10-30_23h49.13.165,WTP_SM_Choice,2022.2.1,Win32,144.9275362,,,,,space,3.2194,NAN,,NAN,0.29,5.71,,0,17,17,17,1,18,Riley,Acc,Participant_Images/6686247e6177b8b37bdd0463/6686247e6177b8b37bdd0463_Images/6686247e6177b8b37bdd0463_Image_20.jpeg,liked,2.682944783,,,,,,,,,,,,,,,,,,,,,,
,,6686247e6177b8b37bdd0463,6685aa9113c938e83b4f1ea0,67230bef617b4f90a6cbc8c7,2024-10-30_23h49.13.165,WTP_SM_Choice,2022.2.1,Win32,144.9275362,,,,,space,3.0253,NAN,,NAN,0.29,5.71,,0,18,18,18,1,19,Riley,Acc,Participant_Images/6686247e6177b8b37bdd0463/6686247e6177b8b37bdd0463_Images/6686247e6177b8b37bdd0463_Image_17.jpeg,did not like,4.51984296,,,,,,,,,,,,,,,,,,,,,,
,,6686247e6177b8b37bdd0463,6685aa9113c938e83b4f1ea0,67230bef617b4f90a6cbc8c7,2024-10-30_23h49.13.165,WTP_SM_Choice,2022.2.1,Win32,144.9275362,,,,,,,,,,,,,,,,,,16,,,,,,space,2.2083,space,0.7788,0.01,1,1.2648,0,0,0,0,1,Do exercise,Watch a movie with my gf on the weekend,0.01,0.04,1.1,1,,,,
,,6686247e6177b8b37bdd0463,6685aa9113c938e83b4f1ea0,67230bef617b4f90a6cbc8c7,2024-10-30_23h49.13.165,WTP_SM_Choice,2022.2.1,Win32,144.9275362,,,,,,,,,,,,,,,,,,17,,,,,,,,,,0.02,1,0.9927,0,1,1,1,1,learn more about my religion in a group,Do a coding project,0.02,0.04,8.8,0,,,,
,,6686247e6177b8b37bdd0463,6685aa9113c938e83b4f1ea0,67230bef617b4f90a6cbc8c7,2024-10-30_23h49.13.165,WTP_SM_Choice,2022.2.1,Win32,144.9275362,,,,,,,,,,,,,,,,,,18,,,,,,,,,,0.03,1,1.7709,0,2,2,2,1,Have a study session with my gf,Start a new project,0.03,0.04,3.3,0,,,,
,,6686247e6177b8b37bdd0463,6685aa9113c938e83b4f1ea0,67230bef617b4f90a6cbc8c7,2024-10-30_23h49.13.165,WTP_SM_Choice,2022.2.1,Win32,144.9275362,,,,,,,,,,,,,,,,,,19,,,,,,,,,,0.04,2,5.2679,0,3,3,3,1,Watch a movie with my gf on the weekend,Start a new project,0.04,0.04,3.3,0,,,,
,,6686247e6177b8b37bdd0463,6685aa9113c938e83b4f1ea0,67230bef617b4f90a6cbc8c7,2024-10-30_23h49.13.165,WTP_SM_Choice,2022.2.1,Win32,144.9275362,,,,,,,,,,,,,,,,,,20,,,,,,,,,,0.04,2,2.7801,0,4,4,4,1,Do a coding project,Go to mexico with family in vacations,0.05,0.04,1.1,1,,,,
,,6686247e6177b8b37bdd0463,6685aa9113c938e83b4f1ea0,67230bef617b4f90a6cbc8c7,2024-10-30_23h49.13.165,WTP_SM_Choice,2022.2.1,Win32,144.9275362,,,,,,,NAN,,NAN,0.43,5.57,,0,19,19,19,1,20,Riley,Acc,Participant_Images/6686247e6177b8b37bdd0463/6686247e6177b8b37bdd0463_Images/6686247e6177b8b37bdd0463_Image_15.jpeg,did not like,3.195382774,,,,,,,,,,,,,,,,,,,,,,
,,6686247e6177b8b37bdd0463,6685aa9113c938e83b4f1ea0,67230bef617b4f90a6cbc8c7,2024-10-30_23h49.13.165,WTP_SM_Choice,2022.2.1,Win32,144.9275362,,,,,space,1.1259,NAN,,NAN,0.43,5.57,,0,20,20,20,1,21,Riley,Acc,Participant_Images/6686247e6177b8b37bdd0463/6686247e6177b8b37bdd0463_Images/6686247e6177b8b37bdd0463_Image_14.jpeg,liked,1.779333479,,,,,,,,,,,,,,,,,,,,,,
,,6686247e6177b8b37bdd0463,6685aa9113c938e83b4f1ea0,67230bef617b4f90a6cbc8c7,2024-10-30_23h49.13.165,WTP_SM_Choice,2022.2.1,Win32,144.9275362,,,,,space,0.6189,NAN,,NAN,0.43,5.57,,0,21,21,21,1,22,Riley,Acc,Participant_Images/6686247e6177b8b37bdd0463/6686247e6177b8b37bdd0463_Images/6686247e6177b8b37bdd0463_Image_18.jpeg,liked,4.312468682,,,,,,,,,,,,,,,,,,,,,,
,,6686247e6177b8b37bdd0463,6685aa9113c938e83b4f1ea0,67230bef617b4f90a6cbc8c7,2024-10-30_23h49.13.165,WTP_SM_Choice,2022.2.1,Win32,144.9275362,,,,,space,0.5105,NAN,,NAN,0.43,5.57,,0,22,22,22,1,23,Riley,Acc,Participant_Images/6686247e6177b8b37bdd0463/6686247e6177b8b37bdd0463_Images/6686247e6177b8b37bdd0463_Image_10.jpeg,liked,4.940433059,,,,,,,,,,,,,,,,,,,,,,
,,6686247e6177b8b37bdd0463,6685aa9113c938e83b4f1ea0,67230bef617b4f90a6cbc8c7,2024-10-30_23h49.13.165,WTP_SM_Choice,2022.2.1,Win32,144.9275362,,,,,space,0.9478,NAN,,NAN,0.43,5.57,,0,23,23,23,1,24,Riley,Acc,Participant_Images/6686247e6177b8b37bdd0463/6686247e6177b8b37bdd0463_Images/6686247e6177b8b37bdd0463_Image_19.jpeg,liked,2.7105123,,,,,,,,,,,,,,,,,,,,,,
,,6686247e6177b8b37bdd0463,6685aa9113c938e83b4f1ea0,67230bef617b4f90a6cbc8c7,2024-10-30_23h49.13.165,WTP_SM_Choice,2022.2.1,Win32,144.9275362,,,,,,,,,,,,,,,,,,21,,,,,,space,1.7849,space,1.2429,0.01,1,1.1665,0,0,0,0,1,Play league soccer on sundays with my team,Watch the sunset,0.01,0.05,8.8,0,,,,
,,6686247e6177b8b37bdd0463,6685aa9113c938e83b4f1ea0,67230bef617b4f90a6cbc8c7,2024-10-30_23h49.13.165,WTP_SM_Choice,2022.2.1,Win32,144.9275362,,,,,,,,,,,,,,,,,,22,,,,,,,,,,0.02,1,1.1472,0,1,1,1,1,Do exercise,learn more about my religion in a group,0.02,0.05,4.4,1,,,,
,,6686247e6177b8b37bdd0463,6685aa9113c938e83b4f1ea0,67230bef617b4f90a6cbc8c7,2024-10-30_23h49.13.165,WTP_SM_Choice,2022.2.1,Win32,144.9275362,,,,,,,,,,,,,,,,,,23,,,,,,,,,,0.03,1,1.4788,0,2,2,2,1,Go to mexico with family in vacations,Do exercise,0.03,0.05,1.1,0,,,,
,,6686247e6177b8b37bdd0463,6685aa9113c938e83b4f1ea0,67230bef617b4f90a6cbc8c7,2024-10-30_23h49.13.165,WTP_SM_Choice,2022.2.1,Win32,144.9275362,,,,,,,,,,,,,,,,,,24,,,,,,,,,,0.04,1,1.5344,0,3,3,3,1,Learn a new skill,Watch a movie with my gf on the weekend,0.04,0.05,4.4,1,,,,
,,6686247e6177b8b37bdd0463,6685aa9113c938e83b4f1ea0,67230bef617b4f90a6cbc8c7,2024-10-30_23h49.13.165,WTP_SM_Choice,2022.2.1,Win32,144.9275362,,,,,,,,,,,,,,,,,,25,,,,,,,,,,0.05,2,1.8094,0,4,4,4,1,Play soccer,learn more about my religion in a group,0.05,0.05,3.3,1,,,,
,,6686247e6177b8b37bdd0463,6685aa9113c938e83b4f1ea0,67230bef617b4f90a6cbc8c7,2024-10-30_23h49.13.165,WTP_SM_Choice,2022.2.1,Win32,144.9275362,,,,,,,5,,4,0.58,5.42,,0,24,24,24,1,25,Riley,Acc,Participant_Images/6686247e6177b8b37bdd0463/6686247e6177b8b37bdd0463_Images/6686247e6177b8b37bdd0463_Image_11.jpeg,did not like,3.602308302,,,,,,,,,,,,,,,,,,,space,0.6359,,
,,6686247e6177b8b37bdd0463,6685aa9113c938e83b4f1ea0,67230bef617b4f90a6cbc8c7,2024-10-30_23h49.13.165,WTP_SM_Choice,2022.2.1,Win32,144.9275362,,,space,10.0873,space,1.2295,NAN,,NAN,0.58,5.42,,0,25,25,25,1,26,Charlie,Acc,Participant_Images/6686247e6177b8b37bdd0463/6686247e6177b8b37bdd0463_Images/6686247e6177b8b37bdd0463_Image_22.jpeg,did not like,4.106391878,,,,,,,,,,,,,,,,,,,,,,
,,6686247e6177b8b37bdd0463,6685aa9113c938e83b4f1ea0,67230bef617b4f90a6cbc8c7,2024-10-30_23h49.13.165,WTP_SM_Choice,2022.2.1,Win32,144.9275362,,,,,space,1.5224,NAN,,NAN,0.58,5.42,,0,26,26,26,1,27,Charlie,Acc,Participant_Images/6686247e6177b8b37bdd0463/6686247e6177b8b37bdd0463_Images/6686247e6177b8b37bdd0463_Image_12.jpeg,liked,3.799433026,,,,,,,,,,,,,,,,,,,,,,
,,6686247e6177b8b37bdd0463,6685aa9113c938e83b4f1ea0,67230bef617b4f90a6cbc8c7,2024-10-30_23h49.13.165,WTP_SM_Choice,2022.2.1,Win32,144.9275362,,,,,space,0.3773,NAN,,NAN,0.58,5.42,,0,27,27,27,1,28,Charlie,Acc,Participant_Images/6686247e6177b8b37bdd0463/6686247e6177b8b37bdd0463_Images/6686247e6177b8b37bdd0463_Image_5.jpeg,did not like,5.246980764,,,,,,,,,,,,,,,,,,,,,,
,,6686247e6177b8b37bdd0463,6685aa9113c938e83b4f1ea0,67230bef617b4f90a6cbc8c7,2024-10-30_23h49.13.165,WTP_SM_Choice,2022.2.1,Win32,144.9275362,,,,,space,1.6948,NAN,,NAN,0.58,5.42,,0,28,28,28,1,29,Charlie,Acc,Participant_Images/6686247e6177b8b37bdd0463/6686247e6177b8b37bdd0463_Images/6686247e6177b8b37bdd0463_Image_23.jpeg,did not like,3.30081769,,,,,,,,,,,,,,,,,,,,,,
,,6686247e6177b8b37bdd0463,6685aa9113c938e83b4f1ea0,67230bef617b4f90a6cbc8c7,2024-10-30_23h49.13.165,WTP_SM_Choice,2022.2.1,Win32,144.9275362,,,,,,,,,,,,,,,,,,26,,,,,,space,0.6099,space,1.9216,0.01,1,2.6469,0,0,0,0,1,Learn a new skill,Have video game night with friends,0.01,0.01,4.4,1,,,,
,,6686247e6177b8b37bdd0463,6685aa9113c938e83b4f1ea0,67230bef617b4f90a6cbc8c7,2024-10-30_23h49.13.165,WTP_SM_Choice,2022.2.1,Win32,144.9275362,,,,,,,,,,,,,,,,,,27,,,,,,,,,,0.01,2,1.0151,0,1,1,1,1,Have video game night with friends,Watch the sunset,0.02,0.01,3.3,0,,,,
,,6686247e6177b8b37bdd0463,6685aa9113c938e83b4f1ea0,67230bef617b4f90a6cbc8c7,2024-10-30_23h49.13.165,WTP_SM_Choice,2022.2.1,Win32,144.9275362,,,,,,,,,,,,,,,,,,28,,,,,,,,,,0.01,2,1.0033,0,2,2,2,1,Do a coding project,Have dinner on sunday nights with family,0.03,0.01,3.3,1,,,,
,,6686247e6177b8b37bdd0463,6685aa9113c938e83b4f1ea0,67230bef617b4f90a6cbc8c7,2024-10-30_23h49.13.165,WTP_SM_Choice,2022.2.1,Win32,144.9275362,,,,,,,,,,,,,,,,,,29,,,,,,,,,,0.01,2,0.637,0,3,3,3,1,Play league soccer on sundays with my team,Learn a new skill,0.04,0.01,4.4,0,,,,
,,6686247e6177b8b37bdd0463,6685aa9113c938e83b4f1ea0,67230bef617b4f90a6cbc8c7,2024-10-30_23h49.13.165,WTP_SM_Choice,2022.2.1,Win32,144.9275362,,,,,,,,,,,,,,,,,,30,,,,,,,,,,0.01,2,0.6707,0,4,4,4,1,Play soccer,Go on a date with significant other,0.05,0.01,8.8,1,,,,
,,6686247e6177b8b37bdd0463,6685aa9113c938e83b4f1ea0,67230bef617b4f90a6cbc8c7,2024-10-30_23h49.13.165,WTP_SM_Choice,2022.2.1,Win32,144.9275362,,,,,,,NAN,,NAN,0.63,5.37,,0,29,29,29,1,30,Charlie,Acc,Participant_Images/6686247e6177b8b37bdd0463/6686247e6177b8b37bdd0463_Images/6686247e6177b8b37bdd0463_Image_15.jpeg,liked,1.661473164,,,,,,,,,,,,,,,,,,,,,,
,,6686247e6177b8b37bdd0463,6685aa9113c938e83b4f1ea0,67230bef617b4f90a6cbc8c7,2024-10-30_23h49.13.165,WTP_SM_Choice,2022.2.1,Win32,144.9275362,,,,,space,4.8312,NAN,,NAN,0.63,5.37,,0,30,30,30,1,31,Charlie,Acc,Participant_Images/6686247e6177b8b37bdd0463/6686247e6177b8b37bdd0463_Images/6686247e6177b8b37bdd0463_Image_13.jpeg,liked,3.613205605,,,,,,,,,,,,,,,,,,,,,,
,,6686247e6177b8b37bdd0463,6685aa9113c938e83b4f1ea0,67230bef617b4f90a6cbc8c7,2024-10-30_23h49.13.165,WTP_SM_Choice,2022.2.1,Win32,144.9275362,,,,,space,1.3979,NAN,,NAN,0.63,5.37,,0,31,31,31,1,32,Charlie,Acc,Participant_Images/6686247e6177b8b37bdd0463/6686247e6177b8b37bdd0463_Images/6686247e6177b8b37bdd0463_Image_8.jpeg,liked,4.988446431,,,,,,,,,,,,,,,,,,,,,,
,,6686247e6177b8b37bdd0463,6685aa9113c938e83b4f1ea0,67230bef617b4f90a6cbc8c7,2024-10-30_23h49.13.165,WTP_SM_Choice,2022.2.1,Win32,144.9275362,,,,,space,6.3869,NAN,,NAN,0.63,5.37,,0,32,32,32,1,33,Charlie,Acc,Participant_Images/6686247e6177b8b37bdd0463/6686247e6177b8b37bdd0463_Images/6686247e6177b8b37bdd0463_Image_2.jpeg,liked,3.470791822,,,,,,,,,,,,,,,,,,,,,,
,,6686247e6177b8b37bdd0463,6685aa9113c938e83b4f1ea0,67230bef617b4f90a6cbc8c7,2024-10-30_23h49.13.165,WTP_SM_Choice,2022.2.1,Win32,144.9275362,,,,,space,3.4938,NAN,,NAN,0.63,5.37,,0,33,33,33,1,34,Charlie,Acc,Participant_Images/6686247e6177b8b37bdd0463/6686247e6177b8b37bdd0463_Images/6686247e6177b8b37bdd0463_Image_3.jpeg,liked,3.820572462,,,,,,,,,,,,,,,,,,,,,,
,,6686247e6177b8b37bdd0463,6685aa9113c938e83b4f1ea0,67230bef617b4f90a6cbc8c7,2024-10-30_23h49.13.165,WTP_SM_Choice,2022.2.1,Win32,144.9275362,,,,,,,,,,,,,,,,,,31,,,,,,space,1.9731,space,0.8064,0.01,1,1.1713,0,0,0,0,1,Have video game night with friends,Watch tv shows,0.01,0.02,8.8,0,,,,
,,6686247e6177b8b37bdd0463,6685aa9113c938e83b4f1ea0,67230bef617b4f90a6cbc8c7,2024-10-30_23h49.13.165,WTP_SM_Choice,2022.2.1,Win32,144.9275362,,,,,,,,,,,,,,,,,,32,,,,,,,,,,0.02,1,2.6102,0,1,1,1,1,Have dinner on sunday nights with family,Play video games,0.02,0.02,1.1,0,,,,
,,6686247e6177b8b37bdd0463,6685aa9113c938e83b4f1ea0,67230bef617b4f90a6cbc8c7,2024-10-30_23h49.13.165,WTP_SM_Choice,2022.2.1,Win32,144.9275362,,,,,,,,,,,,,,,,,,33,,,,,,,,,,0.02,2,7.7605,0,2,2,2,1,Have video game night with friends,Buy new items,0.03,0.02,4.4,0,,,,
,,6686247e6177b8b37bdd0463,6685aa9113c938e83b4f1ea0,67230bef617b4f90a6cbc8c7,2024-10-30_23h49.13.165,WTP_SM_Choice,2022.2.1,Win32,144.9275362,,,,,,,,,,,,,,,,,,34,,,,,,,,,,0.02,2,2.7925,0,3,3,3,1,Watch a movie with my gf on the weekend,cook outside,0.04,0.02,3.3,0,,,,
,,6686247e6177b8b37bdd0463,6685aa9113c938e83b4f1ea0,67230bef617b4f90a6cbc8c7,2024-10-30_23h49.13.165,WTP_SM_Choice,2022.2.1,Win32,144.9275362,,,,,,,,,,,,,,,,,,35,,,,,,,,,,0.02,2,4.2426,0,4,4,4,1,Have a study session with my gf,Play soccer,0.05,0.02,1.1,0,,,,
,,6686247e6177b8b37bdd0463,6685aa9113c938e83b4f1ea0,67230bef617b4f90a6cbc8c7,2024-10-30_23h49.13.165,WTP_SM_Choice,2022.2.1,Win32,144.9275362,,,,,,,NAN,,NAN,0.72,5.28,,0,34,34,34,1,35,Charlie,Acc,Participant_Images/6686247e6177b8b37bdd0463/6686247e6177b8b37bdd0463_Images/6686247e6177b8b37bdd0463_Image_7.jpeg,did not like,2.455989137,,,,,,,,,,,,,,,,,,,,,,
,,6686247e6177b8b37bdd0463,6685aa9113c938e83b4f1ea0,67230bef617b4f90a6cbc8c7,2024-10-30_23h49.13.165,WTP_SM_Choice,2022.2.1,Win32,144.9275362,,,,,space,4.2707,NAN,,NAN,0.72,5.28,,0,35,35,35,1,36,Charlie,Acc,Participant_Images/6686247e6177b8b37bdd0463/6686247e6177b8b37bdd0463_Images/6686247e6177b8b37bdd0463_Image_17.jpeg,liked,3.79605092,,,,,,,,,,,,,,,,,,,,,,
,,6686247e6177b8b37bdd0463,6685aa9113c938e83b4f1ea0,67230bef617b4f90a6cbc8c7,2024-10-30_23h49.13.165,WTP_SM_Choice,2022.2.1,Win32,144.9275362,,,,,space,2.7527,NAN,,NAN,0.72,5.28,,0,36,36,36,1,37,Charlie,Acc,Participant_Images/6686247e6177b8b37bdd0463/6686247e6177b8b37bdd0463_Images/6686247e6177b8b37bdd0463_Image_25.jpeg,did not like,3.562416326,,,,,,,,,,,,,,,,,,,,,,
,,6686247e6177b8b37bdd0463,6685aa9113c938e83b4f1ea0,67230bef617b4f90a6cbc8c7,2024-10-30_23h49.13.165,WTP_SM_Choice,2022.2.1,Win32,144.9275362,,,,,space,4.2181,NAN,,NAN,0.72,5.28,,0,37,37,37,1,38,Charlie,Acc,Participant_Images/6686247e6177b8b37bdd0463/6686247e6177b8b37bdd0463_Images/6686247e6177b8b37bdd0463_Image_19.jpeg,did not like,2.843822497,,,,,,,,,,,,,,,,,,,,,,
,,6686247e6177b8b37bdd0463,6685aa9113c938e83b4f1ea0,67230bef617b4f90a6cbc8c7,2024-10-30_23h49.13.165,WTP_SM_Choice,2022.2.1,Win32,144.9275362,,,,,space,0.3563,NAN,,NAN,0.72,5.28,,0,38,38,38,1,39,Charlie,Acc,Participant_Images/6686247e6177b8b37bdd0463/6686247e6177b8b37bdd0463_Images/6686247e6177b8b37bdd0463_Image_20.jpeg,liked,3.546495948,,,,,,,,,,,,,,,,,,,,,,
,,6686247e6177b8b37bdd0463,6685aa9113c938e83b4f1ea0,67230bef617b4f90a6cbc8c7,2024-10-30_23h49.13.165,WTP_SM_Choice,2022.2.1,Win32,144.9275362,,,,,,,,,,,,,,,,,,36,,,,,,space,2.9377,space,1.2524,0.01,1,0.9983,0,0,0,0,1,Have dinner on sunday nights with family,Play soccer,0.01,0.03,3.3,0,,,,
,,6686247e6177b8b37bdd0463,6685aa9113c938e83b4f1ea0,67230bef617b4f90a6cbc8c7,2024-10-30_23h49.13.165,WTP_SM_Choice,2022.2.1,Win32,144.9275362,,,,,,,,,,,,,,,,,,37,,,,,,,,,,0.02,1,1.135,0,1,1,1,1,Do a coding project,Play league soccer on sundays with my team,0.02,0.03,1.1,1,,,,
,,6686247e6177b8b37bdd0463,6685aa9113c938e83b4f1ea0,67230bef617b4f90a6cbc8c7,2024-10-30_23h49.13.165,WTP_SM_Choice,2022.2.1,Win32,144.9275362,,,,,,,,,,,,,,,,,,38,,,,,,,,,,0.03,1,2.1464,0,2,2,2,1,Start a new project,Go to mexico with family in vacations,0.03,0.03,1.1,1,,,,
,,6686247e6177b8b37bdd0463,6685aa9113c938e83b4f1ea0,67230bef617b4f90a6cbc8c7,2024-10-30_23h49.13.165,WTP_SM_Choice,2022.2.1,Win32,144.9275362,,,,,,,,,,,,,,,,,,39,,,,,,,,,,0.03,2,0.7223,0,3,3,3,1,Play soccer,Play league soccer on sundays with my team,0.04,0.03,3.3,1,,,,
,,6686247e6177b8b37bdd0463,6685aa9113c938e83b4f1ea0,67230bef617b4f90a6cbc8c7,2024-10-30_23h49.13.165,WTP_SM_Choice,2022.2.1,Win32,144.9275362,,,,,,,,,,,,,,,,,,40,,,,,,,,,,0.03,2,2.1003,0,4,4,4,1,Buy new items,Go on a date with significant other,0.05,0.03,4.4,1,,,,
,,6686247e6177b8b37bdd0463,6685aa9113c938e83b4f1ea0,67230bef617b4f90a6cbc8c7,2024-10-30_23h49.13.165,WTP_SM_Choice,2022.2.1,Win32,144.9275362,,,,,,,NAN,,NAN,0.84,5.16,,0,39,39,39,1,40,Charlie,Acc,Participant_Images/6686247e6177b8b37bdd0463/6686247e6177b8b37bdd0463_Images/6686247e6177b8b37bdd0463_Image_10.jpeg,liked,1.672012706,,,,,,,,,,,,,,,,,,,,,,
,,6686247e6177b8b37bdd0463,6685aa9113c938e83b4f1ea0,67230bef617b4f90a6cbc8c7,2024-10-30_23h49.13.165,WTP_SM_Choice,2022.2.1,Win32,144.9275362,,,,,space,1.5977,NAN,,NAN,0.84,5.16,,0,40,40,40,1,41,Charlie,Acc,Participant_Images/6686247e6177b8b37bdd0463/6686247e6177b8b37bdd0463_Images/6686247e6177b8b37bdd0463_Image_21.jpeg,liked,4.942172136,,,,,,,,,,,,,,,,,,,,,,
,,6686247e6177b8b37bdd0463,6685aa9113c938e83b4f1ea0,67230bef617b4f90a6cbc8c7,2024-10-30_23h49.13.165,WTP_SM_Choice,2022.2.1,Win32,144.9275362,,,,,space,1.5323,NAN,,NAN,0.84,5.16,,0,41,41,41,1,42,Charlie,Acc,Participant_Images/6686247e6177b8b37bdd0463/6686247e6177b8b37bdd0463_Images/6686247e6177b8b37bdd0463_Image_6.jpeg,did not like,2.50187214,,,,,,,,,,,,,,,,,,,,,,
,,6686247e6177b8b37bdd0463,6685aa9113c938e83b4f1ea0,67230bef617b4f90a6cbc8c7,2024-10-30_23h49.13.165,WTP_SM_Choice,2022.2.1,Win32,144.9275362,,,,,space,2.6944,NAN,,NAN,0.84,5.16,,0,42,42,42,1,43,Charlie,Acc,Participant_Images/6686247e6177b8b37bdd0463/6686247e6177b8b37bdd0463_Images/6686247e6177b8b37bdd0463_Image_16.jpeg,liked,2.071164779,,,,,,,,,,,,,,,,,,,,,,
,,6686247e6177b8b37bdd0463,6685aa9113c938e83b4f1ea0,67230bef617b4f90a6cbc8c7,2024-10-30_23h49.13.165,WTP_SM_Choice,2022.2.1,Win32,144.9275362,,,,,space,2.59,NAN,,NAN,0.84,5.16,,0,43,43,43,1,44,Charlie,Acc,Participant_Images/6686247e6177b8b37bdd0463/6686247e6177b8b37bdd0463_Images/6686247e6177b8b37bdd0463_Image_4.jpeg,liked,5.336503566,,,,,,,,,,,,,,,,,,,,,,
,,6686247e6177b8b37bdd0463,6685aa9113c938e83b4f1ea0,67230bef617b4f90a6cbc8c7,2024-10-30_23h49.13.165,WTP_SM_Choice,2022.2.1,Win32,144.9275362,,,,,,,,,,,,,,,,,,41,,,,,,space,1.095,space,0.4889,0.01,1,0.6636,0,0,0,0,1,Go to mexico with family in vacations,Learn a new skill,0.01,0.04,1.1,0,,,,
,,6686247e6177b8b37bdd0463,6685aa9113c938e83b4f1ea0,67230bef617b4f90a6cbc8c7,2024-10-30_23h49.13.165,WTP_SM_Choice,2022.2.1,Win32,144.9275362,,,,,,,,,,,,,,,,,,42,,,,,,,,,,0.02,1,1.1499,0,1,1,1,1,cook outside,Have a study session with my gf,0.02,0.04,3.3,1,,,,
,,6686247e6177b8b37bdd0463,6685aa9113c938e83b4f1ea0,67230bef617b4f90a6cbc8c7,2024-10-30_23h49.13.165,WTP_SM_Choice,2022.2.1,Win32,144.9275362,,,,,,,,,,,,,,,,,,43,,,,,,,,,,0.03,1,2.8354,0,2,2,2,1,Buy new items,Watch a movie with my gf on the weekend,0.03,0.04,1.1,1,,,,
,,6686247e6177b8b37bdd0463,6685aa9113c938e83b4f1ea0,67230bef617b4f90a6cbc8c7,2024-10-30_23h49.13.165,WTP_SM_Choice,2022.2.1,Win32,144.9275362,,,,,,,,,,,,,,,,,,44,,,,,,,,,,0.04,1,2.3261,0,3,3,3,1,Play soccer,Have video game night with friends,0.04,0.04,1.1,1,,,,
,,6686247e6177b8b37bdd0463,6685aa9113c938e83b4f1ea0,67230bef617b4f90a6cbc8c7,2024-10-30_23h49.13.165,WTP_SM_Choice,2022.2.1,Win32,144.9275362,,,,,,,,,,,,,,,,,,45,,,,,,,,,,0.04,2,1.1502,0,4,4,4,1,Learn a new skill,Have a study session with my gf,0.05,0.04,4.4,1,,,,
,,6686247e6177b8b37bdd0463,6685aa9113c938e83b4f1ea0,67230bef617b4f90a6cbc8c7,2024-10-30_23h49.13.165,WTP_SM_Choice,2022.2.1,Win32,144.9275362,,,,,,,NAN,,NAN,0.98,5.02,,0,44,44,44,1,45,Charlie,Acc,Participant_Images/6686247e6177b8b37bdd0463/6686247e6177b8b37bdd0463_Images/6686247e6177b8b37bdd0463_Image_1.jpeg,liked,2.642157193,,,,,,,,,,,,,,,,,,,,,,
,,6686247e6177b8b37bdd0463,6685aa9113c938e83b4f1ea0,67230bef617b4f90a6cbc8c7,2024-10-30_23h49.13.165,WTP_SM_Choice,2022.2.1,Win32,144.9275362,,,,,space,1.2044,NAN,,NAN,0.98,5.02,,0,45,45,45,1,46,Charlie,Acc,Participant_Images/6686247e6177b8b37bdd0463/6686247e6177b8b37bdd0463_Images/6686247e6177b8b37bdd0463_Image_14.jpeg,liked,4.456234322,,,,,,,,,,,,,,,,,,,,,,
,,6686247e6177b8b37bdd0463,6685aa9113c938e83b4f1ea0,67230bef617b4f90a6cbc8c7,2024-10-30_23h49.13.165,WTP_SM_Choice,2022.2.1,Win32,144.9275362,,,,,space,1.5419,NAN,,NAN,0.98,5.02,,0,46,46,46,1,47,Charlie,Acc,Participant_Images/6686247e6177b8b37bdd0463/6686247e6177b8b37bdd0463_Images/6686247e6177b8b37bdd0463_Image_9.jpeg,liked,4.438512181,,,,,,,,,,,,,,,,,,,,,,
,,6686247e6177b8b37bdd0463,6685aa9113c938e83b4f1ea0,67230bef617b4f90a6cbc8c7,2024-10-30_23h49.13.165,WTP_SM_Choice,2022.2.1,Win32,144.9275362,,,,,space,0.4263,NAN,,NAN,0.98,5.02,,0,47,47,47,1,48,Charlie,Acc,Participant_Images/6686247e6177b8b37bdd0463/6686247e6177b8b37bdd0463_Images/6686247e6177b8b37bdd0463_Image_24.jpeg,liked,2.682944783,,,,,,,,,,,,,,,,,,,,,,
,,6686247e6177b8b37bdd0463,6685aa9113c938e83b4f1ea0,67230bef617b4f90a6cbc8c7,2024-10-30_23h49.13.165,WTP_SM_Choice,2022.2.1,Win32,144.9275362,,,,,space,2.0998,NAN,,NAN,0.98,5.02,,0,48,48,48,1,49,Charlie,Acc,Participant_Images/6686247e6177b8b37bdd0463/6686247e6177b8b37bdd0463_Images/6686247e6177b8b37bdd0463_Image_18.jpeg,liked,4.51984296,,,,,,,,,,,,,,,,,,,,,,
,,6686247e6177b8b37bdd0463,6685aa9113c938e83b4f1ea0,67230bef617b4f90a6cbc8c7,2024-10-30_23h49.13.165,WTP_SM_Choice,2022.2.1,Win32,144.9275362,,,,,,,,,,,,,,,,,,46,,,,,,space,5.1804,space,0.502,0.01,1,0.7817,0,0,0,0,1,Start a new project,Have video game night with friends,0.01,0.05,8.8,1,,,,
,,6686247e6177b8b37bdd0463,6685aa9113c938e83b4f1ea0,67230bef617b4f90a6cbc8c7,2024-10-30_23h49.13.165,WTP_SM_Choice,2022.2.1,Win32,144.9275362,,,,,,,,,,,,,,,,,,47,,,,,,,,,,0.02,1,1.2304,0,1,1,1,1,Learn a new skill,learn more about my religion in a group,0.02,0.05,1.1,1,,,,
,,6686247e6177b8b37bdd0463,6685aa9113c938e83b4f1ea0,67230bef617b4f90a6cbc8c7,2024-10-30_23h49.13.165,WTP_SM_Choice,2022.2.1,Win32,144.9275362,,,,,,,,,,,,,,,,,,48,,,,,,,,,,0.03,1,1.9956,0,2,2,2,1,Do a coding project,Have a study session with my gf,0.03,0.05,4.4,1,,,,
,,6686247e6177b8b37bdd0463,6685aa9113c938e83b4f1ea0,67230bef617b4f90a6cbc8c7,2024-10-30_23h49.13.165,WTP_SM_Choice,2022.2.1,Win32,144.9275362,,,,,,,,,,,,,,,,,,49,,,,,,,,,,0.04,1,1.523,0,3,3,3,1,Drink with friends at a party,Start a new project,0.04,0.05,3.3,0,,,,
,,6686247e6177b8b37bdd0463,6685aa9113c938e83b4f1ea0,67230bef617b4f90a6cbc8c7,2024-10-30_23h49.13.165,WTP_SM_Choice,2022.2.1,Win32,144.9275362,,,,,,,,,,,,,,,,,,50,,,,,,,,,,0.05,2,1.4401,0,4,4,4,1,Play video games,Play league soccer on sundays with my team,0.05,0.05,1.1,1,,,,
,,6686247e6177b8b37bdd0463,6685aa9113c938e83b4f1ea0,67230bef617b4f90a6cbc8c7,2024-10-30_23h49.13.165,WTP_SM_Choice,2022.2.1,Win32,144.9275362,,,,,,,4,,3,1.13,4.87,,0,49,49,49,1,50,Charlie,Acc,Participant_Images/6686247e6177b8b37bdd0463/6686247e6177b8b37bdd0463_Images/6686247e6177b8b37bdd0463_Image_11.jpeg,liked,3.195382774,,,,,,,,,,,,,,,,,,,space,3.0558,,
,,6686247e6177b8b37bdd0463,6685aa9113c938e83b4f1ea0,67230bef617b4f90a6cbc8c7,2024-10-30_23h49.13.165,WTP_SM_Choice,2022.2.1,Win32,144.9275362,,,space,9.5348,space,0.8491,NAN,,NAN,1.13,4.87,,0,50,50,50,1,51,Alex,Rej,Participant_Images/6686247e6177b8b37bdd0463/6686247e6177b8b37bdd0463_Images/6686247e6177b8b37bdd0463_Image_16.jpeg,did not like,1.779333479,,,,,,,,,,,,,,,,,,,,,,
,,6686247e6177b8b37bdd0463,6685aa9113c938e83b4f1ea0,67230bef617b4f90a6cbc8c7,2024-10-30_23h49.13.165,WTP_SM_Choice,2022.2.1,Win32,144.9275362,,,,,space,3.0394,NAN,,NAN,1.13,4.87,,0,51,51,51,1,52,Alex,Rej,Participant_Images/6686247e6177b8b37bdd0463/6686247e6177b8b37bdd0463_Images/6686247e6177b8b37bdd0463_Image_9.jpeg,did not like,4.312468682,,,,,,,,,,,,,,,,,,,,,,
,,6686247e6177b8b37bdd0463,6685aa9113c938e83b4f1ea0,67230bef617b4f90a6cbc8c7,2024-10-30_23h49.13.165,WTP_SM_Choice,2022.2.1,Win32,144.9275362,,,,,space,0.7225,NAN,,NAN,1.13,4.87,,0,52,52,52,1,53,Alex,Rej,Participant_Images/6686247e6177b8b37bdd0463/6686247e6177b8b37bdd0463_Images/6686247e6177b8b37bdd0463_Image_14.jpeg,did not like,4.940433059,,,,,,,,,,,,,,,,,,,,,,
,,6686247e6177b8b37bdd0463,6685aa9113c938e83b4f1ea0,67230bef617b4f90a6cbc8c7,2024-10-30_23h49.13.165,WTP_SM_Choice,2022.2.1,Win32,144.9275362,,,,,space,2.9983,NAN,,NAN,1.13,4.87,,0,53,53,53,1,54,Alex,Rej,Participant_Images/6686247e6177b8b37bdd0463/6686247e6177b8b37bdd0463_Images/6686247e6177b8b37bdd0463_Image_20.jpeg,did not like,2.7105123,,,,,,,,,,,,,,,,,,,,,,
,,6686247e6177b8b37bdd0463,6685aa9113c938e83b4f1ea0,67230bef617b4f90a6cbc8c7,2024-10-30_23h49.13.165,WTP_SM_Choice,2022.2.1,Win32,144.9275362,,,,,,,,,,,,,,,,,,51,,,,,,space,0.892,space,0.8364,0.01,1,1.4874,0,0,0,0,1,Go on a date with significant other,Do a coding project,0.01,0.01,1.1,0,,,,
,,6686247e6177b8b37bdd0463,6685aa9113c938e83b4f1ea0,67230bef617b4f90a6cbc8c7,2024-10-30_23h49.13.165,WTP_SM_Choice,2022.2.1,Win32,144.9275362,,,,,,,,,,,,,,,,,,52,,,,,,,,,,0.01,2,2.7364,0,1,1,1,1,Do new activities with people,Do a coding project,0.02,0.01,3.3,0,,,,
,,6686247e6177b8b37bdd0463,6685aa9113c938e83b4f1ea0,67230bef617b4f90a6cbc8c7,2024-10-30_23h49.13.165,WTP_SM_Choice,2022.2.1,Win32,144.9275362,,,,,,,,,,,,,,,,,,53,,,,,,,,,,0.01,2,1.3,0,2,2,2,1,Go to mexico with family in vacations,Play soccer,0.03,0.01,1.1,0,,,,
,,6686247e6177b8b37bdd0463,6685aa9113c938e83b4f1ea0,67230bef617b4f90a6cbc8c7,2024-10-30_23h49.13.165,WTP_SM_Choice,2022.2.1,Win32,144.9275362,,,,,,,,,,,,,,,,,,54,,,,,,,,,,0.01,2,4.3194,0,3,3,3,1,Have video game night with friends,Do exercise,0.04,0.01,4.4,0,,,,
,,6686247e6177b8b37bdd0463,6685aa9113c938e83b4f1ea0,67230bef617b4f90a6cbc8c7,2024-10-30_23h49.13.165,WTP_SM_Choice,2022.2.1,Win32,144.9275362,,,,,,,,,,,,,,,,,,55,,,,,,,,,,0.01,2,4.8122,0,4,4,4,1,Watch the sunset,Have a study session with my gf,0.05,0.01,1.1,1,,,,
,,6686247e6177b8b37bdd0463,6685aa9113c938e83b4f1ea0,67230bef617b4f90a6cbc8c7,2024-10-30_23h49.13.165,WTP_SM_Choice,2022.2.1,Win32,144.9275362,,,,,,,NAN,,NAN,1.18,4.82,,0,54,54,54,1,55,Alex,Rej,Participant_Images/6686247e6177b8b37bdd0463/6686247e6177b8b37bdd0463_Images/6686247e6177b8b37bdd0463_Image_1.jpeg,did not like,3.602308302,,,,,,,,,,,,,,,,,,,,,,
,,6686247e6177b8b37bdd0463,6685aa9113c938e83b4f1ea0,67230bef617b4f90a6cbc8c7,2024-10-30_23h49.13.165,WTP_SM_Choice,2022.2.1,Win32,144.9275362,,,,,space,3.1886,NAN,,NAN,1.18,4.82,,0,55,55,55,1,56,Alex,Rej,Participant_Images/6686247e6177b8b37bdd0463/6686247e6177b8b37bdd0463_Images/6686247e6177b8b37bdd0463_Image_3.jpeg,liked,4.106391878,,,,,,,,,,,,,,,,,,,,,,
,,6686247e6177b8b37bdd0463,6685aa9113c938e83b4f1ea0,67230bef617b4f90a6cbc8c7,2024-10-30_23h49.13.165,WTP_SM_Choice,2022.2.1,Win32,144.9275362,,,,,space,2.3679,NAN,,NAN,1.18,4.82,,0,56,56,56,1,57,Alex,Rej,Participant_Images/6686247e6177b8b37bdd0463/6686247e6177b8b37bdd0463_Images/6686247e6177b8b37bdd0463_Image_10.jpeg,liked,3.799433026,,,,,,,,,,,,,,,,,,,,,,
,,6686247e6177b8b37bdd0463,6685aa9113c938e83b4f1ea0,67230bef617b4f90a6cbc8c7,2024-10-30_23h49.13.165,WTP_SM_Choice,2022.2.1,Win32,144.9275362,,,,,space,4.9027,NAN,,NAN,1.18,4.82,,0,57,57,57,1,58,Alex,Rej,Participant_Images/6686247e6177b8b37bdd0463/6686247e6177b8b37bdd0463_Images/6686247e6177b8b37bdd0463_Image_12.jpeg,did not like,5.246980764,,,,,,,,,,,,,,,,,,,,,,
,,6686247e6177b8b37bdd0463,6685aa9113c938e83b4f1ea0,67230bef617b4f90a6cbc8c7,2024-10-30_23h49.13.165,WTP_SM_Choice,2022.2.1,Win32,144.9275362,,,,,space,2.0579,NAN,,NAN,1.18,4.82,,0,58,58,58,1,59,Alex,Rej,Participant_Images/6686247e6177b8b37bdd0463/6686247e6177b8b37bdd0463_Images/6686247e6177b8b37bdd0463_Image_6.jpeg,did not like,3.30081769,,,,,,,,,,,,,,,,,,,,,,
,,6686247e6177b8b37bdd0463,6685aa9113c938e83b4f1ea0,67230bef617b4f90a6cbc8c7,2024-10-30_23h49.13.165,WTP_SM_Choice,2022.2.1,Win32,144.9275362,,,,,,,,,,,,,,,,,,56,,,,,,space,1.0854,space,0.4962,0.01,1,1.3974,0,0,0,0,1,Have dinner on sunday nights with family,Do exercise,0.01,0.02,8.8,0,,,,
,,6686247e6177b8b37bdd0463,6685aa9113c938e83b4f1ea0,67230bef617b4f90a6cbc8c7,2024-10-30_23h49.13.165,WTP_SM_Choice,2022.2.1,Win32,144.9275362,,,,,,,,,,,,,,,,,,57,,,,,,,,,,0.02,1,0.9635,0,1,1,1,1,Have dinner on sunday nights with family,Watch the sunset,0.02,0.02,4.4,0,,,,
,,6686247e6177b8b37bdd0463,6685aa9113c938e83b4f1ea0,67230bef617b4f90a6cbc8c7,2024-10-30_23h49.13.165,WTP_SM_Choice,2022.2.1,Win32,144.9275362,,,,,,,,,,,,,,,,,,58,,,,,,,,,,0.02,2,1.4803,0,2,2,2,1,Have dinner on sunday nights with family,Start a new project,0.03,0.02,4.4,0,,,,
,,6686247e6177b8b37bdd0463,6685aa9113c938e83b4f1ea0,67230bef617b4f90a6cbc8c7,2024-10-30_23h49.13.165,WTP_SM_Choice,2022.2.1,Win32,144.9275362,,,,,,,,,,,,,,,,,,59,,,,,,,,,,0.02,2,2.8192,0,3,3,3,1,Start a new project,Go on a date with significant other,0.04,0.02,4.4,1,,,,
,,6686247e6177b8b37bdd0463,6685aa9113c938e83b4f1ea0,67230bef617b4f90a6cbc8c7,2024-10-30_23h49.13.165,WTP_SM_Choice,2022.2.1,Win32,144.9275362,,,,,,,,,,,,,,,,,,60,,,,,,,,,,0.02,2,4.2407,0,4,4,4,1,Have video game night with friends,cook outside,0.05,0.02,1.1,0,,,,
,,6686247e6177b8b37bdd0463,6685aa9113c938e83b4f1ea0,67230bef617b4f90a6cbc8c7,2024-10-30_23h49.13.165,WTP_SM_Choice,2022.2.1,Win32,144.9275362,,,,,,,NAN,,NAN,1.27,4.73,,0,59,59,59,1,60,Alex,Rej,Participant_Images/6686247e6177b8b37bdd0463/6686247e6177b8b37bdd0463_Images/6686247e6177b8b37bdd0463_Image_25.jpeg,did not like,1.661473164,,,,,,,,,,,,,,,,,,,,,,
,,6686247e6177b8b37bdd0463,6685aa9113c938e83b4f1ea0,67230bef617b4f90a6cbc8c7,2024-10-30_23h49.13.165,WTP_SM_Choice,2022.2.1,Win32,144.9275362,,,,,space,3.5415,NAN,,NAN,1.27,4.73,,0,60,60,60,1,61,Alex,Rej,Participant_Images/6686247e6177b8b37bdd0463/6686247e6177b8b37bdd0463_Images/6686247e6177b8b37bdd0463_Image_5.jpeg,did not like,3.613205605,,,,,,,,,,,,,,,,,,,,,,
,,6686247e6177b8b37bdd0463,6685aa9113c938e83b4f1ea0,67230bef617b4f90a6cbc8c7,2024-10-30_23h49.13.165,WTP_SM_Choice,2022.2.1,Win32,144.9275362,,,,,space,5.2113,NAN,,NAN,1.27,4.73,,0,61,61,61,1,62,Alex,Rej,Participant_Images/6686247e6177b8b37bdd0463/6686247e6177b8b37bdd0463_Images/6686247e6177b8b37bdd0463_Image_18.jpeg,liked,4.988446431,,,,,,,,,,,,,,,,,,,,,,
,,6686247e6177b8b37bdd0463,6685aa9113c938e83b4f1ea0,67230bef617b4f90a6cbc8c7,2024-10-30_23h49.13.165,WTP_SM_Choice,2022.2.1,Win32,144.9275362,,,,,space,6.0413,NAN,,NAN,1.27,4.73,,0,62,62,62,1,63,Alex,Rej,Participant_Images/6686247e6177b8b37bdd0463/6686247e6177b8b37bdd0463_Images/6686247e6177b8b37bdd0463_Image_13.jpeg,did not like,3.470791822,,,,,,,,,,,,,,,,,,,,,,
,,6686247e6177b8b37bdd0463,6685aa9113c938e83b4f1ea0,67230bef617b4f90a6cbc8c7,2024-10-30_23h49.13.165,WTP_SM_Choice,2022.2.1,Win32,144.9275362,,,,,space,2.4028,NAN,,NAN,1.27,4.73,,0,63,63,63,1,64,Alex,Rej,Participant_Images/6686247e6177b8b37bdd0463/6686247e6177b8b37bdd0463_Images/6686247e6177b8b37bdd0463_Image_4.jpeg,did not like,3.820572462,,,,,,,,,,,,,,,,,,,,,,
,,6686247e6177b8b37bdd0463,6685aa9113c938e83b4f1ea0,67230bef617b4f90a6cbc8c7,2024-10-30_23h49.13.165,WTP_SM_Choice,2022.2.1,Win32,144.9275362,,,,,,,,,,,,,,,,,,61,,,,,,space,1.2914,space,5.1339,0.01,1,1.1056,0,0,0,0,1,Have dinner on sunday nights with family,Learn a new skill,0.01,0.03,3.3,0,,,,
,,6686247e6177b8b37bdd0463,6685aa9113c938e83b4f1ea0,67230bef617b4f90a6cbc8c7,2024-10-30_23h49.13.165,WTP_SM_Choice,2022.2.1,Win32,144.9275362,,,,,,,,,,,,,,,,,,62,,,,,,,,,,0.02,1,3.1178,0,1,1,1,1,Do exercise,Drink with friends at a party,0.02,0.03,3.3,1,,,,
,,6686247e6177b8b37bdd0463,6685aa9113c938e83b4f1ea0,67230bef617b4f90a6cbc8c7,2024-10-30_23h49.13.165,WTP_SM_Choice,2022.2.1,Win32,144.9275362,,,,,,,,,,,,,,,,,,63,,,,,,,,,,0.03,1,1.8376,0,2,2,2,1,Drink with friends at a party,Play video games,0.03,0.03,3.3,0,,,,
,,6686247e6177b8b37bdd0463,6685aa9113c938e83b4f1ea0,67230bef617b4f90a6cbc8c7,2024-10-30_23h49.13.165,WTP_SM_Choice,2022.2.1,Win32,144.9275362,,,,,,,,,,,,,,,,,,64,,,,,,,,,,0.03,2,3.7445,0,3,3,3,1,Watch a movie with my gf on the weekend,Play soccer,0.04,0.03,1.1,0,,,,
,,6686247e6177b8b37bdd0463,6685aa9113c938e83b4f1ea0,67230bef617b4f90a6cbc8c7,2024-10-30_23h49.13.165,WTP_SM_Choice,2022.2.1,Win32,144.9275362,,,,,,,,,,,,,,,,,,65,,,,,,,,,,0.03,2,1.5099,0,4,4,4,1,Watch tv shows,Go to mexico with family in vacations,0.05,0.03,1.1,1,,,,
,,6686247e6177b8b37bdd0463,6685aa9113c938e83b4f1ea0,67230bef617b4f90a6cbc8c7,2024-10-30_23h49.13.165,WTP_SM_Choice,2022.2.1,Win32,144.9275362,,,,,,,NAN,,NAN,1.39,4.61,,0,64,64,64,1,65,Alex,Rej,Participant_Images/6686247e6177b8b37bdd0463/6686247e6177b8b37bdd0463_Images/6686247e6177b8b37bdd0463_Image_7.jpeg,did not like,2.455989137,,,,,,,,,,,,,,,,,,,,,,
,,6686247e6177b8b37bdd0463,6685aa9113c938e83b4f1ea0,67230bef617b4f90a6cbc8c7,2024-10-30_23h49.13.165,WTP_SM_Choice,2022.2.1,Win32,144.9275362,,,,,space,5.125,NAN,,NAN,1.39,4.61,,0,65,65,65,1,66,Alex,Rej,Participant_Images/6686247e6177b8b37bdd0463/6686247e6177b8b37bdd0463_Images/6686247e6177b8b37bdd0463_Image_17.jpeg,liked,3.79605092,,,,,,,,,,,,,,,,,,,,,,
,,6686247e6177b8b37bdd0463,6685aa9113c938e83b4f1ea0,67230bef617b4f90a6cbc8c7,2024-10-30_23h49.13.165,WTP_SM_Choice,2022.2.1,Win32,144.9275362,,,,,space,1.614,NAN,,NAN,1.39,4.61,,0,66,66,66,1,67,Alex,Rej,Participant_Images/6686247e6177b8b37bdd0463/6686247e6177b8b37bdd0463_Images/6686247e6177b8b37bdd0463_Image_19.jpeg,did not like,3.562416326,,,,,,,,,,,,,,,,,,,,,,
,,6686247e6177b8b37bdd0463,6685aa9113c938e83b4f1ea0,67230bef617b4f90a6cbc8c7,2024-10-30_23h49.13.165,WTP_SM_Choice,2022.2.1,Win32,144.9275362,,,,,space,8.0582,NAN,,NAN,1.39,4.61,,0,67,67,67,1,68,Alex,Rej,Participant_Images/6686247e6177b8b37bdd0463/6686247e6177b8b37bdd0463_Images/6686247e6177b8b37bdd0463_Image_21.jpeg,did not like,2.843822497,,,,,,,,,,,,,,,,,,,,,,
,,6686247e6177b8b37bdd0463,6685aa9113c938e83b4f1ea0,67230bef617b4f90a6cbc8c7,2024-10-30_23h49.13.165,WTP_SM_Choice,2022.2.1,Win32,144.9275362,,,,,space,2.4476,NAN,,NAN,1.39,4.61,,0,68,68,68,1,69,Alex,Rej,Participant_Images/6686247e6177b8b37bdd0463/6686247e6177b8b37bdd0463_Images/6686247e6177b8b37bdd0463_Image_15.jpeg,liked,3.546495948,,,,,,,,,,,,,,,,,,,,,,
,,6686247e6177b8b37bdd0463,6685aa9113c938e83b4f1ea0,67230bef617b4f90a6cbc8c7,2024-10-30_23h49.13.165,WTP_SM_Choice,2022.2.1,Win32,144.9275362,,,,,,,,,,,,,,,,,,66,,,,,,space,1.5577,space,0.4041,0.01,1,0.8163,0,0,0,0,1,Do exercise,Play league soccer on sundays with my team,0.01,0.04,1.1,1,,,,
,,6686247e6177b8b37bdd0463,6685aa9113c938e83b4f1ea0,67230bef617b4f90a6cbc8c7,2024-10-30_23h49.13.165,WTP_SM_Choice,2022.2.1,Win32,144.9275362,,,,,,,,,,,,,,,,,,67,,,,,,,,,,0.02,1,0.9927,0,1,1,1,1,Watch the sunset,learn more about my religion in a group,0.02,0.04,8.8,1,,,,
,,6686247e6177b8b37bdd0463,6685aa9113c938e83b4f1ea0,67230bef617b4f90a6cbc8c7,2024-10-30_23h49.13.165,WTP_SM_Choice,2022.2.1,Win32,144.9275362,,,,,,,,,,,,,,,,,,68,,,,,,,,,,0.03,1,1.1825,0,2,2,2,1,Learn a new skill,Do new activities with people,0.03,0.04,4.4,1,,,,
,,6686247e6177b8b37bdd0463,6685aa9113c938e83b4f1ea0,67230bef617b4f90a6cbc8c7,2024-10-30_23h49.13.165,WTP_SM_Choice,2022.2.1,Win32,144.9275362,,,,,,,,,,,,,,,,,,69,,,,,,,,,,0.04,1,2.7019,0,3,3,3,1,learn more about my religion in a group,Play video games,0.04,0.04,1.1,0,,,,
,,6686247e6177b8b37bdd0463,6685aa9113c938e83b4f1ea0,67230bef617b4f90a6cbc8c7,2024-10-30_23h49.13.165,WTP_SM_Choice,2022.2.1,Win32,144.9275362,,,,,,,,,,,,,,,,,,70,,,,,,,,,,0.04,2,1.155,0,4,4,4,1,Have video game night with friends,Play video games,0.05,0.04,1.1,0,,,,
,,6686247e6177b8b37bdd0463,6685aa9113c938e83b4f1ea0,67230bef617b4f90a6cbc8c7,2024-10-30_23h49.13.165,WTP_SM_Choice,2022.2.1,Win32,144.9275362,,,,,,,NAN,,NAN,1.53,4.47,,0,69,69,69,1,70,Alex,Rej,Participant_Images/6686247e6177b8b37bdd0463/6686247e6177b8b37bdd0463_Images/6686247e6177b8b37bdd0463_Image_8.jpeg,liked,1.672012706,,,,,,,,,,,,,,,,,,,,,,
,,6686247e6177b8b37bdd0463,6685aa9113c938e83b4f1ea0,67230bef617b4f90a6cbc8c7,2024-10-30_23h49.13.165,WTP_SM_Choice,2022.2.1,Win32,144.9275362,,,,,space,0.469,NAN,,NAN,1.53,4.47,,0,70,70,70,1,71,Alex,Rej,Participant_Images/6686247e6177b8b37bdd0463/6686247e6177b8b37bdd0463_Images/6686247e6177b8b37bdd0463_Image_2.jpeg,did not like,4.942172136,,,,,,,,,,,,,,,,,,,,,,
,,6686247e6177b8b37bdd0463,6685aa9113c938e83b4f1ea0,67230bef617b4f90a6cbc8c7,2024-10-30_23h49.13.165,WTP_SM_Choice,2022.2.1,Win32,144.9275362,,,,,space,1.9846,NAN,,NAN,1.53,4.47,,0,71,71,71,1,72,Alex,Rej,Participant_Images/6686247e6177b8b37bdd0463/6686247e6177b8b37bdd0463_Images/6686247e6177b8b37bdd0463_Image_22.jpeg,did not like,2.50187214,,,,,,,,,,,,,,,,,,,,,,
,,6686247e6177b8b37bdd0463,6685aa9113c938e83b4f1ea0,67230bef617b4f90a6cbc8c7,2024-10-30_23h49.13.165,WTP_SM_Choice,2022.2.1,Win32,144.9275362,,,,,space,0.5166,NAN,,NAN,1.53,4.47,,0,72,72,72,1,73,Alex,Rej,Participant_Images/6686247e6177b8b37bdd0463/6686247e6177b8b37bdd0463_Images/6686247e6177b8b37bdd0463_Image_24.jpeg,did not like,2.071164779,,,,,,,,,,,,,,,,,,,,,,
,,6686247e6177b8b37bdd0463,6685aa9113c938e83b4f1ea0,67230bef617b4f90a6cbc8c7,2024-10-30_23h49.13.165,WTP_SM_Choice,2022.2.1,Win32,144.9275362,,,,,space,0.5987,NAN,,NAN,1.53,4.47,,0,73,73,73,1,74,Alex,Rej,Participant_Images/6686247e6177b8b37bdd0463/6686247e6177b8b37bdd0463_Images/6686247e6177b8b37bdd0463_Image_23.jpeg,liked,5.336503566,,,,,,,,,,,,,,,,,,,,,,
,,6686247e6177b8b37bdd0463,6685aa9113c938e83b4f1ea0,67230bef617b4f90a6cbc8c7,2024-10-30_23h49.13.165,WTP_SM_Choice,2022.2.1,Win32,144.9275362,,,,,,,,,,,,,,,,,,71,,,,,,space,0.4737,space,0.4353,0.01,1,0.6194,0,0,0,0,1,Do exercise,Do new activities with people,0.01,0.05,3.3,1,,,,
,,6686247e6177b8b37bdd0463,6685aa9113c938e83b4f1ea0,67230bef617b4f90a6cbc8c7,2024-10-30_23h49.13.165,WTP_SM_Choice,2022.2.1,Win32,144.9275362,,,,,,,,,,,,,,,,,,72,,,,,,,,,,0.02,1,0.8194,0,1,1,1,1,cook outside,Go to mexico with family in vacations,0.02,0.05,8.8,1,,,,
,,6686247e6177b8b37bdd0463,6685aa9113c938e83b4f1ea0,67230bef617b4f90a6cbc8c7,2024-10-30_23h49.13.165,WTP_SM_Choice,2022.2.1,Win32,144.9275362,,,,,,,,,,,,,,,,,,73,,,,,,,,,,0.03,1,2.187,0,2,2,2,1,Learn a new skill,Drink with friends at a party,0.03,0.05,3.3,1,,,,
,,6686247e6177b8b37bdd0463,6685aa9113c938e83b4f1ea0,67230bef617b4f90a6cbc8c7,2024-10-30_23h49.13.165,WTP_SM_Choice,2022.2.1,Win32,144.9275362,,,,,,,,,,,,,,,,,,74,,,,,,,,,,0.04,1,1.1462,0,3,3,3,1,Buy new items,Have a study session with my gf,0.04,0.05,4.4,1,,,,
,,6686247e6177b8b37bdd0463,6685aa9113c938e83b4f1ea0,67230bef617b4f90a6cbc8c7,2024-10-30_23h49.13.165,WTP_SM_Choice,2022.2.1,Win32,144.9275362,,,,,,,,,,,,,,,,,,75,,,,,,,,,,0.05,1,1.4489,0,4,4,4,1,Do new activities with people,Play video games,0.05,0.05,3.3,0,,,,
,,6686247e6177b8b37bdd0463,6685aa9113c938e83b4f1ea0,67230bef617b4f90a6cbc8c7,2024-10-30_23h49.13.165,WTP_SM_Choice,2022.2.1,Win32,144.9275362,,,,,,,2,,5,1.68,4.32,,0,74,74,74,1,75,Alex,Rej,Participant_Images/6686247e6177b8b37bdd0463/6686247e6177b8b37bdd0463_Images/6686247e6177b8b37bdd0463_Image_11.jpeg,did not like,2.642157193,,,,,,,,,,,,,,,,,,,space,0.8868,,
,,6686247e6177b8b37bdd0463,6685aa9113c938e83b4f1ea0,67230bef617b4f90a6cbc8c7,2024-10-30_23h49.13.165,WTP_SM_Choice,2022.2.1,Win32,144.9275362,,,space,3.6094,space,0.6526,NAN,,NAN,1.68,4.32,,0,75,75,75,1,76,Sam,Rej,Participant_Images/6686247e6177b8b37bdd0463/6686247e6177b8b37bdd0463_Images/6686247e6177b8b37bdd0463_Image_24.jpeg,did not like,4.456234322,,,,,,,,,,,,,,,,,,,,,,
,,6686247e6177b8b37bdd0463,6685aa9113c938e83b4f1ea0,67230bef617b4f90a6cbc8c7,2024-10-30_23h49.13.165,WTP_SM_Choice,2022.2.1,Win32,144.9275362,,,,,space,3.3914,NAN,,NAN,1.68,4.32,,0,76,76,76,1,77,Sam,Rej,Participant_Images/6686247e6177b8b37bdd0463/6686247e6177b8b37bdd0463_Images/6686247e6177b8b37bdd0463_Image_5.jpeg,liked,4.438512181,,,,,,,,,,,,,,,,,,,,,,
,,6686247e6177b8b37bdd0463,6685aa9113c938e83b4f1ea0,67230bef617b4f90a6cbc8c7,2024-10-30_23h49.13.165,WTP_SM_Choice,2022.2.1,Win32,144.9275362,,,,,space,0.4726,NAN,,NAN,1.68,4.32,,0,77,77,77,1,78,Sam,Rej,Participant_Images/6686247e6177b8b37bdd0463/6686247e6177b8b37bdd0463_Images/6686247e6177b8b37bdd0463_Image_22.jpeg,did not like,2.682944783,,,,,,,,,,,,,,,,,,,,,,
,,6686247e6177b8b37bdd0463,6685aa9113c938e83b4f1ea0,67230bef617b4f90a6cbc8c7,2024-10-30_23h49.13.165,WTP_SM_Choice,2022.2.1,Win32,144.9275362,,,,,space,0.9831,NAN,,NAN,1.68,4.32,,0,78,78,78,1,79,Sam,Rej,Participant_Images/6686247e6177b8b37bdd0463/6686247e6177b8b37bdd0463_Images/6686247e6177b8b37bdd0463_Image_12.jpeg,did not like,4.51984296,,,,,,,,,,,,,,,,,,,,,,
,,6686247e6177b8b37bdd0463,6685aa9113c938e83b4f1ea0,67230bef617b4f90a6cbc8c7,2024-10-30_23h49.13.165,WTP_SM_Choice,2022.2.1,Win32,144.9275362,,,,,,,,,,,,,,,,,,76,,,,,,space,1.2813,space,2.0618,0.01,1,2.4621,0,0,0,0,1,Drink with friends at a party,Do a coding project,0.01,0.01,1.1,0,,,,
,,6686247e6177b8b37bdd0463,6685aa9113c938e83b4f1ea0,67230bef617b4f90a6cbc8c7,2024-10-30_23h49.13.165,WTP_SM_Choice,2022.2.1,Win32,144.9275362,,,,,,,,,,,,,,,,,,77,,,,,,,,,,0.01,2,1.2845,0,1,1,1,1,Play video games,Go to mexico with family in vacations,0.02,0.01,8.8,1,,,,
,,6686247e6177b8b37bdd0463,6685aa9113c938e83b4f1ea0,67230bef617b4f90a6cbc8c7,2024-10-30_23h49.13.165,WTP_SM_Choice,2022.2.1,Win32,144.9275362,,,,,,,,,,,,,,,,,,78,,,,,,,,,,0.01,2,0.8962,0,2,2,2,1,learn more about my religion in a group,Watch tv shows,0.03,0.01,1.1,0,,,,
,,6686247e6177b8b37bdd0463,6685aa9113c938e83b4f1ea0,67230bef617b4f90a6cbc8c7,2024-10-30_23h49.13.165,WTP_SM_Choice,2022.2.1,Win32,144.9275362,,,,,,,,,,,,,,,,,,79,,,,,,,,,,0.01,2,1.5296,0,3,3,3,1,Play league soccer on sundays with my team,Start a new project,0.04,0.01,1.1,0,,,,
,,6686247e6177b8b37bdd0463,6685aa9113c938e83b4f1ea0,67230bef617b4f90a6cbc8c7,2024-10-30_23h49.13.165,WTP_SM_Choice,2022.2.1,Win32,144.9275362,,,,,,,,,,,,,,,,,,80,,,,,,,,,,0.01,2,0.9322,0,4,4,4,1,Buy new items,Have dinner on sunday nights with family,0.05,0.01,4.4,1,,,,
,,6686247e6177b8b37bdd0463,6685aa9113c938e83b4f1ea0,67230bef617b4f90a6cbc8c7,2024-10-30_23h49.13.165,WTP_SM_Choice,2022.2.1,Win32,144.9275362,,,,,,,NAN,,NAN,1.73,4.27,,0,79,79,79,1,80,Sam,Rej,Participant_Images/6686247e6177b8b37bdd0463/6686247e6177b8b37bdd0463_Images/6686247e6177b8b37bdd0463_Image_17.jpeg,liked,3.195382774,,,,,,,,,,,,,,,,,,,,,,
,,6686247e6177b8b37bdd0463,6685aa9113c938e83b4f1ea0,67230bef617b4f90a6cbc8c7,2024-10-30_23h49.13.165,WTP_SM_Choice,2022.2.1,Win32,144.9275362,,,,,space,4.2542,NAN,,NAN,1.73,4.27,,0,80,80,80,1,81,Sam,Rej,Participant_Images/6686247e6177b8b37bdd0463/6686247e6177b8b37bdd0463_Images/6686247e6177b8b37bdd0463_Image_14.jpeg,did not like,1.779333479,,,,,,,,,,,,,,,,,,,,,,
,,6686247e6177b8b37bdd0463,6685aa9113c938e83b4f1ea0,67230bef617b4f90a6cbc8c7,2024-10-30_23h49.13.165,WTP_SM_Choice,2022.2.1,Win32,144.9275362,,,,,space,6.9796,NAN,,NAN,1.73,4.27,,0,81,81,81,1,82,Sam,Rej,Participant_Images/6686247e6177b8b37bdd0463/6686247e6177b8b37bdd0463_Images/6686247e6177b8b37bdd0463_Image_6.jpeg,did not like,4.312468682,,,,,,,,,,,,,,,,,,,,,,
,,6686247e6177b8b37bdd0463,6685aa9113c938e83b4f1ea0,67230bef617b4f90a6cbc8c7,2024-10-30_23h49.13.165,WTP_SM_Choice,2022.2.1,Win32,144.9275362,,,,,space,3.3499,NAN,,NAN,1.73,4.27,,0,82,82,82,1,83,Sam,Rej,Participant_Images/6686247e6177b8b37bdd0463/6686247e6177b8b37bdd0463_Images/6686247e6177b8b37bdd0463_Image_21.jpeg,liked,4.940433059,,,,,,,,,,,,,,,,,,,,,,
,,6686247e6177b8b37bdd0463,6685aa9113c938e83b4f1ea0,67230bef617b4f90a6cbc8c7,2024-10-30_23h49.13.165,WTP_SM_Choice,2022.2.1,Win32,144.9275362,,,,,space,3.9132,NAN,,NAN,1.73,4.27,,0,83,83,83,1,84,Sam,Rej,Participant_Images/6686247e6177b8b37bdd0463/6686247e6177b8b37bdd0463_Images/6686247e6177b8b37bdd0463_Image_13.jpeg,did not like,2.7105123,,,,,,,,,,,,,,,,,,,,,,
,,6686247e6177b8b37bdd0463,6685aa9113c938e83b4f1ea0,67230bef617b4f90a6cbc8c7,2024-10-30_23h49.13.165,WTP_SM_Choice,2022.2.1,Win32,144.9275362,,,,,,,,,,,,,,,,,,81,,,,,,space,1.2986,space,2.6876,0.01,1,0.9609,0,0,0,0,1,Watch tv shows,Have dinner on sunday nights with family,0.01,0.02,3.3,1,,,,
,,6686247e6177b8b37bdd0463,6685aa9113c938e83b4f1ea0,67230bef617b4f90a6cbc8c7,2024-10-30_23h49.13.165,WTP_SM_Choice,2022.2.1,Win32,144.9275362,,,,,,,,,,,,,,,,,,82,,,,,,,,,,0.02,1,1.235,0,1,1,1,1,Go on a date with significant other,Watch the sunset,0.02,0.02,4.4,0,,,,
,,6686247e6177b8b37bdd0463,6685aa9113c938e83b4f1ea0,67230bef617b4f90a6cbc8c7,2024-10-30_23h49.13.165,WTP_SM_Choice,2022.2.1,Win32,144.9275362,,,,,,,,,,,,,,,,,,83,,,,,,,,,,0.02,2,1.0857,0,2,2,2,1,Do new activities with people,Buy new items,0.03,0.02,1.1,0,,,,
,,6686247e6177b8b37bdd0463,6685aa9113c938e83b4f1ea0,67230bef617b4f90a6cbc8c7,2024-10-30_23h49.13.165,WTP_SM_Choice,2022.2.1,Win32,144.9275362,,,,,,,,,,,,,,,,,,84,,,,,,,,,,0.02,2,5.0855,0,3,3,3,1,Go to mexico with family in vacations,Buy new items,0.04,0.02,3.3,0,,,,
,,6686247e6177b8b37bdd0463,6685aa9113c938e83b4f1ea0,67230bef617b4f90a6cbc8c7,2024-10-30_23h49.13.165,WTP_SM_Choice,2022.2.1,Win32,144.9275362,,,,,,,,,,,,,,,,,,85,,,,,,,,,,0.02,2,1.0392,0,4,4,4,1,Start a new project,Do new activities with people,0.05,0.02,3.3,1,,,,
,,6686247e6177b8b37bdd0463,6685aa9113c938e83b4f1ea0,67230bef617b4f90a6cbc8c7,2024-10-30_23h49.13.165,WTP_SM_Choice,2022.2.1,Win32,144.9275362,,,,,,,NAN,,NAN,1.82,4.18,,0,84,84,84,1,85,Sam,Rej,Participant_Images/6686247e6177b8b37bdd0463/6686247e6177b8b37bdd0463_Images/6686247e6177b8b37bdd0463_Image_23.jpeg,did not like,3.602308302,,,,,,,,,,,,,,,,,,,,,,
,,6686247e6177b8b37bdd0463,6685aa9113c938e83b4f1ea0,67230bef617b4f90a6cbc8c7,2024-10-30_23h49.13.165,WTP_SM_Choice,2022.2.1,Win32,144.9275362,,,,,space,1.6664,NAN,,NAN,1.82,4.18,,0,85,85,85,1,86,Sam,Rej,Participant_Images/6686247e6177b8b37bdd0463/6686247e6177b8b37bdd0463_Images/6686247e6177b8b37bdd0463_Image_15.jpeg,did not like,4.106391878,,,,,,,,,,,,,,,,,,,,,,
,,6686247e6177b8b37bdd0463,6685aa9113c938e83b4f1ea0,67230bef617b4f90a6cbc8c7,2024-10-30_23h49.13.165,WTP_SM_Choice,2022.2.1,Win32,144.9275362,,,,,space,4.1515,NAN,,NAN,1.82,4.18,,0,86,86,86,1,87,Sam,Rej,Participant_Images/6686247e6177b8b37bdd0463/6686247e6177b8b37bdd0463_Images/6686247e6177b8b37bdd0463_Image_8.jpeg,did not like,3.799433026,,,,,,,,,,,,,,,,,,,,,,
,,6686247e6177b8b37bdd0463,6685aa9113c938e83b4f1ea0,67230bef617b4f90a6cbc8c7,2024-10-30_23h49.13.165,WTP_SM_Choice,2022.2.1,Win32,144.9275362,,,,,space,2.1246,NAN,,NAN,1.82,4.18,,0,87,87,87,1,88,Sam,Rej,Participant_Images/6686247e6177b8b37bdd0463/6686247e6177b8b37bdd0463_Images/6686247e6177b8b37bdd0463_Image_20.jpeg,liked,5.246980764,,,,,,,,,,,,,,,,,,,,,,
,,6686247e6177b8b37bdd0463,6685aa9113c938e83b4f1ea0,67230bef617b4f90a6cbc8c7,2024-10-30_23h49.13.165,WTP_SM_Choice,2022.2.1,Win32,144.9275362,,,,,space,2.8821,NAN,,NAN,1.82,4.18,,0,88,88,88,1,89,Sam,Rej,Participant_Images/6686247e6177b8b37bdd0463/6686247e6177b8b37bdd0463_Images/6686247e6177b8b37bdd0463_Image_10.jpeg,did not like,3.30081769,,,,,,,,,,,,,,,,,,,,,,
,,6686247e6177b8b37bdd0463,6685aa9113c938e83b4f1ea0,67230bef617b4f90a6cbc8c7,2024-10-30_23h49.13.165,WTP_SM_Choice,2022.2.1,Win32,144.9275362,,,,,,,,,,,,,,,,,,86,,,,,,space,6.6289,space,0.9274,0.01,1,5.3192,0,0,0,0,1,Learn a new skill,Go on a date with significant other,0.01,0.03,1.1,1,,,,
,,6686247e6177b8b37bdd0463,6685aa9113c938e83b4f1ea0,67230bef617b4f90a6cbc8c7,2024-10-30_23h49.13.165,WTP_SM_Choice,2022.2.1,Win32,144.9275362,,,,,,,,,,,,,,,,,,87,,,,,,,,,,0.02,1,2.4865,0,1,1,1,1,cook outside,Go on a date with significant other,0.02,0.03,4.4,1,,,,
,,6686247e6177b8b37bdd0463,6685aa9113c938e83b4f1ea0,67230bef617b4f90a6cbc8c7,2024-10-30_23h49.13.165,WTP_SM_Choice,2022.2.1,Win32,144.9275362,,,,,,,,,,,,,,,,,,88,,,,,,,,,,0.03,1,2.0134,0,2,2,2,1,Watch a movie with my gf on the weekend,Watch the sunset,0.03,0.03,1.1,0,,,,
,,6686247e6177b8b37bdd0463,6685aa9113c938e83b4f1ea0,67230bef617b4f90a6cbc8c7,2024-10-30_23h49.13.165,WTP_SM_Choice,2022.2.1,Win32,144.9275362,,,,,,,,,,,,,,,,,,89,,,,,,,,,,0.03,2,1.275,0,3,3,3,1,Buy new items,learn more about my religion in a group,0.04,0.03,3.3,1,,,,
,,6686247e6177b8b37bdd0463,6685aa9113c938e83b4f1ea0,67230bef617b4f90a6cbc8c7,2024-10-30_23h49.13.165,WTP_SM_Choice,2022.2.1,Win32,144.9275362,,,,,,,,,,,,,,,,,,90,,,,,,,,,,0.03,2,0.9993,0,4,4,4,1,Do new activities with people,Play soccer,0.05,0.03,8.8,0,,,,
,,6686247e6177b8b37bdd0463,6685aa9113c938e83b4f1ea0,67230bef617b4f90a6cbc8c7,2024-10-30_23h49.13.165,WTP_SM_Choice,2022.2.1,Win32,144.9275362,,,,,,,NAN,,NAN,1.94,4.06,,0,89,89,89,1,90,Sam,Rej,Participant_Images/6686247e6177b8b37bdd0463/6686247e6177b8b37bdd0463_Images/6686247e6177b8b37bdd0463_Image_11.jpeg,did not like,1.661473164,,,,,,,,,,,,,,,,,,,,,,
,,6686247e6177b8b37bdd0463,6685aa9113c938e83b4f1ea0,67230bef617b4f90a6cbc8c7,2024-10-30_23h49.13.165,WTP_SM_Choice,2022.2.1,Win32,144.9275362,,,,,space,2.5385,NAN,,NAN,1.94,4.06,,0,90,90,90,1,91,Sam,Rej,Participant_Images/6686247e6177b8b37bdd0463/6686247e6177b8b37bdd0463_Images/6686247e6177b8b37bdd0463_Image_2.jpeg,liked,3.613205605,,,,,,,,,,,,,,,,,,,,,,
,,6686247e6177b8b37bdd0463,6685aa9113c938e83b4f1ea0,67230bef617b4f90a6cbc8c7,2024-10-30_23h49.13.165,WTP_SM_Choice,2022.2.1,Win32,144.9275362,,,,,space,2.2946,NAN,,NAN,1.94,4.06,,0,91,91,91,1,92,Sam,Rej,Participant_Images/6686247e6177b8b37bdd0463/6686247e6177b8b37bdd0463_Images/6686247e6177b8b37bdd0463_Image_19.jpeg,did not like,4.988446431,,,,,,,,,,,,,,,,,,,,,,
,,6686247e6177b8b37bdd0463,6685aa9113c938e83b4f1ea0,67230bef617b4f90a6cbc8c7,2024-10-30_23h49.13.165,WTP_SM_Choice,2022.2.1,Win32,144.9275362,,,,,space,6.7441,NAN,,NAN,1.94,4.06,,0,92,92,92,1,93,Sam,Rej,Participant_Images/6686247e6177b8b37bdd0463/6686247e6177b8b37bdd0463_Images/6686247e6177b8b37bdd0463_Image_9.jpeg,liked,3.470791822,,,,,,,,,,,,,,,,,,,,,,
,,6686247e6177b8b37bdd0463,6685aa9113c938e83b4f1ea0,67230bef617b4f90a6cbc8c7,2024-10-30_23h49.13.165,WTP_SM_Choice,2022.2.1,Win32,144.9275362,,,,,space,2.2649,NAN,,NAN,1.94,4.06,,0,93,93,93,1,94,Sam,Rej,Participant_Images/6686247e6177b8b37bdd0463/6686247e6177b8b37bdd0463_Images/6686247e6177b8b37bdd0463_Image_25.jpeg,did not like,3.820572462,,,,,,,,,,,,,,,,,,,,,,
,,6686247e6177b8b37bdd0463,6685aa9113c938e83b4f1ea0,67230bef617b4f90a6cbc8c7,2024-10-30_23h49.13.165,WTP_SM_Choice,2022.2.1,Win32,144.9275362,,,,,,,,,,,,,,,,,,91,,,,,,space,0.675,space,0.5144,0.01,1,0.6518,0,0,0,0,1,Play league soccer on sundays with my team,Watch tv shows,0.01,0.04,3.3,0,,,,
,,6686247e6177b8b37bdd0463,6685aa9113c938e83b4f1ea0,67230bef617b4f90a6cbc8c7,2024-10-30_23h49.13.165,WTP_SM_Choice,2022.2.1,Win32,144.9275362,,,,,,,,,,,,,,,,,,92,,,,,,,,,,0.02,1,1.7201,0,1,1,1,1,Drink with friends at a party,cook outside,0.02,0.04,8.8,0,,,,
,,6686247e6177b8b37bdd0463,6685aa9113c938e83b4f1ea0,67230bef617b4f90a6cbc8c7,2024-10-30_23h49.13.165,WTP_SM_Choice,2022.2.1,Win32,144.9275362,,,,,,,,,,,,,,,,,,93,,,,,,,,,,0.03,1,3.6724,0,2,2,2,1,Go on a date with significant other,Play video games,0.03,0.04,1.1,0,,,,
,,6686247e6177b8b37bdd0463,6685aa9113c938e83b4f1ea0,67230bef617b4f90a6cbc8c7,2024-10-30_23h49.13.165,WTP_SM_Choice,2022.2.1,Win32,144.9275362,,,,,,,,,,,,,,,,,,94,,,,,,,,,,0.04,1,2.0889,0,3,3,3,1,Do a coding project,Have video game night with friends,0.04,0.04,4.4,1,,,,
,,6686247e6177b8b37bdd0463,6685aa9113c938e83b4f1ea0,67230bef617b4f90a6cbc8c7,2024-10-30_23h49.13.165,WTP_SM_Choice,2022.2.1,Win32,144.9275362,,,,,,,,,,,,,,,,,,95,,,,,,,,,,0.04,2,3.1411,0,4,4,4,1,Drink with friends at a party,Buy new items,0.05,0.04,4.4,0,,,,
,,6686247e6177b8b37bdd0463,6685aa9113c938e83b4f1ea0,67230bef617b4f90a6cbc8c7,2024-10-30_23h49.13.165,WTP_SM_Choice,2022.2.1,Win32,144.9275362,,,,,,,NAN,,NAN,2.08,3.92,,0,94,94,94,1,95,Sam,Rej,Participant_Images/6686247e6177b8b37bdd0463/6686247e6177b8b37bdd0463_Images/6686247e6177b8b37bdd0463_Image_16.jpeg,did not like,2.455989137,,,,,,,,,,,,,,,,,,,,,,
,,6686247e6177b8b37bdd0463,6685aa9113c938e83b4f1ea0,67230bef617b4f90a6cbc8c7,2024-10-30_23h49.13.165,WTP_SM_Choice,2022.2.1,Win32,144.9275362,,,,,space,1.6554,NAN,,NAN,2.08,3.92,,0,95,95,95,1,96,Sam,Rej,Participant_Images/6686247e6177b8b37bdd0463/6686247e6177b8b37bdd0463_Images/6686247e6177b8b37bdd0463_Image_7.jpeg,did not like,3.79605092,,,,,,,,,,,,,,,,,,,,,,
,,6686247e6177b8b37bdd0463,6685aa9113c938e83b4f1ea0,67230bef617b4f90a6cbc8c7,2024-10-30_23h49.13.165,WTP_SM_Choice,2022.2.1,Win32,144.9275362,,,,,space,1.7332,NAN,,NAN,2.08,3.92,,0,96,96,96,1,97,Sam,Rej,Participant_Images/6686247e6177b8b37bdd0463/6686247e6177b8b37bdd0463_Images/6686247e6177b8b37bdd0463_Image_3.jpeg,liked,3.562416326,,,,,,,,,,,,,,,,,,,,,,
,,6686247e6177b8b37bdd0463,6685aa9113c938e83b4f1ea0,67230bef617b4f90a6cbc8c7,2024-10-30_23h49.13.165,WTP_SM_Choice,2022.2.1,Win32,144.9275362,,,,,space,0.9252,NAN,,NAN,2.08,3.92,,0,97,97,97,1,98,Sam,Rej,Participant_Images/6686247e6177b8b37bdd0463/6686247e6177b8b37bdd0463_Images/6686247e6177b8b37bdd0463_Image_18.jpeg,did not like,2.843822497,,,,,,,,,,,,,,,,,,,,,,
,,6686247e6177b8b37bdd0463,6685aa9113c938e83b4f1ea0,67230bef617b4f90a6cbc8c7,2024-10-30_23h49.13.165,WTP_SM_Choice,2022.2.1,Win32,144.9275362,,,,,space,2.3271,NAN,,NAN,2.08,3.92,,0,98,98,98,1,99,Sam,Rej,Participant_Images/6686247e6177b8b37bdd0463/6686247e6177b8b37bdd0463_Images/6686247e6177b8b37bdd0463_Image_1.jpeg,did not like,3.546495948,,,,,,,,,,,,,,,,,,,,,,
,,6686247e6177b8b37bdd0463,6685aa9113c938e83b4f1ea0,67230bef617b4f90a6cbc8c7,2024-10-30_23h49.13.165,WTP_SM_Choice,2022.2.1,Win32,144.9275362,,,,,,,,,,,,,,,,,,96,,,,,,space,4.2654,space,0.4134,0.01,1,0.6897,0,0,0,0,1,Play video games,Watch a movie with my gf on the weekend,0.01,0.05,3.3,1,,,,
,,6686247e6177b8b37bdd0463,6685aa9113c938e83b4f1ea0,67230bef617b4f90a6cbc8c7,2024-10-30_23h49.13.165,WTP_SM_Choice,2022.2.1,Win32,144.9275362,,,,,,,,,,,,,,,,,,97,,,,,,,,,,0.02,1,2.8515,0,1,1,1,1,cook outside,learn more about my religion in a group,0.02,0.05,1.1,1,,,,
,,6686247e6177b8b37bdd0463,6685aa9113c938e83b4f1ea0,67230bef617b4f90a6cbc8c7,2024-10-30_23h49.13.165,WTP_SM_Choice,2022.2.1,Win32,144.9275362,,,,,,,,,,,,,,,,,,98,,,,,,,,,,0.03,1,3.7985,0,2,2,2,1,Have dinner on sunday nights with family,cook outside,0.03,0.05,1.1,0,,,,
,,6686247e6177b8b37bdd0463,6685aa9113c938e83b4f1ea0,67230bef617b4f90a6cbc8c7,2024-10-30_23h49.13.165,WTP_SM_Choice,2022.2.1,Win32,144.9275362,,,,,,,,,,,,,,,,,,99,,,,,,,,,,,,,0,3,3,3,1,Watch a movie with my gf on the weekend,Watch tv shows,0.04,0.05,3.3,0,,,,
,,6686247e6177b8b37bdd0463,6685aa9113c938e83b4f1ea0,67230bef617b4f90a6cbc8c7,2024-10-30_23h49.13.165,WTP_SM_Choice,2022.2.1,Win32,144.9275362,,,,,,,,,,,,,,,,,,100,,,,,,,,,,0.05,1,2.5914,0,4,4,4,1,Do exercise,Go on a date with significant other,0.05,0.05,4.4,1,,,,
,,6686247e6177b8b37bdd0463,6685aa9113c938e83b4f1ea0,67230bef617b4f90a6cbc8c7,2024-10-30_23h49.13.165,WTP_SM_Choice,2022.2.1,Win32,144.9275362,,,,,,,3,,6,2.19,3.81,,0,99,99,99,1,100,Sam,Rej,Participant_Images/6686247e6177b8b37bdd0463/6686247e6177b8b37bdd0463_Images/6686247e6177b8b37bdd0463_Image_4.jpeg,did not like,1.672012706,,,,,,,,,,,,,,,,,,,space,1.5811,,
,,6686247e6177b8b37bdd0463,6685aa9113c938e83b4f1ea0,67230bef617b4f90a6cbc8c7,2024-10-30_23h49.13.165,WTP_SM_Choice,2022.2.1,Win32,144.9275362,,,,,,,,,,,,,,,,,,,,,,,,,,,,,,,,,,,,,,,,,,,,space,2.8311
