endwelcomescreen_keys.keys,endwelcomescreen_keys.rt,participant,STUDY_ID,SESSION_ID,date,expName,psychopyVersion,OS,frameRate,endinstructionscreen_keys.keys,endinstructionscreen_keys.rt,endpartnermatch_keys.keys,endpartnermatch_keys.rt,sharenextphoto_key.keys,sharenextphoto_key.rt,salience_rating,key_resp.keys,stress_level,subtract_bonus,TOTAL_TASK_BONUS,stresslevel_keypress.keys,entiretaskloop.thisRepN,entiretaskloop.thisTrialN,entiretaskloop.thisN,entiretaskloop.thisIndex,entiretaskloop.ran,TrialNumber,Partner,Condition,Photos,Feedback,FeedbackWait,WTP_ins_keys1.keys,WTP_ins_keys1.rt,WTP_ins_keys2.keys,WTP_ins_keys2.rt,decision_price,responses.keys,responses.rt,WTPTaskLoop.thisRepN,WTPTaskLoop.thisTrialN,WTPTaskLoop.thisN,WTPTaskLoop.thisIndex,WTPTaskLoop.ran,right,left,leftmoney,rightmoney,WTP_ITI,social_left,Resume_keys.keys,Resume_keys.rt,end_screen_keys.keys,end_screen_keys.rt
space,3.8889,668beeeac6158723009d2b8a,6685aa9113c938e83b4f1ea0,671d2d7ffa97113ecf03d055,2024-10-26_13h57.56.753,WTP_SM_Choice,2022.2.1,MacIntel,30.03003003,,,,,,,,,,,,,,,,,,,,,,,,,,,,,,,,,,,,,,,,,,,,,
,,668beeeac6158723009d2b8a,6685aa9113c938e83b4f1ea0,671d2d7ffa97113ecf03d055,2024-10-26_13h57.56.753,WTP_SM_Choice,2022.2.1,MacIntel,30.03003003,space,9.8289,,,,,,,,,,,,,,,,,,,,,,,,,,,,,,,,,,,,,,,,,,,
,,668beeeac6158723009d2b8a,6685aa9113c938e83b4f1ea0,671d2d7ffa97113ecf03d055,2024-10-26_13h57.56.753,WTP_SM_Choice,2022.2.1,MacIntel,30.03003003,,,space,6.3262,space,0.8546,NAN,,NAN,0,6,,0,0,0,0,1,1,Alex,Acc,Participant_Images/668beeeac6158723009d2b8a/668beeeac6158723009d2b8a_Images/668beeeac6158723009d2b8a_Image_16.jpeg,liked,3.613205605,,,,,,,,,,,,,,,,,,,,,,
,,668beeeac6158723009d2b8a,6685aa9113c938e83b4f1ea0,671d2d7ffa97113ecf03d055,2024-10-26_13h57.56.753,WTP_SM_Choice,2022.2.1,MacIntel,30.03003003,,,,,space,2.5167,NAN,,NAN,0,6,,0,1,1,1,1,2,Alex,Acc,Participant_Images/668beeeac6158723009d2b8a/668beeeac6158723009d2b8a_Images/668beeeac6158723009d2b8a_Image_8.jpeg,liked,4.988446431,,,,,,,,,,,,,,,,,,,,,,
,,668beeeac6158723009d2b8a,6685aa9113c938e83b4f1ea0,671d2d7ffa97113ecf03d055,2024-10-26_13h57.56.753,WTP_SM_Choice,2022.2.1,MacIntel,30.03003003,,,,,space,1.2456,NAN,,NAN,0,6,,0,2,2,2,1,3,Alex,Acc,Participant_Images/668beeeac6158723009d2b8a/668beeeac6158723009d2b8a_Images/668beeeac6158723009d2b8a_Image_11.jpeg,liked,3.470791822,,,,,,,,,,,,,,,,,,,,,,
,,668beeeac6158723009d2b8a,6685aa9113c938e83b4f1ea0,671d2d7ffa97113ecf03d055,2024-10-26_13h57.56.753,WTP_SM_Choice,2022.2.1,MacIntel,30.03003003,,,,,space,1.3389,NAN,,NAN,0,6,,0,3,3,3,1,4,Alex,Acc,Participant_Images/668beeeac6158723009d2b8a/668beeeac6158723009d2b8a_Images/668beeeac6158723009d2b8a_Image_12.jpeg,liked,3.820572462,,,,,,,,,,,,,,,,,,,,,,
,,668beeeac6158723009d2b8a,6685aa9113c938e83b4f1ea0,671d2d7ffa97113ecf03d055,2024-10-26_13h57.56.753,WTP_SM_Choice,2022.2.1,MacIntel,30.03003003,,,,,,,,,,,,,,,,,,1,,,,,,space,17.684,space,6.6316,0.01,2,3.5031,0,0,0,0,1,Read nonfiction collections of essays ,Parallel play with my friend anna,0.01,0.01,4.4,1,,,,
,,668beeeac6158723009d2b8a,6685aa9113c938e83b4f1ea0,671d2d7ffa97113ecf03d055,2024-10-26_13h57.56.753,WTP_SM_Choice,2022.2.1,MacIntel,30.03003003,,,,,,,,,,,,,,,,,,2,,,,,,,,,,0.01,2,3.1246,0,1,1,1,1,Watch movies together with my partner,Play video games on my pS5 ,0.02,0.01,8.8,0,,,,
,,668beeeac6158723009d2b8a,6685aa9113c938e83b4f1ea0,671d2d7ffa97113ecf03d055,2024-10-26_13h57.56.753,WTP_SM_Choice,2022.2.1,MacIntel,30.03003003,,,,,,,,,,,,,,,,,,3,,,,,,,,,,0.01,2,2.383,0,2,2,2,1,Go out to eat and try new foods with my partner,Journal ,0.03,0.01,3.3,0,,,,
,,668beeeac6158723009d2b8a,6685aa9113c938e83b4f1ea0,671d2d7ffa97113ecf03d055,2024-10-26_13h57.56.753,WTP_SM_Choice,2022.2.1,MacIntel,30.03003003,,,,,,,,,,,,,,,,,,4,,,,,,,,,,0.01,2,1.446,0,3,3,3,1,Play quiz games online,Listen to podcasts while driving with anna,0.04,0.01,1.1,1,,,,
,,668beeeac6158723009d2b8a,6685aa9113c938e83b4f1ea0,671d2d7ffa97113ecf03d055,2024-10-26_13h57.56.753,WTP_SM_Choice,2022.2.1,MacIntel,30.03003003,,,,,,,,,,,,,,,,,,5,,,,,,,,,,0.01,2,1.2304,0,4,4,4,1,Journal ,Parallel play with my friend anna,0.05,0.01,1.1,1,,,,
,,668beeeac6158723009d2b8a,6685aa9113c938e83b4f1ea0,671d2d7ffa97113ecf03d055,2024-10-26_13h57.56.753,WTP_SM_Choice,2022.2.1,MacIntel,30.03003003,,,,,,,NAN,,NAN,0.05,5.95,,0,4,4,4,1,5,Alex,Acc,Participant_Images/668beeeac6158723009d2b8a/668beeeac6158723009d2b8a_Images/668beeeac6158723009d2b8a_Image_6.jpeg,liked,2.455989137,,,,,,,,,,,,,,,,,,,,,,
,,668beeeac6158723009d2b8a,6685aa9113c938e83b4f1ea0,671d2d7ffa97113ecf03d055,2024-10-26_13h57.56.753,WTP_SM_Choice,2022.2.1,MacIntel,30.03003003,,,,,space,1.6854,NAN,,NAN,0.05,5.95,,0,5,5,5,1,6,Alex,Acc,Participant_Images/668beeeac6158723009d2b8a/668beeeac6158723009d2b8a_Images/668beeeac6158723009d2b8a_Image_9.jpeg,liked,3.79605092,,,,,,,,,,,,,,,,,,,,,,
,,668beeeac6158723009d2b8a,6685aa9113c938e83b4f1ea0,671d2d7ffa97113ecf03d055,2024-10-26_13h57.56.753,WTP_SM_Choice,2022.2.1,MacIntel,30.03003003,,,,,space,1.6896,NAN,,NAN,0.05,5.95,,0,6,6,6,1,7,Alex,Acc,Participant_Images/668beeeac6158723009d2b8a/668beeeac6158723009d2b8a_Images/668beeeac6158723009d2b8a_Image_1.jpeg,liked,3.562416326,,,,,,,,,,,,,,,,,,,,,,
,,668beeeac6158723009d2b8a,6685aa9113c938e83b4f1ea0,671d2d7ffa97113ecf03d055,2024-10-26_13h57.56.753,WTP_SM_Choice,2022.2.1,MacIntel,30.03003003,,,,,space,1.3487,NAN,,NAN,0.05,5.95,,0,7,7,7,1,8,Alex,Acc,Participant_Images/668beeeac6158723009d2b8a/668beeeac6158723009d2b8a_Images/668beeeac6158723009d2b8a_Image_18.jpeg,did not like,2.843822497,,,,,,,,,,,,,,,,,,,,,,
,,668beeeac6158723009d2b8a,6685aa9113c938e83b4f1ea0,671d2d7ffa97113ecf03d055,2024-10-26_13h57.56.753,WTP_SM_Choice,2022.2.1,MacIntel,30.03003003,,,,,space,3.3915,NAN,,NAN,0.05,5.95,,0,8,8,8,1,9,Alex,Acc,Participant_Images/668beeeac6158723009d2b8a/668beeeac6158723009d2b8a_Images/668beeeac6158723009d2b8a_Image_24.jpeg,did not like,3.546495948,,,,,,,,,,,,,,,,,,,,,,
,,668beeeac6158723009d2b8a,6685aa9113c938e83b4f1ea0,671d2d7ffa97113ecf03d055,2024-10-26_13h57.56.753,WTP_SM_Choice,2022.2.1,MacIntel,30.03003003,,,,,,,,,,,,,,,,,,6,,,,,,space,4.4336,space,0.6559,0.02,2,1.7806,0,0,0,0,1,Garden,Listen to podcasts while driving with anna,0.01,0.02,3.3,1,,,,
,,668beeeac6158723009d2b8a,6685aa9113c938e83b4f1ea0,671d2d7ffa97113ecf03d055,2024-10-26_13h57.56.753,WTP_SM_Choice,2022.2.1,MacIntel,30.03003003,,,,,,,,,,,,,,,,,,7,,,,,,,,,,0.02,1,3.3152,0,1,1,1,1,Listen to podcasts while driving with anna,Walk my dog,0.02,0.02,1.1,0,,,,
,,668beeeac6158723009d2b8a,6685aa9113c938e83b4f1ea0,671d2d7ffa97113ecf03d055,2024-10-26_13h57.56.753,WTP_SM_Choice,2022.2.1,MacIntel,30.03003003,,,,,,,,,,,,,,,,,,8,,,,,,,,,,0.02,2,1.8063,0,2,2,2,1,Read nonfiction collections of essays ,Travel with anna or my partner,0.03,0.02,1.1,1,,,,
,,668beeeac6158723009d2b8a,6685aa9113c938e83b4f1ea0,671d2d7ffa97113ecf03d055,2024-10-26_13h57.56.753,WTP_SM_Choice,2022.2.1,MacIntel,30.03003003,,,,,,,,,,,,,,,,,,9,,,,,,,,,,0.02,2,1.4368,0,3,3,3,1,Listen to podcasts while driving with anna,Do self-care like skincare ,0.04,0.02,4.4,0,,,,
,,668beeeac6158723009d2b8a,6685aa9113c938e83b4f1ea0,671d2d7ffa97113ecf03d055,2024-10-26_13h57.56.753,WTP_SM_Choice,2022.2.1,MacIntel,30.03003003,,,,,,,,,,,,,,,,,,10,,,,,,,,,,0.02,2,1.7588,0,4,4,4,1,Walk my dog with other people,Walk my dog,0.05,0.02,1.1,0,,,,
,,668beeeac6158723009d2b8a,6685aa9113c938e83b4f1ea0,671d2d7ffa97113ecf03d055,2024-10-26_13h57.56.753,WTP_SM_Choice,2022.2.1,MacIntel,30.03003003,,,,,,,NAN,,NAN,0.15,5.85,,0,9,9,9,1,10,Alex,Acc,Participant_Images/668beeeac6158723009d2b8a/668beeeac6158723009d2b8a_Images/668beeeac6158723009d2b8a_Image_15.jpeg,did not like,1.672012706,,,,,,,,,,,,,,,,,,,,,,
,,668beeeac6158723009d2b8a,6685aa9113c938e83b4f1ea0,671d2d7ffa97113ecf03d055,2024-10-26_13h57.56.753,WTP_SM_Choice,2022.2.1,MacIntel,30.03003003,,,,,space,1.3666,NAN,,NAN,0.15,5.85,,0,10,10,10,1,11,Alex,Acc,Participant_Images/668beeeac6158723009d2b8a/668beeeac6158723009d2b8a_Images/668beeeac6158723009d2b8a_Image_5.jpeg,did not like,4.942172136,,,,,,,,,,,,,,,,,,,,,,
,,668beeeac6158723009d2b8a,6685aa9113c938e83b4f1ea0,671d2d7ffa97113ecf03d055,2024-10-26_13h57.56.753,WTP_SM_Choice,2022.2.1,MacIntel,30.03003003,,,,,space,1.5165,NAN,,NAN,0.15,5.85,,0,11,11,11,1,12,Alex,Acc,Participant_Images/668beeeac6158723009d2b8a/668beeeac6158723009d2b8a_Images/668beeeac6158723009d2b8a_Image_2.jpeg,liked,2.50187214,,,,,,,,,,,,,,,,,,,,,,
,,668beeeac6158723009d2b8a,6685aa9113c938e83b4f1ea0,671d2d7ffa97113ecf03d055,2024-10-26_13h57.56.753,WTP_SM_Choice,2022.2.1,MacIntel,30.03003003,,,,,space,1.206,NAN,,NAN,0.15,5.85,,0,12,12,12,1,13,Alex,Acc,Participant_Images/668beeeac6158723009d2b8a/668beeeac6158723009d2b8a_Images/668beeeac6158723009d2b8a_Image_23.jpeg,did not like,2.071164779,,,,,,,,,,,,,,,,,,,,,,
,,668beeeac6158723009d2b8a,6685aa9113c938e83b4f1ea0,671d2d7ffa97113ecf03d055,2024-10-26_13h57.56.753,WTP_SM_Choice,2022.2.1,MacIntel,30.03003003,,,,,space,2.9518,NAN,,NAN,0.15,5.85,,0,13,13,13,1,14,Alex,Acc,Participant_Images/668beeeac6158723009d2b8a/668beeeac6158723009d2b8a_Images/668beeeac6158723009d2b8a_Image_21.jpeg,liked,5.336503566,,,,,,,,,,,,,,,,,,,,,,
,,668beeeac6158723009d2b8a,6685aa9113c938e83b4f1ea0,671d2d7ffa97113ecf03d055,2024-10-26_13h57.56.753,WTP_SM_Choice,2022.2.1,MacIntel,30.03003003,,,,,,,,,,,,,,,,,,11,,,,,,space,96.1567,space,1.0096,0.01,1,1.2527,0,0,0,0,1,Go to concerts or music events with my partner,Walk my dog,0.01,0.03,3.3,0,,,,
,,668beeeac6158723009d2b8a,6685aa9113c938e83b4f1ea0,671d2d7ffa97113ecf03d055,2024-10-26_13h57.56.753,WTP_SM_Choice,2022.2.1,MacIntel,30.03003003,,,,,,,,,,,,,,,,,,12,,,,,,,,,,0.02,1,1.1895,0,1,1,1,1,Hang out and driving around while talking with anna,Walk my dog,0.02,0.03,4.4,0,,,,
,,668beeeac6158723009d2b8a,6685aa9113c938e83b4f1ea0,671d2d7ffa97113ecf03d055,2024-10-26_13h57.56.753,WTP_SM_Choice,2022.2.1,MacIntel,30.03003003,,,,,,,,,,,,,,,,,,13,,,,,,,,,,0.03,1,1.7403,0,2,2,2,1,Journal ,Go to concerts or music events with my partner,0.03,0.03,1.1,1,,,,
,,668beeeac6158723009d2b8a,6685aa9113c938e83b4f1ea0,671d2d7ffa97113ecf03d055,2024-10-26_13h57.56.753,WTP_SM_Choice,2022.2.1,MacIntel,30.03003003,,,,,,,,,,,,,,,,,,14,,,,,,,,,,0.03,2,1.2547,0,3,3,3,1,Travel with anna or my partner,Walk my dog,0.04,0.03,3.3,0,,,,
,,668beeeac6158723009d2b8a,6685aa9113c938e83b4f1ea0,671d2d7ffa97113ecf03d055,2024-10-26_13h57.56.753,WTP_SM_Choice,2022.2.1,MacIntel,30.03003003,,,,,,,,,,,,,,,,,,15,,,,,,,,,,0.03,2,1.2898,0,4,4,4,1,Hang out and driving around while talking with anna,Listen to music,0.05,0.03,4.4,0,,,,
,,668beeeac6158723009d2b8a,6685aa9113c938e83b4f1ea0,671d2d7ffa97113ecf03d055,2024-10-26_13h57.56.753,WTP_SM_Choice,2022.2.1,MacIntel,30.03003003,,,,,,,NAN,,NAN,0.27,5.73,,0,14,14,14,1,15,Alex,Acc,Participant_Images/668beeeac6158723009d2b8a/668beeeac6158723009d2b8a_Images/668beeeac6158723009d2b8a_Image_22.jpeg,liked,2.642157193,,,,,,,,,,,,,,,,,,,,,,
,,668beeeac6158723009d2b8a,6685aa9113c938e83b4f1ea0,671d2d7ffa97113ecf03d055,2024-10-26_13h57.56.753,WTP_SM_Choice,2022.2.1,MacIntel,30.03003003,,,,,space,5.265,NAN,,NAN,0.27,5.73,,0,15,15,15,1,16,Alex,Acc,Participant_Images/668beeeac6158723009d2b8a/668beeeac6158723009d2b8a_Images/668beeeac6158723009d2b8a_Image_4.jpeg,did not like,4.456234322,,,,,,,,,,,,,,,,,,,,,,
,,668beeeac6158723009d2b8a,6685aa9113c938e83b4f1ea0,671d2d7ffa97113ecf03d055,2024-10-26_13h57.56.753,WTP_SM_Choice,2022.2.1,MacIntel,30.03003003,,,,,space,1.5842,NAN,,NAN,0.27,5.73,,0,16,16,16,1,17,Alex,Acc,Participant_Images/668beeeac6158723009d2b8a/668beeeac6158723009d2b8a_Images/668beeeac6158723009d2b8a_Image_14.jpeg,liked,4.438512181,,,,,,,,,,,,,,,,,,,,,,
,,668beeeac6158723009d2b8a,6685aa9113c938e83b4f1ea0,671d2d7ffa97113ecf03d055,2024-10-26_13h57.56.753,WTP_SM_Choice,2022.2.1,MacIntel,30.03003003,,,,,space,0.7818,NAN,,NAN,0.27,5.73,,0,17,17,17,1,18,Alex,Acc,Participant_Images/668beeeac6158723009d2b8a/668beeeac6158723009d2b8a_Images/668beeeac6158723009d2b8a_Image_25.jpeg,liked,2.682944783,,,,,,,,,,,,,,,,,,,,,,
,,668beeeac6158723009d2b8a,6685aa9113c938e83b4f1ea0,671d2d7ffa97113ecf03d055,2024-10-26_13h57.56.753,WTP_SM_Choice,2022.2.1,MacIntel,30.03003003,,,,,space,2.8589,NAN,,NAN,0.27,5.73,,0,18,18,18,1,19,Alex,Acc,Participant_Images/668beeeac6158723009d2b8a/668beeeac6158723009d2b8a_Images/668beeeac6158723009d2b8a_Image_13.jpeg,did not like,4.51984296,,,,,,,,,,,,,,,,,,,,,,
,,668beeeac6158723009d2b8a,6685aa9113c938e83b4f1ea0,671d2d7ffa97113ecf03d055,2024-10-26_13h57.56.753,WTP_SM_Choice,2022.2.1,MacIntel,30.03003003,,,,,,,,,,,,,,,,,,16,,,,,,space,4.5264,space,6.4149,0.01,1,1.0628,0,0,0,0,1,Journal ,Go to museums or dramatic theaters with anna,0.01,0.04,1.1,1,,,,
,,668beeeac6158723009d2b8a,6685aa9113c938e83b4f1ea0,671d2d7ffa97113ecf03d055,2024-10-26_13h57.56.753,WTP_SM_Choice,2022.2.1,MacIntel,30.03003003,,,,,,,,,,,,,,,,,,17,,,,,,,,,,0.02,1,1.1132,0,1,1,1,1,Go out to eat and try new foods with my partner,Play video games on my pS5 ,0.02,0.04,8.8,0,,,,
,,668beeeac6158723009d2b8a,6685aa9113c938e83b4f1ea0,671d2d7ffa97113ecf03d055,2024-10-26_13h57.56.753,WTP_SM_Choice,2022.2.1,MacIntel,30.03003003,,,,,,,,,,,,,,,,,,18,,,,,,,,,,0.03,1,1.0941,0,2,2,2,1,Go out to eat and try new foods with my partner,Read nonfiction collections of essays ,0.03,0.04,3.3,0,,,,
,,668beeeac6158723009d2b8a,6685aa9113c938e83b4f1ea0,671d2d7ffa97113ecf03d055,2024-10-26_13h57.56.753,WTP_SM_Choice,2022.2.1,MacIntel,30.03003003,,,,,,,,,,,,,,,,,,19,,,,,,,,,,0.04,1,2.0389,0,3,3,3,1,Travel with anna or my partner,Play quiz games online,0.04,0.04,3.3,0,,,,
,,668beeeac6158723009d2b8a,6685aa9113c938e83b4f1ea0,671d2d7ffa97113ecf03d055,2024-10-26_13h57.56.753,WTP_SM_Choice,2022.2.1,MacIntel,30.03003003,,,,,,,,,,,,,,,,,,20,,,,,,,,,,0.04,2,1.2041,0,4,4,4,1,Listen to music,Watch movies together with my partner,0.05,0.04,1.1,1,,,,
,,668beeeac6158723009d2b8a,6685aa9113c938e83b4f1ea0,671d2d7ffa97113ecf03d055,2024-10-26_13h57.56.753,WTP_SM_Choice,2022.2.1,MacIntel,30.03003003,,,,,,,NAN,,NAN,0.41,5.59,,0,19,19,19,1,20,Alex,Acc,Participant_Images/668beeeac6158723009d2b8a/668beeeac6158723009d2b8a_Images/668beeeac6158723009d2b8a_Image_20.jpeg,liked,3.195382774,,,,,,,,,,,,,,,,,,,,,,
,,668beeeac6158723009d2b8a,6685aa9113c938e83b4f1ea0,671d2d7ffa97113ecf03d055,2024-10-26_13h57.56.753,WTP_SM_Choice,2022.2.1,MacIntel,30.03003003,,,,,space,1.045,NAN,,NAN,0.41,5.59,,0,20,20,20,1,21,Alex,Acc,Participant_Images/668beeeac6158723009d2b8a/668beeeac6158723009d2b8a_Images/668beeeac6158723009d2b8a_Image_7.jpeg,liked,1.779333479,,,,,,,,,,,,,,,,,,,,,,
,,668beeeac6158723009d2b8a,6685aa9113c938e83b4f1ea0,671d2d7ffa97113ecf03d055,2024-10-26_13h57.56.753,WTP_SM_Choice,2022.2.1,MacIntel,30.03003003,,,,,space,1.0123,NAN,,NAN,0.41,5.59,,0,21,21,21,1,22,Alex,Acc,Participant_Images/668beeeac6158723009d2b8a/668beeeac6158723009d2b8a_Images/668beeeac6158723009d2b8a_Image_3.jpeg,liked,4.312468682,,,,,,,,,,,,,,,,,,,,,,
,,668beeeac6158723009d2b8a,6685aa9113c938e83b4f1ea0,671d2d7ffa97113ecf03d055,2024-10-26_13h57.56.753,WTP_SM_Choice,2022.2.1,MacIntel,30.03003003,,,,,space,1.0671,NAN,,NAN,0.41,5.59,,0,22,22,22,1,23,Alex,Acc,Participant_Images/668beeeac6158723009d2b8a/668beeeac6158723009d2b8a_Images/668beeeac6158723009d2b8a_Image_10.jpeg,liked,4.940433059,,,,,,,,,,,,,,,,,,,,,,
,,668beeeac6158723009d2b8a,6685aa9113c938e83b4f1ea0,671d2d7ffa97113ecf03d055,2024-10-26_13h57.56.753,WTP_SM_Choice,2022.2.1,MacIntel,30.03003003,,,,,space,17.3845,NAN,,NAN,0.41,5.59,,0,23,23,23,1,24,Alex,Acc,Participant_Images/668beeeac6158723009d2b8a/668beeeac6158723009d2b8a_Images/668beeeac6158723009d2b8a_Image_19.jpeg,liked,2.7105123,,,,,,,,,,,,,,,,,,,,,,
,,668beeeac6158723009d2b8a,6685aa9113c938e83b4f1ea0,671d2d7ffa97113ecf03d055,2024-10-26_13h57.56.753,WTP_SM_Choice,2022.2.1,MacIntel,30.03003003,,,,,,,,,,,,,,,,,,21,,,,,,space,55.5936,space,1.0688,0.01,1,1.0275,0,0,0,0,1,Go to a bar with my friends and try craft beers or drinks ,Garden,0.01,0.05,8.8,0,,,,
,,668beeeac6158723009d2b8a,6685aa9113c938e83b4f1ea0,671d2d7ffa97113ecf03d055,2024-10-26_13h57.56.753,WTP_SM_Choice,2022.2.1,MacIntel,30.03003003,,,,,,,,,,,,,,,,,,22,,,,,,,,,,0.02,1,1.0485,0,1,1,1,1,Do self-care like skincare ,Go to museums or dramatic theaters with anna,0.02,0.05,4.4,1,,,,
,,668beeeac6158723009d2b8a,6685aa9113c938e83b4f1ea0,671d2d7ffa97113ecf03d055,2024-10-26_13h57.56.753,WTP_SM_Choice,2022.2.1,MacIntel,30.03003003,,,,,,,,,,,,,,,,,,23,,,,,,,,,,0.03,1,1.5077,0,2,2,2,1,Listen to music,Listen to podcasts while driving with anna,0.03,0.05,1.1,1,,,,
,,668beeeac6158723009d2b8a,6685aa9113c938e83b4f1ea0,671d2d7ffa97113ecf03d055,2024-10-26_13h57.56.753,WTP_SM_Choice,2022.2.1,MacIntel,30.03003003,,,,,,,,,,,,,,,,,,24,,,,,,,,,,0.04,1,1.0908,0,3,3,3,1,Watch tv,Listen to podcasts while driving with anna,0.04,0.05,4.4,1,,,,
,,668beeeac6158723009d2b8a,6685aa9113c938e83b4f1ea0,671d2d7ffa97113ecf03d055,2024-10-26_13h57.56.753,WTP_SM_Choice,2022.2.1,MacIntel,30.03003003,,,,,,,,,,,,,,,,,,25,,,,,,,,,,0.05,2,3.1474,0,4,4,4,1,Go out to eat and try new foods with my partner,Research the stock market,0.05,0.05,3.3,0,,,,
,,668beeeac6158723009d2b8a,6685aa9113c938e83b4f1ea0,671d2d7ffa97113ecf03d055,2024-10-26_13h57.56.753,WTP_SM_Choice,2022.2.1,MacIntel,30.03003003,,,,,,,4,,3,0.56,5.44,,0,24,24,24,1,25,Alex,Acc,Participant_Images/668beeeac6158723009d2b8a/668beeeac6158723009d2b8a_Images/668beeeac6158723009d2b8a_Image_17.jpeg,liked,3.602308302,,,,,,,,,,,,,,,,,,,space,0.7374,,
,,668beeeac6158723009d2b8a,6685aa9113c938e83b4f1ea0,671d2d7ffa97113ecf03d055,2024-10-26_13h57.56.753,WTP_SM_Choice,2022.2.1,MacIntel,30.03003003,,,space,2.8294,space,1.7634,NAN,,NAN,0.56,5.44,,0,25,25,25,1,26,Sam,Rej,Participant_Images/668beeeac6158723009d2b8a/668beeeac6158723009d2b8a_Images/668beeeac6158723009d2b8a_Image_24.jpeg,did not like,4.106391878,,,,,,,,,,,,,,,,,,,,,,
,,668beeeac6158723009d2b8a,6685aa9113c938e83b4f1ea0,671d2d7ffa97113ecf03d055,2024-10-26_13h57.56.753,WTP_SM_Choice,2022.2.1,MacIntel,30.03003003,,,,,space,5.0661,NAN,,NAN,0.56,5.44,,0,26,26,26,1,27,Sam,Rej,Participant_Images/668beeeac6158723009d2b8a/668beeeac6158723009d2b8a_Images/668beeeac6158723009d2b8a_Image_9.jpeg,did not like,3.799433026,,,,,,,,,,,,,,,,,,,,,,
,,668beeeac6158723009d2b8a,6685aa9113c938e83b4f1ea0,671d2d7ffa97113ecf03d055,2024-10-26_13h57.56.753,WTP_SM_Choice,2022.2.1,MacIntel,30.03003003,,,,,space,0.7659,NAN,,NAN,0.56,5.44,,0,27,27,27,1,28,Sam,Rej,Participant_Images/668beeeac6158723009d2b8a/668beeeac6158723009d2b8a_Images/668beeeac6158723009d2b8a_Image_17.jpeg,did not like,5.246980764,,,,,,,,,,,,,,,,,,,,,,
,,668beeeac6158723009d2b8a,6685aa9113c938e83b4f1ea0,671d2d7ffa97113ecf03d055,2024-10-26_13h57.56.753,WTP_SM_Choice,2022.2.1,MacIntel,30.03003003,,,,,space,2.8009,NAN,,NAN,0.56,5.44,,0,28,28,28,1,29,Sam,Rej,Participant_Images/668beeeac6158723009d2b8a/668beeeac6158723009d2b8a_Images/668beeeac6158723009d2b8a_Image_12.jpeg,liked,3.30081769,,,,,,,,,,,,,,,,,,,,,,
,,668beeeac6158723009d2b8a,6685aa9113c938e83b4f1ea0,671d2d7ffa97113ecf03d055,2024-10-26_13h57.56.753,WTP_SM_Choice,2022.2.1,MacIntel,30.03003003,,,,,,,,,,,,,,,,,,26,,,,,,space,106.4004,space,0.8353,0.01,1,1.529,0,0,0,0,1,Research the stock market,Hang out and driving around while talking with anna,0.01,0.01,4.4,1,,,,
,,668beeeac6158723009d2b8a,6685aa9113c938e83b4f1ea0,671d2d7ffa97113ecf03d055,2024-10-26_13h57.56.753,WTP_SM_Choice,2022.2.1,MacIntel,30.03003003,,,,,,,,,,,,,,,,,,27,,,,,,,,,,0.01,2,1.3424,0,1,1,1,1,Listen to music,Go to concerts or music events with my partner,0.02,0.01,3.3,1,,,,
,,668beeeac6158723009d2b8a,6685aa9113c938e83b4f1ea0,671d2d7ffa97113ecf03d055,2024-10-26_13h57.56.753,WTP_SM_Choice,2022.2.1,MacIntel,30.03003003,,,,,,,,,,,,,,,,,,28,,,,,,,,,,0.01,2,0.8961,0,2,2,2,1,Garden,Watch movies together with my partner,0.03,0.01,3.3,1,,,,
,,668beeeac6158723009d2b8a,6685aa9113c938e83b4f1ea0,671d2d7ffa97113ecf03d055,2024-10-26_13h57.56.753,WTP_SM_Choice,2022.2.1,MacIntel,30.03003003,,,,,,,,,,,,,,,,,,29,,,,,,,,,,0.01,2,0.8334,0,3,3,3,1,Parallel play with my friend anna,Play quiz games online,0.04,0.01,4.4,0,,,,
,,668beeeac6158723009d2b8a,6685aa9113c938e83b4f1ea0,671d2d7ffa97113ecf03d055,2024-10-26_13h57.56.753,WTP_SM_Choice,2022.2.1,MacIntel,30.03003003,,,,,,,,,,,,,,,,,,30,,,,,,,,,,0.01,2,0.8133,0,4,4,4,1,Read nonfiction collections of essays ,Watch movies together with my partner,0.05,0.01,8.8,1,,,,
,,668beeeac6158723009d2b8a,6685aa9113c938e83b4f1ea0,671d2d7ffa97113ecf03d055,2024-10-26_13h57.56.753,WTP_SM_Choice,2022.2.1,MacIntel,30.03003003,,,,,,,NAN,,NAN,0.61,5.39,,0,29,29,29,1,30,Sam,Rej,Participant_Images/668beeeac6158723009d2b8a/668beeeac6158723009d2b8a_Images/668beeeac6158723009d2b8a_Image_16.jpeg,liked,1.661473164,,,,,,,,,,,,,,,,,,,,,,
,,668beeeac6158723009d2b8a,6685aa9113c938e83b4f1ea0,671d2d7ffa97113ecf03d055,2024-10-26_13h57.56.753,WTP_SM_Choice,2022.2.1,MacIntel,30.03003003,,,,,space,5.3064,NAN,,NAN,0.61,5.39,,0,30,30,30,1,31,Sam,Rej,Participant_Images/668beeeac6158723009d2b8a/668beeeac6158723009d2b8a_Images/668beeeac6158723009d2b8a_Image_22.jpeg,did not like,3.613205605,,,,,,,,,,,,,,,,,,,,,,
,,668beeeac6158723009d2b8a,6685aa9113c938e83b4f1ea0,671d2d7ffa97113ecf03d055,2024-10-26_13h57.56.753,WTP_SM_Choice,2022.2.1,MacIntel,30.03003003,,,,,space,1.401,NAN,,NAN,0.61,5.39,,0,31,31,31,1,32,Sam,Rej,Participant_Images/668beeeac6158723009d2b8a/668beeeac6158723009d2b8a_Images/668beeeac6158723009d2b8a_Image_10.jpeg,liked,4.988446431,,,,,,,,,,,,,,,,,,,,,,
,,668beeeac6158723009d2b8a,6685aa9113c938e83b4f1ea0,671d2d7ffa97113ecf03d055,2024-10-26_13h57.56.753,WTP_SM_Choice,2022.2.1,MacIntel,30.03003003,,,,,space,0.8004,NAN,,NAN,0.61,5.39,,0,32,32,32,1,33,Sam,Rej,Participant_Images/668beeeac6158723009d2b8a/668beeeac6158723009d2b8a_Images/668beeeac6158723009d2b8a_Image_13.jpeg,did not like,3.470791822,,,,,,,,,,,,,,,,,,,,,,
,,668beeeac6158723009d2b8a,6685aa9113c938e83b4f1ea0,671d2d7ffa97113ecf03d055,2024-10-26_13h57.56.753,WTP_SM_Choice,2022.2.1,MacIntel,30.03003003,,,,,space,3.9664,NAN,,NAN,0.61,5.39,,0,33,33,33,1,34,Sam,Rej,Participant_Images/668beeeac6158723009d2b8a/668beeeac6158723009d2b8a_Images/668beeeac6158723009d2b8a_Image_5.jpeg,did not like,3.820572462,,,,,,,,,,,,,,,,,,,,,,
,,668beeeac6158723009d2b8a,6685aa9113c938e83b4f1ea0,671d2d7ffa97113ecf03d055,2024-10-26_13h57.56.753,WTP_SM_Choice,2022.2.1,MacIntel,30.03003003,,,,,,,,,,,,,,,,,,31,,,,,,space,0.6878,space,1.1234,0.01,1,1.0748,0,0,0,0,1,Listen to podcasts while driving with anna,Journal ,0.01,0.02,8.8,0,,,,
,,668beeeac6158723009d2b8a,6685aa9113c938e83b4f1ea0,671d2d7ffa97113ecf03d055,2024-10-26_13h57.56.753,WTP_SM_Choice,2022.2.1,MacIntel,30.03003003,,,,,,,,,,,,,,,,,,32,,,,,,,,,,0.02,1,2.2661,0,1,1,1,1,Play video games on my pS5 ,Go to museums or dramatic theaters with anna,0.02,0.02,1.1,1,,,,
,,668beeeac6158723009d2b8a,6685aa9113c938e83b4f1ea0,671d2d7ffa97113ecf03d055,2024-10-26_13h57.56.753,WTP_SM_Choice,2022.2.1,MacIntel,30.03003003,,,,,,,,,,,,,,,,,,33,,,,,,,,,,0.02,2,2.5441,0,2,2,2,1,Research the stock market,Watch movies together with my partner,0.03,0.02,4.4,1,,,,
,,668beeeac6158723009d2b8a,6685aa9113c938e83b4f1ea0,671d2d7ffa97113ecf03d055,2024-10-26_13h57.56.753,WTP_SM_Choice,2022.2.1,MacIntel,30.03003003,,,,,,,,,,,,,,,,,,34,,,,,,,,,,0.02,2,1.5842,0,3,3,3,1,Listen to music,Go to museums or dramatic theaters with anna,0.04,0.02,3.3,1,,,,
,,668beeeac6158723009d2b8a,6685aa9113c938e83b4f1ea0,671d2d7ffa97113ecf03d055,2024-10-26_13h57.56.753,WTP_SM_Choice,2022.2.1,MacIntel,30.03003003,,,,,,,,,,,,,,,,,,35,,,,,,,,,,0.02,2,1.9935,0,4,4,4,1,Watch movies together with my partner,Do self-care like skincare ,0.05,0.02,1.1,0,,,,
,,668beeeac6158723009d2b8a,6685aa9113c938e83b4f1ea0,671d2d7ffa97113ecf03d055,2024-10-26_13h57.56.753,WTP_SM_Choice,2022.2.1,MacIntel,30.03003003,,,,,,,NAN,,NAN,0.7,5.3,,0,34,34,34,1,35,Sam,Rej,Participant_Images/668beeeac6158723009d2b8a/668beeeac6158723009d2b8a_Images/668beeeac6158723009d2b8a_Image_18.jpeg,did not like,2.455989137,,,,,,,,,,,,,,,,,,,,,,
,,668beeeac6158723009d2b8a,6685aa9113c938e83b4f1ea0,671d2d7ffa97113ecf03d055,2024-10-26_13h57.56.753,WTP_SM_Choice,2022.2.1,MacIntel,30.03003003,,,,,space,2.0143,NAN,,NAN,0.7,5.3,,0,35,35,35,1,36,Sam,Rej,Participant_Images/668beeeac6158723009d2b8a/668beeeac6158723009d2b8a_Images/668beeeac6158723009d2b8a_Image_4.jpeg,did not like,3.79605092,,,,,,,,,,,,,,,,,,,,,,
,,668beeeac6158723009d2b8a,6685aa9113c938e83b4f1ea0,671d2d7ffa97113ecf03d055,2024-10-26_13h57.56.753,WTP_SM_Choice,2022.2.1,MacIntel,30.03003003,,,,,space,1.9303,NAN,,NAN,0.7,5.3,,0,36,36,36,1,37,Sam,Rej,Participant_Images/668beeeac6158723009d2b8a/668beeeac6158723009d2b8a_Images/668beeeac6158723009d2b8a_Image_8.jpeg,did not like,3.562416326,,,,,,,,,,,,,,,,,,,,,,
,,668beeeac6158723009d2b8a,6685aa9113c938e83b4f1ea0,671d2d7ffa97113ecf03d055,2024-10-26_13h57.56.753,WTP_SM_Choice,2022.2.1,MacIntel,30.03003003,,,,,space,1.6116,NAN,,NAN,0.7,5.3,,0,37,37,37,1,38,Sam,Rej,Participant_Images/668beeeac6158723009d2b8a/668beeeac6158723009d2b8a_Images/668beeeac6158723009d2b8a_Image_6.jpeg,liked,2.843822497,,,,,,,,,,,,,,,,,,,,,,
,,668beeeac6158723009d2b8a,6685aa9113c938e83b4f1ea0,671d2d7ffa97113ecf03d055,2024-10-26_13h57.56.753,WTP_SM_Choice,2022.2.1,MacIntel,30.03003003,,,,,space,0.9368,NAN,,NAN,0.7,5.3,,0,38,38,38,1,39,Sam,Rej,Participant_Images/668beeeac6158723009d2b8a/668beeeac6158723009d2b8a_Images/668beeeac6158723009d2b8a_Image_14.jpeg,did not like,3.546495948,,,,,,,,,,,,,,,,,,,,,,
,,668beeeac6158723009d2b8a,6685aa9113c938e83b4f1ea0,671d2d7ffa97113ecf03d055,2024-10-26_13h57.56.753,WTP_SM_Choice,2022.2.1,MacIntel,30.03003003,,,,,,,,,,,,,,,,,,36,,,,,,space,1.0966,space,1.3845,0.01,1,1.1215,0,0,0,0,1,Walk my dog with other people,Watch tv,0.01,0.03,3.3,0,,,,
,,668beeeac6158723009d2b8a,6685aa9113c938e83b4f1ea0,671d2d7ffa97113ecf03d055,2024-10-26_13h57.56.753,WTP_SM_Choice,2022.2.1,MacIntel,30.03003003,,,,,,,,,,,,,,,,,,37,,,,,,,,,,0.02,1,1.1637,0,1,1,1,1,Walk my dog with other people,Listen to music,0.02,0.03,1.1,0,,,,
,,668beeeac6158723009d2b8a,6685aa9113c938e83b4f1ea0,671d2d7ffa97113ecf03d055,2024-10-26_13h57.56.753,WTP_SM_Choice,2022.2.1,MacIntel,30.03003003,,,,,,,,,,,,,,,,,,38,,,,,,,,,,0.03,1,1.7729,0,2,2,2,1,Research the stock market,Go to concerts or music events with my partner,0.03,0.03,1.1,1,,,,
,,668beeeac6158723009d2b8a,6685aa9113c938e83b4f1ea0,671d2d7ffa97113ecf03d055,2024-10-26_13h57.56.753,WTP_SM_Choice,2022.2.1,MacIntel,30.03003003,,,,,,,,,,,,,,,,,,39,,,,,,,,,,0.03,2,1.2361,0,3,3,3,1,Walk my dog with other people,Do self-care like skincare ,0.04,0.03,3.3,0,,,,
,,668beeeac6158723009d2b8a,6685aa9113c938e83b4f1ea0,671d2d7ffa97113ecf03d055,2024-10-26_13h57.56.753,WTP_SM_Choice,2022.2.1,MacIntel,30.03003003,,,,,,,,,,,,,,,,,,40,,,,,,,,,,0.03,2,0.9321,0,4,4,4,1,Watch tv,Travel with anna or my partner,0.05,0.03,4.4,1,,,,
,,668beeeac6158723009d2b8a,6685aa9113c938e83b4f1ea0,671d2d7ffa97113ecf03d055,2024-10-26_13h57.56.753,WTP_SM_Choice,2022.2.1,MacIntel,30.03003003,,,,,,,NAN,,NAN,0.82,5.18,,0,39,39,39,1,40,Sam,Rej,Participant_Images/668beeeac6158723009d2b8a/668beeeac6158723009d2b8a_Images/668beeeac6158723009d2b8a_Image_15.jpeg,did not like,1.672012706,,,,,,,,,,,,,,,,,,,,,,
,,668beeeac6158723009d2b8a,6685aa9113c938e83b4f1ea0,671d2d7ffa97113ecf03d055,2024-10-26_13h57.56.753,WTP_SM_Choice,2022.2.1,MacIntel,30.03003003,,,,,space,1.1925,NAN,,NAN,0.82,5.18,,0,40,40,40,1,41,Sam,Rej,Participant_Images/668beeeac6158723009d2b8a/668beeeac6158723009d2b8a_Images/668beeeac6158723009d2b8a_Image_2.jpeg,did not like,4.942172136,,,,,,,,,,,,,,,,,,,,,,
,,668beeeac6158723009d2b8a,6685aa9113c938e83b4f1ea0,671d2d7ffa97113ecf03d055,2024-10-26_13h57.56.753,WTP_SM_Choice,2022.2.1,MacIntel,30.03003003,,,,,space,1.0333,NAN,,NAN,0.82,5.18,,0,41,41,41,1,42,Sam,Rej,Participant_Images/668beeeac6158723009d2b8a/668beeeac6158723009d2b8a_Images/668beeeac6158723009d2b8a_Image_1.jpeg,did not like,2.50187214,,,,,,,,,,,,,,,,,,,,,,
,,668beeeac6158723009d2b8a,6685aa9113c938e83b4f1ea0,671d2d7ffa97113ecf03d055,2024-10-26_13h57.56.753,WTP_SM_Choice,2022.2.1,MacIntel,30.03003003,,,,,space,1.7901,NAN,,NAN,0.82,5.18,,0,42,42,42,1,43,Sam,Rej,Participant_Images/668beeeac6158723009d2b8a/668beeeac6158723009d2b8a_Images/668beeeac6158723009d2b8a_Image_20.jpeg,liked,2.071164779,,,,,,,,,,,,,,,,,,,,,,
,,668beeeac6158723009d2b8a,6685aa9113c938e83b4f1ea0,671d2d7ffa97113ecf03d055,2024-10-26_13h57.56.753,WTP_SM_Choice,2022.2.1,MacIntel,30.03003003,,,,,space,3.4331,NAN,,NAN,0.82,5.18,,0,43,43,43,1,44,Sam,Rej,Participant_Images/668beeeac6158723009d2b8a/668beeeac6158723009d2b8a_Images/668beeeac6158723009d2b8a_Image_25.jpeg,did not like,5.336503566,,,,,,,,,,,,,,,,,,,,,,
,,668beeeac6158723009d2b8a,6685aa9113c938e83b4f1ea0,671d2d7ffa97113ecf03d055,2024-10-26_13h57.56.753,WTP_SM_Choice,2022.2.1,MacIntel,30.03003003,,,,,,,,,,,,,,,,,,41,,,,,,space,3.8737,space,2.3166,0.01,1,1.1505,0,0,0,0,1,Parallel play with my friend anna,Walk my dog,0.01,0.04,1.1,0,,,,
,,668beeeac6158723009d2b8a,6685aa9113c938e83b4f1ea0,671d2d7ffa97113ecf03d055,2024-10-26_13h57.56.753,WTP_SM_Choice,2022.2.1,MacIntel,30.03003003,,,,,,,,,,,,,,,,,,42,,,,,,,,,,0.02,1,1.15,0,1,1,1,1,Listen to music,Parallel play with my friend anna,0.02,0.04,3.3,1,,,,
,,668beeeac6158723009d2b8a,6685aa9113c938e83b4f1ea0,671d2d7ffa97113ecf03d055,2024-10-26_13h57.56.753,WTP_SM_Choice,2022.2.1,MacIntel,30.03003003,,,,,,,,,,,,,,,,,,43,,,,,,,,,,0.03,1,1.5066,0,2,2,2,1,Go to a bar with my friends and try craft beers or drinks ,Play video games on my pS5 ,0.03,0.04,1.1,0,,,,
,,668beeeac6158723009d2b8a,6685aa9113c938e83b4f1ea0,671d2d7ffa97113ecf03d055,2024-10-26_13h57.56.753,WTP_SM_Choice,2022.2.1,MacIntel,30.03003003,,,,,,,,,,,,,,,,,,44,,,,,,,,,,0.04,2,2.4231,0,3,3,3,1,Go to museums or dramatic theaters with anna,Garden,0.04,0.04,1.1,0,,,,
,,668beeeac6158723009d2b8a,6685aa9113c938e83b4f1ea0,671d2d7ffa97113ecf03d055,2024-10-26_13h57.56.753,WTP_SM_Choice,2022.2.1,MacIntel,30.03003003,,,,,,,,,,,,,,,,,,45,,,,,,,,,,0.04,2,1.242,0,4,4,4,1,Play video games on my pS5 ,Listen to podcasts while driving with anna,0.05,0.04,4.4,1,,,,
,,668beeeac6158723009d2b8a,6685aa9113c938e83b4f1ea0,671d2d7ffa97113ecf03d055,2024-10-26_13h57.56.753,WTP_SM_Choice,2022.2.1,MacIntel,30.03003003,,,,,,,NAN,,NAN,0.96,5.04,,0,44,44,44,1,45,Sam,Rej,Participant_Images/668beeeac6158723009d2b8a/668beeeac6158723009d2b8a_Images/668beeeac6158723009d2b8a_Image_19.jpeg,did not like,2.642157193,,,,,,,,,,,,,,,,,,,,,,
,,668beeeac6158723009d2b8a,6685aa9113c938e83b4f1ea0,671d2d7ffa97113ecf03d055,2024-10-26_13h57.56.753,WTP_SM_Choice,2022.2.1,MacIntel,30.03003003,,,,,space,1.4845,NAN,,NAN,0.96,5.04,,0,45,45,45,1,46,Sam,Rej,Participant_Images/668beeeac6158723009d2b8a/668beeeac6158723009d2b8a_Images/668beeeac6158723009d2b8a_Image_11.jpeg,did not like,4.456234322,,,,,,,,,,,,,,,,,,,,,,
,,668beeeac6158723009d2b8a,6685aa9113c938e83b4f1ea0,671d2d7ffa97113ecf03d055,2024-10-26_13h57.56.753,WTP_SM_Choice,2022.2.1,MacIntel,30.03003003,,,,,space,1.1825,NAN,,NAN,0.96,5.04,,0,46,46,46,1,47,Sam,Rej,Participant_Images/668beeeac6158723009d2b8a/668beeeac6158723009d2b8a_Images/668beeeac6158723009d2b8a_Image_3.jpeg,did not like,4.438512181,,,,,,,,,,,,,,,,,,,,,,
,,668beeeac6158723009d2b8a,6685aa9113c938e83b4f1ea0,671d2d7ffa97113ecf03d055,2024-10-26_13h57.56.753,WTP_SM_Choice,2022.2.1,MacIntel,30.03003003,,,,,space,5.6904,NAN,,NAN,0.96,5.04,,0,47,47,47,1,48,Sam,Rej,Participant_Images/668beeeac6158723009d2b8a/668beeeac6158723009d2b8a_Images/668beeeac6158723009d2b8a_Image_21.jpeg,liked,2.682944783,,,,,,,,,,,,,,,,,,,,,,
,,668beeeac6158723009d2b8a,6685aa9113c938e83b4f1ea0,671d2d7ffa97113ecf03d055,2024-10-26_13h57.56.753,WTP_SM_Choice,2022.2.1,MacIntel,30.03003003,,,,,space,17.0356,NAN,,NAN,0.96,5.04,,0,48,48,48,1,49,Sam,Rej,Participant_Images/668beeeac6158723009d2b8a/668beeeac6158723009d2b8a_Images/668beeeac6158723009d2b8a_Image_7.jpeg,liked,4.51984296,,,,,,,,,,,,,,,,,,,,,,
,,668beeeac6158723009d2b8a,6685aa9113c938e83b4f1ea0,671d2d7ffa97113ecf03d055,2024-10-26_13h57.56.753,WTP_SM_Choice,2022.2.1,MacIntel,30.03003003,,,,,,,,,,,,,,,,,,46,,,,,,space,66.5811,space,0.7502,0.01,1,2.7059,0,0,0,0,1,Watch tv,Go to a bar with my friends and try craft beers or drinks ,0.01,0.05,8.8,1,,,,
,,668beeeac6158723009d2b8a,6685aa9113c938e83b4f1ea0,671d2d7ffa97113ecf03d055,2024-10-26_13h57.56.753,WTP_SM_Choice,2022.2.1,MacIntel,30.03003003,,,,,,,,,,,,,,,,,,47,,,,,,,,,,0.02,1,1.1303,0,1,1,1,1,Read nonfiction collections of essays ,Go to museums or dramatic theaters with anna,0.02,0.05,1.1,1,,,,
,,668beeeac6158723009d2b8a,6685aa9113c938e83b4f1ea0,671d2d7ffa97113ecf03d055,2024-10-26_13h57.56.753,WTP_SM_Choice,2022.2.1,MacIntel,30.03003003,,,,,,,,,,,,,,,,,,48,,,,,,,,,,0.03,1,1.1396,0,2,2,2,1,Play quiz games online,Go to a bar with my friends and try craft beers or drinks ,0.03,0.05,4.4,1,,,,
,,668beeeac6158723009d2b8a,6685aa9113c938e83b4f1ea0,671d2d7ffa97113ecf03d055,2024-10-26_13h57.56.753,WTP_SM_Choice,2022.2.1,MacIntel,30.03003003,,,,,,,,,,,,,,,,,,49,,,,,,,,,,0.04,1,1.1948,0,3,3,3,1,Play video games on my pS5 ,Go to concerts or music events with my partner,0.04,0.05,3.3,1,,,,
,,668beeeac6158723009d2b8a,6685aa9113c938e83b4f1ea0,671d2d7ffa97113ecf03d055,2024-10-26_13h57.56.753,WTP_SM_Choice,2022.2.1,MacIntel,30.03003003,,,,,,,,,,,,,,,,,,50,,,,,,,,,,0.05,1,2.857,0,4,4,4,1,Hang out and driving around while talking with anna,Watch tv,0.05,0.05,1.1,0,,,,
,,668beeeac6158723009d2b8a,6685aa9113c938e83b4f1ea0,671d2d7ffa97113ecf03d055,2024-10-26_13h57.56.753,WTP_SM_Choice,2022.2.1,MacIntel,30.03003003,,,,,,,1,,3,1.11,4.89,,0,49,49,49,1,50,Sam,Rej,Participant_Images/668beeeac6158723009d2b8a/668beeeac6158723009d2b8a_Images/668beeeac6158723009d2b8a_Image_23.jpeg,did not like,3.195382774,,,,,,,,,,,,,,,,,,,space,1.3462,,
,,668beeeac6158723009d2b8a,6685aa9113c938e83b4f1ea0,671d2d7ffa97113ecf03d055,2024-10-26_13h57.56.753,WTP_SM_Choice,2022.2.1,MacIntel,30.03003003,,,space,1.154,space,2.1027,NAN,,NAN,1.11,4.89,,0,50,50,50,1,51,Charlie,Rej,Participant_Images/668beeeac6158723009d2b8a/668beeeac6158723009d2b8a_Images/668beeeac6158723009d2b8a_Image_24.jpeg,liked,1.779333479,,,,,,,,,,,,,,,,,,,,,,
,,668beeeac6158723009d2b8a,6685aa9113c938e83b4f1ea0,671d2d7ffa97113ecf03d055,2024-10-26_13h57.56.753,WTP_SM_Choice,2022.2.1,MacIntel,30.03003003,,,,,space,0.8466,NAN,,NAN,1.11,4.89,,0,51,51,51,1,52,Charlie,Rej,Participant_Images/668beeeac6158723009d2b8a/668beeeac6158723009d2b8a_Images/668beeeac6158723009d2b8a_Image_20.jpeg,liked,4.312468682,,,,,,,,,,,,,,,,,,,,,,
,,668beeeac6158723009d2b8a,6685aa9113c938e83b4f1ea0,671d2d7ffa97113ecf03d055,2024-10-26_13h57.56.753,WTP_SM_Choice,2022.2.1,MacIntel,30.03003003,,,,,space,6.4472,NAN,,NAN,1.11,4.89,,0,52,52,52,1,53,Charlie,Rej,Participant_Images/668beeeac6158723009d2b8a/668beeeac6158723009d2b8a_Images/668beeeac6158723009d2b8a_Image_22.jpeg,liked,4.940433059,,,,,,,,,,,,,,,,,,,,,,
,,668beeeac6158723009d2b8a,6685aa9113c938e83b4f1ea0,671d2d7ffa97113ecf03d055,2024-10-26_13h57.56.753,WTP_SM_Choice,2022.2.1,MacIntel,30.03003003,,,,,space,12.9211,NAN,,NAN,1.11,4.89,,0,53,53,53,1,54,Charlie,Rej,Participant_Images/668beeeac6158723009d2b8a/668beeeac6158723009d2b8a_Images/668beeeac6158723009d2b8a_Image_14.jpeg,did not like,2.7105123,,,,,,,,,,,,,,,,,,,,,,
,,668beeeac6158723009d2b8a,6685aa9113c938e83b4f1ea0,671d2d7ffa97113ecf03d055,2024-10-26_13h57.56.753,WTP_SM_Choice,2022.2.1,MacIntel,30.03003003,,,,,,,,,,,,,,,,,,51,,,,,,space,142.9038,space,32.7941,0.01,2,1.0478,0,0,0,0,1,Go to concerts or music events with my partner,Garden,0.01,0.01,1.1,0,,,,
,,668beeeac6158723009d2b8a,6685aa9113c938e83b4f1ea0,671d2d7ffa97113ecf03d055,2024-10-26_13h57.56.753,WTP_SM_Choice,2022.2.1,MacIntel,30.03003003,,,,,,,,,,,,,,,,,,52,,,,,,,,,,0.01,2,1.2378,0,1,1,1,1,Walk my dog with other people,Research the stock market,0.02,0.01,3.3,0,,,,
,,668beeeac6158723009d2b8a,6685aa9113c938e83b4f1ea0,671d2d7ffa97113ecf03d055,2024-10-26_13h57.56.753,WTP_SM_Choice,2022.2.1,MacIntel,30.03003003,,,,,,,,,,,,,,,,,,53,,,,,,,,,,0.01,2,1.051,0,2,2,2,1,Play quiz games online,Go out to eat and try new foods with my partner,0.03,0.01,1.1,1,,,,
,,668beeeac6158723009d2b8a,6685aa9113c938e83b4f1ea0,671d2d7ffa97113ecf03d055,2024-10-26_13h57.56.753,WTP_SM_Choice,2022.2.1,MacIntel,30.03003003,,,,,,,,,,,,,,,,,,54,,,,,,,,,,0.01,2,0.9884,0,3,3,3,1,Go to a bar with my friends and try craft beers or drinks ,Read nonfiction collections of essays ,0.04,0.01,4.4,0,,,,
,,668beeeac6158723009d2b8a,6685aa9113c938e83b4f1ea0,671d2d7ffa97113ecf03d055,2024-10-26_13h57.56.753,WTP_SM_Choice,2022.2.1,MacIntel,30.03003003,,,,,,,,,,,,,,,,,,55,,,,,,,,,,0.01,2,0.9906,0,4,4,4,1,Watch tv,Go to museums or dramatic theaters with anna,0.05,0.01,1.1,1,,,,
,,668beeeac6158723009d2b8a,6685aa9113c938e83b4f1ea0,671d2d7ffa97113ecf03d055,2024-10-26_13h57.56.753,WTP_SM_Choice,2022.2.1,MacIntel,30.03003003,,,,,,,NAN,,NAN,1.16,4.84,,0,54,54,54,1,55,Charlie,Rej,Participant_Images/668beeeac6158723009d2b8a/668beeeac6158723009d2b8a_Images/668beeeac6158723009d2b8a_Image_7.jpeg,did not like,3.602308302,,,,,,,,,,,,,,,,,,,,,,
,,668beeeac6158723009d2b8a,6685aa9113c938e83b4f1ea0,671d2d7ffa97113ecf03d055,2024-10-26_13h57.56.753,WTP_SM_Choice,2022.2.1,MacIntel,30.03003003,,,,,space,2.5997,NAN,,NAN,1.16,4.84,,0,55,55,55,1,56,Charlie,Rej,Participant_Images/668beeeac6158723009d2b8a/668beeeac6158723009d2b8a_Images/668beeeac6158723009d2b8a_Image_15.jpeg,did not like,4.106391878,,,,,,,,,,,,,,,,,,,,,,
,,668beeeac6158723009d2b8a,6685aa9113c938e83b4f1ea0,671d2d7ffa97113ecf03d055,2024-10-26_13h57.56.753,WTP_SM_Choice,2022.2.1,MacIntel,30.03003003,,,,,space,3.7876,NAN,,NAN,1.16,4.84,,0,56,56,56,1,57,Charlie,Rej,Participant_Images/668beeeac6158723009d2b8a/668beeeac6158723009d2b8a_Images/668beeeac6158723009d2b8a_Image_6.jpeg,did not like,3.799433026,,,,,,,,,,,,,,,,,,,,,,
,,668beeeac6158723009d2b8a,6685aa9113c938e83b4f1ea0,671d2d7ffa97113ecf03d055,2024-10-26_13h57.56.753,WTP_SM_Choice,2022.2.1,MacIntel,30.03003003,,,,,space,3.7537,NAN,,NAN,1.16,4.84,,0,57,57,57,1,58,Charlie,Rej,Participant_Images/668beeeac6158723009d2b8a/668beeeac6158723009d2b8a_Images/668beeeac6158723009d2b8a_Image_2.jpeg,liked,5.246980764,,,,,,,,,,,,,,,,,,,,,,
,,668beeeac6158723009d2b8a,6685aa9113c938e83b4f1ea0,671d2d7ffa97113ecf03d055,2024-10-26_13h57.56.753,WTP_SM_Choice,2022.2.1,MacIntel,30.03003003,,,,,space,3.4254,NAN,,NAN,1.16,4.84,,0,58,58,58,1,59,Charlie,Rej,Participant_Images/668beeeac6158723009d2b8a/668beeeac6158723009d2b8a_Images/668beeeac6158723009d2b8a_Image_11.jpeg,did not like,3.30081769,,,,,,,,,,,,,,,,,,,,,,
,,668beeeac6158723009d2b8a,6685aa9113c938e83b4f1ea0,671d2d7ffa97113ecf03d055,2024-10-26_13h57.56.753,WTP_SM_Choice,2022.2.1,MacIntel,30.03003003,,,,,,,,,,,,,,,,,,56,,,,,,space,20.0937,space,1.6866,0.01,1,1.3723,0,0,0,0,1,Play video games on my pS5 ,Parallel play with my friend anna,0.01,0.02,8.8,1,,,,
,,668beeeac6158723009d2b8a,6685aa9113c938e83b4f1ea0,671d2d7ffa97113ecf03d055,2024-10-26_13h57.56.753,WTP_SM_Choice,2022.2.1,MacIntel,30.03003003,,,,,,,,,,,,,,,,,,57,,,,,,,,,,0.02,1,1.8565,0,1,1,1,1,Research the stock market,Go to museums or dramatic theaters with anna,0.02,0.02,4.4,1,,,,
,,668beeeac6158723009d2b8a,6685aa9113c938e83b4f1ea0,671d2d7ffa97113ecf03d055,2024-10-26_13h57.56.753,WTP_SM_Choice,2022.2.1,MacIntel,30.03003003,,,,,,,,,,,,,,,,,,58,,,,,,,,,,0.02,2,1.1579,0,2,2,2,1,Walk my dog,Watch movies together with my partner,0.03,0.02,4.4,1,,,,
,,668beeeac6158723009d2b8a,6685aa9113c938e83b4f1ea0,671d2d7ffa97113ecf03d055,2024-10-26_13h57.56.753,WTP_SM_Choice,2022.2.1,MacIntel,30.03003003,,,,,,,,,,,,,,,,,,59,,,,,,,,,,0.02,2,1.3629,0,3,3,3,1,Play quiz games online,Watch movies together with my partner,0.04,0.02,4.4,1,,,,
,,668beeeac6158723009d2b8a,6685aa9113c938e83b4f1ea0,671d2d7ffa97113ecf03d055,2024-10-26_13h57.56.753,WTP_SM_Choice,2022.2.1,MacIntel,30.03003003,,,,,,,,,,,,,,,,,,60,,,,,,,,,,0.02,2,2.3665,0,4,4,4,1,Watch movies together with my partner,Journal ,0.05,0.02,1.1,0,,,,
,,668beeeac6158723009d2b8a,6685aa9113c938e83b4f1ea0,671d2d7ffa97113ecf03d055,2024-10-26_13h57.56.753,WTP_SM_Choice,2022.2.1,MacIntel,30.03003003,,,,,,,NAN,,NAN,1.25,4.75,,0,59,59,59,1,60,Charlie,Rej,Participant_Images/668beeeac6158723009d2b8a/668beeeac6158723009d2b8a_Images/668beeeac6158723009d2b8a_Image_5.jpeg,did not like,1.661473164,,,,,,,,,,,,,,,,,,,,,,
,,668beeeac6158723009d2b8a,6685aa9113c938e83b4f1ea0,671d2d7ffa97113ecf03d055,2024-10-26_13h57.56.753,WTP_SM_Choice,2022.2.1,MacIntel,30.03003003,,,,,space,4.3809,NAN,,NAN,1.25,4.75,,0,60,60,60,1,61,Charlie,Rej,Participant_Images/668beeeac6158723009d2b8a/668beeeac6158723009d2b8a_Images/668beeeac6158723009d2b8a_Image_9.jpeg,did not like,3.613205605,,,,,,,,,,,,,,,,,,,,,,
,,668beeeac6158723009d2b8a,6685aa9113c938e83b4f1ea0,671d2d7ffa97113ecf03d055,2024-10-26_13h57.56.753,WTP_SM_Choice,2022.2.1,MacIntel,30.03003003,,,,,space,3.7354,NAN,,NAN,1.25,4.75,,0,61,61,61,1,62,Charlie,Rej,Participant_Images/668beeeac6158723009d2b8a/668beeeac6158723009d2b8a_Images/668beeeac6158723009d2b8a_Image_12.jpeg,did not like,4.988446431,,,,,,,,,,,,,,,,,,,,,,
,,668beeeac6158723009d2b8a,6685aa9113c938e83b4f1ea0,671d2d7ffa97113ecf03d055,2024-10-26_13h57.56.753,WTP_SM_Choice,2022.2.1,MacIntel,30.03003003,,,,,space,1.1678,NAN,,NAN,1.25,4.75,,0,62,62,62,1,63,Charlie,Rej,Participant_Images/668beeeac6158723009d2b8a/668beeeac6158723009d2b8a_Images/668beeeac6158723009d2b8a_Image_13.jpeg,did not like,3.470791822,,,,,,,,,,,,,,,,,,,,,,
,,668beeeac6158723009d2b8a,6685aa9113c938e83b4f1ea0,671d2d7ffa97113ecf03d055,2024-10-26_13h57.56.753,WTP_SM_Choice,2022.2.1,MacIntel,30.03003003,,,,,space,14.3147,NAN,,NAN,1.25,4.75,,0,63,63,63,1,64,Charlie,Rej,Participant_Images/668beeeac6158723009d2b8a/668beeeac6158723009d2b8a_Images/668beeeac6158723009d2b8a_Image_19.jpeg,liked,3.820572462,,,,,,,,,,,,,,,,,,,,,,
,,668beeeac6158723009d2b8a,6685aa9113c938e83b4f1ea0,671d2d7ffa97113ecf03d055,2024-10-26_13h57.56.753,WTP_SM_Choice,2022.2.1,MacIntel,30.03003003,,,,,,,,,,,,,,,,,,61,,,,,,space,28.7196,space,1.0342,0.01,1,1.4171,0,0,0,0,1,Research the stock market,Parallel play with my friend anna,0.01,0.03,3.3,1,,,,
,,668beeeac6158723009d2b8a,6685aa9113c938e83b4f1ea0,671d2d7ffa97113ecf03d055,2024-10-26_13h57.56.753,WTP_SM_Choice,2022.2.1,MacIntel,30.03003003,,,,,,,,,,,,,,,,,,62,,,,,,,,,,0.02,1,1.233,0,1,1,1,1,Go to a bar with my friends and try craft beers or drinks ,Walk my dog,0.02,0.03,3.3,0,,,,
,,668beeeac6158723009d2b8a,6685aa9113c938e83b4f1ea0,671d2d7ffa97113ecf03d055,2024-10-26_13h57.56.753,WTP_SM_Choice,2022.2.1,MacIntel,30.03003003,,,,,,,,,,,,,,,,,,63,,,,,,,,,,0.03,1,1.8591,0,2,2,2,1,Walk my dog with other people,Journal ,0.03,0.03,3.3,0,,,,
,,668beeeac6158723009d2b8a,6685aa9113c938e83b4f1ea0,671d2d7ffa97113ecf03d055,2024-10-26_13h57.56.753,WTP_SM_Choice,2022.2.1,MacIntel,30.03003003,,,,,,,,,,,,,,,,,,64,,,,,,,,,,0.03,2,1.2717,0,3,3,3,1,Travel with anna or my partner,Listen to music,0.04,0.03,1.1,0,,,,
,,668beeeac6158723009d2b8a,6685aa9113c938e83b4f1ea0,671d2d7ffa97113ecf03d055,2024-10-26_13h57.56.753,WTP_SM_Choice,2022.2.1,MacIntel,30.03003003,,,,,,,,,,,,,,,,,,65,,,,,,,,,,0.03,2,1.6218,0,4,4,4,1,Walk my dog with other people,Play quiz games online,0.05,0.03,1.1,0,,,,
,,668beeeac6158723009d2b8a,6685aa9113c938e83b4f1ea0,671d2d7ffa97113ecf03d055,2024-10-26_13h57.56.753,WTP_SM_Choice,2022.2.1,MacIntel,30.03003003,,,,,,,NAN,,NAN,1.37,4.63,,0,64,64,64,1,65,Charlie,Rej,Participant_Images/668beeeac6158723009d2b8a/668beeeac6158723009d2b8a_Images/668beeeac6158723009d2b8a_Image_10.jpeg,did not like,2.455989137,,,,,,,,,,,,,,,,,,,,,,
,,668beeeac6158723009d2b8a,6685aa9113c938e83b4f1ea0,671d2d7ffa97113ecf03d055,2024-10-26_13h57.56.753,WTP_SM_Choice,2022.2.1,MacIntel,30.03003003,,,,,space,1.9692,NAN,,NAN,1.37,4.63,,0,65,65,65,1,66,Charlie,Rej,Participant_Images/668beeeac6158723009d2b8a/668beeeac6158723009d2b8a_Images/668beeeac6158723009d2b8a_Image_4.jpeg,did not like,3.79605092,,,,,,,,,,,,,,,,,,,,,,
,,668beeeac6158723009d2b8a,6685aa9113c938e83b4f1ea0,671d2d7ffa97113ecf03d055,2024-10-26_13h57.56.753,WTP_SM_Choice,2022.2.1,MacIntel,30.03003003,,,,,space,3.5732,NAN,,NAN,1.37,4.63,,0,66,66,66,1,67,Charlie,Rej,Participant_Images/668beeeac6158723009d2b8a/668beeeac6158723009d2b8a_Images/668beeeac6158723009d2b8a_Image_18.jpeg,did not like,3.562416326,,,,,,,,,,,,,,,,,,,,,,
,,668beeeac6158723009d2b8a,6685aa9113c938e83b4f1ea0,671d2d7ffa97113ecf03d055,2024-10-26_13h57.56.753,WTP_SM_Choice,2022.2.1,MacIntel,30.03003003,,,,,space,18.8208,NAN,,NAN,1.37,4.63,,0,67,67,67,1,68,Charlie,Rej,Participant_Images/668beeeac6158723009d2b8a/668beeeac6158723009d2b8a_Images/668beeeac6158723009d2b8a_Image_25.jpeg,did not like,2.843822497,,,,,,,,,,,,,,,,,,,,,,
,,668beeeac6158723009d2b8a,6685aa9113c938e83b4f1ea0,671d2d7ffa97113ecf03d055,2024-10-26_13h57.56.753,WTP_SM_Choice,2022.2.1,MacIntel,30.03003003,,,,,space,5.2228,NAN,,NAN,1.37,4.63,,0,68,68,68,1,69,Charlie,Rej,Participant_Images/668beeeac6158723009d2b8a/668beeeac6158723009d2b8a_Images/668beeeac6158723009d2b8a_Image_17.jpeg,did not like,3.546495948,,,,,,,,,,,,,,,,,,,,,,
,,668beeeac6158723009d2b8a,6685aa9113c938e83b4f1ea0,671d2d7ffa97113ecf03d055,2024-10-26_13h57.56.753,WTP_SM_Choice,2022.2.1,MacIntel,30.03003003,,,,,,,,,,,,,,,,,,66,,,,,,space,313.1303,space,1.4319,0.01,1,1.0129,0,0,0,0,1,Travel with anna or my partner,Do self-care like skincare ,0.01,0.04,1.1,0,,,,
,,668beeeac6158723009d2b8a,6685aa9113c938e83b4f1ea0,671d2d7ffa97113ecf03d055,2024-10-26_13h57.56.753,WTP_SM_Choice,2022.2.1,MacIntel,30.03003003,,,,,,,,,,,,,,,,,,67,,,,,,,,,,0.02,1,1.2029,0,1,1,1,1,Play video games on my pS5 ,Walk my dog with other people,0.02,0.04,8.8,1,,,,
,,668beeeac6158723009d2b8a,6685aa9113c938e83b4f1ea0,671d2d7ffa97113ecf03d055,2024-10-26_13h57.56.753,WTP_SM_Choice,2022.2.1,MacIntel,30.03003003,,,,,,,,,,,,,,,,,,68,,,,,,,,,,0.03,1,0.9117,0,2,2,2,1,Hang out and driving around while talking with anna,Journal ,0.03,0.04,4.4,0,,,,
,,668beeeac6158723009d2b8a,6685aa9113c938e83b4f1ea0,671d2d7ffa97113ecf03d055,2024-10-26_13h57.56.753,WTP_SM_Choice,2022.2.1,MacIntel,30.03003003,,,,,,,,,,,,,,,,,,69,,,,,,,,,,0.04,2,1.749,0,3,3,3,1,Go to concerts or music events with my partner,Play quiz games online,0.04,0.04,1.1,0,,,,
,,668beeeac6158723009d2b8a,6685aa9113c938e83b4f1ea0,671d2d7ffa97113ecf03d055,2024-10-26_13h57.56.753,WTP_SM_Choice,2022.2.1,MacIntel,30.03003003,,,,,,,,,,,,,,,,,,70,,,,,,,,,,0.04,2,1.126,0,4,4,4,1,Research the stock market,Travel with anna or my partner,0.05,0.04,1.1,1,,,,
,,668beeeac6158723009d2b8a,6685aa9113c938e83b4f1ea0,671d2d7ffa97113ecf03d055,2024-10-26_13h57.56.753,WTP_SM_Choice,2022.2.1,MacIntel,30.03003003,,,,,,,NAN,,NAN,1.51,4.49,,0,69,69,69,1,70,Charlie,Rej,Participant_Images/668beeeac6158723009d2b8a/668beeeac6158723009d2b8a_Images/668beeeac6158723009d2b8a_Image_16.jpeg,liked,1.672012706,,,,,,,,,,,,,,,,,,,,,,
,,668beeeac6158723009d2b8a,6685aa9113c938e83b4f1ea0,671d2d7ffa97113ecf03d055,2024-10-26_13h57.56.753,WTP_SM_Choice,2022.2.1,MacIntel,30.03003003,,,,,space,9.2471,NAN,,NAN,1.51,4.49,,0,70,70,70,1,71,Charlie,Rej,Participant_Images/668beeeac6158723009d2b8a/668beeeac6158723009d2b8a_Images/668beeeac6158723009d2b8a_Image_1.jpeg,did not like,4.942172136,,,,,,,,,,,,,,,,,,,,,,
,,668beeeac6158723009d2b8a,6685aa9113c938e83b4f1ea0,671d2d7ffa97113ecf03d055,2024-10-26_13h57.56.753,WTP_SM_Choice,2022.2.1,MacIntel,30.03003003,,,,,space,1.4994,NAN,,NAN,1.51,4.49,,0,71,71,71,1,72,Charlie,Rej,Participant_Images/668beeeac6158723009d2b8a/668beeeac6158723009d2b8a_Images/668beeeac6158723009d2b8a_Image_21.jpeg,did not like,2.50187214,,,,,,,,,,,,,,,,,,,,,,
,,668beeeac6158723009d2b8a,6685aa9113c938e83b4f1ea0,671d2d7ffa97113ecf03d055,2024-10-26_13h57.56.753,WTP_SM_Choice,2022.2.1,MacIntel,30.03003003,,,,,space,22.1003,NAN,,NAN,1.51,4.49,,0,72,72,72,1,73,Charlie,Rej,Participant_Images/668beeeac6158723009d2b8a/668beeeac6158723009d2b8a_Images/668beeeac6158723009d2b8a_Image_8.jpeg,did not like,2.071164779,,,,,,,,,,,,,,,,,,,,,,
,,668beeeac6158723009d2b8a,6685aa9113c938e83b4f1ea0,671d2d7ffa97113ecf03d055,2024-10-26_13h57.56.753,WTP_SM_Choice,2022.2.1,MacIntel,30.03003003,,,,,space,13.6804,NAN,,NAN,1.51,4.49,,0,73,73,73,1,74,Charlie,Rej,Participant_Images/668beeeac6158723009d2b8a/668beeeac6158723009d2b8a_Images/668beeeac6158723009d2b8a_Image_3.jpeg,did not like,5.336503566,,,,,,,,,,,,,,,,,,,,,,
,,668beeeac6158723009d2b8a,6685aa9113c938e83b4f1ea0,671d2d7ffa97113ecf03d055,2024-10-26_13h57.56.753,WTP_SM_Choice,2022.2.1,MacIntel,30.03003003,,,,,,,,,,,,,,,,,,71,,,,,,space,7.1538,space,4.337,0.01,1,1.503,0,0,0,0,1,Garden,Parallel play with my friend anna,0.01,0.05,3.3,1,,,,
,,668beeeac6158723009d2b8a,6685aa9113c938e83b4f1ea0,671d2d7ffa97113ecf03d055,2024-10-26_13h57.56.753,WTP_SM_Choice,2022.2.1,MacIntel,30.03003003,,,,,,,,,,,,,,,,,,72,,,,,,,,,,0.02,1,0.9757,0,1,1,1,1,Listen to music,Go to a bar with my friends and try craft beers or drinks ,0.02,0.05,8.8,1,,,,
,,668beeeac6158723009d2b8a,6685aa9113c938e83b4f1ea0,671d2d7ffa97113ecf03d055,2024-10-26_13h57.56.753,WTP_SM_Choice,2022.2.1,MacIntel,30.03003003,,,,,,,,,,,,,,,,,,73,,,,,,,,,,0.03,1,1.1573,0,2,2,2,1,Do self-care like skincare ,Go to concerts or music events with my partner,0.03,0.05,3.3,1,,,,
,,668beeeac6158723009d2b8a,6685aa9113c938e83b4f1ea0,671d2d7ffa97113ecf03d055,2024-10-26_13h57.56.753,WTP_SM_Choice,2022.2.1,MacIntel,30.03003003,,,,,,,,,,,,,,,,,,74,,,,,,,,,,0.04,1,1.1145,0,3,3,3,1,Garden,Go out to eat and try new foods with my partner,0.04,0.05,4.4,1,,,,
,,668beeeac6158723009d2b8a,6685aa9113c938e83b4f1ea0,671d2d7ffa97113ecf03d055,2024-10-26_13h57.56.753,WTP_SM_Choice,2022.2.1,MacIntel,30.03003003,,,,,,,,,,,,,,,,,,75,,,,,,,,,,0.05,1,2.1077,0,4,4,4,1,Do self-care like skincare ,Go out to eat and try new foods with my partner,0.05,0.05,3.3,1,,,,
,,668beeeac6158723009d2b8a,6685aa9113c938e83b4f1ea0,671d2d7ffa97113ecf03d055,2024-10-26_13h57.56.753,WTP_SM_Choice,2022.2.1,MacIntel,30.03003003,,,,,,,1,,3,1.66,4.34,,0,74,74,74,1,75,Charlie,Rej,Participant_Images/668beeeac6158723009d2b8a/668beeeac6158723009d2b8a_Images/668beeeac6158723009d2b8a_Image_23.jpeg,liked,2.642157193,,,,,,,,,,,,,,,,,,,space,1.5454,,
,,668beeeac6158723009d2b8a,6685aa9113c938e83b4f1ea0,671d2d7ffa97113ecf03d055,2024-10-26_13h57.56.753,WTP_SM_Choice,2022.2.1,MacIntel,30.03003003,,,space,1.615,space,4.9393,NAN,,NAN,1.66,4.34,,0,75,75,75,1,76,Riley,Acc,Participant_Images/668beeeac6158723009d2b8a/668beeeac6158723009d2b8a_Images/668beeeac6158723009d2b8a_Image_6.jpeg,liked,4.456234322,,,,,,,,,,,,,,,,,,,,,,
,,668beeeac6158723009d2b8a,6685aa9113c938e83b4f1ea0,671d2d7ffa97113ecf03d055,2024-10-26_13h57.56.753,WTP_SM_Choice,2022.2.1,MacIntel,30.03003003,,,,,space,2.1489,NAN,,NAN,1.66,4.34,,0,76,76,76,1,77,Riley,Acc,Participant_Images/668beeeac6158723009d2b8a/668beeeac6158723009d2b8a_Images/668beeeac6158723009d2b8a_Image_24.jpeg,did not like,4.438512181,,,,,,,,,,,,,,,,,,,,,,
,,668beeeac6158723009d2b8a,6685aa9113c938e83b4f1ea0,671d2d7ffa97113ecf03d055,2024-10-26_13h57.56.753,WTP_SM_Choice,2022.2.1,MacIntel,30.03003003,,,,,space,2.2534,NAN,,NAN,1.66,4.34,,0,77,77,77,1,78,Riley,Acc,Participant_Images/668beeeac6158723009d2b8a/668beeeac6158723009d2b8a_Images/668beeeac6158723009d2b8a_Image_17.jpeg,did not like,2.682944783,,,,,,,,,,,,,,,,,,,,,,
,,668beeeac6158723009d2b8a,6685aa9113c938e83b4f1ea0,671d2d7ffa97113ecf03d055,2024-10-26_13h57.56.753,WTP_SM_Choice,2022.2.1,MacIntel,30.03003003,,,,,space,10.9165,NAN,,NAN,1.66,4.34,,0,78,78,78,1,79,Riley,Acc,Participant_Images/668beeeac6158723009d2b8a/668beeeac6158723009d2b8a_Images/668beeeac6158723009d2b8a_Image_23.jpeg,liked,4.51984296,,,,,,,,,,,,,,,,,,,,,,
,,668beeeac6158723009d2b8a,6685aa9113c938e83b4f1ea0,671d2d7ffa97113ecf03d055,2024-10-26_13h57.56.753,WTP_SM_Choice,2022.2.1,MacIntel,30.03003003,,,,,,,,,,,,,,,,,,76,,,,,,space,34.7527,space,0.7807,0.01,1,3.4687,0,0,0,0,1,Hang out and driving around while talking with anna,Play video games on my pS5 ,0.01,0.01,1.1,0,,,,
,,668beeeac6158723009d2b8a,6685aa9113c938e83b4f1ea0,671d2d7ffa97113ecf03d055,2024-10-26_13h57.56.753,WTP_SM_Choice,2022.2.1,MacIntel,30.03003003,,,,,,,,,,,,,,,,,,77,,,,,,,,,,0.01,2,2.3767,0,1,1,1,1,Go to concerts or music events with my partner,Watch tv,0.02,0.01,8.8,0,,,,
,,668beeeac6158723009d2b8a,6685aa9113c938e83b4f1ea0,671d2d7ffa97113ecf03d055,2024-10-26_13h57.56.753,WTP_SM_Choice,2022.2.1,MacIntel,30.03003003,,,,,,,,,,,,,,,,,,78,,,,,,,,,,0.01,2,2.2678,0,2,2,2,1,Go out to eat and try new foods with my partner,Walk my dog,0.03,0.01,1.1,0,,,,
,,668beeeac6158723009d2b8a,6685aa9113c938e83b4f1ea0,671d2d7ffa97113ecf03d055,2024-10-26_13h57.56.753,WTP_SM_Choice,2022.2.1,MacIntel,30.03003003,,,,,,,,,,,,,,,,,,79,,,,,,,,,,0.01,2,1.449,0,3,3,3,1,Go out to eat and try new foods with my partner,Listen to music,0.04,0.01,1.1,0,,,,
,,668beeeac6158723009d2b8a,6685aa9113c938e83b4f1ea0,671d2d7ffa97113ecf03d055,2024-10-26_13h57.56.753,WTP_SM_Choice,2022.2.1,MacIntel,30.03003003,,,,,,,,,,,,,,,,,,80,,,,,,,,,,0.01,2,0.8587,0,4,4,4,1,Garden,Hang out and driving around while talking with anna,0.05,0.01,4.4,1,,,,
,,668beeeac6158723009d2b8a,6685aa9113c938e83b4f1ea0,671d2d7ffa97113ecf03d055,2024-10-26_13h57.56.753,WTP_SM_Choice,2022.2.1,MacIntel,30.03003003,,,,,,,NAN,,NAN,1.71,4.29,,0,79,79,79,1,80,Riley,Acc,Participant_Images/668beeeac6158723009d2b8a/668beeeac6158723009d2b8a_Images/668beeeac6158723009d2b8a_Image_12.jpeg,did not like,3.195382774,,,,,,,,,,,,,,,,,,,,,,
,,668beeeac6158723009d2b8a,6685aa9113c938e83b4f1ea0,671d2d7ffa97113ecf03d055,2024-10-26_13h57.56.753,WTP_SM_Choice,2022.2.1,MacIntel,30.03003003,,,,,space,4.0878,NAN,,NAN,1.71,4.29,,0,80,80,80,1,81,Riley,Acc,Participant_Images/668beeeac6158723009d2b8a/668beeeac6158723009d2b8a_Images/668beeeac6158723009d2b8a_Image_7.jpeg,liked,1.779333479,,,,,,,,,,,,,,,,,,,,,,
,,668beeeac6158723009d2b8a,6685aa9113c938e83b4f1ea0,671d2d7ffa97113ecf03d055,2024-10-26_13h57.56.753,WTP_SM_Choice,2022.2.1,MacIntel,30.03003003,,,,,space,8.3065,NAN,,NAN,1.71,4.29,,0,81,81,81,1,82,Riley,Acc,Participant_Images/668beeeac6158723009d2b8a/668beeeac6158723009d2b8a_Images/668beeeac6158723009d2b8a_Image_15.jpeg,did not like,4.312468682,,,,,,,,,,,,,,,,,,,,,,
,,668beeeac6158723009d2b8a,6685aa9113c938e83b4f1ea0,671d2d7ffa97113ecf03d055,2024-10-26_13h57.56.753,WTP_SM_Choice,2022.2.1,MacIntel,30.03003003,,,,,space,7.4403,NAN,,NAN,1.71,4.29,,0,82,82,82,1,83,Riley,Acc,Participant_Images/668beeeac6158723009d2b8a/668beeeac6158723009d2b8a_Images/668beeeac6158723009d2b8a_Image_21.jpeg,liked,4.940433059,,,,,,,,,,,,,,,,,,,,,,
,,668beeeac6158723009d2b8a,6685aa9113c938e83b4f1ea0,671d2d7ffa97113ecf03d055,2024-10-26_13h57.56.753,WTP_SM_Choice,2022.2.1,MacIntel,30.03003003,,,,,space,8.3786,NAN,,NAN,1.71,4.29,,0,83,83,83,1,84,Riley,Acc,Participant_Images/668beeeac6158723009d2b8a/668beeeac6158723009d2b8a_Images/668beeeac6158723009d2b8a_Image_8.jpeg,liked,2.7105123,,,,,,,,,,,,,,,,,,,,,,
,,668beeeac6158723009d2b8a,6685aa9113c938e83b4f1ea0,671d2d7ffa97113ecf03d055,2024-10-26_13h57.56.753,WTP_SM_Choice,2022.2.1,MacIntel,30.03003003,,,,,,,,,,,,,,,,,,81,,,,,,space,1.9152,space,0.8755,0.01,1,2.0774,0,0,0,0,1,Do self-care like skincare ,Parallel play with my friend anna,0.01,0.02,3.3,1,,,,
,,668beeeac6158723009d2b8a,6685aa9113c938e83b4f1ea0,671d2d7ffa97113ecf03d055,2024-10-26_13h57.56.753,WTP_SM_Choice,2022.2.1,MacIntel,30.03003003,,,,,,,,,,,,,,,,,,82,,,,,,,,,,0.02,2,2.5138,0,1,1,1,1,Listen to podcasts while driving with anna,Research the stock market,0.02,0.02,4.4,0,,,,
,,668beeeac6158723009d2b8a,6685aa9113c938e83b4f1ea0,671d2d7ffa97113ecf03d055,2024-10-26_13h57.56.753,WTP_SM_Choice,2022.2.1,MacIntel,30.03003003,,,,,,,,,,,,,,,,,,83,,,,,,,,,,0.02,2,1.1468,0,2,2,2,1,Garden,Walk my dog with other people,0.03,0.02,1.1,1,,,,
,,668beeeac6158723009d2b8a,6685aa9113c938e83b4f1ea0,671d2d7ffa97113ecf03d055,2024-10-26_13h57.56.753,WTP_SM_Choice,2022.2.1,MacIntel,30.03003003,,,,,,,,,,,,,,,,,,84,,,,,,,,,,0.02,2,2.2692,0,3,3,3,1,Hang out and driving around while talking with anna,Read nonfiction collections of essays ,0.04,0.02,3.3,0,,,,
,,668beeeac6158723009d2b8a,6685aa9113c938e83b4f1ea0,671d2d7ffa97113ecf03d055,2024-10-26_13h57.56.753,WTP_SM_Choice,2022.2.1,MacIntel,30.03003003,,,,,,,,,,,,,,,,,,85,,,,,,,,,,0.02,2,1.375,0,4,4,4,1,Go to a bar with my friends and try craft beers or drinks ,Journal ,0.05,0.02,3.3,0,,,,
,,668beeeac6158723009d2b8a,6685aa9113c938e83b4f1ea0,671d2d7ffa97113ecf03d055,2024-10-26_13h57.56.753,WTP_SM_Choice,2022.2.1,MacIntel,30.03003003,,,,,,,NAN,,NAN,1.8,4.2,,0,84,84,84,1,85,Riley,Acc,Participant_Images/668beeeac6158723009d2b8a/668beeeac6158723009d2b8a_Images/668beeeac6158723009d2b8a_Image_5.jpeg,liked,3.602308302,,,,,,,,,,,,,,,,,,,,,,
,,668beeeac6158723009d2b8a,6685aa9113c938e83b4f1ea0,671d2d7ffa97113ecf03d055,2024-10-26_13h57.56.753,WTP_SM_Choice,2022.2.1,MacIntel,30.03003003,,,,,space,2.8462,NAN,,NAN,1.8,4.2,,0,85,85,85,1,86,Riley,Acc,Participant_Images/668beeeac6158723009d2b8a/668beeeac6158723009d2b8a_Images/668beeeac6158723009d2b8a_Image_3.jpeg,did not like,4.106391878,,,,,,,,,,,,,,,,,,,,,,
,,668beeeac6158723009d2b8a,6685aa9113c938e83b4f1ea0,671d2d7ffa97113ecf03d055,2024-10-26_13h57.56.753,WTP_SM_Choice,2022.2.1,MacIntel,30.03003003,,,,,space,0.9729,NAN,,NAN,1.8,4.2,,0,86,86,86,1,87,Riley,Acc,Participant_Images/668beeeac6158723009d2b8a/668beeeac6158723009d2b8a_Images/668beeeac6158723009d2b8a_Image_11.jpeg,liked,3.799433026,,,,,,,,,,,,,,,,,,,,,,
,,668beeeac6158723009d2b8a,6685aa9113c938e83b4f1ea0,671d2d7ffa97113ecf03d055,2024-10-26_13h57.56.753,WTP_SM_Choice,2022.2.1,MacIntel,30.03003003,,,,,space,3.5795,NAN,,NAN,1.8,4.2,,0,87,87,87,1,88,Riley,Acc,Participant_Images/668beeeac6158723009d2b8a/668beeeac6158723009d2b8a_Images/668beeeac6158723009d2b8a_Image_10.jpeg,liked,5.246980764,,,,,,,,,,,,,,,,,,,,,,
,,668beeeac6158723009d2b8a,6685aa9113c938e83b4f1ea0,671d2d7ffa97113ecf03d055,2024-10-26_13h57.56.753,WTP_SM_Choice,2022.2.1,MacIntel,30.03003003,,,,,space,2.6661,NAN,,NAN,1.8,4.2,,0,88,88,88,1,89,Riley,Acc,Participant_Images/668beeeac6158723009d2b8a/668beeeac6158723009d2b8a_Images/668beeeac6158723009d2b8a_Image_19.jpeg,did not like,3.30081769,,,,,,,,,,,,,,,,,,,,,,
,,668beeeac6158723009d2b8a,6685aa9113c938e83b4f1ea0,671d2d7ffa97113ecf03d055,2024-10-26_13h57.56.753,WTP_SM_Choice,2022.2.1,MacIntel,30.03003003,,,,,,,,,,,,,,,,,,86,,,,,,space,111.2905,space,0.8031,0.01,1,3.9543,0,0,0,0,1,Parallel play with my friend anna,Watch tv,0.01,0.03,1.1,0,,,,
,,668beeeac6158723009d2b8a,6685aa9113c938e83b4f1ea0,671d2d7ffa97113ecf03d055,2024-10-26_13h57.56.753,WTP_SM_Choice,2022.2.1,MacIntel,30.03003003,,,,,,,,,,,,,,,,,,87,,,,,,,,,,0.02,1,1.2423,0,1,1,1,1,Research the stock market,Go to a bar with my friends and try craft beers or drinks ,0.02,0.03,4.4,1,,,,
,,668beeeac6158723009d2b8a,6685aa9113c938e83b4f1ea0,671d2d7ffa97113ecf03d055,2024-10-26_13h57.56.753,WTP_SM_Choice,2022.2.1,MacIntel,30.03003003,,,,,,,,,,,,,,,,,,88,,,,,,,,,,0.03,2,3.8346,0,2,2,2,1,Read nonfiction collections of essays ,Walk my dog with other people,0.03,0.03,1.1,1,,,,
,,668beeeac6158723009d2b8a,6685aa9113c938e83b4f1ea0,671d2d7ffa97113ecf03d055,2024-10-26_13h57.56.753,WTP_SM_Choice,2022.2.1,MacIntel,30.03003003,,,,,,,,,,,,,,,,,,89,,,,,,,,,,0.03,2,2.2451,0,3,3,3,1,Play quiz games online,Go to museums or dramatic theaters with anna,0.04,0.03,3.3,1,,,,
,,668beeeac6158723009d2b8a,6685aa9113c938e83b4f1ea0,671d2d7ffa97113ecf03d055,2024-10-26_13h57.56.753,WTP_SM_Choice,2022.2.1,MacIntel,30.03003003,,,,,,,,,,,,,,,,,,90,,,,,,,,,,0.03,2,1.0366,0,4,4,4,1,Read nonfiction collections of essays ,Go to concerts or music events with my partner,0.05,0.03,8.8,1,,,,
,,668beeeac6158723009d2b8a,6685aa9113c938e83b4f1ea0,671d2d7ffa97113ecf03d055,2024-10-26_13h57.56.753,WTP_SM_Choice,2022.2.1,MacIntel,30.03003003,,,,,,,NAN,,NAN,1.92,4.08,,0,89,89,89,1,90,Riley,Acc,Participant_Images/668beeeac6158723009d2b8a/668beeeac6158723009d2b8a_Images/668beeeac6158723009d2b8a_Image_1.jpeg,liked,1.661473164,,,,,,,,,,,,,,,,,,,,,,
,,668beeeac6158723009d2b8a,6685aa9113c938e83b4f1ea0,671d2d7ffa97113ecf03d055,2024-10-26_13h57.56.753,WTP_SM_Choice,2022.2.1,MacIntel,30.03003003,,,,,space,4.2369,NAN,,NAN,1.92,4.08,,0,90,90,90,1,91,Riley,Acc,Participant_Images/668beeeac6158723009d2b8a/668beeeac6158723009d2b8a_Images/668beeeac6158723009d2b8a_Image_9.jpeg,liked,3.613205605,,,,,,,,,,,,,,,,,,,,,,
,,668beeeac6158723009d2b8a,6685aa9113c938e83b4f1ea0,671d2d7ffa97113ecf03d055,2024-10-26_13h57.56.753,WTP_SM_Choice,2022.2.1,MacIntel,30.03003003,,,,,space,6.2274,NAN,,NAN,1.92,4.08,,0,91,91,91,1,92,Riley,Acc,Participant_Images/668beeeac6158723009d2b8a/668beeeac6158723009d2b8a_Images/668beeeac6158723009d2b8a_Image_14.jpeg,liked,4.988446431,,,,,,,,,,,,,,,,,,,,,,
,,668beeeac6158723009d2b8a,6685aa9113c938e83b4f1ea0,671d2d7ffa97113ecf03d055,2024-10-26_13h57.56.753,WTP_SM_Choice,2022.2.1,MacIntel,30.03003003,,,,,space,2.3186,NAN,,NAN,1.92,4.08,,0,92,92,92,1,93,Riley,Acc,Participant_Images/668beeeac6158723009d2b8a/668beeeac6158723009d2b8a_Images/668beeeac6158723009d2b8a_Image_25.jpeg,liked,3.470791822,,,,,,,,,,,,,,,,,,,,,,
,,668beeeac6158723009d2b8a,6685aa9113c938e83b4f1ea0,671d2d7ffa97113ecf03d055,2024-10-26_13h57.56.753,WTP_SM_Choice,2022.2.1,MacIntel,30.03003003,,,,,space,4.4058,NAN,,NAN,1.92,4.08,,0,93,93,93,1,94,Riley,Acc,Participant_Images/668beeeac6158723009d2b8a/668beeeac6158723009d2b8a_Images/668beeeac6158723009d2b8a_Image_2.jpeg,liked,3.820572462,,,,,,,,,,,,,,,,,,,,,,
,,668beeeac6158723009d2b8a,6685aa9113c938e83b4f1ea0,671d2d7ffa97113ecf03d055,2024-10-26_13h57.56.753,WTP_SM_Choice,2022.2.1,MacIntel,30.03003003,,,,,,,,,,,,,,,,,,91,,,,,,space,11.149,space,15.1638,0.01,1,4.2292,0,0,0,0,1,Listen to podcasts while driving with anna,Read nonfiction collections of essays ,0.01,0.04,3.3,0,,,,
,,668beeeac6158723009d2b8a,6685aa9113c938e83b4f1ea0,671d2d7ffa97113ecf03d055,2024-10-26_13h57.56.753,WTP_SM_Choice,2022.2.1,MacIntel,30.03003003,,,,,,,,,,,,,,,,,,92,,,,,,,,,,0.02,1,1.2881,0,1,1,1,1,Travel with anna or my partner,Garden,0.02,0.04,8.8,0,,,,
,,668beeeac6158723009d2b8a,6685aa9113c938e83b4f1ea0,671d2d7ffa97113ecf03d055,2024-10-26_13h57.56.753,WTP_SM_Choice,2022.2.1,MacIntel,30.03003003,,,,,,,,,,,,,,,,,,93,,,,,,,,,,0.03,1,1.2816,0,2,2,2,1,Go to a bar with my friends and try craft beers or drinks ,Do self-care like skincare ,0.03,0.04,1.1,0,,,,
,,668beeeac6158723009d2b8a,6685aa9113c938e83b4f1ea0,671d2d7ffa97113ecf03d055,2024-10-26_13h57.56.753,WTP_SM_Choice,2022.2.1,MacIntel,30.03003003,,,,,,,,,,,,,,,,,,94,,,,,,,,,,0.04,1,2.0781,0,3,3,3,1,Walk my dog,Go to museums or dramatic theaters with anna,0.04,0.04,4.4,1,,,,
,,668beeeac6158723009d2b8a,6685aa9113c938e83b4f1ea0,671d2d7ffa97113ecf03d055,2024-10-26_13h57.56.753,WTP_SM_Choice,2022.2.1,MacIntel,30.03003003,,,,,,,,,,,,,,,,,,95,,,,,,,,,,0.04,2,1.0469,0,4,4,4,1,Hang out and driving around while talking with anna,Do self-care like skincare ,0.05,0.04,4.4,0,,,,
,,668beeeac6158723009d2b8a,6685aa9113c938e83b4f1ea0,671d2d7ffa97113ecf03d055,2024-10-26_13h57.56.753,WTP_SM_Choice,2022.2.1,MacIntel,30.03003003,,,,,,,NAN,,NAN,2.06,3.94,,0,94,94,94,1,95,Riley,Acc,Participant_Images/668beeeac6158723009d2b8a/668beeeac6158723009d2b8a_Images/668beeeac6158723009d2b8a_Image_4.jpeg,liked,2.455989137,,,,,,,,,,,,,,,,,,,,,,
,,668beeeac6158723009d2b8a,6685aa9113c938e83b4f1ea0,671d2d7ffa97113ecf03d055,2024-10-26_13h57.56.753,WTP_SM_Choice,2022.2.1,MacIntel,30.03003003,,,,,space,6.7702,NAN,,NAN,2.06,3.94,,0,95,95,95,1,96,Riley,Acc,Participant_Images/668beeeac6158723009d2b8a/668beeeac6158723009d2b8a_Images/668beeeac6158723009d2b8a_Image_20.jpeg,liked,3.79605092,,,,,,,,,,,,,,,,,,,,,,
,,668beeeac6158723009d2b8a,6685aa9113c938e83b4f1ea0,671d2d7ffa97113ecf03d055,2024-10-26_13h57.56.753,WTP_SM_Choice,2022.2.1,MacIntel,30.03003003,,,,,space,2.768,NAN,,NAN,2.06,3.94,,0,96,96,96,1,97,Riley,Acc,Participant_Images/668beeeac6158723009d2b8a/668beeeac6158723009d2b8a_Images/668beeeac6158723009d2b8a_Image_18.jpeg,did not like,3.562416326,,,,,,,,,,,,,,,,,,,,,,
,,668beeeac6158723009d2b8a,6685aa9113c938e83b4f1ea0,671d2d7ffa97113ecf03d055,2024-10-26_13h57.56.753,WTP_SM_Choice,2022.2.1,MacIntel,30.03003003,,,,,space,5.471,NAN,,NAN,2.06,3.94,,0,97,97,97,1,98,Riley,Acc,Participant_Images/668beeeac6158723009d2b8a/668beeeac6158723009d2b8a_Images/668beeeac6158723009d2b8a_Image_22.jpeg,liked,2.843822497,,,,,,,,,,,,,,,,,,,,,,
,,668beeeac6158723009d2b8a,6685aa9113c938e83b4f1ea0,671d2d7ffa97113ecf03d055,2024-10-26_13h57.56.753,WTP_SM_Choice,2022.2.1,MacIntel,30.03003003,,,,,space,2.0727,NAN,,NAN,2.06,3.94,,0,98,98,98,1,99,Riley,Acc,Participant_Images/668beeeac6158723009d2b8a/668beeeac6158723009d2b8a_Images/668beeeac6158723009d2b8a_Image_13.jpeg,liked,3.546495948,,,,,,,,,,,,,,,,,,,,,,
,,668beeeac6158723009d2b8a,6685aa9113c938e83b4f1ea0,671d2d7ffa97113ecf03d055,2024-10-26_13h57.56.753,WTP_SM_Choice,2022.2.1,MacIntel,30.03003003,,,,,,,,,,,,,,,,,,96,,,,,,space,5.5895,space,1.0603,0.01,1,0.9995,0,0,0,0,1,Journal ,Travel with anna or my partner,0.01,0.05,3.3,1,,,,
,,668beeeac6158723009d2b8a,6685aa9113c938e83b4f1ea0,671d2d7ffa97113ecf03d055,2024-10-26_13h57.56.753,WTP_SM_Choice,2022.2.1,MacIntel,30.03003003,,,,,,,,,,,,,,,,,,97,,,,,,,,,,0.02,1,1.0911,0,1,1,1,1,Watch tv,Watch movies together with my partner,0.02,0.05,1.1,1,,,,
,,668beeeac6158723009d2b8a,6685aa9113c938e83b4f1ea0,671d2d7ffa97113ecf03d055,2024-10-26_13h57.56.753,WTP_SM_Choice,2022.2.1,MacIntel,30.03003003,,,,,,,,,,,,,,,,,,98,,,,,,,,,,0.03,1,1.2572,0,2,2,2,1,Hang out and driving around while talking with anna,Play quiz games online,0.03,0.05,1.1,0,,,,
,,668beeeac6158723009d2b8a,6685aa9113c938e83b4f1ea0,671d2d7ffa97113ecf03d055,2024-10-26_13h57.56.753,WTP_SM_Choice,2022.2.1,MacIntel,30.03003003,,,,,,,,,,,,,,,,,,99,,,,,,,,,,0.04,1,1.637,0,3,3,3,1,Travel with anna or my partner,Play video games on my pS5 ,0.04,0.05,3.3,0,,,,
,,668beeeac6158723009d2b8a,6685aa9113c938e83b4f1ea0,671d2d7ffa97113ecf03d055,2024-10-26_13h57.56.753,WTP_SM_Choice,2022.2.1,MacIntel,30.03003003,,,,,,,,,,,,,,,,,,100,,,,,,,,,,0.05,2,3.1413,0,4,4,4,1,Go out to eat and try new foods with my partner,Watch tv,0.05,0.05,4.4,0,,,,
,,668beeeac6158723009d2b8a,6685aa9113c938e83b4f1ea0,671d2d7ffa97113ecf03d055,2024-10-26_13h57.56.753,WTP_SM_Choice,2022.2.1,MacIntel,30.03003003,,,,,,,3,,3,2.21,3.79,,0,99,99,99,1,100,Riley,Acc,Participant_Images/668beeeac6158723009d2b8a/668beeeac6158723009d2b8a_Images/668beeeac6158723009d2b8a_Image_16.jpeg,liked,1.672012706,,,,,,,,,,,,,,,,,,,space,1.4632,,
,,668beeeac6158723009d2b8a,6685aa9113c938e83b4f1ea0,671d2d7ffa97113ecf03d055,2024-10-26_13h57.56.753,WTP_SM_Choice,2022.2.1,MacIntel,30.03003003,,,,,,,,,,,,,,,,,,,,,,,,,,,,,,,,,,,,,,,,,,,,space,1.2678
