endwelcomescreen_keys.keys,endwelcomescreen_keys.rt,participant,STUDY_ID,SESSION_ID,date,expName,psychopyVersion,OS,frameRate,endinstructionscreen_keys.keys,endinstructionscreen_keys.rt,endpartnermatch_keys.keys,endpartnermatch_keys.rt,sharenextphoto_key.keys,sharenextphoto_key.rt,salience_rating,key_resp.keys,stress_level,subtract_bonus,TOTAL_TASK_BONUS,stresslevel_keypress.keys,entiretaskloop.thisRepN,entiretaskloop.thisTrialN,entiretaskloop.thisN,entiretaskloop.thisIndex,entiretaskloop.ran,TrialNumber,Partner,Condition,Photos,Feedback,FeedbackWait,WTP_ins_keys1.keys,WTP_ins_keys1.rt,WTP_ins_keys2.keys,WTP_ins_keys2.rt,decision_price,responses.keys,responses.rt,WTPTaskLoop.thisRepN,WTPTaskLoop.thisTrialN,WTPTaskLoop.thisN,WTPTaskLoop.thisIndex,WTPTaskLoop.ran,right,left,leftmoney,rightmoney,WTP_ITI,social_left,Resume_keys.keys,Resume_keys.rt,end_screen_keys.keys,end_screen_keys.rt
space,1.4569,668d5a454e51f2df12027e26,6685aa9113c938e83b4f1ea0,66fb5b610485b4edb0fa4255,2024-09-30_21h19.16.154,WTP_SM_Choice,2022.2.1,MacIntel,62.89308176,,,,,,,,,,,,,,,,,,,,,,,,,,,,,,,,,,,,,,,,,,,,,
,,668d5a454e51f2df12027e26,6685aa9113c938e83b4f1ea0,66fb5b610485b4edb0fa4255,2024-09-30_21h19.16.154,WTP_SM_Choice,2022.2.1,MacIntel,62.89308176,space,15.0396,,,,,,,,,,,,,,,,,,,,,,,,,,,,,,,,,,,,,,,,,,,
,,668d5a454e51f2df12027e26,6685aa9113c938e83b4f1ea0,66fb5b610485b4edb0fa4255,2024-09-30_21h19.16.154,WTP_SM_Choice,2022.2.1,MacIntel,62.89308176,,,space,4.6734,space,1.5991,NAN,,NAN,0,6,,0,0,0,0,1,1,Sam,Acc,Participant_Images/668d5a454e51f2df12027e26/668d5a454e51f2df12027e26_Images/668d5a454e51f2df12027e26_Image_10.jpeg,did not like,3.613205605,,,,,,,,,,,,,,,,,,,,,,
,,668d5a454e51f2df12027e26,6685aa9113c938e83b4f1ea0,66fb5b610485b4edb0fa4255,2024-09-30_21h19.16.154,WTP_SM_Choice,2022.2.1,MacIntel,62.89308176,,,,,space,1.3039,NAN,,NAN,0,6,,0,1,1,1,1,2,Sam,Acc,Participant_Images/668d5a454e51f2df12027e26/668d5a454e51f2df12027e26_Images/668d5a454e51f2df12027e26_Image_7.jpeg,liked,4.988446431,,,,,,,,,,,,,,,,,,,,,,
,,668d5a454e51f2df12027e26,6685aa9113c938e83b4f1ea0,66fb5b610485b4edb0fa4255,2024-09-30_21h19.16.154,WTP_SM_Choice,2022.2.1,MacIntel,62.89308176,,,,,space,0.9316,NAN,,NAN,0,6,,0,2,2,2,1,3,Sam,Acc,Participant_Images/668d5a454e51f2df12027e26/668d5a454e51f2df12027e26_Images/668d5a454e51f2df12027e26_Image_13.jpeg,did not like,3.470791822,,,,,,,,,,,,,,,,,,,,,,
,,668d5a454e51f2df12027e26,6685aa9113c938e83b4f1ea0,66fb5b610485b4edb0fa4255,2024-09-30_21h19.16.154,WTP_SM_Choice,2022.2.1,MacIntel,62.89308176,,,,,space,0.4512,NAN,,NAN,0,6,,0,3,3,3,1,4,Sam,Acc,Participant_Images/668d5a454e51f2df12027e26/668d5a454e51f2df12027e26_Images/668d5a454e51f2df12027e26_Image_9.jpeg,liked,3.820572462,,,,,,,,,,,,,,,,,,,,,,
,,668d5a454e51f2df12027e26,6685aa9113c938e83b4f1ea0,66fb5b610485b4edb0fa4255,2024-09-30_21h19.16.154,WTP_SM_Choice,2022.2.1,MacIntel,62.89308176,,,,,,,,,,,,,,,,,,1,,,,,,space,21.078,space,12.045,0.01,1,1.7913,0,0,0,0,1,Play board games at one of my friends house,Run early in the morning around my neighborhood,0.01,0.01,4.4,0,,,,
,,668d5a454e51f2df12027e26,6685aa9113c938e83b4f1ea0,66fb5b610485b4edb0fa4255,2024-09-30_21h19.16.154,WTP_SM_Choice,2022.2.1,MacIntel,62.89308176,,,,,,,,,,,,,,,,,,2,,,,,,,,,,0.01,2,2.0664,0,1,1,1,1,Cycle at the park,Listen to music while we sit outside ,0.02,0.01,8.8,1,,,,
,,668d5a454e51f2df12027e26,6685aa9113c938e83b4f1ea0,66fb5b610485b4edb0fa4255,2024-09-30_21h19.16.154,WTP_SM_Choice,2022.2.1,MacIntel,62.89308176,,,,,,,,,,,,,,,,,,3,,,,,,,,,,0.01,2,1.2027,0,2,2,2,1,Play video games ,Eat pizza while we watch a movie,0.03,0.01,3.3,1,,,,
,,668d5a454e51f2df12027e26,6685aa9113c938e83b4f1ea0,66fb5b610485b4edb0fa4255,2024-09-30_21h19.16.154,WTP_SM_Choice,2022.2.1,MacIntel,62.89308176,,,,,,,,,,,,,,,,,,4,,,,,,,,,,0.04,1,1.203,0,3,3,3,1,Play my guitar in my room,Eat pizza while we watch a movie,0.04,0.01,1.1,1,,,,
,,668d5a454e51f2df12027e26,6685aa9113c938e83b4f1ea0,66fb5b610485b4edb0fa4255,2024-09-30_21h19.16.154,WTP_SM_Choice,2022.2.1,MacIntel,62.89308176,,,,,,,,,,,,,,,,,,5,,,,,,,,,,0.05,1,1.6211,0,4,4,4,1,Look around at local stores,Watch the clouds as I lay down outside,0.05,0.01,1.1,0,,,,
,,668d5a454e51f2df12027e26,6685aa9113c938e83b4f1ea0,66fb5b610485b4edb0fa4255,2024-09-30_21h19.16.154,WTP_SM_Choice,2022.2.1,MacIntel,62.89308176,,,,,,,NAN,,NAN,0.12,5.88,,0,4,4,4,1,5,Sam,Acc,Participant_Images/668d5a454e51f2df12027e26/668d5a454e51f2df12027e26_Images/668d5a454e51f2df12027e26_Image_24.jpeg,liked,2.455989137,,,,,,,,,,,,,,,,,,,,,,
,,668d5a454e51f2df12027e26,6685aa9113c938e83b4f1ea0,66fb5b610485b4edb0fa4255,2024-09-30_21h19.16.154,WTP_SM_Choice,2022.2.1,MacIntel,62.89308176,,,,,space,1.2474,NAN,,NAN,0.12,5.88,,0,5,5,5,1,6,Sam,Acc,Participant_Images/668d5a454e51f2df12027e26/668d5a454e51f2df12027e26_Images/668d5a454e51f2df12027e26_Image_15.jpeg,liked,3.79605092,,,,,,,,,,,,,,,,,,,,,,
,,668d5a454e51f2df12027e26,6685aa9113c938e83b4f1ea0,66fb5b610485b4edb0fa4255,2024-09-30_21h19.16.154,WTP_SM_Choice,2022.2.1,MacIntel,62.89308176,,,,,space,0.9197,NAN,,NAN,0.12,5.88,,0,6,6,6,1,7,Sam,Acc,Participant_Images/668d5a454e51f2df12027e26/668d5a454e51f2df12027e26_Images/668d5a454e51f2df12027e26_Image_5.jpeg,liked,3.562416326,,,,,,,,,,,,,,,,,,,,,,
,,668d5a454e51f2df12027e26,6685aa9113c938e83b4f1ea0,66fb5b610485b4edb0fa4255,2024-09-30_21h19.16.154,WTP_SM_Choice,2022.2.1,MacIntel,62.89308176,,,,,space,0.8313,NAN,,NAN,0.12,5.88,,0,7,7,7,1,8,Sam,Acc,Participant_Images/668d5a454e51f2df12027e26/668d5a454e51f2df12027e26_Images/668d5a454e51f2df12027e26_Image_23.jpeg,liked,2.843822497,,,,,,,,,,,,,,,,,,,,,,
,,668d5a454e51f2df12027e26,6685aa9113c938e83b4f1ea0,66fb5b610485b4edb0fa4255,2024-09-30_21h19.16.154,WTP_SM_Choice,2022.2.1,MacIntel,62.89308176,,,,,space,0.5401,NAN,,NAN,0.12,5.88,,0,8,8,8,1,9,Sam,Acc,Participant_Images/668d5a454e51f2df12027e26/668d5a454e51f2df12027e26_Images/668d5a454e51f2df12027e26_Image_1.jpeg,liked,3.546495948,,,,,,,,,,,,,,,,,,,,,,
,,668d5a454e51f2df12027e26,6685aa9113c938e83b4f1ea0,66fb5b610485b4edb0fa4255,2024-09-30_21h19.16.154,WTP_SM_Choice,2022.2.1,MacIntel,62.89308176,,,,,,,,,,,,,,,,,,6,,,,,,space,4.244,space,2.0323,0.02,2,1.89,0,0,0,0,1,Play hide and seek,Look around at local stores,0.01,0.02,3.3,1,,,,
,,668d5a454e51f2df12027e26,6685aa9113c938e83b4f1ea0,66fb5b610485b4edb0fa4255,2024-09-30_21h19.16.154,WTP_SM_Choice,2022.2.1,MacIntel,62.89308176,,,,,,,,,,,,,,,,,,7,,,,,,,,,,0.02,1,2.2653,0,1,1,1,1,Watch the clouds as I lay down outside,Play with a pet of one of our friends,0.02,0.02,1.1,1,,,,
,,668d5a454e51f2df12027e26,6685aa9113c938e83b4f1ea0,66fb5b610485b4edb0fa4255,2024-09-30_21h19.16.154,WTP_SM_Choice,2022.2.1,MacIntel,62.89308176,,,,,,,,,,,,,,,,,,8,,,,,,,,,,0.03,1,1.9658,0,2,2,2,1,Cycle at the park,Look around at local stores,0.03,0.02,1.1,1,,,,
,,668d5a454e51f2df12027e26,6685aa9113c938e83b4f1ea0,66fb5b610485b4edb0fa4255,2024-09-30_21h19.16.154,WTP_SM_Choice,2022.2.1,MacIntel,62.89308176,,,,,,,,,,,,,,,,,,9,,,,,,,,,,0.04,1,1.657,0,3,3,3,1,Read funny jokes and seeing which one is funnier,Cycle at the park,0.04,0.02,4.4,0,,,,
,,668d5a454e51f2df12027e26,6685aa9113c938e83b4f1ea0,66fb5b610485b4edb0fa4255,2024-09-30_21h19.16.154,WTP_SM_Choice,2022.2.1,MacIntel,62.89308176,,,,,,,,,,,,,,,,,,10,,,,,,,,,,0.05,1,1.4043,0,4,4,4,1,Listen to music while we sit outside ,Watch the clouds as I lay down outside,0.05,0.02,1.1,0,,,,
,,668d5a454e51f2df12027e26,6685aa9113c938e83b4f1ea0,66fb5b610485b4edb0fa4255,2024-09-30_21h19.16.154,WTP_SM_Choice,2022.2.1,MacIntel,62.89308176,,,,,,,NAN,,NAN,0.28,5.72,,0,9,9,9,1,10,Sam,Acc,Participant_Images/668d5a454e51f2df12027e26/668d5a454e51f2df12027e26_Images/668d5a454e51f2df12027e26_Image_22.jpeg,did not like,1.672012706,,,,,,,,,,,,,,,,,,,,,,
,,668d5a454e51f2df12027e26,6685aa9113c938e83b4f1ea0,66fb5b610485b4edb0fa4255,2024-09-30_21h19.16.154,WTP_SM_Choice,2022.2.1,MacIntel,62.89308176,,,,,space,1.4622,NAN,,NAN,0.28,5.72,,0,10,10,10,1,11,Sam,Acc,Participant_Images/668d5a454e51f2df12027e26/668d5a454e51f2df12027e26_Images/668d5a454e51f2df12027e26_Image_4.jpeg,did not like,4.942172136,,,,,,,,,,,,,,,,,,,,,,
,,668d5a454e51f2df12027e26,6685aa9113c938e83b4f1ea0,66fb5b610485b4edb0fa4255,2024-09-30_21h19.16.154,WTP_SM_Choice,2022.2.1,MacIntel,62.89308176,,,,,space,0.7514,NAN,,NAN,0.28,5.72,,0,11,11,11,1,12,Sam,Acc,Participant_Images/668d5a454e51f2df12027e26/668d5a454e51f2df12027e26_Images/668d5a454e51f2df12027e26_Image_25.jpeg,did not like,2.50187214,,,,,,,,,,,,,,,,,,,,,,
,,668d5a454e51f2df12027e26,6685aa9113c938e83b4f1ea0,66fb5b610485b4edb0fa4255,2024-09-30_21h19.16.154,WTP_SM_Choice,2022.2.1,MacIntel,62.89308176,,,,,space,0.6649,NAN,,NAN,0.28,5.72,,0,12,12,12,1,13,Sam,Acc,Participant_Images/668d5a454e51f2df12027e26/668d5a454e51f2df12027e26_Images/668d5a454e51f2df12027e26_Image_20.jpeg,liked,2.071164779,,,,,,,,,,,,,,,,,,,,,,
,,668d5a454e51f2df12027e26,6685aa9113c938e83b4f1ea0,66fb5b610485b4edb0fa4255,2024-09-30_21h19.16.154,WTP_SM_Choice,2022.2.1,MacIntel,62.89308176,,,,,space,0.5227,NAN,,NAN,0.28,5.72,,0,13,13,13,1,14,Sam,Acc,Participant_Images/668d5a454e51f2df12027e26/668d5a454e51f2df12027e26_Images/668d5a454e51f2df12027e26_Image_2.jpeg,liked,5.336503566,,,,,,,,,,,,,,,,,,,,,,
,,668d5a454e51f2df12027e26,6685aa9113c938e83b4f1ea0,66fb5b610485b4edb0fa4255,2024-09-30_21h19.16.154,WTP_SM_Choice,2022.2.1,MacIntel,62.89308176,,,,,,,,,,,,,,,,,,11,,,,,,space,2.2812,space,3.777,0.03,2,2.0714,0,0,0,0,1,Play my guitar in my room,Walking around the park while we talk,0.01,0.03,3.3,1,,,,
,,668d5a454e51f2df12027e26,6685aa9113c938e83b4f1ea0,66fb5b610485b4edb0fa4255,2024-09-30_21h19.16.154,WTP_SM_Choice,2022.2.1,MacIntel,62.89308176,,,,,,,,,,,,,,,,,,12,,,,,,,,,,0.03,2,1.4182,0,1,1,1,1,Run early in the morning around my neighborhood,Look around at local stores,0.02,0.03,4.4,1,,,,
,,668d5a454e51f2df12027e26,6685aa9113c938e83b4f1ea0,66fb5b610485b4edb0fa4255,2024-09-30_21h19.16.154,WTP_SM_Choice,2022.2.1,MacIntel,62.89308176,,,,,,,,,,,,,,,,,,13,,,,,,,,,,0.03,1,2.3214,0,2,2,2,1,Run early in the morning around my neighborhood,Walking around the park while we talk,0.03,0.03,1.1,1,,,,
,,668d5a454e51f2df12027e26,6685aa9113c938e83b4f1ea0,66fb5b610485b4edb0fa4255,2024-09-30_21h19.16.154,WTP_SM_Choice,2022.2.1,MacIntel,62.89308176,,,,,,,,,,,,,,,,,,14,,,,,,,,,,0.04,1,1.7201,0,3,3,3,1,Play my guitar in my room,Look around at local stores,0.04,0.03,3.3,1,,,,
,,668d5a454e51f2df12027e26,6685aa9113c938e83b4f1ea0,66fb5b610485b4edb0fa4255,2024-09-30_21h19.16.154,WTP_SM_Choice,2022.2.1,MacIntel,62.89308176,,,,,,,,,,,,,,,,,,15,,,,,,,,,,0.05,1,1.0017,0,4,4,4,1,Eat pizza while we watch a movie,Shop online or in stores,0.05,0.03,4.4,0,,,,
,,668d5a454e51f2df12027e26,6685aa9113c938e83b4f1ea0,66fb5b610485b4edb0fa4255,2024-09-30_21h19.16.154,WTP_SM_Choice,2022.2.1,MacIntel,62.89308176,,,,,,,NAN,,NAN,0.46,5.54,,0,14,14,14,1,15,Sam,Acc,Participant_Images/668d5a454e51f2df12027e26/668d5a454e51f2df12027e26_Images/668d5a454e51f2df12027e26_Image_21.jpeg,liked,2.642157193,,,,,,,,,,,,,,,,,,,,,,
,,668d5a454e51f2df12027e26,6685aa9113c938e83b4f1ea0,66fb5b610485b4edb0fa4255,2024-09-30_21h19.16.154,WTP_SM_Choice,2022.2.1,MacIntel,62.89308176,,,,,space,0.3875,NAN,,NAN,0.46,5.54,,0,15,15,15,1,16,Sam,Acc,Participant_Images/668d5a454e51f2df12027e26/668d5a454e51f2df12027e26_Images/668d5a454e51f2df12027e26_Image_16.jpeg,liked,4.456234322,,,,,,,,,,,,,,,,,,,,,,
,,668d5a454e51f2df12027e26,6685aa9113c938e83b4f1ea0,66fb5b610485b4edb0fa4255,2024-09-30_21h19.16.154,WTP_SM_Choice,2022.2.1,MacIntel,62.89308176,,,,,space,0.7139,NAN,,NAN,0.46,5.54,,0,16,16,16,1,17,Sam,Acc,Participant_Images/668d5a454e51f2df12027e26/668d5a454e51f2df12027e26_Images/668d5a454e51f2df12027e26_Image_3.jpeg,did not like,4.438512181,,,,,,,,,,,,,,,,,,,,,,
,,668d5a454e51f2df12027e26,6685aa9113c938e83b4f1ea0,66fb5b610485b4edb0fa4255,2024-09-30_21h19.16.154,WTP_SM_Choice,2022.2.1,MacIntel,62.89308176,,,,,space,0.601,NAN,,NAN,0.46,5.54,,0,17,17,17,1,18,Sam,Acc,Participant_Images/668d5a454e51f2df12027e26/668d5a454e51f2df12027e26_Images/668d5a454e51f2df12027e26_Image_18.jpeg,liked,2.682944783,,,,,,,,,,,,,,,,,,,,,,
,,668d5a454e51f2df12027e26,6685aa9113c938e83b4f1ea0,66fb5b610485b4edb0fa4255,2024-09-30_21h19.16.154,WTP_SM_Choice,2022.2.1,MacIntel,62.89308176,,,,,space,1.5947,NAN,,NAN,0.46,5.54,,0,18,18,18,1,19,Sam,Acc,Participant_Images/668d5a454e51f2df12027e26/668d5a454e51f2df12027e26_Images/668d5a454e51f2df12027e26_Image_19.jpeg,liked,4.51984296,,,,,,,,,,,,,,,,,,,,,,
,,668d5a454e51f2df12027e26,6685aa9113c938e83b4f1ea0,66fb5b610485b4edb0fa4255,2024-09-30_21h19.16.154,WTP_SM_Choice,2022.2.1,MacIntel,62.89308176,,,,,,,,,,,,,,,,,,16,,,,,,space,1.5525,space,1.4966,0.04,2,1.4657,0,0,0,0,1,Play my guitar in my room,Laugh at funny posts we run into,0.01,0.04,1.1,1,,,,
,,668d5a454e51f2df12027e26,6685aa9113c938e83b4f1ea0,66fb5b610485b4edb0fa4255,2024-09-30_21h19.16.154,WTP_SM_Choice,2022.2.1,MacIntel,62.89308176,,,,,,,,,,,,,,,,,,17,,,,,,,,,,0.04,2,1.3208,0,1,1,1,1,Listen to music while we sit outside ,Shop online or in stores,0.02,0.04,8.8,0,,,,
,,668d5a454e51f2df12027e26,6685aa9113c938e83b4f1ea0,66fb5b610485b4edb0fa4255,2024-09-30_21h19.16.154,WTP_SM_Choice,2022.2.1,MacIntel,62.89308176,,,,,,,,,,,,,,,,,,18,,,,,,,,,,0.04,2,1.0178,0,2,2,2,1,Listen to music while I relax,Cruise around in the car,0.03,0.04,3.3,1,,,,
,,668d5a454e51f2df12027e26,6685aa9113c938e83b4f1ea0,66fb5b610485b4edb0fa4255,2024-09-30_21h19.16.154,WTP_SM_Choice,2022.2.1,MacIntel,62.89308176,,,,,,,,,,,,,,,,,,19,,,,,,,,,,0.04,1,2.3406,0,3,3,3,1,Play hide and seek,Cruise around in the car,0.04,0.04,3.3,1,,,,
,,668d5a454e51f2df12027e26,6685aa9113c938e83b4f1ea0,66fb5b610485b4edb0fa4255,2024-09-30_21h19.16.154,WTP_SM_Choice,2022.2.1,MacIntel,62.89308176,,,,,,,,,,,,,,,,,,20,,,,,,,,,,0.05,1,1.1532,0,4,4,4,1,Play hide and seek,Play with a pet of one of our friends,0.05,0.04,1.1,1,,,,
,,668d5a454e51f2df12027e26,6685aa9113c938e83b4f1ea0,66fb5b610485b4edb0fa4255,2024-09-30_21h19.16.154,WTP_SM_Choice,2022.2.1,MacIntel,62.89308176,,,,,,,NAN,,NAN,0.67,5.33,,0,19,19,19,1,20,Sam,Acc,Participant_Images/668d5a454e51f2df12027e26/668d5a454e51f2df12027e26_Images/668d5a454e51f2df12027e26_Image_11.jpeg,liked,3.195382774,,,,,,,,,,,,,,,,,,,,,,
,,668d5a454e51f2df12027e26,6685aa9113c938e83b4f1ea0,66fb5b610485b4edb0fa4255,2024-09-30_21h19.16.154,WTP_SM_Choice,2022.2.1,MacIntel,62.89308176,,,,,space,0.8865,NAN,,NAN,0.67,5.33,,0,20,20,20,1,21,Sam,Acc,Participant_Images/668d5a454e51f2df12027e26/668d5a454e51f2df12027e26_Images/668d5a454e51f2df12027e26_Image_17.jpeg,did not like,1.779333479,,,,,,,,,,,,,,,,,,,,,,
,,668d5a454e51f2df12027e26,6685aa9113c938e83b4f1ea0,66fb5b610485b4edb0fa4255,2024-09-30_21h19.16.154,WTP_SM_Choice,2022.2.1,MacIntel,62.89308176,,,,,space,0.7564,NAN,,NAN,0.67,5.33,,0,21,21,21,1,22,Sam,Acc,Participant_Images/668d5a454e51f2df12027e26/668d5a454e51f2df12027e26_Images/668d5a454e51f2df12027e26_Image_8.jpeg,liked,4.312468682,,,,,,,,,,,,,,,,,,,,,,
,,668d5a454e51f2df12027e26,6685aa9113c938e83b4f1ea0,66fb5b610485b4edb0fa4255,2024-09-30_21h19.16.154,WTP_SM_Choice,2022.2.1,MacIntel,62.89308176,,,,,space,0.6692,NAN,,NAN,0.67,5.33,,0,22,22,22,1,23,Sam,Acc,Participant_Images/668d5a454e51f2df12027e26/668d5a454e51f2df12027e26_Images/668d5a454e51f2df12027e26_Image_6.jpeg,liked,4.940433059,,,,,,,,,,,,,,,,,,,,,,
,,668d5a454e51f2df12027e26,6685aa9113c938e83b4f1ea0,66fb5b610485b4edb0fa4255,2024-09-30_21h19.16.154,WTP_SM_Choice,2022.2.1,MacIntel,62.89308176,,,,,space,0.7719,NAN,,NAN,0.67,5.33,,0,23,23,23,1,24,Sam,Acc,Participant_Images/668d5a454e51f2df12027e26/668d5a454e51f2df12027e26_Images/668d5a454e51f2df12027e26_Image_12.jpeg,liked,2.7105123,,,,,,,,,,,,,,,,,,,,,,
,,668d5a454e51f2df12027e26,6685aa9113c938e83b4f1ea0,66fb5b610485b4edb0fa4255,2024-09-30_21h19.16.154,WTP_SM_Choice,2022.2.1,MacIntel,62.89308176,,,,,,,,,,,,,,,,,,21,,,,,,space,17.8645,space,1.3358,0.01,1,1.3733,0,0,0,0,1,Play board games at one of my friends house,Play video games ,0.01,0.05,8.8,0,,,,
,,668d5a454e51f2df12027e26,6685aa9113c938e83b4f1ea0,66fb5b610485b4edb0fa4255,2024-09-30_21h19.16.154,WTP_SM_Choice,2022.2.1,MacIntel,62.89308176,,,,,,,,,,,,,,,,,,22,,,,,,,,,,0.02,1,0.9853,0,1,1,1,1,Read funny jokes and seeing which one is funnier,Play my guitar in my room,0.02,0.05,4.4,0,,,,
,,668d5a454e51f2df12027e26,6685aa9113c938e83b4f1ea0,66fb5b610485b4edb0fa4255,2024-09-30_21h19.16.154,WTP_SM_Choice,2022.2.1,MacIntel,62.89308176,,,,,,,,,,,,,,,,,,23,,,,,,,,,,0.03,1,1.093,0,2,2,2,1,Play video games ,Cruise around in the car,0.03,0.05,1.1,1,,,,
,,668d5a454e51f2df12027e26,6685aa9113c938e83b4f1ea0,66fb5b610485b4edb0fa4255,2024-09-30_21h19.16.154,WTP_SM_Choice,2022.2.1,MacIntel,62.89308176,,,,,,,,,,,,,,,,,,24,,,,,,,,,,0.04,1,1.2082,0,3,3,3,1,Read books to my baby in our room,Read funny jokes and seeing which one is funnier,0.04,0.05,4.4,1,,,,
,,668d5a454e51f2df12027e26,6685aa9113c938e83b4f1ea0,66fb5b610485b4edb0fa4255,2024-09-30_21h19.16.154,WTP_SM_Choice,2022.2.1,MacIntel,62.89308176,,,,,,,,,,,,,,,,,,25,,,,,,,,,,0.05,1,1.4196,0,4,4,4,1,Read books to my baby in our room,Play with a pet of one of our friends,0.05,0.05,3.3,1,,,,
,,668d5a454e51f2df12027e26,6685aa9113c938e83b4f1ea0,66fb5b610485b4edb0fa4255,2024-09-30_21h19.16.154,WTP_SM_Choice,2022.2.1,MacIntel,62.89308176,,,,,,,1,,3,0.82,5.18,,0,24,24,24,1,25,Sam,Acc,Participant_Images/668d5a454e51f2df12027e26/668d5a454e51f2df12027e26_Images/668d5a454e51f2df12027e26_Image_14.jpeg,liked,3.602308302,,,,,,,,,,,,,,,,,,,space,1.372,,
,,668d5a454e51f2df12027e26,6685aa9113c938e83b4f1ea0,66fb5b610485b4edb0fa4255,2024-09-30_21h19.16.154,WTP_SM_Choice,2022.2.1,MacIntel,62.89308176,,,space,1.8181,space,1.0182,NAN,,NAN,0.82,5.18,,0,25,25,25,1,26,Charlie,Rej,Participant_Images/668d5a454e51f2df12027e26/668d5a454e51f2df12027e26_Images/668d5a454e51f2df12027e26_Image_23.jpeg,did not like,4.106391878,,,,,,,,,,,,,,,,,,,,,,
,,668d5a454e51f2df12027e26,6685aa9113c938e83b4f1ea0,66fb5b610485b4edb0fa4255,2024-09-30_21h19.16.154,WTP_SM_Choice,2022.2.1,MacIntel,62.89308176,,,,,space,1.1144,NAN,,NAN,0.82,5.18,,0,26,26,26,1,27,Charlie,Rej,Participant_Images/668d5a454e51f2df12027e26/668d5a454e51f2df12027e26_Images/668d5a454e51f2df12027e26_Image_19.jpeg,did not like,3.799433026,,,,,,,,,,,,,,,,,,,,,,
,,668d5a454e51f2df12027e26,6685aa9113c938e83b4f1ea0,66fb5b610485b4edb0fa4255,2024-09-30_21h19.16.154,WTP_SM_Choice,2022.2.1,MacIntel,62.89308176,,,,,space,4.5955,NAN,,NAN,0.82,5.18,,0,27,27,27,1,28,Charlie,Rej,Participant_Images/668d5a454e51f2df12027e26/668d5a454e51f2df12027e26_Images/668d5a454e51f2df12027e26_Image_9.jpeg,liked,5.246980764,,,,,,,,,,,,,,,,,,,,,,
,,668d5a454e51f2df12027e26,6685aa9113c938e83b4f1ea0,66fb5b610485b4edb0fa4255,2024-09-30_21h19.16.154,WTP_SM_Choice,2022.2.1,MacIntel,62.89308176,,,,,space,2.9791,NAN,,NAN,0.82,5.18,,0,28,28,28,1,29,Charlie,Rej,Participant_Images/668d5a454e51f2df12027e26/668d5a454e51f2df12027e26_Images/668d5a454e51f2df12027e26_Image_7.jpeg,did not like,3.30081769,,,,,,,,,,,,,,,,,,,,,,
,,668d5a454e51f2df12027e26,6685aa9113c938e83b4f1ea0,66fb5b610485b4edb0fa4255,2024-09-30_21h19.16.154,WTP_SM_Choice,2022.2.1,MacIntel,62.89308176,,,,,,,,,,,,,,,,,,26,,,,,,space,4.1044,space,1.2957,0.01,1,1.0535,0,0,0,0,1,Play hide and seek,Cook something fun to eat together,0.01,0.01,4.4,1,,,,
,,668d5a454e51f2df12027e26,6685aa9113c938e83b4f1ea0,66fb5b610485b4edb0fa4255,2024-09-30_21h19.16.154,WTP_SM_Choice,2022.2.1,MacIntel,62.89308176,,,,,,,,,,,,,,,,,,27,,,,,,,,,,0.01,2,1.256,0,1,1,1,1,Walking around the park while we talk,Read books to my baby in our room,0.02,0.01,3.3,0,,,,
,,668d5a454e51f2df12027e26,6685aa9113c938e83b4f1ea0,66fb5b610485b4edb0fa4255,2024-09-30_21h19.16.154,WTP_SM_Choice,2022.2.1,MacIntel,62.89308176,,,,,,,,,,,,,,,,,,28,,,,,,,,,,0.01,2,1.6052,0,2,2,2,1,Listen to music while I relax,Play board games at one of my friends house,0.03,0.01,3.3,1,,,,
,,668d5a454e51f2df12027e26,6685aa9113c938e83b4f1ea0,66fb5b610485b4edb0fa4255,2024-09-30_21h19.16.154,WTP_SM_Choice,2022.2.1,MacIntel,62.89308176,,,,,,,,,,,,,,,,,,29,,,,,,,,,,0.01,2,0.9996,0,3,3,3,1,Play board games at one of my friends house,Read books to my baby in our room,0.04,0.01,4.4,0,,,,
,,668d5a454e51f2df12027e26,6685aa9113c938e83b4f1ea0,66fb5b610485b4edb0fa4255,2024-09-30_21h19.16.154,WTP_SM_Choice,2022.2.1,MacIntel,62.89308176,,,,,,,,,,,,,,,,,,30,,,,,,,,,,0.01,2,1.1173,0,4,4,4,1,Listen to music while I relax,Play with a pet of one of our friends,0.05,0.01,8.8,1,,,,
,,668d5a454e51f2df12027e26,6685aa9113c938e83b4f1ea0,66fb5b610485b4edb0fa4255,2024-09-30_21h19.16.154,WTP_SM_Choice,2022.2.1,MacIntel,62.89308176,,,,,,,NAN,,NAN,0.87,5.13,,0,29,29,29,1,30,Charlie,Rej,Participant_Images/668d5a454e51f2df12027e26/668d5a454e51f2df12027e26_Images/668d5a454e51f2df12027e26_Image_16.jpeg,did not like,1.661473164,,,,,,,,,,,,,,,,,,,,,,
,,668d5a454e51f2df12027e26,6685aa9113c938e83b4f1ea0,66fb5b610485b4edb0fa4255,2024-09-30_21h19.16.154,WTP_SM_Choice,2022.2.1,MacIntel,62.89308176,,,,,space,3.5823,NAN,,NAN,0.87,5.13,,0,30,30,30,1,31,Charlie,Rej,Participant_Images/668d5a454e51f2df12027e26/668d5a454e51f2df12027e26_Images/668d5a454e51f2df12027e26_Image_6.jpeg,did not like,3.613205605,,,,,,,,,,,,,,,,,,,,,,
,,668d5a454e51f2df12027e26,6685aa9113c938e83b4f1ea0,66fb5b610485b4edb0fa4255,2024-09-30_21h19.16.154,WTP_SM_Choice,2022.2.1,MacIntel,62.89308176,,,,,space,1.8786,NAN,,NAN,0.87,5.13,,0,31,31,31,1,32,Charlie,Rej,Participant_Images/668d5a454e51f2df12027e26/668d5a454e51f2df12027e26_Images/668d5a454e51f2df12027e26_Image_5.jpeg,did not like,4.988446431,,,,,,,,,,,,,,,,,,,,,,
,,668d5a454e51f2df12027e26,6685aa9113c938e83b4f1ea0,66fb5b610485b4edb0fa4255,2024-09-30_21h19.16.154,WTP_SM_Choice,2022.2.1,MacIntel,62.89308176,,,,,space,5.5133,NAN,,NAN,0.87,5.13,,0,32,32,32,1,33,Charlie,Rej,Participant_Images/668d5a454e51f2df12027e26/668d5a454e51f2df12027e26_Images/668d5a454e51f2df12027e26_Image_2.jpeg,liked,3.470791822,,,,,,,,,,,,,,,,,,,,,,
,,668d5a454e51f2df12027e26,6685aa9113c938e83b4f1ea0,66fb5b610485b4edb0fa4255,2024-09-30_21h19.16.154,WTP_SM_Choice,2022.2.1,MacIntel,62.89308176,,,,,space,8.0704,NAN,,NAN,0.87,5.13,,0,33,33,33,1,34,Charlie,Rej,Participant_Images/668d5a454e51f2df12027e26/668d5a454e51f2df12027e26_Images/668d5a454e51f2df12027e26_Image_22.jpeg,liked,3.820572462,,,,,,,,,,,,,,,,,,,,,,
,,668d5a454e51f2df12027e26,6685aa9113c938e83b4f1ea0,66fb5b610485b4edb0fa4255,2024-09-30_21h19.16.154,WTP_SM_Choice,2022.2.1,MacIntel,62.89308176,,,,,,,,,,,,,,,,,,31,,,,,,space,1.704,space,0.7881,0.01,1,1.4659,0,0,0,0,1,Cook something fun to eat together,Play video games ,0.01,0.02,8.8,0,,,,
,,668d5a454e51f2df12027e26,6685aa9113c938e83b4f1ea0,66fb5b610485b4edb0fa4255,2024-09-30_21h19.16.154,WTP_SM_Choice,2022.2.1,MacIntel,62.89308176,,,,,,,,,,,,,,,,,,32,,,,,,,,,,0.02,1,2.6318,0,1,1,1,1,Play hide and seek,Listen to music while we sit outside ,0.02,0.02,1.1,1,,,,
,,668d5a454e51f2df12027e26,6685aa9113c938e83b4f1ea0,66fb5b610485b4edb0fa4255,2024-09-30_21h19.16.154,WTP_SM_Choice,2022.2.1,MacIntel,62.89308176,,,,,,,,,,,,,,,,,,33,,,,,,,,,,0.02,2,1.7338,0,2,2,2,1,Eat pizza while we watch a movie,Listen to music while I relax,0.03,0.02,4.4,0,,,,
,,668d5a454e51f2df12027e26,6685aa9113c938e83b4f1ea0,66fb5b610485b4edb0fa4255,2024-09-30_21h19.16.154,WTP_SM_Choice,2022.2.1,MacIntel,62.89308176,,,,,,,,,,,,,,,,,,34,,,,,,,,,,0.02,2,1.8351,0,3,3,3,1,Cook something fun to eat together,Listen to music while I relax,0.04,0.02,3.3,0,,,,
,,668d5a454e51f2df12027e26,6685aa9113c938e83b4f1ea0,66fb5b610485b4edb0fa4255,2024-09-30_21h19.16.154,WTP_SM_Choice,2022.2.1,MacIntel,62.89308176,,,,,,,,,,,,,,,,,,35,,,,,,,,,,0.02,2,1.0396,0,4,4,4,1,Walking around the park while we talk,Listen to music while I relax,0.05,0.02,1.1,0,,,,
,,668d5a454e51f2df12027e26,6685aa9113c938e83b4f1ea0,66fb5b610485b4edb0fa4255,2024-09-30_21h19.16.154,WTP_SM_Choice,2022.2.1,MacIntel,62.89308176,,,,,,,NAN,,NAN,0.96,5.04,,0,34,34,34,1,35,Charlie,Rej,Participant_Images/668d5a454e51f2df12027e26/668d5a454e51f2df12027e26_Images/668d5a454e51f2df12027e26_Image_12.jpeg,did not like,2.455989137,,,,,,,,,,,,,,,,,,,,,,
,,668d5a454e51f2df12027e26,6685aa9113c938e83b4f1ea0,66fb5b610485b4edb0fa4255,2024-09-30_21h19.16.154,WTP_SM_Choice,2022.2.1,MacIntel,62.89308176,,,,,space,0.753,NAN,,NAN,0.96,5.04,,0,35,35,35,1,36,Charlie,Rej,Participant_Images/668d5a454e51f2df12027e26/668d5a454e51f2df12027e26_Images/668d5a454e51f2df12027e26_Image_8.jpeg,did not like,3.79605092,,,,,,,,,,,,,,,,,,,,,,
,,668d5a454e51f2df12027e26,6685aa9113c938e83b4f1ea0,66fb5b610485b4edb0fa4255,2024-09-30_21h19.16.154,WTP_SM_Choice,2022.2.1,MacIntel,62.89308176,,,,,space,1.5462,NAN,,NAN,0.96,5.04,,0,36,36,36,1,37,Charlie,Rej,Participant_Images/668d5a454e51f2df12027e26/668d5a454e51f2df12027e26_Images/668d5a454e51f2df12027e26_Image_11.jpeg,liked,3.562416326,,,,,,,,,,,,,,,,,,,,,,
,,668d5a454e51f2df12027e26,6685aa9113c938e83b4f1ea0,66fb5b610485b4edb0fa4255,2024-09-30_21h19.16.154,WTP_SM_Choice,2022.2.1,MacIntel,62.89308176,,,,,space,2.9959,NAN,,NAN,0.96,5.04,,0,37,37,37,1,38,Charlie,Rej,Participant_Images/668d5a454e51f2df12027e26/668d5a454e51f2df12027e26_Images/668d5a454e51f2df12027e26_Image_1.jpeg,did not like,2.843822497,,,,,,,,,,,,,,,,,,,,,,
,,668d5a454e51f2df12027e26,6685aa9113c938e83b4f1ea0,66fb5b610485b4edb0fa4255,2024-09-30_21h19.16.154,WTP_SM_Choice,2022.2.1,MacIntel,62.89308176,,,,,space,0.933,NAN,,NAN,0.96,5.04,,0,38,38,38,1,39,Charlie,Rej,Participant_Images/668d5a454e51f2df12027e26/668d5a454e51f2df12027e26_Images/668d5a454e51f2df12027e26_Image_20.jpeg,liked,3.546495948,,,,,,,,,,,,,,,,,,,,,,
,,668d5a454e51f2df12027e26,6685aa9113c938e83b4f1ea0,66fb5b610485b4edb0fa4255,2024-09-30_21h19.16.154,WTP_SM_Choice,2022.2.1,MacIntel,62.89308176,,,,,,,,,,,,,,,,,,36,,,,,,space,5.6589,space,0.7999,0.01,1,1.2513,0,0,0,0,1,Cook something fun to eat together,Eat snacks while I watch television,0.01,0.03,3.3,0,,,,
,,668d5a454e51f2df12027e26,6685aa9113c938e83b4f1ea0,66fb5b610485b4edb0fa4255,2024-09-30_21h19.16.154,WTP_SM_Choice,2022.2.1,MacIntel,62.89308176,,,,,,,,,,,,,,,,,,37,,,,,,,,,,0.02,1,1.2477,0,1,1,1,1,Eat pizza while we watch a movie,Play hide and seek,0.02,0.03,1.1,0,,,,
,,668d5a454e51f2df12027e26,6685aa9113c938e83b4f1ea0,66fb5b610485b4edb0fa4255,2024-09-30_21h19.16.154,WTP_SM_Choice,2022.2.1,MacIntel,62.89308176,,,,,,,,,,,,,,,,,,38,,,,,,,,,,0.03,2,1.9164,0,2,2,2,1,Walking around the park while we talk,Play hide and seek,0.03,0.03,1.1,0,,,,
,,668d5a454e51f2df12027e26,6685aa9113c938e83b4f1ea0,66fb5b610485b4edb0fa4255,2024-09-30_21h19.16.154,WTP_SM_Choice,2022.2.1,MacIntel,62.89308176,,,,,,,,,,,,,,,,,,39,,,,,,,,,,0.03,2,1.0744,0,3,3,3,1,Play with a pet of one of our friends,Cycle at the park,0.04,0.03,3.3,0,,,,
,,668d5a454e51f2df12027e26,6685aa9113c938e83b4f1ea0,66fb5b610485b4edb0fa4255,2024-09-30_21h19.16.154,WTP_SM_Choice,2022.2.1,MacIntel,62.89308176,,,,,,,,,,,,,,,,,,40,,,,,,,,,,0.03,2,1.6732,0,4,4,4,1,Read books to my baby in our room,Listen to music while we sit outside ,0.05,0.03,4.4,1,,,,
,,668d5a454e51f2df12027e26,6685aa9113c938e83b4f1ea0,66fb5b610485b4edb0fa4255,2024-09-30_21h19.16.154,WTP_SM_Choice,2022.2.1,MacIntel,62.89308176,,,,,,,NAN,,NAN,1.08,4.92,,0,39,39,39,1,40,Charlie,Rej,Participant_Images/668d5a454e51f2df12027e26/668d5a454e51f2df12027e26_Images/668d5a454e51f2df12027e26_Image_24.jpeg,did not like,1.672012706,,,,,,,,,,,,,,,,,,,,,,
,,668d5a454e51f2df12027e26,6685aa9113c938e83b4f1ea0,66fb5b610485b4edb0fa4255,2024-09-30_21h19.16.154,WTP_SM_Choice,2022.2.1,MacIntel,62.89308176,,,,,space,0.655,NAN,,NAN,1.08,4.92,,0,40,40,40,1,41,Charlie,Rej,Participant_Images/668d5a454e51f2df12027e26/668d5a454e51f2df12027e26_Images/668d5a454e51f2df12027e26_Image_25.jpeg,liked,4.942172136,,,,,,,,,,,,,,,,,,,,,,
,,668d5a454e51f2df12027e26,6685aa9113c938e83b4f1ea0,66fb5b610485b4edb0fa4255,2024-09-30_21h19.16.154,WTP_SM_Choice,2022.2.1,MacIntel,62.89308176,,,,,space,0.6547,NAN,,NAN,1.08,4.92,,0,41,41,41,1,42,Charlie,Rej,Participant_Images/668d5a454e51f2df12027e26/668d5a454e51f2df12027e26_Images/668d5a454e51f2df12027e26_Image_17.jpeg,did not like,2.50187214,,,,,,,,,,,,,,,,,,,,,,
,,668d5a454e51f2df12027e26,6685aa9113c938e83b4f1ea0,66fb5b610485b4edb0fa4255,2024-09-30_21h19.16.154,WTP_SM_Choice,2022.2.1,MacIntel,62.89308176,,,,,space,0.6328,NAN,,NAN,1.08,4.92,,0,42,42,42,1,43,Charlie,Rej,Participant_Images/668d5a454e51f2df12027e26/668d5a454e51f2df12027e26_Images/668d5a454e51f2df12027e26_Image_15.jpeg,did not like,2.071164779,,,,,,,,,,,,,,,,,,,,,,
,,668d5a454e51f2df12027e26,6685aa9113c938e83b4f1ea0,66fb5b610485b4edb0fa4255,2024-09-30_21h19.16.154,WTP_SM_Choice,2022.2.1,MacIntel,62.89308176,,,,,space,0.3737,NAN,,NAN,1.08,4.92,,0,43,43,43,1,44,Charlie,Rej,Participant_Images/668d5a454e51f2df12027e26/668d5a454e51f2df12027e26_Images/668d5a454e51f2df12027e26_Image_10.jpeg,did not like,5.336503566,,,,,,,,,,,,,,,,,,,,,,
,,668d5a454e51f2df12027e26,6685aa9113c938e83b4f1ea0,66fb5b610485b4edb0fa4255,2024-09-30_21h19.16.154,WTP_SM_Choice,2022.2.1,MacIntel,62.89308176,,,,,,,,,,,,,,,,,,41,,,,,,space,1.2467,space,0.8331,0.01,1,1.2708,0,0,0,0,1,Cook something fun to eat together,Read books to my baby in our room,0.01,0.04,1.1,0,,,,
,,668d5a454e51f2df12027e26,6685aa9113c938e83b4f1ea0,66fb5b610485b4edb0fa4255,2024-09-30_21h19.16.154,WTP_SM_Choice,2022.2.1,MacIntel,62.89308176,,,,,,,,,,,,,,,,,,42,,,,,,,,,,0.02,1,0.8345,0,1,1,1,1,Shop online or in stores,Play with a pet of one of our friends,0.02,0.04,3.3,1,,,,
,,668d5a454e51f2df12027e26,6685aa9113c938e83b4f1ea0,66fb5b610485b4edb0fa4255,2024-09-30_21h19.16.154,WTP_SM_Choice,2022.2.1,MacIntel,62.89308176,,,,,,,,,,,,,,,,,,43,,,,,,,,,,0.03,1,1.052,0,2,2,2,1,Walking around the park while we talk,Shop online or in stores,0.03,0.04,1.1,0,,,,
,,668d5a454e51f2df12027e26,6685aa9113c938e83b4f1ea0,66fb5b610485b4edb0fa4255,2024-09-30_21h19.16.154,WTP_SM_Choice,2022.2.1,MacIntel,62.89308176,,,,,,,,,,,,,,,,,,44,,,,,,,,,,0.04,1,2.1188,0,3,3,3,1,Play board games at one of my friends house,Cycle at the park,0.04,0.04,1.1,0,,,,
,,668d5a454e51f2df12027e26,6685aa9113c938e83b4f1ea0,66fb5b610485b4edb0fa4255,2024-09-30_21h19.16.154,WTP_SM_Choice,2022.2.1,MacIntel,62.89308176,,,,,,,,,,,,,,,,,,45,,,,,,,,,,0.04,2,1.7902,0,4,4,4,1,Run early in the morning around my neighborhood,Cook something fun to eat together,0.05,0.04,4.4,1,,,,
,,668d5a454e51f2df12027e26,6685aa9113c938e83b4f1ea0,66fb5b610485b4edb0fa4255,2024-09-30_21h19.16.154,WTP_SM_Choice,2022.2.1,MacIntel,62.89308176,,,,,,,NAN,,NAN,1.22,4.78,,0,44,44,44,1,45,Charlie,Rej,Participant_Images/668d5a454e51f2df12027e26/668d5a454e51f2df12027e26_Images/668d5a454e51f2df12027e26_Image_21.jpeg,liked,2.642157193,,,,,,,,,,,,,,,,,,,,,,
,,668d5a454e51f2df12027e26,6685aa9113c938e83b4f1ea0,66fb5b610485b4edb0fa4255,2024-09-30_21h19.16.154,WTP_SM_Choice,2022.2.1,MacIntel,62.89308176,,,,,space,1.2129,NAN,,NAN,1.22,4.78,,0,45,45,45,1,46,Charlie,Rej,Participant_Images/668d5a454e51f2df12027e26/668d5a454e51f2df12027e26_Images/668d5a454e51f2df12027e26_Image_14.jpeg,did not like,4.456234322,,,,,,,,,,,,,,,,,,,,,,
,,668d5a454e51f2df12027e26,6685aa9113c938e83b4f1ea0,66fb5b610485b4edb0fa4255,2024-09-30_21h19.16.154,WTP_SM_Choice,2022.2.1,MacIntel,62.89308176,,,,,space,2.5919,NAN,,NAN,1.22,4.78,,0,46,46,46,1,47,Charlie,Rej,Participant_Images/668d5a454e51f2df12027e26/668d5a454e51f2df12027e26_Images/668d5a454e51f2df12027e26_Image_3.jpeg,did not like,4.438512181,,,,,,,,,,,,,,,,,,,,,,
,,668d5a454e51f2df12027e26,6685aa9113c938e83b4f1ea0,66fb5b610485b4edb0fa4255,2024-09-30_21h19.16.154,WTP_SM_Choice,2022.2.1,MacIntel,62.89308176,,,,,space,0.664,NAN,,NAN,1.22,4.78,,0,47,47,47,1,48,Charlie,Rej,Participant_Images/668d5a454e51f2df12027e26/668d5a454e51f2df12027e26_Images/668d5a454e51f2df12027e26_Image_18.jpeg,did not like,2.682944783,,,,,,,,,,,,,,,,,,,,,,
,,668d5a454e51f2df12027e26,6685aa9113c938e83b4f1ea0,66fb5b610485b4edb0fa4255,2024-09-30_21h19.16.154,WTP_SM_Choice,2022.2.1,MacIntel,62.89308176,,,,,space,0.8369,NAN,,NAN,1.22,4.78,,0,48,48,48,1,49,Charlie,Rej,Participant_Images/668d5a454e51f2df12027e26/668d5a454e51f2df12027e26_Images/668d5a454e51f2df12027e26_Image_13.jpeg,did not like,4.51984296,,,,,,,,,,,,,,,,,,,,,,
,,668d5a454e51f2df12027e26,6685aa9113c938e83b4f1ea0,66fb5b610485b4edb0fa4255,2024-09-30_21h19.16.154,WTP_SM_Choice,2022.2.1,MacIntel,62.89308176,,,,,,,,,,,,,,,,,,46,,,,,,space,1.3955,space,0.6043,0.01,1,0.9386,0,0,0,0,1,Play video games ,Walking around the park while we talk,0.01,0.05,8.8,1,,,,
,,668d5a454e51f2df12027e26,6685aa9113c938e83b4f1ea0,66fb5b610485b4edb0fa4255,2024-09-30_21h19.16.154,WTP_SM_Choice,2022.2.1,MacIntel,62.89308176,,,,,,,,,,,,,,,,,,47,,,,,,,,,,0.02,1,1.0919,0,1,1,1,1,Eat snacks while I watch television,Cruise around in the car,0.02,0.05,1.1,1,,,,
,,668d5a454e51f2df12027e26,6685aa9113c938e83b4f1ea0,66fb5b610485b4edb0fa4255,2024-09-30_21h19.16.154,WTP_SM_Choice,2022.2.1,MacIntel,62.89308176,,,,,,,,,,,,,,,,,,48,,,,,,,,,,0.03,1,1.1853,0,2,2,2,1,Play video games ,Listen to music while we sit outside ,0.03,0.05,4.4,1,,,,
,,668d5a454e51f2df12027e26,6685aa9113c938e83b4f1ea0,66fb5b610485b4edb0fa4255,2024-09-30_21h19.16.154,WTP_SM_Choice,2022.2.1,MacIntel,62.89308176,,,,,,,,,,,,,,,,,,49,,,,,,,,,,0.04,1,1.1527,0,3,3,3,1,Play board games at one of my friends house,Watch the clouds as I lay down outside,0.04,0.05,3.3,0,,,,
,,668d5a454e51f2df12027e26,6685aa9113c938e83b4f1ea0,66fb5b610485b4edb0fa4255,2024-09-30_21h19.16.154,WTP_SM_Choice,2022.2.1,MacIntel,62.89308176,,,,,,,,,,,,,,,,,,50,,,,,,,,,,0.05,1,2.4004,0,4,4,4,1,Watch the clouds as I lay down outside,Cruise around in the car,0.05,0.05,1.1,1,,,,
,,668d5a454e51f2df12027e26,6685aa9113c938e83b4f1ea0,66fb5b610485b4edb0fa4255,2024-09-30_21h19.16.154,WTP_SM_Choice,2022.2.1,MacIntel,62.89308176,,,,,,,1,,2,1.37,4.63,,0,49,49,49,1,50,Charlie,Rej,Participant_Images/668d5a454e51f2df12027e26/668d5a454e51f2df12027e26_Images/668d5a454e51f2df12027e26_Image_4.jpeg,did not like,3.195382774,,,,,,,,,,,,,,,,,,,space,1.0797,,
,,668d5a454e51f2df12027e26,6685aa9113c938e83b4f1ea0,66fb5b610485b4edb0fa4255,2024-09-30_21h19.16.154,WTP_SM_Choice,2022.2.1,MacIntel,62.89308176,,,space,1.4152,space,1.048,NAN,,NAN,1.37,4.63,,0,50,50,50,1,51,Riley,Acc,Participant_Images/668d5a454e51f2df12027e26/668d5a454e51f2df12027e26_Images/668d5a454e51f2df12027e26_Image_18.jpeg,liked,1.779333479,,,,,,,,,,,,,,,,,,,,,,
,,668d5a454e51f2df12027e26,6685aa9113c938e83b4f1ea0,66fb5b610485b4edb0fa4255,2024-09-30_21h19.16.154,WTP_SM_Choice,2022.2.1,MacIntel,62.89308176,,,,,space,0.774,NAN,,NAN,1.37,4.63,,0,51,51,51,1,52,Riley,Acc,Participant_Images/668d5a454e51f2df12027e26/668d5a454e51f2df12027e26_Images/668d5a454e51f2df12027e26_Image_20.jpeg,liked,4.312468682,,,,,,,,,,,,,,,,,,,,,,
,,668d5a454e51f2df12027e26,6685aa9113c938e83b4f1ea0,66fb5b610485b4edb0fa4255,2024-09-30_21h19.16.154,WTP_SM_Choice,2022.2.1,MacIntel,62.89308176,,,,,space,4.6552,NAN,,NAN,1.37,4.63,,0,52,52,52,1,53,Riley,Acc,Participant_Images/668d5a454e51f2df12027e26/668d5a454e51f2df12027e26_Images/668d5a454e51f2df12027e26_Image_8.jpeg,did not like,4.940433059,,,,,,,,,,,,,,,,,,,,,,
,,668d5a454e51f2df12027e26,6685aa9113c938e83b4f1ea0,66fb5b610485b4edb0fa4255,2024-09-30_21h19.16.154,WTP_SM_Choice,2022.2.1,MacIntel,62.89308176,,,,,space,1.1039,NAN,,NAN,1.37,4.63,,0,53,53,53,1,54,Riley,Acc,Participant_Images/668d5a454e51f2df12027e26/668d5a454e51f2df12027e26_Images/668d5a454e51f2df12027e26_Image_24.jpeg,did not like,2.7105123,,,,,,,,,,,,,,,,,,,,,,
,,668d5a454e51f2df12027e26,6685aa9113c938e83b4f1ea0,66fb5b610485b4edb0fa4255,2024-09-30_21h19.16.154,WTP_SM_Choice,2022.2.1,MacIntel,62.89308176,,,,,,,,,,,,,,,,,,51,,,,,,space,5.17,space,3.4304,0.01,2,2.0167,0,0,0,0,1,Cruise around in the car,Run early in the morning around my neighborhood,0.01,0.01,1.1,0,,,,
,,668d5a454e51f2df12027e26,6685aa9113c938e83b4f1ea0,66fb5b610485b4edb0fa4255,2024-09-30_21h19.16.154,WTP_SM_Choice,2022.2.1,MacIntel,62.89308176,,,,,,,,,,,,,,,,,,52,,,,,,,,,,0.01,2,1.135,0,1,1,1,1,Eat pizza while we watch a movie,Run early in the morning around my neighborhood,0.02,0.01,3.3,0,,,,
,,668d5a454e51f2df12027e26,6685aa9113c938e83b4f1ea0,66fb5b610485b4edb0fa4255,2024-09-30_21h19.16.154,WTP_SM_Choice,2022.2.1,MacIntel,62.89308176,,,,,,,,,,,,,,,,,,53,,,,,,,,,,0.01,2,1.1188,0,2,2,2,1,Play hide and seek,Play board games at one of my friends house,0.03,0.01,1.1,1,,,,
,,668d5a454e51f2df12027e26,6685aa9113c938e83b4f1ea0,66fb5b610485b4edb0fa4255,2024-09-30_21h19.16.154,WTP_SM_Choice,2022.2.1,MacIntel,62.89308176,,,,,,,,,,,,,,,,,,54,,,,,,,,,,0.01,2,1.0055,0,3,3,3,1,Shop online or in stores,Cook something fun to eat together,0.04,0.01,4.4,1,,,,
,,668d5a454e51f2df12027e26,6685aa9113c938e83b4f1ea0,66fb5b610485b4edb0fa4255,2024-09-30_21h19.16.154,WTP_SM_Choice,2022.2.1,MacIntel,62.89308176,,,,,,,,,,,,,,,,,,55,,,,,,,,,,0.01,2,1.0406,0,4,4,4,1,Laugh at funny posts we run into,Listen to music while I relax,0.05,0.01,1.1,0,,,,
,,668d5a454e51f2df12027e26,6685aa9113c938e83b4f1ea0,66fb5b610485b4edb0fa4255,2024-09-30_21h19.16.154,WTP_SM_Choice,2022.2.1,MacIntel,62.89308176,,,,,,,NAN,,NAN,1.42,4.58,,0,54,54,54,1,55,Riley,Acc,Participant_Images/668d5a454e51f2df12027e26/668d5a454e51f2df12027e26_Images/668d5a454e51f2df12027e26_Image_15.jpeg,liked,3.602308302,,,,,,,,,,,,,,,,,,,,,,
,,668d5a454e51f2df12027e26,6685aa9113c938e83b4f1ea0,66fb5b610485b4edb0fa4255,2024-09-30_21h19.16.154,WTP_SM_Choice,2022.2.1,MacIntel,62.89308176,,,,,space,1.9872,NAN,,NAN,1.42,4.58,,0,55,55,55,1,56,Riley,Acc,Participant_Images/668d5a454e51f2df12027e26/668d5a454e51f2df12027e26_Images/668d5a454e51f2df12027e26_Image_2.jpeg,liked,4.106391878,,,,,,,,,,,,,,,,,,,,,,
,,668d5a454e51f2df12027e26,6685aa9113c938e83b4f1ea0,66fb5b610485b4edb0fa4255,2024-09-30_21h19.16.154,WTP_SM_Choice,2022.2.1,MacIntel,62.89308176,,,,,space,0.9636,NAN,,NAN,1.42,4.58,,0,56,56,56,1,57,Riley,Acc,Participant_Images/668d5a454e51f2df12027e26/668d5a454e51f2df12027e26_Images/668d5a454e51f2df12027e26_Image_17.jpeg,liked,3.799433026,,,,,,,,,,,,,,,,,,,,,,
,,668d5a454e51f2df12027e26,6685aa9113c938e83b4f1ea0,66fb5b610485b4edb0fa4255,2024-09-30_21h19.16.154,WTP_SM_Choice,2022.2.1,MacIntel,62.89308176,,,,,space,2.2446,NAN,,NAN,1.42,4.58,,0,57,57,57,1,58,Riley,Acc,Participant_Images/668d5a454e51f2df12027e26/668d5a454e51f2df12027e26_Images/668d5a454e51f2df12027e26_Image_3.jpeg,liked,5.246980764,,,,,,,,,,,,,,,,,,,,,,
,,668d5a454e51f2df12027e26,6685aa9113c938e83b4f1ea0,66fb5b610485b4edb0fa4255,2024-09-30_21h19.16.154,WTP_SM_Choice,2022.2.1,MacIntel,62.89308176,,,,,space,1.1874,NAN,,NAN,1.42,4.58,,0,58,58,58,1,59,Riley,Acc,Participant_Images/668d5a454e51f2df12027e26/668d5a454e51f2df12027e26_Images/668d5a454e51f2df12027e26_Image_12.jpeg,did not like,3.30081769,,,,,,,,,,,,,,,,,,,,,,
,,668d5a454e51f2df12027e26,6685aa9113c938e83b4f1ea0,66fb5b610485b4edb0fa4255,2024-09-30_21h19.16.154,WTP_SM_Choice,2022.2.1,MacIntel,62.89308176,,,,,,,,,,,,,,,,,,56,,,,,,space,1.3704,space,2.7774,0.01,1,1.3169,0,0,0,0,1,Eat snacks while I watch television,Walking around the park while we talk,0.01,0.02,8.8,1,,,,
,,668d5a454e51f2df12027e26,6685aa9113c938e83b4f1ea0,66fb5b610485b4edb0fa4255,2024-09-30_21h19.16.154,WTP_SM_Choice,2022.2.1,MacIntel,62.89308176,,,,,,,,,,,,,,,,,,57,,,,,,,,,,0.02,1,1.9513,0,1,1,1,1,Cook something fun to eat together,Watch the clouds as I lay down outside,0.02,0.02,4.4,0,,,,
,,668d5a454e51f2df12027e26,6685aa9113c938e83b4f1ea0,66fb5b610485b4edb0fa4255,2024-09-30_21h19.16.154,WTP_SM_Choice,2022.2.1,MacIntel,62.89308176,,,,,,,,,,,,,,,,,,58,,,,,,,,,,0.02,2,1.2002,0,2,2,2,1,Listen to music while I relax,Look around at local stores,0.03,0.02,4.4,1,,,,
,,668d5a454e51f2df12027e26,6685aa9113c938e83b4f1ea0,66fb5b610485b4edb0fa4255,2024-09-30_21h19.16.154,WTP_SM_Choice,2022.2.1,MacIntel,62.89308176,,,,,,,,,,,,,,,,,,59,,,,,,,,,,0.02,2,1.0678,0,3,3,3,1,Eat pizza while we watch a movie,Watch the clouds as I lay down outside,0.04,0.02,4.4,0,,,,
,,668d5a454e51f2df12027e26,6685aa9113c938e83b4f1ea0,66fb5b610485b4edb0fa4255,2024-09-30_21h19.16.154,WTP_SM_Choice,2022.2.1,MacIntel,62.89308176,,,,,,,,,,,,,,,,,,60,,,,,,,,,,0.02,2,0.8289,0,4,4,4,1,Eat snacks while I watch television,Read funny jokes and seeing which one is funnier,0.05,0.02,1.1,1,,,,
,,668d5a454e51f2df12027e26,6685aa9113c938e83b4f1ea0,66fb5b610485b4edb0fa4255,2024-09-30_21h19.16.154,WTP_SM_Choice,2022.2.1,MacIntel,62.89308176,,,,,,,NAN,,NAN,1.51,4.49,,0,59,59,59,1,60,Riley,Acc,Participant_Images/668d5a454e51f2df12027e26/668d5a454e51f2df12027e26_Images/668d5a454e51f2df12027e26_Image_7.jpeg,liked,1.661473164,,,,,,,,,,,,,,,,,,,,,,
,,668d5a454e51f2df12027e26,6685aa9113c938e83b4f1ea0,66fb5b610485b4edb0fa4255,2024-09-30_21h19.16.154,WTP_SM_Choice,2022.2.1,MacIntel,62.89308176,,,,,space,0.7562,NAN,,NAN,1.51,4.49,,0,60,60,60,1,61,Riley,Acc,Participant_Images/668d5a454e51f2df12027e26/668d5a454e51f2df12027e26_Images/668d5a454e51f2df12027e26_Image_19.jpeg,did not like,3.613205605,,,,,,,,,,,,,,,,,,,,,,
,,668d5a454e51f2df12027e26,6685aa9113c938e83b4f1ea0,66fb5b610485b4edb0fa4255,2024-09-30_21h19.16.154,WTP_SM_Choice,2022.2.1,MacIntel,62.89308176,,,,,space,1.201,NAN,,NAN,1.51,4.49,,0,61,61,61,1,62,Riley,Acc,Participant_Images/668d5a454e51f2df12027e26/668d5a454e51f2df12027e26_Images/668d5a454e51f2df12027e26_Image_6.jpeg,liked,4.988446431,,,,,,,,,,,,,,,,,,,,,,
,,668d5a454e51f2df12027e26,6685aa9113c938e83b4f1ea0,66fb5b610485b4edb0fa4255,2024-09-30_21h19.16.154,WTP_SM_Choice,2022.2.1,MacIntel,62.89308176,,,,,space,5.4078,NAN,,NAN,1.51,4.49,,0,62,62,62,1,63,Riley,Acc,Participant_Images/668d5a454e51f2df12027e26/668d5a454e51f2df12027e26_Images/668d5a454e51f2df12027e26_Image_22.jpeg,did not like,3.470791822,,,,,,,,,,,,,,,,,,,,,,
,,668d5a454e51f2df12027e26,6685aa9113c938e83b4f1ea0,66fb5b610485b4edb0fa4255,2024-09-30_21h19.16.154,WTP_SM_Choice,2022.2.1,MacIntel,62.89308176,,,,,space,1.3962,NAN,,NAN,1.51,4.49,,0,63,63,63,1,64,Riley,Acc,Participant_Images/668d5a454e51f2df12027e26/668d5a454e51f2df12027e26_Images/668d5a454e51f2df12027e26_Image_5.jpeg,did not like,3.820572462,,,,,,,,,,,,,,,,,,,,,,
,,668d5a454e51f2df12027e26,6685aa9113c938e83b4f1ea0,66fb5b610485b4edb0fa4255,2024-09-30_21h19.16.154,WTP_SM_Choice,2022.2.1,MacIntel,62.89308176,,,,,,,,,,,,,,,,,,61,,,,,,space,3.0644,space,0.6026,0.01,1,1.3851,0,0,0,0,1,Cycle at the park,Laugh at funny posts we run into,0.01,0.03,3.3,1,,,,
,,668d5a454e51f2df12027e26,6685aa9113c938e83b4f1ea0,66fb5b610485b4edb0fa4255,2024-09-30_21h19.16.154,WTP_SM_Choice,2022.2.1,MacIntel,62.89308176,,,,,,,,,,,,,,,,,,62,,,,,,,,,,0.02,1,1.287,0,1,1,1,1,Listen to music while we sit outside ,Run early in the morning around my neighborhood,0.02,0.03,3.3,0,,,,
,,668d5a454e51f2df12027e26,6685aa9113c938e83b4f1ea0,66fb5b610485b4edb0fa4255,2024-09-30_21h19.16.154,WTP_SM_Choice,2022.2.1,MacIntel,62.89308176,,,,,,,,,,,,,,,,,,63,,,,,,,,,,0.03,2,1.6996,0,2,2,2,1,Cycle at the park,Cruise around in the car,0.03,0.03,3.3,1,,,,
,,668d5a454e51f2df12027e26,6685aa9113c938e83b4f1ea0,66fb5b610485b4edb0fa4255,2024-09-30_21h19.16.154,WTP_SM_Choice,2022.2.1,MacIntel,62.89308176,,,,,,,,,,,,,,,,,,64,,,,,,,,,,0.03,2,1.3094,0,3,3,3,1,Cook something fun to eat together,Cycle at the park,0.04,0.03,1.1,0,,,,
,,668d5a454e51f2df12027e26,6685aa9113c938e83b4f1ea0,66fb5b610485b4edb0fa4255,2024-09-30_21h19.16.154,WTP_SM_Choice,2022.2.1,MacIntel,62.89308176,,,,,,,,,,,,,,,,,,65,,,,,,,,,,0.03,2,1.5002,0,4,4,4,1,Play with a pet of one of our friends,Eat snacks while I watch television,0.05,0.03,1.1,0,,,,
,,668d5a454e51f2df12027e26,6685aa9113c938e83b4f1ea0,66fb5b610485b4edb0fa4255,2024-09-30_21h19.16.154,WTP_SM_Choice,2022.2.1,MacIntel,62.89308176,,,,,,,NAN,,NAN,1.63,4.37,,0,64,64,64,1,65,Riley,Acc,Participant_Images/668d5a454e51f2df12027e26/668d5a454e51f2df12027e26_Images/668d5a454e51f2df12027e26_Image_23.jpeg,liked,2.455989137,,,,,,,,,,,,,,,,,,,,,,
,,668d5a454e51f2df12027e26,6685aa9113c938e83b4f1ea0,66fb5b610485b4edb0fa4255,2024-09-30_21h19.16.154,WTP_SM_Choice,2022.2.1,MacIntel,62.89308176,,,,,space,1.7122,NAN,,NAN,1.63,4.37,,0,65,65,65,1,66,Riley,Acc,Participant_Images/668d5a454e51f2df12027e26/668d5a454e51f2df12027e26_Images/668d5a454e51f2df12027e26_Image_9.jpeg,liked,3.79605092,,,,,,,,,,,,,,,,,,,,,,
,,668d5a454e51f2df12027e26,6685aa9113c938e83b4f1ea0,66fb5b610485b4edb0fa4255,2024-09-30_21h19.16.154,WTP_SM_Choice,2022.2.1,MacIntel,62.89308176,,,,,space,1.3814,NAN,,NAN,1.63,4.37,,0,66,66,66,1,67,Riley,Acc,Participant_Images/668d5a454e51f2df12027e26/668d5a454e51f2df12027e26_Images/668d5a454e51f2df12027e26_Image_11.jpeg,liked,3.562416326,,,,,,,,,,,,,,,,,,,,,,
,,668d5a454e51f2df12027e26,6685aa9113c938e83b4f1ea0,66fb5b610485b4edb0fa4255,2024-09-30_21h19.16.154,WTP_SM_Choice,2022.2.1,MacIntel,62.89308176,,,,,space,0.9222,NAN,,NAN,1.63,4.37,,0,67,67,67,1,68,Riley,Acc,Participant_Images/668d5a454e51f2df12027e26/668d5a454e51f2df12027e26_Images/668d5a454e51f2df12027e26_Image_14.jpeg,liked,2.843822497,,,,,,,,,,,,,,,,,,,,,,
,,668d5a454e51f2df12027e26,6685aa9113c938e83b4f1ea0,66fb5b610485b4edb0fa4255,2024-09-30_21h19.16.154,WTP_SM_Choice,2022.2.1,MacIntel,62.89308176,,,,,space,0.9517,NAN,,NAN,1.63,4.37,,0,68,68,68,1,69,Riley,Acc,Participant_Images/668d5a454e51f2df12027e26/668d5a454e51f2df12027e26_Images/668d5a454e51f2df12027e26_Image_25.jpeg,liked,3.546495948,,,,,,,,,,,,,,,,,,,,,,
,,668d5a454e51f2df12027e26,6685aa9113c938e83b4f1ea0,66fb5b610485b4edb0fa4255,2024-09-30_21h19.16.154,WTP_SM_Choice,2022.2.1,MacIntel,62.89308176,,,,,,,,,,,,,,,,,,66,,,,,,space,1.2455,space,0.7215,0.01,1,0.9049,0,0,0,0,1,Walking around the park while we talk,Cycle at the park,0.01,0.04,1.1,0,,,,
,,668d5a454e51f2df12027e26,6685aa9113c938e83b4f1ea0,66fb5b610485b4edb0fa4255,2024-09-30_21h19.16.154,WTP_SM_Choice,2022.2.1,MacIntel,62.89308176,,,,,,,,,,,,,,,,,,67,,,,,,,,,,0.02,1,1.0523,0,1,1,1,1,Walking around the park while we talk,Watch the clouds as I lay down outside,0.02,0.04,8.8,0,,,,
,,668d5a454e51f2df12027e26,6685aa9113c938e83b4f1ea0,66fb5b610485b4edb0fa4255,2024-09-30_21h19.16.154,WTP_SM_Choice,2022.2.1,MacIntel,62.89308176,,,,,,,,,,,,,,,,,,68,,,,,,,,,,0.03,1,1.1687,0,2,2,2,1,Run early in the morning around my neighborhood,Play with a pet of one of our friends,0.03,0.04,4.4,1,,,,
,,668d5a454e51f2df12027e26,6685aa9113c938e83b4f1ea0,66fb5b610485b4edb0fa4255,2024-09-30_21h19.16.154,WTP_SM_Choice,2022.2.1,MacIntel,62.89308176,,,,,,,,,,,,,,,,,,69,,,,,,,,,,0.04,1,1.8233,0,3,3,3,1,Play with a pet of one of our friends,Play video games ,0.04,0.04,1.1,0,,,,
,,668d5a454e51f2df12027e26,6685aa9113c938e83b4f1ea0,66fb5b610485b4edb0fa4255,2024-09-30_21h19.16.154,WTP_SM_Choice,2022.2.1,MacIntel,62.89308176,,,,,,,,,,,,,,,,,,70,,,,,,,,,,0.04,2,1.4912,0,4,4,4,1,Cruise around in the car,Shop online or in stores,0.05,0.04,1.1,0,,,,
,,668d5a454e51f2df12027e26,6685aa9113c938e83b4f1ea0,66fb5b610485b4edb0fa4255,2024-09-30_21h19.16.154,WTP_SM_Choice,2022.2.1,MacIntel,62.89308176,,,,,,,NAN,,NAN,1.77,4.23,,0,69,69,69,1,70,Riley,Acc,Participant_Images/668d5a454e51f2df12027e26/668d5a454e51f2df12027e26_Images/668d5a454e51f2df12027e26_Image_21.jpeg,liked,1.672012706,,,,,,,,,,,,,,,,,,,,,,
,,668d5a454e51f2df12027e26,6685aa9113c938e83b4f1ea0,66fb5b610485b4edb0fa4255,2024-09-30_21h19.16.154,WTP_SM_Choice,2022.2.1,MacIntel,62.89308176,,,,,space,1.2039,NAN,,NAN,1.77,4.23,,0,70,70,70,1,71,Riley,Acc,Participant_Images/668d5a454e51f2df12027e26/668d5a454e51f2df12027e26_Images/668d5a454e51f2df12027e26_Image_13.jpeg,did not like,4.942172136,,,,,,,,,,,,,,,,,,,,,,
,,668d5a454e51f2df12027e26,6685aa9113c938e83b4f1ea0,66fb5b610485b4edb0fa4255,2024-09-30_21h19.16.154,WTP_SM_Choice,2022.2.1,MacIntel,62.89308176,,,,,space,1.238,NAN,,NAN,1.77,4.23,,0,71,71,71,1,72,Riley,Acc,Participant_Images/668d5a454e51f2df12027e26/668d5a454e51f2df12027e26_Images/668d5a454e51f2df12027e26_Image_4.jpeg,liked,2.50187214,,,,,,,,,,,,,,,,,,,,,,
,,668d5a454e51f2df12027e26,6685aa9113c938e83b4f1ea0,66fb5b610485b4edb0fa4255,2024-09-30_21h19.16.154,WTP_SM_Choice,2022.2.1,MacIntel,62.89308176,,,,,space,0.9992,NAN,,NAN,1.77,4.23,,0,72,72,72,1,73,Riley,Acc,Participant_Images/668d5a454e51f2df12027e26/668d5a454e51f2df12027e26_Images/668d5a454e51f2df12027e26_Image_10.jpeg,liked,2.071164779,,,,,,,,,,,,,,,,,,,,,,
,,668d5a454e51f2df12027e26,6685aa9113c938e83b4f1ea0,66fb5b610485b4edb0fa4255,2024-09-30_21h19.16.154,WTP_SM_Choice,2022.2.1,MacIntel,62.89308176,,,,,space,3.1813,NAN,,NAN,1.77,4.23,,0,73,73,73,1,74,Riley,Acc,Participant_Images/668d5a454e51f2df12027e26/668d5a454e51f2df12027e26_Images/668d5a454e51f2df12027e26_Image_1.jpeg,liked,5.336503566,,,,,,,,,,,,,,,,,,,,,,
,,668d5a454e51f2df12027e26,6685aa9113c938e83b4f1ea0,66fb5b610485b4edb0fa4255,2024-09-30_21h19.16.154,WTP_SM_Choice,2022.2.1,MacIntel,62.89308176,,,,,,,,,,,,,,,,,,71,,,,,,space,2.7977,space,1.3308,0.01,1,1.7815,0,0,0,0,1,Play video games ,Laugh at funny posts we run into,0.01,0.05,3.3,1,,,,
,,668d5a454e51f2df12027e26,6685aa9113c938e83b4f1ea0,66fb5b610485b4edb0fa4255,2024-09-30_21h19.16.154,WTP_SM_Choice,2022.2.1,MacIntel,62.89308176,,,,,,,,,,,,,,,,,,72,,,,,,,,,,0.02,1,1.1351,0,1,1,1,1,Eat pizza while we watch a movie,Cycle at the park,0.02,0.05,8.8,0,,,,
,,668d5a454e51f2df12027e26,6685aa9113c938e83b4f1ea0,66fb5b610485b4edb0fa4255,2024-09-30_21h19.16.154,WTP_SM_Choice,2022.2.1,MacIntel,62.89308176,,,,,,,,,,,,,,,,,,73,,,,,,,,,,0.03,1,1.2222,0,2,2,2,1,Watch the clouds as I lay down outside,Laugh at funny posts we run into,0.03,0.05,3.3,1,,,,
,,668d5a454e51f2df12027e26,6685aa9113c938e83b4f1ea0,66fb5b610485b4edb0fa4255,2024-09-30_21h19.16.154,WTP_SM_Choice,2022.2.1,MacIntel,62.89308176,,,,,,,,,,,,,,,,,,74,,,,,,,,,,0.04,1,1.8397,0,3,3,3,1,Laugh at funny posts we run into,Play hide and seek,0.04,0.05,4.4,0,,,,
,,668d5a454e51f2df12027e26,6685aa9113c938e83b4f1ea0,66fb5b610485b4edb0fa4255,2024-09-30_21h19.16.154,WTP_SM_Choice,2022.2.1,MacIntel,62.89308176,,,,,,,,,,,,,,,,,,75,,,,,,,,,,0.05,2,1.926,0,4,4,4,1,Play video games ,Look around at local stores,0.05,0.05,3.3,1,,,,
,,668d5a454e51f2df12027e26,6685aa9113c938e83b4f1ea0,66fb5b610485b4edb0fa4255,2024-09-30_21h19.16.154,WTP_SM_Choice,2022.2.1,MacIntel,62.89308176,,,,,,,5,,7,1.92,4.08,,0,74,74,74,1,75,Riley,Acc,Participant_Images/668d5a454e51f2df12027e26/668d5a454e51f2df12027e26_Images/668d5a454e51f2df12027e26_Image_16.jpeg,liked,2.642157193,,,,,,,,,,,,,,,,,,,space,1.1464,,
,,668d5a454e51f2df12027e26,6685aa9113c938e83b4f1ea0,66fb5b610485b4edb0fa4255,2024-09-30_21h19.16.154,WTP_SM_Choice,2022.2.1,MacIntel,62.89308176,,,space,1.4774,space,1.1041,NAN,,NAN,1.92,4.08,,0,75,75,75,1,76,Alex,Rej,Participant_Images/668d5a454e51f2df12027e26/668d5a454e51f2df12027e26_Images/668d5a454e51f2df12027e26_Image_11.jpeg,did not like,4.456234322,,,,,,,,,,,,,,,,,,,,,,
,,668d5a454e51f2df12027e26,6685aa9113c938e83b4f1ea0,66fb5b610485b4edb0fa4255,2024-09-30_21h19.16.154,WTP_SM_Choice,2022.2.1,MacIntel,62.89308176,,,,,space,0.952,NAN,,NAN,1.92,4.08,,0,76,76,76,1,77,Alex,Rej,Participant_Images/668d5a454e51f2df12027e26/668d5a454e51f2df12027e26_Images/668d5a454e51f2df12027e26_Image_20.jpeg,did not like,4.438512181,,,,,,,,,,,,,,,,,,,,,,
,,668d5a454e51f2df12027e26,6685aa9113c938e83b4f1ea0,66fb5b610485b4edb0fa4255,2024-09-30_21h19.16.154,WTP_SM_Choice,2022.2.1,MacIntel,62.89308176,,,,,space,5.8372,NAN,,NAN,1.92,4.08,,0,77,77,77,1,78,Alex,Rej,Participant_Images/668d5a454e51f2df12027e26/668d5a454e51f2df12027e26_Images/668d5a454e51f2df12027e26_Image_19.jpeg,did not like,2.682944783,,,,,,,,,,,,,,,,,,,,,,
,,668d5a454e51f2df12027e26,6685aa9113c938e83b4f1ea0,66fb5b610485b4edb0fa4255,2024-09-30_21h19.16.154,WTP_SM_Choice,2022.2.1,MacIntel,62.89308176,,,,,space,4.2904,NAN,,NAN,1.92,4.08,,0,78,78,78,1,79,Alex,Rej,Participant_Images/668d5a454e51f2df12027e26/668d5a454e51f2df12027e26_Images/668d5a454e51f2df12027e26_Image_16.jpeg,liked,4.51984296,,,,,,,,,,,,,,,,,,,,,,
,,668d5a454e51f2df12027e26,6685aa9113c938e83b4f1ea0,66fb5b610485b4edb0fa4255,2024-09-30_21h19.16.154,WTP_SM_Choice,2022.2.1,MacIntel,62.89308176,,,,,,,,,,,,,,,,,,76,,,,,,space,15.6968,space,0.8867,0.01,2,1.6657,0,0,0,0,1,Read books to my baby in our room,Eat pizza while we watch a movie,0.01,0.01,1.1,1,,,,
,,668d5a454e51f2df12027e26,6685aa9113c938e83b4f1ea0,66fb5b610485b4edb0fa4255,2024-09-30_21h19.16.154,WTP_SM_Choice,2022.2.1,MacIntel,62.89308176,,,,,,,,,,,,,,,,,,77,,,,,,,,,,0.01,2,1.0183,0,1,1,1,1,Laugh at funny posts we run into,Read books to my baby in our room,0.02,0.01,8.8,0,,,,
,,668d5a454e51f2df12027e26,6685aa9113c938e83b4f1ea0,66fb5b610485b4edb0fa4255,2024-09-30_21h19.16.154,WTP_SM_Choice,2022.2.1,MacIntel,62.89308176,,,,,,,,,,,,,,,,,,78,,,,,,,,,,0.01,2,1.4999,0,2,2,2,1,Laugh at funny posts we run into,Shop online or in stores,0.03,0.01,1.1,0,,,,
,,668d5a454e51f2df12027e26,6685aa9113c938e83b4f1ea0,66fb5b610485b4edb0fa4255,2024-09-30_21h19.16.154,WTP_SM_Choice,2022.2.1,MacIntel,62.89308176,,,,,,,,,,,,,,,,,,79,,,,,,,,,,0.01,2,0.9422,0,3,3,3,1,Play board games at one of my friends house,Shop online or in stores,0.04,0.01,1.1,0,,,,
,,668d5a454e51f2df12027e26,6685aa9113c938e83b4f1ea0,66fb5b610485b4edb0fa4255,2024-09-30_21h19.16.154,WTP_SM_Choice,2022.2.1,MacIntel,62.89308176,,,,,,,,,,,,,,,,,,80,,,,,,,,,,0.01,2,0.8579,0,4,4,4,1,Listen to music while I relax,Read funny jokes and seeing which one is funnier,0.05,0.01,4.4,1,,,,
,,668d5a454e51f2df12027e26,6685aa9113c938e83b4f1ea0,66fb5b610485b4edb0fa4255,2024-09-30_21h19.16.154,WTP_SM_Choice,2022.2.1,MacIntel,62.89308176,,,,,,,NAN,,NAN,1.97,4.03,,0,79,79,79,1,80,Alex,Rej,Participant_Images/668d5a454e51f2df12027e26/668d5a454e51f2df12027e26_Images/668d5a454e51f2df12027e26_Image_13.jpeg,did not like,3.195382774,,,,,,,,,,,,,,,,,,,,,,
,,668d5a454e51f2df12027e26,6685aa9113c938e83b4f1ea0,66fb5b610485b4edb0fa4255,2024-09-30_21h19.16.154,WTP_SM_Choice,2022.2.1,MacIntel,62.89308176,,,,,space,1.2631,NAN,,NAN,1.97,4.03,,0,80,80,80,1,81,Alex,Rej,Participant_Images/668d5a454e51f2df12027e26/668d5a454e51f2df12027e26_Images/668d5a454e51f2df12027e26_Image_5.jpeg,liked,1.779333479,,,,,,,,,,,,,,,,,,,,,,
,,668d5a454e51f2df12027e26,6685aa9113c938e83b4f1ea0,66fb5b610485b4edb0fa4255,2024-09-30_21h19.16.154,WTP_SM_Choice,2022.2.1,MacIntel,62.89308176,,,,,space,7.1713,NAN,,NAN,1.97,4.03,,0,81,81,81,1,82,Alex,Rej,Participant_Images/668d5a454e51f2df12027e26/668d5a454e51f2df12027e26_Images/668d5a454e51f2df12027e26_Image_24.jpeg,did not like,4.312468682,,,,,,,,,,,,,,,,,,,,,,
,,668d5a454e51f2df12027e26,6685aa9113c938e83b4f1ea0,66fb5b610485b4edb0fa4255,2024-09-30_21h19.16.154,WTP_SM_Choice,2022.2.1,MacIntel,62.89308176,,,,,space,5.5926,NAN,,NAN,1.97,4.03,,0,82,82,82,1,83,Alex,Rej,Participant_Images/668d5a454e51f2df12027e26/668d5a454e51f2df12027e26_Images/668d5a454e51f2df12027e26_Image_4.jpeg,did not like,4.940433059,,,,,,,,,,,,,,,,,,,,,,
,,668d5a454e51f2df12027e26,6685aa9113c938e83b4f1ea0,66fb5b610485b4edb0fa4255,2024-09-30_21h19.16.154,WTP_SM_Choice,2022.2.1,MacIntel,62.89308176,,,,,space,0.687,NAN,,NAN,1.97,4.03,,0,83,83,83,1,84,Alex,Rej,Participant_Images/668d5a454e51f2df12027e26/668d5a454e51f2df12027e26_Images/668d5a454e51f2df12027e26_Image_2.jpeg,did not like,2.7105123,,,,,,,,,,,,,,,,,,,,,,
,,668d5a454e51f2df12027e26,6685aa9113c938e83b4f1ea0,66fb5b610485b4edb0fa4255,2024-09-30_21h19.16.154,WTP_SM_Choice,2022.2.1,MacIntel,62.89308176,,,,,,,,,,,,,,,,,,81,,,,,,space,8.3839,space,0.6548,0.01,1,0.9875,0,0,0,0,1,Cook something fun to eat together,Play my guitar in my room,0.01,0.02,3.3,0,,,,
,,668d5a454e51f2df12027e26,6685aa9113c938e83b4f1ea0,66fb5b610485b4edb0fa4255,2024-09-30_21h19.16.154,WTP_SM_Choice,2022.2.1,MacIntel,62.89308176,,,,,,,,,,,,,,,,,,82,,,,,,,,,,0.02,1,3.1213,0,1,1,1,1,Play my guitar in my room,Cruise around in the car,0.02,0.02,4.4,1,,,,
,,668d5a454e51f2df12027e26,6685aa9113c938e83b4f1ea0,66fb5b610485b4edb0fa4255,2024-09-30_21h19.16.154,WTP_SM_Choice,2022.2.1,MacIntel,62.89308176,,,,,,,,,,,,,,,,,,83,,,,,,,,,,0.02,2,1.1403,0,2,2,2,1,Read books to my baby in our room,Cruise around in the car,0.03,0.02,1.1,1,,,,
,,668d5a454e51f2df12027e26,6685aa9113c938e83b4f1ea0,66fb5b610485b4edb0fa4255,2024-09-30_21h19.16.154,WTP_SM_Choice,2022.2.1,MacIntel,62.89308176,,,,,,,,,,,,,,,,,,84,,,,,,,,,,0.02,2,1.1353,0,3,3,3,1,Listen to music while we sit outside ,Eat snacks while I watch television,0.04,0.02,3.3,0,,,,
,,668d5a454e51f2df12027e26,6685aa9113c938e83b4f1ea0,66fb5b610485b4edb0fa4255,2024-09-30_21h19.16.154,WTP_SM_Choice,2022.2.1,MacIntel,62.89308176,,,,,,,,,,,,,,,,,,85,,,,,,,,,,0.02,2,1.1846,0,4,4,4,1,Eat snacks while I watch television,Play board games at one of my friends house,0.05,0.02,3.3,1,,,,
,,668d5a454e51f2df12027e26,6685aa9113c938e83b4f1ea0,66fb5b610485b4edb0fa4255,2024-09-30_21h19.16.154,WTP_SM_Choice,2022.2.1,MacIntel,62.89308176,,,,,,,NAN,,NAN,2.06,3.94,,0,84,84,84,1,85,Alex,Rej,Participant_Images/668d5a454e51f2df12027e26/668d5a454e51f2df12027e26_Images/668d5a454e51f2df12027e26_Image_15.jpeg,did not like,3.602308302,,,,,,,,,,,,,,,,,,,,,,
,,668d5a454e51f2df12027e26,6685aa9113c938e83b4f1ea0,66fb5b610485b4edb0fa4255,2024-09-30_21h19.16.154,WTP_SM_Choice,2022.2.1,MacIntel,62.89308176,,,,,space,3.0115,NAN,,NAN,2.06,3.94,,0,85,85,85,1,86,Alex,Rej,Participant_Images/668d5a454e51f2df12027e26/668d5a454e51f2df12027e26_Images/668d5a454e51f2df12027e26_Image_1.jpeg,liked,4.106391878,,,,,,,,,,,,,,,,,,,,,,
,,668d5a454e51f2df12027e26,6685aa9113c938e83b4f1ea0,66fb5b610485b4edb0fa4255,2024-09-30_21h19.16.154,WTP_SM_Choice,2022.2.1,MacIntel,62.89308176,,,,,space,0.9977,NAN,,NAN,2.06,3.94,,0,86,86,86,1,87,Alex,Rej,Participant_Images/668d5a454e51f2df12027e26/668d5a454e51f2df12027e26_Images/668d5a454e51f2df12027e26_Image_7.jpeg,liked,3.799433026,,,,,,,,,,,,,,,,,,,,,,
,,668d5a454e51f2df12027e26,6685aa9113c938e83b4f1ea0,66fb5b610485b4edb0fa4255,2024-09-30_21h19.16.154,WTP_SM_Choice,2022.2.1,MacIntel,62.89308176,,,,,space,2.9806,NAN,,NAN,2.06,3.94,,0,87,87,87,1,88,Alex,Rej,Participant_Images/668d5a454e51f2df12027e26/668d5a454e51f2df12027e26_Images/668d5a454e51f2df12027e26_Image_21.jpeg,liked,5.246980764,,,,,,,,,,,,,,,,,,,,,,
,,668d5a454e51f2df12027e26,6685aa9113c938e83b4f1ea0,66fb5b610485b4edb0fa4255,2024-09-30_21h19.16.154,WTP_SM_Choice,2022.2.1,MacIntel,62.89308176,,,,,space,0.7132,NAN,,NAN,2.06,3.94,,0,88,88,88,1,89,Alex,Rej,Participant_Images/668d5a454e51f2df12027e26/668d5a454e51f2df12027e26_Images/668d5a454e51f2df12027e26_Image_23.jpeg,did not like,3.30081769,,,,,,,,,,,,,,,,,,,,,,
,,668d5a454e51f2df12027e26,6685aa9113c938e83b4f1ea0,66fb5b610485b4edb0fa4255,2024-09-30_21h19.16.154,WTP_SM_Choice,2022.2.1,MacIntel,62.89308176,,,,,,,,,,,,,,,,,,86,,,,,,space,3.71,space,0.6206,0.01,1,1.091,0,0,0,0,1,Play my guitar in my room,Listen to music while we sit outside ,0.01,0.03,1.1,1,,,,
,,668d5a454e51f2df12027e26,6685aa9113c938e83b4f1ea0,66fb5b610485b4edb0fa4255,2024-09-30_21h19.16.154,WTP_SM_Choice,2022.2.1,MacIntel,62.89308176,,,,,,,,,,,,,,,,,,87,,,,,,,,,,0.02,1,1.2345,0,1,1,1,1,Play video games ,Read funny jokes and seeing which one is funnier,0.02,0.03,4.4,1,,,,
,,668d5a454e51f2df12027e26,6685aa9113c938e83b4f1ea0,66fb5b610485b4edb0fa4255,2024-09-30_21h19.16.154,WTP_SM_Choice,2022.2.1,MacIntel,62.89308176,,,,,,,,,,,,,,,,,,88,,,,,,,,,,0.03,1,2.3764,0,2,2,2,1,Look around at local stores,Eat snacks while I watch television,0.03,0.03,1.1,0,,,,
,,668d5a454e51f2df12027e26,6685aa9113c938e83b4f1ea0,66fb5b610485b4edb0fa4255,2024-09-30_21h19.16.154,WTP_SM_Choice,2022.2.1,MacIntel,62.89308176,,,,,,,,,,,,,,,,,,89,,,,,,,,,,0.03,2,1.3252,0,3,3,3,1,Laugh at funny posts we run into,Eat snacks while I watch television,0.04,0.03,3.3,0,,,,
,,668d5a454e51f2df12027e26,6685aa9113c938e83b4f1ea0,66fb5b610485b4edb0fa4255,2024-09-30_21h19.16.154,WTP_SM_Choice,2022.2.1,MacIntel,62.89308176,,,,,,,,,,,,,,,,,,90,,,,,,,,,,0.03,2,1.6483,0,4,4,4,1,Listen to music while we sit outside ,Listen to music while I relax,0.05,0.03,8.8,0,,,,
,,668d5a454e51f2df12027e26,6685aa9113c938e83b4f1ea0,66fb5b610485b4edb0fa4255,2024-09-30_21h19.16.154,WTP_SM_Choice,2022.2.1,MacIntel,62.89308176,,,,,,,NAN,,NAN,2.18,3.82,,0,89,89,89,1,90,Alex,Rej,Participant_Images/668d5a454e51f2df12027e26/668d5a454e51f2df12027e26_Images/668d5a454e51f2df12027e26_Image_18.jpeg,did not like,1.661473164,,,,,,,,,,,,,,,,,,,,,,
,,668d5a454e51f2df12027e26,6685aa9113c938e83b4f1ea0,66fb5b610485b4edb0fa4255,2024-09-30_21h19.16.154,WTP_SM_Choice,2022.2.1,MacIntel,62.89308176,,,,,space,0.5463,NAN,,NAN,2.18,3.82,,0,90,90,90,1,91,Alex,Rej,Participant_Images/668d5a454e51f2df12027e26/668d5a454e51f2df12027e26_Images/668d5a454e51f2df12027e26_Image_12.jpeg,did not like,3.613205605,,,,,,,,,,,,,,,,,,,,,,
,,668d5a454e51f2df12027e26,6685aa9113c938e83b4f1ea0,66fb5b610485b4edb0fa4255,2024-09-30_21h19.16.154,WTP_SM_Choice,2022.2.1,MacIntel,62.89308176,,,,,space,3.2341,NAN,,NAN,2.18,3.82,,0,91,91,91,1,92,Alex,Rej,Participant_Images/668d5a454e51f2df12027e26/668d5a454e51f2df12027e26_Images/668d5a454e51f2df12027e26_Image_25.jpeg,liked,4.988446431,,,,,,,,,,,,,,,,,,,,,,
,,668d5a454e51f2df12027e26,6685aa9113c938e83b4f1ea0,66fb5b610485b4edb0fa4255,2024-09-30_21h19.16.154,WTP_SM_Choice,2022.2.1,MacIntel,62.89308176,,,,,space,1.1475,NAN,,NAN,2.18,3.82,,0,92,92,92,1,93,Alex,Rej,Participant_Images/668d5a454e51f2df12027e26/668d5a454e51f2df12027e26_Images/668d5a454e51f2df12027e26_Image_17.jpeg,liked,3.470791822,,,,,,,,,,,,,,,,,,,,,,
,,668d5a454e51f2df12027e26,6685aa9113c938e83b4f1ea0,66fb5b610485b4edb0fa4255,2024-09-30_21h19.16.154,WTP_SM_Choice,2022.2.1,MacIntel,62.89308176,,,,,space,10.5913,NAN,,NAN,2.18,3.82,,0,93,93,93,1,94,Alex,Rej,Participant_Images/668d5a454e51f2df12027e26/668d5a454e51f2df12027e26_Images/668d5a454e51f2df12027e26_Image_3.jpeg,did not like,3.820572462,,,,,,,,,,,,,,,,,,,,,,
,,668d5a454e51f2df12027e26,6685aa9113c938e83b4f1ea0,66fb5b610485b4edb0fa4255,2024-09-30_21h19.16.154,WTP_SM_Choice,2022.2.1,MacIntel,62.89308176,,,,,,,,,,,,,,,,,,91,,,,,,space,7.9994,space,0.7003,0.01,1,1.2874,0,0,0,0,1,Play board games at one of my friends house,Play my guitar in my room,0.01,0.04,3.3,0,,,,
,,668d5a454e51f2df12027e26,6685aa9113c938e83b4f1ea0,66fb5b610485b4edb0fa4255,2024-09-30_21h19.16.154,WTP_SM_Choice,2022.2.1,MacIntel,62.89308176,,,,,,,,,,,,,,,,,,92,,,,,,,,,,0.02,1,0.9846,0,1,1,1,1,Laugh at funny posts we run into,Run early in the morning around my neighborhood,0.02,0.04,8.8,0,,,,
,,668d5a454e51f2df12027e26,6685aa9113c938e83b4f1ea0,66fb5b610485b4edb0fa4255,2024-09-30_21h19.16.154,WTP_SM_Choice,2022.2.1,MacIntel,62.89308176,,,,,,,,,,,,,,,,,,93,,,,,,,,,,0.03,1,1.4402,0,2,2,2,1,Shop online or in stores,Read funny jokes and seeing which one is funnier,0.03,0.04,1.1,1,,,,
,,668d5a454e51f2df12027e26,6685aa9113c938e83b4f1ea0,66fb5b610485b4edb0fa4255,2024-09-30_21h19.16.154,WTP_SM_Choice,2022.2.1,MacIntel,62.89308176,,,,,,,,,,,,,,,,,,94,,,,,,,,,,0.04,2,1.8835,0,3,3,3,1,Play with a pet of one of our friends,Play my guitar in my room,0.04,0.04,4.4,0,,,,
,,668d5a454e51f2df12027e26,6685aa9113c938e83b4f1ea0,66fb5b610485b4edb0fa4255,2024-09-30_21h19.16.154,WTP_SM_Choice,2022.2.1,MacIntel,62.89308176,,,,,,,,,,,,,,,,,,95,,,,,,,,,,0.04,2,1.8096,0,4,4,4,1,Shop online or in stores,Look around at local stores,0.05,0.04,4.4,1,,,,
,,668d5a454e51f2df12027e26,6685aa9113c938e83b4f1ea0,66fb5b610485b4edb0fa4255,2024-09-30_21h19.16.154,WTP_SM_Choice,2022.2.1,MacIntel,62.89308176,,,,,,,NAN,,NAN,2.32,3.68,,0,94,94,94,1,95,Alex,Rej,Participant_Images/668d5a454e51f2df12027e26/668d5a454e51f2df12027e26_Images/668d5a454e51f2df12027e26_Image_14.jpeg,did not like,2.455989137,,,,,,,,,,,,,,,,,,,,,,
,,668d5a454e51f2df12027e26,6685aa9113c938e83b4f1ea0,66fb5b610485b4edb0fa4255,2024-09-30_21h19.16.154,WTP_SM_Choice,2022.2.1,MacIntel,62.89308176,,,,,space,14.3488,NAN,,NAN,2.32,3.68,,0,95,95,95,1,96,Alex,Rej,Participant_Images/668d5a454e51f2df12027e26/668d5a454e51f2df12027e26_Images/668d5a454e51f2df12027e26_Image_22.jpeg,did not like,3.79605092,,,,,,,,,,,,,,,,,,,,,,
,,668d5a454e51f2df12027e26,6685aa9113c938e83b4f1ea0,66fb5b610485b4edb0fa4255,2024-09-30_21h19.16.154,WTP_SM_Choice,2022.2.1,MacIntel,62.89308176,,,,,space,2.3606,NAN,,NAN,2.32,3.68,,0,96,96,96,1,97,Alex,Rej,Participant_Images/668d5a454e51f2df12027e26/668d5a454e51f2df12027e26_Images/668d5a454e51f2df12027e26_Image_6.jpeg,did not like,3.562416326,,,,,,,,,,,,,,,,,,,,,,
,,668d5a454e51f2df12027e26,6685aa9113c938e83b4f1ea0,66fb5b610485b4edb0fa4255,2024-09-30_21h19.16.154,WTP_SM_Choice,2022.2.1,MacIntel,62.89308176,,,,,space,4.7819,NAN,,NAN,2.32,3.68,,0,97,97,97,1,98,Alex,Rej,Participant_Images/668d5a454e51f2df12027e26/668d5a454e51f2df12027e26_Images/668d5a454e51f2df12027e26_Image_10.jpeg,did not like,2.843822497,,,,,,,,,,,,,,,,,,,,,,
,,668d5a454e51f2df12027e26,6685aa9113c938e83b4f1ea0,66fb5b610485b4edb0fa4255,2024-09-30_21h19.16.154,WTP_SM_Choice,2022.2.1,MacIntel,62.89308176,,,,,space,12.4535,NAN,,NAN,2.32,3.68,,0,98,98,98,1,99,Alex,Rej,Participant_Images/668d5a454e51f2df12027e26/668d5a454e51f2df12027e26_Images/668d5a454e51f2df12027e26_Image_8.jpeg,did not like,3.546495948,,,,,,,,,,,,,,,,,,,,,,
,,668d5a454e51f2df12027e26,6685aa9113c938e83b4f1ea0,66fb5b610485b4edb0fa4255,2024-09-30_21h19.16.154,WTP_SM_Choice,2022.2.1,MacIntel,62.89308176,,,,,,,,,,,,,,,,,,96,,,,,,space,4.4422,space,0.4707,0.01,1,1.0487,0,0,0,0,1,Play hide and seek,Read funny jokes and seeing which one is funnier,0.01,0.05,3.3,1,,,,
,,668d5a454e51f2df12027e26,6685aa9113c938e83b4f1ea0,66fb5b610485b4edb0fa4255,2024-09-30_21h19.16.154,WTP_SM_Choice,2022.2.1,MacIntel,62.89308176,,,,,,,,,,,,,,,,,,97,,,,,,,,,,0.02,1,1.0065,0,1,1,1,1,Eat pizza while we watch a movie,Eat snacks while I watch television,0.02,0.05,1.1,0,,,,
,,668d5a454e51f2df12027e26,6685aa9113c938e83b4f1ea0,66fb5b610485b4edb0fa4255,2024-09-30_21h19.16.154,WTP_SM_Choice,2022.2.1,MacIntel,62.89308176,,,,,,,,,,,,,,,,,,98,,,,,,,,,,0.03,1,1.3005,0,2,2,2,1,Read books to my baby in our room,Look around at local stores,0.03,0.05,1.1,1,,,,
,,668d5a454e51f2df12027e26,6685aa9113c938e83b4f1ea0,66fb5b610485b4edb0fa4255,2024-09-30_21h19.16.154,WTP_SM_Choice,2022.2.1,MacIntel,62.89308176,,,,,,,,,,,,,,,,,,99,,,,,,,,,,0.04,1,1.0727,0,3,3,3,1,Read funny jokes and seeing which one is funnier,Watch the clouds as I lay down outside,0.04,0.05,3.3,0,,,,
,,668d5a454e51f2df12027e26,6685aa9113c938e83b4f1ea0,66fb5b610485b4edb0fa4255,2024-09-30_21h19.16.154,WTP_SM_Choice,2022.2.1,MacIntel,62.89308176,,,,,,,,,,,,,,,,,,100,,,,,,,,,,0.05,2,2.4577,0,4,4,4,1,Read funny jokes and seeing which one is funnier,Run early in the morning around my neighborhood,0.05,0.05,4.4,0,,,,
,,668d5a454e51f2df12027e26,6685aa9113c938e83b4f1ea0,66fb5b610485b4edb0fa4255,2024-09-30_21h19.16.154,WTP_SM_Choice,2022.2.1,MacIntel,62.89308176,,,,,,,3,,5,2.47,3.53,,0,99,99,99,1,100,Alex,Rej,Participant_Images/668d5a454e51f2df12027e26/668d5a454e51f2df12027e26_Images/668d5a454e51f2df12027e26_Image_9.jpeg,did not like,1.672012706,,,,,,,,,,,,,,,,,,,space,0.7992,,
,,668d5a454e51f2df12027e26,6685aa9113c938e83b4f1ea0,66fb5b610485b4edb0fa4255,2024-09-30_21h19.16.154,WTP_SM_Choice,2022.2.1,MacIntel,62.89308176,,,,,,,,,,,,,,,,,,,,,,,,,,,,,,,,,,,,,,,,,,,,space,3.5392
