endwelcomescreen_keys.keys,endwelcomescreen_keys.rt,participant,STUDY_ID,SESSION_ID,date,expName,psychopyVersion,OS,frameRate,endinstructionscreen_keys.keys,endinstructionscreen_keys.rt,endpartnermatch_keys.keys,endpartnermatch_keys.rt,sharenextphoto_key.keys,sharenextphoto_key.rt,salience_rating,key_resp.keys,stress_level,subtract_bonus,TOTAL_TASK_BONUS,stresslevel_keypress.keys,entiretaskloop.thisRepN,entiretaskloop.thisTrialN,entiretaskloop.thisN,entiretaskloop.thisIndex,entiretaskloop.ran,TrialNumber,Partner,Condition,Photos,Feedback,FeedbackWait,WTP_ins_keys1.keys,WTP_ins_keys1.rt,WTP_ins_keys2.keys,WTP_ins_keys2.rt,decision_price,responses.keys,responses.rt,WTPTaskLoop.thisRepN,WTPTaskLoop.thisTrialN,WTPTaskLoop.thisN,WTPTaskLoop.thisIndex,WTPTaskLoop.ran,right,left,leftmoney,rightmoney,WTP_ITI,social_left,Resume_keys.keys,Resume_keys.rt,end_screen_keys.keys,end_screen_keys.rt
space,6.457,66946e3054a30a2bf5b1be40,6685aa9113c938e83b4f1ea0,6700803f34fb66ea6dbf1971,2024-10-04_19h55.42.162,WTP_SM_Choice,2022.2.1,Win32,303.030303,,,,,,,,,,,,,,,,,,,,,,,,,,,,,,,,,,,,,,,,,,,,,
,,66946e3054a30a2bf5b1be40,6685aa9113c938e83b4f1ea0,6700803f34fb66ea6dbf1971,2024-10-04_19h55.42.162,WTP_SM_Choice,2022.2.1,Win32,303.030303,space,17.4222,,,,,,,,,,,,,,,,,,,,,,,,,,,,,,,,,,,,,,,,,,,
,,66946e3054a30a2bf5b1be40,6685aa9113c938e83b4f1ea0,6700803f34fb66ea6dbf1971,2024-10-04_19h55.42.162,WTP_SM_Choice,2022.2.1,Win32,303.030303,,,space,1.5903,space,1.231,NAN,,NAN,0,6,,0,0,0,0,1,1,Riley,Rej,Participant_Images/66946e3054a30a2bf5b1be40/66946e3054a30a2bf5b1be40_Images/66946e3054a30a2bf5b1be40_Image_25.jpeg,did not like,3.613205605,,,,,,,,,,,,,,,,,,,,,,
,,66946e3054a30a2bf5b1be40,6685aa9113c938e83b4f1ea0,6700803f34fb66ea6dbf1971,2024-10-04_19h55.42.162,WTP_SM_Choice,2022.2.1,Win32,303.030303,,,,,space,0.5108,NAN,,NAN,0,6,,0,1,1,1,1,2,Riley,Rej,Participant_Images/66946e3054a30a2bf5b1be40/66946e3054a30a2bf5b1be40_Images/66946e3054a30a2bf5b1be40_Image_1.jpeg,did not like,4.988446431,,,,,,,,,,,,,,,,,,,,,,
,,66946e3054a30a2bf5b1be40,6685aa9113c938e83b4f1ea0,6700803f34fb66ea6dbf1971,2024-10-04_19h55.42.162,WTP_SM_Choice,2022.2.1,Win32,303.030303,,,,,space,0.5375,NAN,,NAN,0,6,,0,2,2,2,1,3,Riley,Rej,Participant_Images/66946e3054a30a2bf5b1be40/66946e3054a30a2bf5b1be40_Images/66946e3054a30a2bf5b1be40_Image_5.jpeg,liked,3.470791822,,,,,,,,,,,,,,,,,,,,,,
,,66946e3054a30a2bf5b1be40,6685aa9113c938e83b4f1ea0,6700803f34fb66ea6dbf1971,2024-10-04_19h55.42.162,WTP_SM_Choice,2022.2.1,Win32,303.030303,,,,,space,0.4951,NAN,,NAN,0,6,,0,3,3,3,1,4,Riley,Rej,Participant_Images/66946e3054a30a2bf5b1be40/66946e3054a30a2bf5b1be40_Images/66946e3054a30a2bf5b1be40_Image_18.jpeg,did not like,3.820572462,,,,,,,,,,,,,,,,,,,,,,
,,66946e3054a30a2bf5b1be40,6685aa9113c938e83b4f1ea0,6700803f34fb66ea6dbf1971,2024-10-04_19h55.42.162,WTP_SM_Choice,2022.2.1,Win32,303.030303,,,,,,,,,,,,,,,,,,1,,,,,,space,22.1898,space,6.206,0.01,2,3.953,0,0,0,0,1,Make outfits I will wear for the rest of the week,Go to the movie theater with my friends,0.01,0.01,4.4,1,,,,
,,66946e3054a30a2bf5b1be40,6685aa9113c938e83b4f1ea0,6700803f34fb66ea6dbf1971,2024-10-04_19h55.42.162,WTP_SM_Choice,2022.2.1,Win32,303.030303,,,,,,,,,,,,,,,,,,2,,,,,,,,,,0.01,2,2.6691,0,1,1,1,1,Clean the house and making it feel organized,Go to the movie theater with my friends,0.02,0.01,8.8,1,,,,
,,66946e3054a30a2bf5b1be40,6685aa9113c938e83b4f1ea0,6700803f34fb66ea6dbf1971,2024-10-04_19h55.42.162,WTP_SM_Choice,2022.2.1,Win32,303.030303,,,,,,,,,,,,,,,,,,3,,,,,,,,,,0.01,2,3.6548,0,2,2,2,1,Research new clothes to buy with my boyfriend,Listen to music while in a good mood and in my house,0.03,0.01,3.3,0,,,,
,,66946e3054a30a2bf5b1be40,6685aa9113c938e83b4f1ea0,6700803f34fb66ea6dbf1971,2024-10-04_19h55.42.162,WTP_SM_Choice,2022.2.1,Win32,303.030303,,,,,,,,,,,,,,,,,,4,,,,,,,,,,0.01,2,2.6161,0,3,3,3,1,Go to the mall to purchase new clothes and getting food afterwards,Run errands with my boyfriend the whole day,0.04,0.01,1.1,1,,,,
,,66946e3054a30a2bf5b1be40,6685aa9113c938e83b4f1ea0,6700803f34fb66ea6dbf1971,2024-10-04_19h55.42.162,WTP_SM_Choice,2022.2.1,Win32,303.030303,,,,,,,,,,,,,,,,,,5,,,,,,,,,,0.01,2,3.6804,0,4,4,4,1,Research online for my next tech purchases,Cook food for dinner with my boyfriend,0.05,0.01,1.1,1,,,,
,,66946e3054a30a2bf5b1be40,6685aa9113c938e83b4f1ea0,6700803f34fb66ea6dbf1971,2024-10-04_19h55.42.162,WTP_SM_Choice,2022.2.1,Win32,303.030303,,,,,,,NAN,,NAN,0.05,5.95,,0,4,4,4,1,5,Riley,Rej,Participant_Images/66946e3054a30a2bf5b1be40/66946e3054a30a2bf5b1be40_Images/66946e3054a30a2bf5b1be40_Image_20.jpeg,did not like,2.455989137,,,,,,,,,,,,,,,,,,,,,,
,,66946e3054a30a2bf5b1be40,6685aa9113c938e83b4f1ea0,6700803f34fb66ea6dbf1971,2024-10-04_19h55.42.162,WTP_SM_Choice,2022.2.1,Win32,303.030303,,,,,space,0.5101,NAN,,NAN,0.05,5.95,,0,5,5,5,1,6,Riley,Rej,Participant_Images/66946e3054a30a2bf5b1be40/66946e3054a30a2bf5b1be40_Images/66946e3054a30a2bf5b1be40_Image_19.jpeg,liked,3.79605092,,,,,,,,,,,,,,,,,,,,,,
,,66946e3054a30a2bf5b1be40,6685aa9113c938e83b4f1ea0,6700803f34fb66ea6dbf1971,2024-10-04_19h55.42.162,WTP_SM_Choice,2022.2.1,Win32,303.030303,,,,,space,1.0698,NAN,,NAN,0.05,5.95,,0,6,6,6,1,7,Riley,Rej,Participant_Images/66946e3054a30a2bf5b1be40/66946e3054a30a2bf5b1be40_Images/66946e3054a30a2bf5b1be40_Image_4.jpeg,did not like,3.562416326,,,,,,,,,,,,,,,,,,,,,,
,,66946e3054a30a2bf5b1be40,6685aa9113c938e83b4f1ea0,6700803f34fb66ea6dbf1971,2024-10-04_19h55.42.162,WTP_SM_Choice,2022.2.1,Win32,303.030303,,,,,space,0.5599,NAN,,NAN,0.05,5.95,,0,7,7,7,1,8,Riley,Rej,Participant_Images/66946e3054a30a2bf5b1be40/66946e3054a30a2bf5b1be40_Images/66946e3054a30a2bf5b1be40_Image_11.jpeg,did not like,2.843822497,,,,,,,,,,,,,,,,,,,,,,
,,66946e3054a30a2bf5b1be40,6685aa9113c938e83b4f1ea0,6700803f34fb66ea6dbf1971,2024-10-04_19h55.42.162,WTP_SM_Choice,2022.2.1,Win32,303.030303,,,,,space,0.4908,NAN,,NAN,0.05,5.95,,0,8,8,8,1,9,Riley,Rej,Participant_Images/66946e3054a30a2bf5b1be40/66946e3054a30a2bf5b1be40_Images/66946e3054a30a2bf5b1be40_Image_8.jpeg,liked,3.546495948,,,,,,,,,,,,,,,,,,,,,,
,,66946e3054a30a2bf5b1be40,6685aa9113c938e83b4f1ea0,6700803f34fb66ea6dbf1971,2024-10-04_19h55.42.162,WTP_SM_Choice,2022.2.1,Win32,303.030303,,,,,,,,,,,,,,,,,,6,,,,,,space,41.7577,space,2.3558,0.01,1,2.2431,0,0,0,0,1,Cook food for dinner with my boyfriend,Going on a roadtrip with my boyfriends and visiting places we've never seen before,0.01,0.02,3.3,0,,,,
,,66946e3054a30a2bf5b1be40,6685aa9113c938e83b4f1ea0,6700803f34fb66ea6dbf1971,2024-10-04_19h55.42.162,WTP_SM_Choice,2022.2.1,Win32,303.030303,,,,,,,,,,,,,,,,,,7,,,,,,,,,,0.02,2,3.5612,0,1,1,1,1,Research online for my next tech purchases,Run errands with my boyfriend the whole day,0.02,0.02,1.1,1,,,,
,,66946e3054a30a2bf5b1be40,6685aa9113c938e83b4f1ea0,6700803f34fb66ea6dbf1971,2024-10-04_19h55.42.162,WTP_SM_Choice,2022.2.1,Win32,303.030303,,,,,,,,,,,,,,,,,,8,,,,,,,,,,0.02,2,2.7667,0,2,2,2,1,Eat my favorite foods while playing videogames,Play videogames with my boyfriend while ordering doordash,0.03,0.02,1.1,1,,,,
,,66946e3054a30a2bf5b1be40,6685aa9113c938e83b4f1ea0,6700803f34fb66ea6dbf1971,2024-10-04_19h55.42.162,WTP_SM_Choice,2022.2.1,Win32,303.030303,,,,,,,,,,,,,,,,,,9,,,,,,,,,,0.02,2,3.3818,0,3,3,3,1,Read whatever new book I have at the time on my sofa at night,Grab a bite at a restaurant with my boyfriend,0.04,0.02,4.4,1,,,,
,,66946e3054a30a2bf5b1be40,6685aa9113c938e83b4f1ea0,6700803f34fb66ea6dbf1971,2024-10-04_19h55.42.162,WTP_SM_Choice,2022.2.1,Win32,303.030303,,,,,,,,,,,,,,,,,,10,,,,,,,,,,0.02,2,2.2514,0,4,4,4,1,Grab a bite at a restaurant with my boyfriend,Eat my favorite foods while playing videogames,0.05,0.02,1.1,0,,,,
,,66946e3054a30a2bf5b1be40,6685aa9113c938e83b4f1ea0,6700803f34fb66ea6dbf1971,2024-10-04_19h55.42.162,WTP_SM_Choice,2022.2.1,Win32,303.030303,,,,,,,NAN,,NAN,0.14,5.86,,0,9,9,9,1,10,Riley,Rej,Participant_Images/66946e3054a30a2bf5b1be40/66946e3054a30a2bf5b1be40_Images/66946e3054a30a2bf5b1be40_Image_22.jpeg,liked,1.672012706,,,,,,,,,,,,,,,,,,,,,,
,,66946e3054a30a2bf5b1be40,6685aa9113c938e83b4f1ea0,6700803f34fb66ea6dbf1971,2024-10-04_19h55.42.162,WTP_SM_Choice,2022.2.1,Win32,303.030303,,,,,space,2.323,NAN,,NAN,0.14,5.86,,0,10,10,10,1,11,Riley,Rej,Participant_Images/66946e3054a30a2bf5b1be40/66946e3054a30a2bf5b1be40_Images/66946e3054a30a2bf5b1be40_Image_6.jpeg,did not like,4.942172136,,,,,,,,,,,,,,,,,,,,,,
,,66946e3054a30a2bf5b1be40,6685aa9113c938e83b4f1ea0,6700803f34fb66ea6dbf1971,2024-10-04_19h55.42.162,WTP_SM_Choice,2022.2.1,Win32,303.030303,,,,,space,0.7442,NAN,,NAN,0.14,5.86,,0,11,11,11,1,12,Riley,Rej,Participant_Images/66946e3054a30a2bf5b1be40/66946e3054a30a2bf5b1be40_Images/66946e3054a30a2bf5b1be40_Image_16.jpeg,liked,2.50187214,,,,,,,,,,,,,,,,,,,,,,
,,66946e3054a30a2bf5b1be40,6685aa9113c938e83b4f1ea0,6700803f34fb66ea6dbf1971,2024-10-04_19h55.42.162,WTP_SM_Choice,2022.2.1,Win32,303.030303,,,,,space,0.9544,NAN,,NAN,0.14,5.86,,0,12,12,12,1,13,Riley,Rej,Participant_Images/66946e3054a30a2bf5b1be40/66946e3054a30a2bf5b1be40_Images/66946e3054a30a2bf5b1be40_Image_10.jpeg,did not like,2.071164779,,,,,,,,,,,,,,,,,,,,,,
,,66946e3054a30a2bf5b1be40,6685aa9113c938e83b4f1ea0,6700803f34fb66ea6dbf1971,2024-10-04_19h55.42.162,WTP_SM_Choice,2022.2.1,Win32,303.030303,,,,,space,0.5711,NAN,,NAN,0.14,5.86,,0,13,13,13,1,14,Riley,Rej,Participant_Images/66946e3054a30a2bf5b1be40/66946e3054a30a2bf5b1be40_Images/66946e3054a30a2bf5b1be40_Image_12.jpeg,did not like,5.336503566,,,,,,,,,,,,,,,,,,,,,,
,,66946e3054a30a2bf5b1be40,6685aa9113c938e83b4f1ea0,6700803f34fb66ea6dbf1971,2024-10-04_19h55.42.162,WTP_SM_Choice,2022.2.1,Win32,303.030303,,,,,,,,,,,,,,,,,,11,,,,,,space,10.4241,space,2.272,0.01,1,1.7032,0,0,0,0,1,Make outfits I will wear for the rest of the week,Walk my dogs with my boyfriend while chatting about life,0.01,0.03,3.3,1,,,,
,,66946e3054a30a2bf5b1be40,6685aa9113c938e83b4f1ea0,6700803f34fb66ea6dbf1971,2024-10-04_19h55.42.162,WTP_SM_Choice,2022.2.1,Win32,303.030303,,,,,,,,,,,,,,,,,,12,,,,,,,,,,0.02,1,1.1342,0,1,1,1,1,Research new clothes to buy with my boyfriend,Research online for my next tech purchases,0.02,0.03,4.4,0,,,,
,,66946e3054a30a2bf5b1be40,6685aa9113c938e83b4f1ea0,6700803f34fb66ea6dbf1971,2024-10-04_19h55.42.162,WTP_SM_Choice,2022.2.1,Win32,303.030303,,,,,,,,,,,,,,,,,,13,,,,,,,,,,0.03,2,1.7833,0,2,2,2,1,Clean the house and making it feel organized,Cook food for dinner with my boyfriend,0.03,0.03,1.1,1,,,,
,,66946e3054a30a2bf5b1be40,6685aa9113c938e83b4f1ea0,6700803f34fb66ea6dbf1971,2024-10-04_19h55.42.162,WTP_SM_Choice,2022.2.1,Win32,303.030303,,,,,,,,,,,,,,,,,,14,,,,,,,,,,0.03,2,1.9515,0,3,3,3,1,Go to the mall to purchase new clothes and getting food afterwards,Walk my dogs with my boyfriend while chatting about life,0.04,0.03,3.3,1,,,,
,,66946e3054a30a2bf5b1be40,6685aa9113c938e83b4f1ea0,6700803f34fb66ea6dbf1971,2024-10-04_19h55.42.162,WTP_SM_Choice,2022.2.1,Win32,303.030303,,,,,,,,,,,,,,,,,,15,,,,,,,,,,0.03,2,1.1587,0,4,4,4,1,Run errands with my boyfriend the whole day,Eat my favorite foods while playing videogames,0.05,0.03,4.4,0,,,,
,,66946e3054a30a2bf5b1be40,6685aa9113c938e83b4f1ea0,6700803f34fb66ea6dbf1971,2024-10-04_19h55.42.162,WTP_SM_Choice,2022.2.1,Win32,303.030303,,,,,,,NAN,,NAN,0.26,5.74,,0,14,14,14,1,15,Riley,Rej,Participant_Images/66946e3054a30a2bf5b1be40/66946e3054a30a2bf5b1be40_Images/66946e3054a30a2bf5b1be40_Image_15.jpeg,did not like,2.642157193,,,,,,,,,,,,,,,,,,,,,,
,,66946e3054a30a2bf5b1be40,6685aa9113c938e83b4f1ea0,6700803f34fb66ea6dbf1971,2024-10-04_19h55.42.162,WTP_SM_Choice,2022.2.1,Win32,303.030303,,,,,space,1.1519,NAN,,NAN,0.26,5.74,,0,15,15,15,1,16,Riley,Rej,Participant_Images/66946e3054a30a2bf5b1be40/66946e3054a30a2bf5b1be40_Images/66946e3054a30a2bf5b1be40_Image_14.jpeg,did not like,4.456234322,,,,,,,,,,,,,,,,,,,,,,
,,66946e3054a30a2bf5b1be40,6685aa9113c938e83b4f1ea0,6700803f34fb66ea6dbf1971,2024-10-04_19h55.42.162,WTP_SM_Choice,2022.2.1,Win32,303.030303,,,,,space,5.3353,NAN,,NAN,0.26,5.74,,0,16,16,16,1,17,Riley,Rej,Participant_Images/66946e3054a30a2bf5b1be40/66946e3054a30a2bf5b1be40_Images/66946e3054a30a2bf5b1be40_Image_21.jpeg,did not like,4.438512181,,,,,,,,,,,,,,,,,,,,,,
,,66946e3054a30a2bf5b1be40,6685aa9113c938e83b4f1ea0,6700803f34fb66ea6dbf1971,2024-10-04_19h55.42.162,WTP_SM_Choice,2022.2.1,Win32,303.030303,,,,,space,0.7488,NAN,,NAN,0.26,5.74,,0,17,17,17,1,18,Riley,Rej,Participant_Images/66946e3054a30a2bf5b1be40/66946e3054a30a2bf5b1be40_Images/66946e3054a30a2bf5b1be40_Image_13.jpeg,liked,2.682944783,,,,,,,,,,,,,,,,,,,,,,
,,66946e3054a30a2bf5b1be40,6685aa9113c938e83b4f1ea0,6700803f34fb66ea6dbf1971,2024-10-04_19h55.42.162,WTP_SM_Choice,2022.2.1,Win32,303.030303,,,,,space,0.4486,NAN,,NAN,0.26,5.74,,0,18,18,18,1,19,Riley,Rej,Participant_Images/66946e3054a30a2bf5b1be40/66946e3054a30a2bf5b1be40_Images/66946e3054a30a2bf5b1be40_Image_24.jpeg,liked,4.51984296,,,,,,,,,,,,,,,,,,,,,,
,,66946e3054a30a2bf5b1be40,6685aa9113c938e83b4f1ea0,6700803f34fb66ea6dbf1971,2024-10-04_19h55.42.162,WTP_SM_Choice,2022.2.1,Win32,303.030303,,,,,,,,,,,,,,,,,,16,,,,,,space,1.3227,space,3.6474,0.01,1,1.2887,0,0,0,0,1,Play videogames with my boyfriend while ordering doordash,Make outfits I will wear for the rest of the week,0.01,0.04,1.1,0,,,,
,,66946e3054a30a2bf5b1be40,6685aa9113c938e83b4f1ea0,6700803f34fb66ea6dbf1971,2024-10-04_19h55.42.162,WTP_SM_Choice,2022.2.1,Win32,303.030303,,,,,,,,,,,,,,,,,,17,,,,,,,,,,0.02,1,1.1882,0,1,1,1,1,Listen to podcasts while doing house chores,Go for a walk with my family at the afternoon,0.02,0.04,8.8,1,,,,
,,66946e3054a30a2bf5b1be40,6685aa9113c938e83b4f1ea0,6700803f34fb66ea6dbf1971,2024-10-04_19h55.42.162,WTP_SM_Choice,2022.2.1,Win32,303.030303,,,,,,,,,,,,,,,,,,18,,,,,,,,,,0.03,1,1.3563,0,2,2,2,1,Eat my favorite foods while playing videogames,Research new clothes to buy with my boyfriend,0.03,0.04,3.3,1,,,,
,,66946e3054a30a2bf5b1be40,6685aa9113c938e83b4f1ea0,6700803f34fb66ea6dbf1971,2024-10-04_19h55.42.162,WTP_SM_Choice,2022.2.1,Win32,303.030303,,,,,,,,,,,,,,,,,,19,,,,,,,,,,0.04,2,3.7342,0,3,3,3,1,Go to the movie theater with my friends,Go to the gym very early in the morning,0.04,0.04,3.3,0,,,,
,,66946e3054a30a2bf5b1be40,6685aa9113c938e83b4f1ea0,6700803f34fb66ea6dbf1971,2024-10-04_19h55.42.162,WTP_SM_Choice,2022.2.1,Win32,303.030303,,,,,,,,,,,,,,,,,,20,,,,,,,,,,0.04,2,2.1494,0,4,4,4,1,Read whatever new book I have at the time on my sofa at night,Cook food for dinner with my boyfriend,0.05,0.04,1.1,1,,,,
,,66946e3054a30a2bf5b1be40,6685aa9113c938e83b4f1ea0,6700803f34fb66ea6dbf1971,2024-10-04_19h55.42.162,WTP_SM_Choice,2022.2.1,Win32,303.030303,,,,,,,NAN,,NAN,0.4,5.6,,0,19,19,19,1,20,Riley,Rej,Participant_Images/66946e3054a30a2bf5b1be40/66946e3054a30a2bf5b1be40_Images/66946e3054a30a2bf5b1be40_Image_2.jpeg,did not like,3.195382774,,,,,,,,,,,,,,,,,,,,,,
,,66946e3054a30a2bf5b1be40,6685aa9113c938e83b4f1ea0,6700803f34fb66ea6dbf1971,2024-10-04_19h55.42.162,WTP_SM_Choice,2022.2.1,Win32,303.030303,,,,,space,0.9332,NAN,,NAN,0.4,5.6,,0,20,20,20,1,21,Riley,Rej,Participant_Images/66946e3054a30a2bf5b1be40/66946e3054a30a2bf5b1be40_Images/66946e3054a30a2bf5b1be40_Image_3.jpeg,did not like,1.779333479,,,,,,,,,,,,,,,,,,,,,,
,,66946e3054a30a2bf5b1be40,6685aa9113c938e83b4f1ea0,6700803f34fb66ea6dbf1971,2024-10-04_19h55.42.162,WTP_SM_Choice,2022.2.1,Win32,303.030303,,,,,space,0.6723,NAN,,NAN,0.4,5.6,,0,21,21,21,1,22,Riley,Rej,Participant_Images/66946e3054a30a2bf5b1be40/66946e3054a30a2bf5b1be40_Images/66946e3054a30a2bf5b1be40_Image_7.jpeg,did not like,4.312468682,,,,,,,,,,,,,,,,,,,,,,
,,66946e3054a30a2bf5b1be40,6685aa9113c938e83b4f1ea0,6700803f34fb66ea6dbf1971,2024-10-04_19h55.42.162,WTP_SM_Choice,2022.2.1,Win32,303.030303,,,,,space,0.9783,NAN,,NAN,0.4,5.6,,0,22,22,22,1,23,Riley,Rej,Participant_Images/66946e3054a30a2bf5b1be40/66946e3054a30a2bf5b1be40_Images/66946e3054a30a2bf5b1be40_Image_9.jpeg,did not like,4.940433059,,,,,,,,,,,,,,,,,,,,,,
,,66946e3054a30a2bf5b1be40,6685aa9113c938e83b4f1ea0,6700803f34fb66ea6dbf1971,2024-10-04_19h55.42.162,WTP_SM_Choice,2022.2.1,Win32,303.030303,,,,,space,0.8851,NAN,,NAN,0.4,5.6,,0,23,23,23,1,24,Riley,Rej,Participant_Images/66946e3054a30a2bf5b1be40/66946e3054a30a2bf5b1be40_Images/66946e3054a30a2bf5b1be40_Image_23.jpeg,did not like,2.7105123,,,,,,,,,,,,,,,,,,,,,,
,,66946e3054a30a2bf5b1be40,6685aa9113c938e83b4f1ea0,6700803f34fb66ea6dbf1971,2024-10-04_19h55.42.162,WTP_SM_Choice,2022.2.1,Win32,303.030303,,,,,,,,,,,,,,,,,,21,,,,,,space,5.8482,space,0.8212,0.01,1,1.2838,0,0,0,0,1,Go for a walk with my family at the afternoon,Make outfits I will wear for the rest of the week,0.01,0.05,8.8,0,,,,
,,66946e3054a30a2bf5b1be40,6685aa9113c938e83b4f1ea0,6700803f34fb66ea6dbf1971,2024-10-04_19h55.42.162,WTP_SM_Choice,2022.2.1,Win32,303.030303,,,,,,,,,,,,,,,,,,22,,,,,,,,,,0.02,1,0.9842,0,1,1,1,1,Clean the house and making it feel organized,Build legos with my boyfriend while drinking margaritas,0.02,0.05,4.4,1,,,,
,,66946e3054a30a2bf5b1be40,6685aa9113c938e83b4f1ea0,6700803f34fb66ea6dbf1971,2024-10-04_19h55.42.162,WTP_SM_Choice,2022.2.1,Win32,303.030303,,,,,,,,,,,,,,,,,,23,,,,,,,,,,0.03,1,1.3023,0,2,2,2,1,Run errands with my boyfriend the whole day,Going on a roadtrip with my boyfriends and visiting places we've never seen before,0.03,0.05,1.1,0,,,,
,,66946e3054a30a2bf5b1be40,6685aa9113c938e83b4f1ea0,6700803f34fb66ea6dbf1971,2024-10-04_19h55.42.162,WTP_SM_Choice,2022.2.1,Win32,303.030303,,,,,,,,,,,,,,,,,,24,,,,,,,,,,0.04,1,1.5073,0,3,3,3,1,Read whatever new book I have at the time on my sofa at night,Play videogames with my boyfriend while ordering doordash,0.04,0.05,4.4,1,,,,
,,66946e3054a30a2bf5b1be40,6685aa9113c938e83b4f1ea0,6700803f34fb66ea6dbf1971,2024-10-04_19h55.42.162,WTP_SM_Choice,2022.2.1,Win32,303.030303,,,,,,,,,,,,,,,,,,25,,,,,,,,,,0.05,1,1.995,0,4,4,4,1,Research new clothes to buy with my boyfriend,Clean the house and making it feel organized,0.05,0.05,3.3,0,,,,
,,66946e3054a30a2bf5b1be40,6685aa9113c938e83b4f1ea0,6700803f34fb66ea6dbf1971,2024-10-04_19h55.42.162,WTP_SM_Choice,2022.2.1,Win32,303.030303,,,,,,,5,,9,0.55,5.45,,0,24,24,24,1,25,Riley,Rej,Participant_Images/66946e3054a30a2bf5b1be40/66946e3054a30a2bf5b1be40_Images/66946e3054a30a2bf5b1be40_Image_17.jpeg,did not like,3.602308302,,,,,,,,,,,,,,,,,,,space,1.4463,,
,,66946e3054a30a2bf5b1be40,6685aa9113c938e83b4f1ea0,6700803f34fb66ea6dbf1971,2024-10-04_19h55.42.162,WTP_SM_Choice,2022.2.1,Win32,303.030303,,,space,2.1251,space,13.04,NAN,,NAN,0.55,5.45,,0,25,25,25,1,26,Charlie,Rej,Participant_Images/66946e3054a30a2bf5b1be40/66946e3054a30a2bf5b1be40_Images/66946e3054a30a2bf5b1be40_Image_14.jpeg,liked,4.106391878,,,,,,,,,,,,,,,,,,,,,,
,,66946e3054a30a2bf5b1be40,6685aa9113c938e83b4f1ea0,6700803f34fb66ea6dbf1971,2024-10-04_19h55.42.162,WTP_SM_Choice,2022.2.1,Win32,303.030303,,,,,space,4.3686,NAN,,NAN,0.55,5.45,,0,26,26,26,1,27,Charlie,Rej,Participant_Images/66946e3054a30a2bf5b1be40/66946e3054a30a2bf5b1be40_Images/66946e3054a30a2bf5b1be40_Image_16.jpeg,did not like,3.799433026,,,,,,,,,,,,,,,,,,,,,,
,,66946e3054a30a2bf5b1be40,6685aa9113c938e83b4f1ea0,6700803f34fb66ea6dbf1971,2024-10-04_19h55.42.162,WTP_SM_Choice,2022.2.1,Win32,303.030303,,,,,space,9.4475,NAN,,NAN,0.55,5.45,,0,27,27,27,1,28,Charlie,Rej,Participant_Images/66946e3054a30a2bf5b1be40/66946e3054a30a2bf5b1be40_Images/66946e3054a30a2bf5b1be40_Image_15.jpeg,did not like,5.246980764,,,,,,,,,,,,,,,,,,,,,,
,,66946e3054a30a2bf5b1be40,6685aa9113c938e83b4f1ea0,6700803f34fb66ea6dbf1971,2024-10-04_19h55.42.162,WTP_SM_Choice,2022.2.1,Win32,303.030303,,,,,space,2.8818,NAN,,NAN,0.55,5.45,,0,28,28,28,1,29,Charlie,Rej,Participant_Images/66946e3054a30a2bf5b1be40/66946e3054a30a2bf5b1be40_Images/66946e3054a30a2bf5b1be40_Image_24.jpeg,liked,3.30081769,,,,,,,,,,,,,,,,,,,,,,
,,66946e3054a30a2bf5b1be40,6685aa9113c938e83b4f1ea0,6700803f34fb66ea6dbf1971,2024-10-04_19h55.42.162,WTP_SM_Choice,2022.2.1,Win32,303.030303,,,,,,,,,,,,,,,,,,26,,,,,,space,1.4578,space,0.8833,0.01,1,2.4533,0,0,0,0,1,Go to the gym very early in the morning,Cook food for dinner with my boyfriend,0.01,0.01,4.4,1,,,,
,,66946e3054a30a2bf5b1be40,6685aa9113c938e83b4f1ea0,6700803f34fb66ea6dbf1971,2024-10-04_19h55.42.162,WTP_SM_Choice,2022.2.1,Win32,303.030303,,,,,,,,,,,,,,,,,,27,,,,,,,,,,0.01,2,0.8011,0,1,1,1,1,Walk my dogs with my boyfriend while chatting about life,Go to the gym very early in the morning,0.02,0.01,3.3,0,,,,
,,66946e3054a30a2bf5b1be40,6685aa9113c938e83b4f1ea0,6700803f34fb66ea6dbf1971,2024-10-04_19h55.42.162,WTP_SM_Choice,2022.2.1,Win32,303.030303,,,,,,,,,,,,,,,,,,28,,,,,,,,,,0.01,2,0.8606,0,2,2,2,1,Build legos with my boyfriend while drinking margaritas,Read whatever new book I have at the time on my sofa at night,0.03,0.01,3.3,0,,,,
,,66946e3054a30a2bf5b1be40,6685aa9113c938e83b4f1ea0,6700803f34fb66ea6dbf1971,2024-10-04_19h55.42.162,WTP_SM_Choice,2022.2.1,Win32,303.030303,,,,,,,,,,,,,,,,,,29,,,,,,,,,,0.01,2,0.6827,0,3,3,3,1,Clean the house and making it feel organized,Run errands with my boyfriend the whole day,0.04,0.01,4.4,1,,,,
,,66946e3054a30a2bf5b1be40,6685aa9113c938e83b4f1ea0,6700803f34fb66ea6dbf1971,2024-10-04_19h55.42.162,WTP_SM_Choice,2022.2.1,Win32,303.030303,,,,,,,,,,,,,,,,,,30,,,,,,,,,,0.01,2,0.8174,0,4,4,4,1,Watch movies and tv shows with my boyfriend on the bed,Listen to music while in a good mood and in my house,0.05,0.01,8.8,0,,,,
,,66946e3054a30a2bf5b1be40,6685aa9113c938e83b4f1ea0,6700803f34fb66ea6dbf1971,2024-10-04_19h55.42.162,WTP_SM_Choice,2022.2.1,Win32,303.030303,,,,,,,NAN,,NAN,0.6,5.4,,0,29,29,29,1,30,Charlie,Rej,Participant_Images/66946e3054a30a2bf5b1be40/66946e3054a30a2bf5b1be40_Images/66946e3054a30a2bf5b1be40_Image_11.jpeg,did not like,1.661473164,,,,,,,,,,,,,,,,,,,,,,
,,66946e3054a30a2bf5b1be40,6685aa9113c938e83b4f1ea0,6700803f34fb66ea6dbf1971,2024-10-04_19h55.42.162,WTP_SM_Choice,2022.2.1,Win32,303.030303,,,,,space,1.0687,NAN,,NAN,0.6,5.4,,0,30,30,30,1,31,Charlie,Rej,Participant_Images/66946e3054a30a2bf5b1be40/66946e3054a30a2bf5b1be40_Images/66946e3054a30a2bf5b1be40_Image_18.jpeg,did not like,3.613205605,,,,,,,,,,,,,,,,,,,,,,
,,66946e3054a30a2bf5b1be40,6685aa9113c938e83b4f1ea0,6700803f34fb66ea6dbf1971,2024-10-04_19h55.42.162,WTP_SM_Choice,2022.2.1,Win32,303.030303,,,,,space,0.7026,NAN,,NAN,0.6,5.4,,0,31,31,31,1,32,Charlie,Rej,Participant_Images/66946e3054a30a2bf5b1be40/66946e3054a30a2bf5b1be40_Images/66946e3054a30a2bf5b1be40_Image_4.jpeg,did not like,4.988446431,,,,,,,,,,,,,,,,,,,,,,
,,66946e3054a30a2bf5b1be40,6685aa9113c938e83b4f1ea0,6700803f34fb66ea6dbf1971,2024-10-04_19h55.42.162,WTP_SM_Choice,2022.2.1,Win32,303.030303,,,,,space,1.3649,NAN,,NAN,0.6,5.4,,0,32,32,32,1,33,Charlie,Rej,Participant_Images/66946e3054a30a2bf5b1be40/66946e3054a30a2bf5b1be40_Images/66946e3054a30a2bf5b1be40_Image_13.jpeg,did not like,3.470791822,,,,,,,,,,,,,,,,,,,,,,
,,66946e3054a30a2bf5b1be40,6685aa9113c938e83b4f1ea0,6700803f34fb66ea6dbf1971,2024-10-04_19h55.42.162,WTP_SM_Choice,2022.2.1,Win32,303.030303,,,,,space,1.7021,NAN,,NAN,0.6,5.4,,0,33,33,33,1,34,Charlie,Rej,Participant_Images/66946e3054a30a2bf5b1be40/66946e3054a30a2bf5b1be40_Images/66946e3054a30a2bf5b1be40_Image_21.jpeg,liked,3.820572462,,,,,,,,,,,,,,,,,,,,,,
,,66946e3054a30a2bf5b1be40,6685aa9113c938e83b4f1ea0,6700803f34fb66ea6dbf1971,2024-10-04_19h55.42.162,WTP_SM_Choice,2022.2.1,Win32,303.030303,,,,,,,,,,,,,,,,,,31,,,,,,space,3.7644,space,4.116,0.01,1,1.6429,0,0,0,0,1,Go to the movie theater with my friends,Go to the mall to purchase new clothes and getting food afterwards,0.01,0.02,8.8,0,,,,
,,66946e3054a30a2bf5b1be40,6685aa9113c938e83b4f1ea0,6700803f34fb66ea6dbf1971,2024-10-04_19h55.42.162,WTP_SM_Choice,2022.2.1,Win32,303.030303,,,,,,,,,,,,,,,,,,32,,,,,,,,,,0.02,2,1.0896,0,1,1,1,1,Go for a walk with my family at the afternoon,Research online for my next tech purchases,0.02,0.02,1.1,0,,,,
,,66946e3054a30a2bf5b1be40,6685aa9113c938e83b4f1ea0,6700803f34fb66ea6dbf1971,2024-10-04_19h55.42.162,WTP_SM_Choice,2022.2.1,Win32,303.030303,,,,,,,,,,,,,,,,,,33,,,,,,,,,,0.03,1,3.0874,0,2,2,2,1,Play videogames with my boyfriend while ordering doordash,Listen to music while in a good mood and in my house,0.03,0.02,4.4,0,,,,
,,66946e3054a30a2bf5b1be40,6685aa9113c938e83b4f1ea0,6700803f34fb66ea6dbf1971,2024-10-04_19h55.42.162,WTP_SM_Choice,2022.2.1,Win32,303.030303,,,,,,,,,,,,,,,,,,34,,,,,,,,,,0.02,2,1.3849,0,3,3,3,1,Listen to music while in a good mood and in my house,Walk my dogs with my boyfriend while chatting about life,0.04,0.02,3.3,1,,,,
,,66946e3054a30a2bf5b1be40,6685aa9113c938e83b4f1ea0,6700803f34fb66ea6dbf1971,2024-10-04_19h55.42.162,WTP_SM_Choice,2022.2.1,Win32,303.030303,,,,,,,,,,,,,,,,,,35,,,,,,,,,,0.02,2,1.5927,0,4,4,4,1,Go to the movie theater with my friends,Eat my favorite foods while playing videogames,0.05,0.02,1.1,0,,,,
,,66946e3054a30a2bf5b1be40,6685aa9113c938e83b4f1ea0,6700803f34fb66ea6dbf1971,2024-10-04_19h55.42.162,WTP_SM_Choice,2022.2.1,Win32,303.030303,,,,,,,NAN,,NAN,0.7,5.3,,0,34,34,34,1,35,Charlie,Rej,Participant_Images/66946e3054a30a2bf5b1be40/66946e3054a30a2bf5b1be40_Images/66946e3054a30a2bf5b1be40_Image_5.jpeg,liked,2.455989137,,,,,,,,,,,,,,,,,,,,,,
,,66946e3054a30a2bf5b1be40,6685aa9113c938e83b4f1ea0,6700803f34fb66ea6dbf1971,2024-10-04_19h55.42.162,WTP_SM_Choice,2022.2.1,Win32,303.030303,,,,,space,1.5077,NAN,,NAN,0.7,5.3,,0,35,35,35,1,36,Charlie,Rej,Participant_Images/66946e3054a30a2bf5b1be40/66946e3054a30a2bf5b1be40_Images/66946e3054a30a2bf5b1be40_Image_25.jpeg,did not like,3.79605092,,,,,,,,,,,,,,,,,,,,,,
,,66946e3054a30a2bf5b1be40,6685aa9113c938e83b4f1ea0,6700803f34fb66ea6dbf1971,2024-10-04_19h55.42.162,WTP_SM_Choice,2022.2.1,Win32,303.030303,,,,,space,4.15,NAN,,NAN,0.7,5.3,,0,36,36,36,1,37,Charlie,Rej,Participant_Images/66946e3054a30a2bf5b1be40/66946e3054a30a2bf5b1be40_Images/66946e3054a30a2bf5b1be40_Image_12.jpeg,did not like,3.562416326,,,,,,,,,,,,,,,,,,,,,,
,,66946e3054a30a2bf5b1be40,6685aa9113c938e83b4f1ea0,6700803f34fb66ea6dbf1971,2024-10-04_19h55.42.162,WTP_SM_Choice,2022.2.1,Win32,303.030303,,,,,space,7.4606,NAN,,NAN,0.7,5.3,,0,37,37,37,1,38,Charlie,Rej,Participant_Images/66946e3054a30a2bf5b1be40/66946e3054a30a2bf5b1be40_Images/66946e3054a30a2bf5b1be40_Image_2.jpeg,did not like,2.843822497,,,,,,,,,,,,,,,,,,,,,,
,,66946e3054a30a2bf5b1be40,6685aa9113c938e83b4f1ea0,6700803f34fb66ea6dbf1971,2024-10-04_19h55.42.162,WTP_SM_Choice,2022.2.1,Win32,303.030303,,,,,space,3.1751,NAN,,NAN,0.7,5.3,,0,38,38,38,1,39,Charlie,Rej,Participant_Images/66946e3054a30a2bf5b1be40/66946e3054a30a2bf5b1be40_Images/66946e3054a30a2bf5b1be40_Image_6.jpeg,did not like,3.546495948,,,,,,,,,,,,,,,,,,,,,,
,,66946e3054a30a2bf5b1be40,6685aa9113c938e83b4f1ea0,6700803f34fb66ea6dbf1971,2024-10-04_19h55.42.162,WTP_SM_Choice,2022.2.1,Win32,303.030303,,,,,,,,,,,,,,,,,,36,,,,,,space,3.4228,space,1.948,0.01,1,1.1774,0,0,0,0,1,Research new clothes to buy with my boyfriend,Make outfits I will wear for the rest of the week,0.01,0.03,3.3,0,,,,
,,66946e3054a30a2bf5b1be40,6685aa9113c938e83b4f1ea0,6700803f34fb66ea6dbf1971,2024-10-04_19h55.42.162,WTP_SM_Choice,2022.2.1,Win32,303.030303,,,,,,,,,,,,,,,,,,37,,,,,,,,,,0.02,1,1.4015,0,1,1,1,1,Go to the movie theater with my friends,Listen to podcasts while doing house chores,0.02,0.03,1.1,0,,,,
,,66946e3054a30a2bf5b1be40,6685aa9113c938e83b4f1ea0,6700803f34fb66ea6dbf1971,2024-10-04_19h55.42.162,WTP_SM_Choice,2022.2.1,Win32,303.030303,,,,,,,,,,,,,,,,,,38,,,,,,,,,,0.03,1,2.6091,0,2,2,2,1,Grab a bite at a restaurant with my boyfriend,Go to the mall to purchase new clothes and getting food afterwards,0.03,0.03,1.1,0,,,,
,,66946e3054a30a2bf5b1be40,6685aa9113c938e83b4f1ea0,6700803f34fb66ea6dbf1971,2024-10-04_19h55.42.162,WTP_SM_Choice,2022.2.1,Win32,303.030303,,,,,,,,,,,,,,,,,,39,,,,,,,,,,0.03,2,4.0273,0,3,3,3,1,Build legos with my boyfriend while drinking margaritas,Going on a roadtrip with my boyfriends and visiting places we've never seen before,0.04,0.03,3.3,0,,,,
,,66946e3054a30a2bf5b1be40,6685aa9113c938e83b4f1ea0,6700803f34fb66ea6dbf1971,2024-10-04_19h55.42.162,WTP_SM_Choice,2022.2.1,Win32,303.030303,,,,,,,,,,,,,,,,,,40,,,,,,,,,,0.03,2,1.2939,0,4,4,4,1,Grab a bite at a restaurant with my boyfriend,Research online for my next tech purchases,0.05,0.03,4.4,0,,,,
,,66946e3054a30a2bf5b1be40,6685aa9113c938e83b4f1ea0,6700803f34fb66ea6dbf1971,2024-10-04_19h55.42.162,WTP_SM_Choice,2022.2.1,Win32,303.030303,,,,,,,NAN,,NAN,0.82,5.18,,0,39,39,39,1,40,Charlie,Rej,Participant_Images/66946e3054a30a2bf5b1be40/66946e3054a30a2bf5b1be40_Images/66946e3054a30a2bf5b1be40_Image_3.jpeg,did not like,1.672012706,,,,,,,,,,,,,,,,,,,,,,
,,66946e3054a30a2bf5b1be40,6685aa9113c938e83b4f1ea0,6700803f34fb66ea6dbf1971,2024-10-04_19h55.42.162,WTP_SM_Choice,2022.2.1,Win32,303.030303,,,,,space,1.6249,NAN,,NAN,0.82,5.18,,0,40,40,40,1,41,Charlie,Rej,Participant_Images/66946e3054a30a2bf5b1be40/66946e3054a30a2bf5b1be40_Images/66946e3054a30a2bf5b1be40_Image_10.jpeg,liked,4.942172136,,,,,,,,,,,,,,,,,,,,,,
,,66946e3054a30a2bf5b1be40,6685aa9113c938e83b4f1ea0,6700803f34fb66ea6dbf1971,2024-10-04_19h55.42.162,WTP_SM_Choice,2022.2.1,Win32,303.030303,,,,,space,0.4679,NAN,,NAN,0.82,5.18,,0,41,41,41,1,42,Charlie,Rej,Participant_Images/66946e3054a30a2bf5b1be40/66946e3054a30a2bf5b1be40_Images/66946e3054a30a2bf5b1be40_Image_7.jpeg,did not like,2.50187214,,,,,,,,,,,,,,,,,,,,,,
,,66946e3054a30a2bf5b1be40,6685aa9113c938e83b4f1ea0,6700803f34fb66ea6dbf1971,2024-10-04_19h55.42.162,WTP_SM_Choice,2022.2.1,Win32,303.030303,,,,,space,0.0834,NAN,,NAN,0.82,5.18,,0,42,42,42,1,43,Charlie,Rej,Participant_Images/66946e3054a30a2bf5b1be40/66946e3054a30a2bf5b1be40_Images/66946e3054a30a2bf5b1be40_Image_19.jpeg,did not like,2.071164779,,,,,,,,,,,,,,,,,,,,,,
,,66946e3054a30a2bf5b1be40,6685aa9113c938e83b4f1ea0,6700803f34fb66ea6dbf1971,2024-10-04_19h55.42.162,WTP_SM_Choice,2022.2.1,Win32,303.030303,,,,,space,0.5671,NAN,,NAN,0.82,5.18,,0,43,43,43,1,44,Charlie,Rej,Participant_Images/66946e3054a30a2bf5b1be40/66946e3054a30a2bf5b1be40_Images/66946e3054a30a2bf5b1be40_Image_1.jpeg,did not like,5.336503566,,,,,,,,,,,,,,,,,,,,,,
,,66946e3054a30a2bf5b1be40,6685aa9113c938e83b4f1ea0,6700803f34fb66ea6dbf1971,2024-10-04_19h55.42.162,WTP_SM_Choice,2022.2.1,Win32,303.030303,,,,,,,,,,,,,,,,,,41,,,,,,space,2.1449,space,0.6445,0.01,1,0.9362,0,0,0,0,1,Go to the gym very early in the morning,Build legos with my boyfriend while drinking margaritas,0.01,0.04,1.1,1,,,,
,,66946e3054a30a2bf5b1be40,6685aa9113c938e83b4f1ea0,6700803f34fb66ea6dbf1971,2024-10-04_19h55.42.162,WTP_SM_Choice,2022.2.1,Win32,303.030303,,,,,,,,,,,,,,,,,,42,,,,,,,,,,0.02,1,0.9815,0,1,1,1,1,Listen to podcasts while doing house chores,Watch movies and tv shows with my boyfriend on the bed,0.02,0.04,3.3,1,,,,
,,66946e3054a30a2bf5b1be40,6685aa9113c938e83b4f1ea0,6700803f34fb66ea6dbf1971,2024-10-04_19h55.42.162,WTP_SM_Choice,2022.2.1,Win32,303.030303,,,,,,,,,,,,,,,,,,43,,,,,,,,,,0.03,1,0.8543,0,2,2,2,1,Go to the mall to purchase new clothes and getting food afterwards,Watch movies and tv shows with my boyfriend on the bed,0.03,0.04,1.1,1,,,,
,,66946e3054a30a2bf5b1be40,6685aa9113c938e83b4f1ea0,6700803f34fb66ea6dbf1971,2024-10-04_19h55.42.162,WTP_SM_Choice,2022.2.1,Win32,303.030303,,,,,,,,,,,,,,,,,,44,,,,,,,,,,0.04,2,2.0798,0,3,3,3,1,Eat my favorite foods while playing videogames,Go for a walk with my family at the afternoon,0.04,0.04,1.1,1,,,,
,,66946e3054a30a2bf5b1be40,6685aa9113c938e83b4f1ea0,6700803f34fb66ea6dbf1971,2024-10-04_19h55.42.162,WTP_SM_Choice,2022.2.1,Win32,303.030303,,,,,,,,,,,,,,,,,,45,,,,,,,,,,0.04,2,1.339,0,4,4,4,1,Read whatever new book I have at the time on my sofa at night,Watch movies and tv shows with my boyfriend on the bed,0.05,0.04,4.4,1,,,,
,,66946e3054a30a2bf5b1be40,6685aa9113c938e83b4f1ea0,6700803f34fb66ea6dbf1971,2024-10-04_19h55.42.162,WTP_SM_Choice,2022.2.1,Win32,303.030303,,,,,,,NAN,,NAN,0.96,5.04,,0,44,44,44,1,45,Charlie,Rej,Participant_Images/66946e3054a30a2bf5b1be40/66946e3054a30a2bf5b1be40_Images/66946e3054a30a2bf5b1be40_Image_17.jpeg,did not like,2.642157193,,,,,,,,,,,,,,,,,,,,,,
,,66946e3054a30a2bf5b1be40,6685aa9113c938e83b4f1ea0,6700803f34fb66ea6dbf1971,2024-10-04_19h55.42.162,WTP_SM_Choice,2022.2.1,Win32,303.030303,,,,,space,0.3103,NAN,,NAN,0.96,5.04,,0,45,45,45,1,46,Charlie,Rej,Participant_Images/66946e3054a30a2bf5b1be40/66946e3054a30a2bf5b1be40_Images/66946e3054a30a2bf5b1be40_Image_20.jpeg,liked,4.456234322,,,,,,,,,,,,,,,,,,,,,,
,,66946e3054a30a2bf5b1be40,6685aa9113c938e83b4f1ea0,6700803f34fb66ea6dbf1971,2024-10-04_19h55.42.162,WTP_SM_Choice,2022.2.1,Win32,303.030303,,,,,space,1.9281,NAN,,NAN,0.96,5.04,,0,46,46,46,1,47,Charlie,Rej,Participant_Images/66946e3054a30a2bf5b1be40/66946e3054a30a2bf5b1be40_Images/66946e3054a30a2bf5b1be40_Image_8.jpeg,did not like,4.438512181,,,,,,,,,,,,,,,,,,,,,,
,,66946e3054a30a2bf5b1be40,6685aa9113c938e83b4f1ea0,6700803f34fb66ea6dbf1971,2024-10-04_19h55.42.162,WTP_SM_Choice,2022.2.1,Win32,303.030303,,,,,space,0.6804,NAN,,NAN,0.96,5.04,,0,47,47,47,1,48,Charlie,Rej,Participant_Images/66946e3054a30a2bf5b1be40/66946e3054a30a2bf5b1be40_Images/66946e3054a30a2bf5b1be40_Image_23.jpeg,did not like,2.682944783,,,,,,,,,,,,,,,,,,,,,,
,,66946e3054a30a2bf5b1be40,6685aa9113c938e83b4f1ea0,6700803f34fb66ea6dbf1971,2024-10-04_19h55.42.162,WTP_SM_Choice,2022.2.1,Win32,303.030303,,,,,space,1.8864,NAN,,NAN,0.96,5.04,,0,48,48,48,1,49,Charlie,Rej,Participant_Images/66946e3054a30a2bf5b1be40/66946e3054a30a2bf5b1be40_Images/66946e3054a30a2bf5b1be40_Image_22.jpeg,liked,4.51984296,,,,,,,,,,,,,,,,,,,,,,
,,66946e3054a30a2bf5b1be40,6685aa9113c938e83b4f1ea0,6700803f34fb66ea6dbf1971,2024-10-04_19h55.42.162,WTP_SM_Choice,2022.2.1,Win32,303.030303,,,,,,,,,,,,,,,,,,46,,,,,,space,0.4429,space,0.8684,0.01,1,1.4036,0,0,0,0,1,Grab a bite at a restaurant with my boyfriend,Go to the gym very early in the morning,0.01,0.05,8.8,0,,,,
,,66946e3054a30a2bf5b1be40,6685aa9113c938e83b4f1ea0,6700803f34fb66ea6dbf1971,2024-10-04_19h55.42.162,WTP_SM_Choice,2022.2.1,Win32,303.030303,,,,,,,,,,,,,,,,,,47,,,,,,,,,,0.02,1,1.051,0,1,1,1,1,Play videogames with my boyfriend while ordering doordash,Go to the gym very early in the morning,0.02,0.05,1.1,0,,,,
,,66946e3054a30a2bf5b1be40,6685aa9113c938e83b4f1ea0,6700803f34fb66ea6dbf1971,2024-10-04_19h55.42.162,WTP_SM_Choice,2022.2.1,Win32,303.030303,,,,,,,,,,,,,,,,,,48,,,,,,,,,,0.03,1,2.1791,0,2,2,2,1,Walk my dogs with my boyfriend while chatting about life,Listen to podcasts while doing house chores,0.03,0.05,4.4,0,,,,
,,66946e3054a30a2bf5b1be40,6685aa9113c938e83b4f1ea0,6700803f34fb66ea6dbf1971,2024-10-04_19h55.42.162,WTP_SM_Choice,2022.2.1,Win32,303.030303,,,,,,,,,,,,,,,,,,49,,,,,,,,,,0.04,1,1.1413,0,3,3,3,1,Build legos with my boyfriend while drinking margaritas,Research online for my next tech purchases,0.04,0.05,3.3,0,,,,
,,66946e3054a30a2bf5b1be40,6685aa9113c938e83b4f1ea0,6700803f34fb66ea6dbf1971,2024-10-04_19h55.42.162,WTP_SM_Choice,2022.2.1,Win32,303.030303,,,,,,,,,,,,,,,,,,50,,,,,,,,,,0.05,1,1.4096,0,4,4,4,1,Listen to podcasts while doing house chores,Grab a bite at a restaurant with my boyfriend,0.05,0.05,1.1,1,,,,
,,66946e3054a30a2bf5b1be40,6685aa9113c938e83b4f1ea0,6700803f34fb66ea6dbf1971,2024-10-04_19h55.42.162,WTP_SM_Choice,2022.2.1,Win32,303.030303,,,,,,,5,,9,1.11,4.89,,0,49,49,49,1,50,Charlie,Rej,Participant_Images/66946e3054a30a2bf5b1be40/66946e3054a30a2bf5b1be40_Images/66946e3054a30a2bf5b1be40_Image_9.jpeg,did not like,3.195382774,,,,,,,,,,,,,,,,,,,space,0.9128,,
,,66946e3054a30a2bf5b1be40,6685aa9113c938e83b4f1ea0,6700803f34fb66ea6dbf1971,2024-10-04_19h55.42.162,WTP_SM_Choice,2022.2.1,Win32,303.030303,,,space,1.3555,space,1.1022,NAN,,NAN,1.11,4.89,,0,50,50,50,1,51,Alex,Acc,Participant_Images/66946e3054a30a2bf5b1be40/66946e3054a30a2bf5b1be40_Images/66946e3054a30a2bf5b1be40_Image_17.jpeg,liked,1.779333479,,,,,,,,,,,,,,,,,,,,,,
,,66946e3054a30a2bf5b1be40,6685aa9113c938e83b4f1ea0,6700803f34fb66ea6dbf1971,2024-10-04_19h55.42.162,WTP_SM_Choice,2022.2.1,Win32,303.030303,,,,,space,0.8533,NAN,,NAN,1.11,4.89,,0,51,51,51,1,52,Alex,Acc,Participant_Images/66946e3054a30a2bf5b1be40/66946e3054a30a2bf5b1be40_Images/66946e3054a30a2bf5b1be40_Image_11.jpeg,liked,4.312468682,,,,,,,,,,,,,,,,,,,,,,
,,66946e3054a30a2bf5b1be40,6685aa9113c938e83b4f1ea0,6700803f34fb66ea6dbf1971,2024-10-04_19h55.42.162,WTP_SM_Choice,2022.2.1,Win32,303.030303,,,,,space,0.8954,NAN,,NAN,1.11,4.89,,0,52,52,52,1,53,Alex,Acc,Participant_Images/66946e3054a30a2bf5b1be40/66946e3054a30a2bf5b1be40_Images/66946e3054a30a2bf5b1be40_Image_21.jpeg,liked,4.940433059,,,,,,,,,,,,,,,,,,,,,,
,,66946e3054a30a2bf5b1be40,6685aa9113c938e83b4f1ea0,6700803f34fb66ea6dbf1971,2024-10-04_19h55.42.162,WTP_SM_Choice,2022.2.1,Win32,303.030303,,,,,space,1.0068,NAN,,NAN,1.11,4.89,,0,53,53,53,1,54,Alex,Acc,Participant_Images/66946e3054a30a2bf5b1be40/66946e3054a30a2bf5b1be40_Images/66946e3054a30a2bf5b1be40_Image_19.jpeg,liked,2.7105123,,,,,,,,,,,,,,,,,,,,,,
,,66946e3054a30a2bf5b1be40,6685aa9113c938e83b4f1ea0,6700803f34fb66ea6dbf1971,2024-10-04_19h55.42.162,WTP_SM_Choice,2022.2.1,Win32,303.030303,,,,,,,,,,,,,,,,,,51,,,,,,space,5.4242,space,0.4424,0.01,1,1.2094,0,0,0,0,1,Research new clothes to buy with my boyfriend,Go to the gym very early in the morning,0.01,0.01,1.1,0,,,,
,,66946e3054a30a2bf5b1be40,6685aa9113c938e83b4f1ea0,6700803f34fb66ea6dbf1971,2024-10-04_19h55.42.162,WTP_SM_Choice,2022.2.1,Win32,303.030303,,,,,,,,,,,,,,,,,,52,,,,,,,,,,0.01,2,0.9204,0,1,1,1,1,Go to the mall to purchase new clothes and getting food afterwards,Build legos with my boyfriend while drinking margaritas,0.02,0.01,3.3,1,,,,
,,66946e3054a30a2bf5b1be40,6685aa9113c938e83b4f1ea0,6700803f34fb66ea6dbf1971,2024-10-04_19h55.42.162,WTP_SM_Choice,2022.2.1,Win32,303.030303,,,,,,,,,,,,,,,,,,53,,,,,,,,,,0.01,2,1.1841,0,2,2,2,1,Walk my dogs with my boyfriend while chatting about life,Eat my favorite foods while playing videogames,0.03,0.01,1.1,0,,,,
,,66946e3054a30a2bf5b1be40,6685aa9113c938e83b4f1ea0,6700803f34fb66ea6dbf1971,2024-10-04_19h55.42.162,WTP_SM_Choice,2022.2.1,Win32,303.030303,,,,,,,,,,,,,,,,,,54,,,,,,,,,,0.01,2,2.5044,0,3,3,3,1,Read whatever new book I have at the time on my sofa at night,Go to the movie theater with my friends,0.04,0.01,4.4,1,,,,
,,66946e3054a30a2bf5b1be40,6685aa9113c938e83b4f1ea0,6700803f34fb66ea6dbf1971,2024-10-04_19h55.42.162,WTP_SM_Choice,2022.2.1,Win32,303.030303,,,,,,,,,,,,,,,,,,55,,,,,,,,,,0.01,2,0.8491,0,4,4,4,1,Listen to music while in a good mood and in my house,Go for a walk with my family at the afternoon,0.05,0.01,1.1,1,,,,
,,66946e3054a30a2bf5b1be40,6685aa9113c938e83b4f1ea0,6700803f34fb66ea6dbf1971,2024-10-04_19h55.42.162,WTP_SM_Choice,2022.2.1,Win32,303.030303,,,,,,,NAN,,NAN,1.16,4.84,,0,54,54,54,1,55,Alex,Acc,Participant_Images/66946e3054a30a2bf5b1be40/66946e3054a30a2bf5b1be40_Images/66946e3054a30a2bf5b1be40_Image_10.jpeg,liked,3.602308302,,,,,,,,,,,,,,,,,,,,,,
,,66946e3054a30a2bf5b1be40,6685aa9113c938e83b4f1ea0,6700803f34fb66ea6dbf1971,2024-10-04_19h55.42.162,WTP_SM_Choice,2022.2.1,Win32,303.030303,,,,,space,0.1934,NAN,,NAN,1.16,4.84,,0,55,55,55,1,56,Alex,Acc,Participant_Images/66946e3054a30a2bf5b1be40/66946e3054a30a2bf5b1be40_Images/66946e3054a30a2bf5b1be40_Image_3.jpeg,did not like,4.106391878,,,,,,,,,,,,,,,,,,,,,,
,,66946e3054a30a2bf5b1be40,6685aa9113c938e83b4f1ea0,6700803f34fb66ea6dbf1971,2024-10-04_19h55.42.162,WTP_SM_Choice,2022.2.1,Win32,303.030303,,,,,space,0.0483,NAN,,NAN,1.16,4.84,,0,56,56,56,1,57,Alex,Acc,Participant_Images/66946e3054a30a2bf5b1be40/66946e3054a30a2bf5b1be40_Images/66946e3054a30a2bf5b1be40_Image_9.jpeg,liked,3.799433026,,,,,,,,,,,,,,,,,,,,,,
,,66946e3054a30a2bf5b1be40,6685aa9113c938e83b4f1ea0,6700803f34fb66ea6dbf1971,2024-10-04_19h55.42.162,WTP_SM_Choice,2022.2.1,Win32,303.030303,,,,,space,5.9751,NAN,,NAN,1.16,4.84,,0,57,57,57,1,58,Alex,Acc,Participant_Images/66946e3054a30a2bf5b1be40/66946e3054a30a2bf5b1be40_Images/66946e3054a30a2bf5b1be40_Image_22.jpeg,liked,5.246980764,,,,,,,,,,,,,,,,,,,,,,
,,66946e3054a30a2bf5b1be40,6685aa9113c938e83b4f1ea0,6700803f34fb66ea6dbf1971,2024-10-04_19h55.42.162,WTP_SM_Choice,2022.2.1,Win32,303.030303,,,,,space,0.2041,NAN,,NAN,1.16,4.84,,0,58,58,58,1,59,Alex,Acc,Participant_Images/66946e3054a30a2bf5b1be40/66946e3054a30a2bf5b1be40_Images/66946e3054a30a2bf5b1be40_Image_1.jpeg,liked,3.30081769,,,,,,,,,,,,,,,,,,,,,,
,,66946e3054a30a2bf5b1be40,6685aa9113c938e83b4f1ea0,6700803f34fb66ea6dbf1971,2024-10-04_19h55.42.162,WTP_SM_Choice,2022.2.1,Win32,303.030303,,,,,,,,,,,,,,,,,,56,,,,,,space,1.0155,space,1.3374,0.01,1,1.3527,0,0,0,0,1,Eat my favorite foods while playing videogames,Cook food for dinner with my boyfriend,0.01,0.02,8.8,1,,,,
,,66946e3054a30a2bf5b1be40,6685aa9113c938e83b4f1ea0,6700803f34fb66ea6dbf1971,2024-10-04_19h55.42.162,WTP_SM_Choice,2022.2.1,Win32,303.030303,,,,,,,,,,,,,,,,,,57,,,,,,,,,,0.02,2,1.4261,0,1,1,1,1,Build legos with my boyfriend while drinking margaritas,Listen to podcasts while doing house chores,0.02,0.02,4.4,0,,,,
,,66946e3054a30a2bf5b1be40,6685aa9113c938e83b4f1ea0,6700803f34fb66ea6dbf1971,2024-10-04_19h55.42.162,WTP_SM_Choice,2022.2.1,Win32,303.030303,,,,,,,,,,,,,,,,,,58,,,,,,,,,,0.02,2,1.4269,0,2,2,2,1,Research new clothes to buy with my boyfriend,Listen to podcasts while doing house chores,0.03,0.02,4.4,0,,,,
,,66946e3054a30a2bf5b1be40,6685aa9113c938e83b4f1ea0,6700803f34fb66ea6dbf1971,2024-10-04_19h55.42.162,WTP_SM_Choice,2022.2.1,Win32,303.030303,,,,,,,,,,,,,,,,,,59,,,,,,,,,,0.02,2,1.2969,0,3,3,3,1,Research new clothes to buy with my boyfriend,Read whatever new book I have at the time on my sofa at night,0.04,0.02,4.4,0,,,,
,,66946e3054a30a2bf5b1be40,6685aa9113c938e83b4f1ea0,6700803f34fb66ea6dbf1971,2024-10-04_19h55.42.162,WTP_SM_Choice,2022.2.1,Win32,303.030303,,,,,,,,,,,,,,,,,,60,,,,,,,,,,0.02,2,2.7696,0,4,4,4,1,Go to the mall to purchase new clothes and getting food afterwards,Go for a walk with my family at the afternoon,0.05,0.02,1.1,1,,,,
,,66946e3054a30a2bf5b1be40,6685aa9113c938e83b4f1ea0,6700803f34fb66ea6dbf1971,2024-10-04_19h55.42.162,WTP_SM_Choice,2022.2.1,Win32,303.030303,,,,,,,NAN,,NAN,1.25,4.75,,0,59,59,59,1,60,Alex,Acc,Participant_Images/66946e3054a30a2bf5b1be40/66946e3054a30a2bf5b1be40_Images/66946e3054a30a2bf5b1be40_Image_6.jpeg,liked,1.661473164,,,,,,,,,,,,,,,,,,,,,,
,,66946e3054a30a2bf5b1be40,6685aa9113c938e83b4f1ea0,6700803f34fb66ea6dbf1971,2024-10-04_19h55.42.162,WTP_SM_Choice,2022.2.1,Win32,303.030303,,,,,space,2.036,NAN,,NAN,1.25,4.75,,0,60,60,60,1,61,Alex,Acc,Participant_Images/66946e3054a30a2bf5b1be40/66946e3054a30a2bf5b1be40_Images/66946e3054a30a2bf5b1be40_Image_4.jpeg,did not like,3.613205605,,,,,,,,,,,,,,,,,,,,,,
,,66946e3054a30a2bf5b1be40,6685aa9113c938e83b4f1ea0,6700803f34fb66ea6dbf1971,2024-10-04_19h55.42.162,WTP_SM_Choice,2022.2.1,Win32,303.030303,,,,,space,0.995,NAN,,NAN,1.25,4.75,,0,61,61,61,1,62,Alex,Acc,Participant_Images/66946e3054a30a2bf5b1be40/66946e3054a30a2bf5b1be40_Images/66946e3054a30a2bf5b1be40_Image_7.jpeg,did not like,4.988446431,,,,,,,,,,,,,,,,,,,,,,
,,66946e3054a30a2bf5b1be40,6685aa9113c938e83b4f1ea0,6700803f34fb66ea6dbf1971,2024-10-04_19h55.42.162,WTP_SM_Choice,2022.2.1,Win32,303.030303,,,,,space,0.649,NAN,,NAN,1.25,4.75,,0,62,62,62,1,63,Alex,Acc,Participant_Images/66946e3054a30a2bf5b1be40/66946e3054a30a2bf5b1be40_Images/66946e3054a30a2bf5b1be40_Image_12.jpeg,liked,3.470791822,,,,,,,,,,,,,,,,,,,,,,
,,66946e3054a30a2bf5b1be40,6685aa9113c938e83b4f1ea0,6700803f34fb66ea6dbf1971,2024-10-04_19h55.42.162,WTP_SM_Choice,2022.2.1,Win32,303.030303,,,,,space,0.5793,NAN,,NAN,1.25,4.75,,0,63,63,63,1,64,Alex,Acc,Participant_Images/66946e3054a30a2bf5b1be40/66946e3054a30a2bf5b1be40_Images/66946e3054a30a2bf5b1be40_Image_18.jpeg,liked,3.820572462,,,,,,,,,,,,,,,,,,,,,,
,,66946e3054a30a2bf5b1be40,6685aa9113c938e83b4f1ea0,6700803f34fb66ea6dbf1971,2024-10-04_19h55.42.162,WTP_SM_Choice,2022.2.1,Win32,303.030303,,,,,,,,,,,,,,,,,,61,,,,,,space,0.2285,space,0.759,0.01,1,0.8146,0,0,0,0,1,Going on a roadtrip with my boyfriends and visiting places we've never seen before,Go for a walk with my family at the afternoon,0.01,0.03,3.3,1,,,,
,,66946e3054a30a2bf5b1be40,6685aa9113c938e83b4f1ea0,6700803f34fb66ea6dbf1971,2024-10-04_19h55.42.162,WTP_SM_Choice,2022.2.1,Win32,303.030303,,,,,,,,,,,,,,,,,,62,,,,,,,,,,0.02,1,1.2644,0,1,1,1,1,Research new clothes to buy with my boyfriend,Go to the mall to purchase new clothes and getting food afterwards,0.02,0.03,3.3,0,,,,
,,66946e3054a30a2bf5b1be40,6685aa9113c938e83b4f1ea0,6700803f34fb66ea6dbf1971,2024-10-04_19h55.42.162,WTP_SM_Choice,2022.2.1,Win32,303.030303,,,,,,,,,,,,,,,,,,63,,,,,,,,,,0.03,2,5.7682,0,2,2,2,1,Play videogames with my boyfriend while ordering doordash,Research online for my next tech purchases,0.03,0.03,3.3,0,,,,
,,66946e3054a30a2bf5b1be40,6685aa9113c938e83b4f1ea0,6700803f34fb66ea6dbf1971,2024-10-04_19h55.42.162,WTP_SM_Choice,2022.2.1,Win32,303.030303,,,,,,,,,,,,,,,,,,64,,,,,,,,,,0.03,2,1.2359,0,3,3,3,1,Run errands with my boyfriend the whole day,Go to the gym very early in the morning,0.04,0.03,1.1,0,,,,
,,66946e3054a30a2bf5b1be40,6685aa9113c938e83b4f1ea0,6700803f34fb66ea6dbf1971,2024-10-04_19h55.42.162,WTP_SM_Choice,2022.2.1,Win32,303.030303,,,,,,,,,,,,,,,,,,65,,,,,,,,,,0.03,2,1.667,0,4,4,4,1,Make outfits I will wear for the rest of the week,Run errands with my boyfriend the whole day,0.05,0.03,1.1,1,,,,
,,66946e3054a30a2bf5b1be40,6685aa9113c938e83b4f1ea0,6700803f34fb66ea6dbf1971,2024-10-04_19h55.42.162,WTP_SM_Choice,2022.2.1,Win32,303.030303,,,,,,,NAN,,NAN,1.37,4.63,,0,64,64,64,1,65,Alex,Acc,Participant_Images/66946e3054a30a2bf5b1be40/66946e3054a30a2bf5b1be40_Images/66946e3054a30a2bf5b1be40_Image_8.jpeg,liked,2.455989137,,,,,,,,,,,,,,,,,,,,,,
,,66946e3054a30a2bf5b1be40,6685aa9113c938e83b4f1ea0,6700803f34fb66ea6dbf1971,2024-10-04_19h55.42.162,WTP_SM_Choice,2022.2.1,Win32,303.030303,,,,,space,0.7595,NAN,,NAN,1.37,4.63,,0,65,65,65,1,66,Alex,Acc,Participant_Images/66946e3054a30a2bf5b1be40/66946e3054a30a2bf5b1be40_Images/66946e3054a30a2bf5b1be40_Image_25.jpeg,liked,3.79605092,,,,,,,,,,,,,,,,,,,,,,
,,66946e3054a30a2bf5b1be40,6685aa9113c938e83b4f1ea0,6700803f34fb66ea6dbf1971,2024-10-04_19h55.42.162,WTP_SM_Choice,2022.2.1,Win32,303.030303,,,,,space,1.617,NAN,,NAN,1.37,4.63,,0,66,66,66,1,67,Alex,Acc,Participant_Images/66946e3054a30a2bf5b1be40/66946e3054a30a2bf5b1be40_Images/66946e3054a30a2bf5b1be40_Image_5.jpeg,did not like,3.562416326,,,,,,,,,,,,,,,,,,,,,,
,,66946e3054a30a2bf5b1be40,6685aa9113c938e83b4f1ea0,6700803f34fb66ea6dbf1971,2024-10-04_19h55.42.162,WTP_SM_Choice,2022.2.1,Win32,303.030303,,,,,space,0.7784,NAN,,NAN,1.37,4.63,,0,67,67,67,1,68,Alex,Acc,Participant_Images/66946e3054a30a2bf5b1be40/66946e3054a30a2bf5b1be40_Images/66946e3054a30a2bf5b1be40_Image_24.jpeg,liked,2.843822497,,,,,,,,,,,,,,,,,,,,,,
,,66946e3054a30a2bf5b1be40,6685aa9113c938e83b4f1ea0,6700803f34fb66ea6dbf1971,2024-10-04_19h55.42.162,WTP_SM_Choice,2022.2.1,Win32,303.030303,,,,,space,2.4217,NAN,,NAN,1.37,4.63,,0,68,68,68,1,69,Alex,Acc,Participant_Images/66946e3054a30a2bf5b1be40/66946e3054a30a2bf5b1be40_Images/66946e3054a30a2bf5b1be40_Image_23.jpeg,did not like,3.546495948,,,,,,,,,,,,,,,,,,,,,,
,,66946e3054a30a2bf5b1be40,6685aa9113c938e83b4f1ea0,6700803f34fb66ea6dbf1971,2024-10-04_19h55.42.162,WTP_SM_Choice,2022.2.1,Win32,303.030303,,,,,,,,,,,,,,,,,,66,,,,,,space,2.0307,space,0.4649,0.01,1,1.2361,0,0,0,0,1,Play videogames with my boyfriend while ordering doordash,Go to the mall to purchase new clothes and getting food afterwards,0.01,0.04,1.1,0,,,,
,,66946e3054a30a2bf5b1be40,6685aa9113c938e83b4f1ea0,6700803f34fb66ea6dbf1971,2024-10-04_19h55.42.162,WTP_SM_Choice,2022.2.1,Win32,303.030303,,,,,,,,,,,,,,,,,,67,,,,,,,,,,0.02,1,2.2273,0,1,1,1,1,Grab a bite at a restaurant with my boyfriend,Clean the house and making it feel organized,0.02,0.04,8.8,0,,,,
,,66946e3054a30a2bf5b1be40,6685aa9113c938e83b4f1ea0,6700803f34fb66ea6dbf1971,2024-10-04_19h55.42.162,WTP_SM_Choice,2022.2.1,Win32,303.030303,,,,,,,,,,,,,,,,,,68,,,,,,,,,,0.03,1,1.1753,0,2,2,2,1,Go for a walk with my family at the afternoon,Clean the house and making it feel organized,0.03,0.04,4.4,0,,,,
,,66946e3054a30a2bf5b1be40,6685aa9113c938e83b4f1ea0,6700803f34fb66ea6dbf1971,2024-10-04_19h55.42.162,WTP_SM_Choice,2022.2.1,Win32,303.030303,,,,,,,,,,,,,,,,,,69,,,,,,,,,,0.04,2,2.4955,0,3,3,3,1,Listen to podcasts while doing house chores,Run errands with my boyfriend the whole day,0.04,0.04,1.1,1,,,,
,,66946e3054a30a2bf5b1be40,6685aa9113c938e83b4f1ea0,6700803f34fb66ea6dbf1971,2024-10-04_19h55.42.162,WTP_SM_Choice,2022.2.1,Win32,303.030303,,,,,,,,,,,,,,,,,,70,,,,,,,,,,0.04,2,3.5091,0,4,4,4,1,Going on a roadtrip with my boyfriends and visiting places we've never seen before,Watch movies and tv shows with my boyfriend on the bed,0.05,0.04,1.1,1,,,,
,,66946e3054a30a2bf5b1be40,6685aa9113c938e83b4f1ea0,6700803f34fb66ea6dbf1971,2024-10-04_19h55.42.162,WTP_SM_Choice,2022.2.1,Win32,303.030303,,,,,,,NAN,,NAN,1.51,4.49,,0,69,69,69,1,70,Alex,Acc,Participant_Images/66946e3054a30a2bf5b1be40/66946e3054a30a2bf5b1be40_Images/66946e3054a30a2bf5b1be40_Image_13.jpeg,liked,1.672012706,,,,,,,,,,,,,,,,,,,,,,
,,66946e3054a30a2bf5b1be40,6685aa9113c938e83b4f1ea0,6700803f34fb66ea6dbf1971,2024-10-04_19h55.42.162,WTP_SM_Choice,2022.2.1,Win32,303.030303,,,,,space,0.026,NAN,,NAN,1.51,4.49,,0,70,70,70,1,71,Alex,Acc,Participant_Images/66946e3054a30a2bf5b1be40/66946e3054a30a2bf5b1be40_Images/66946e3054a30a2bf5b1be40_Image_15.jpeg,liked,4.942172136,,,,,,,,,,,,,,,,,,,,,,
,,66946e3054a30a2bf5b1be40,6685aa9113c938e83b4f1ea0,6700803f34fb66ea6dbf1971,2024-10-04_19h55.42.162,WTP_SM_Choice,2022.2.1,Win32,303.030303,,,,,space,0.0179,NAN,,NAN,1.51,4.49,,0,71,71,71,1,72,Alex,Acc,Participant_Images/66946e3054a30a2bf5b1be40/66946e3054a30a2bf5b1be40_Images/66946e3054a30a2bf5b1be40_Image_14.jpeg,did not like,2.50187214,,,,,,,,,,,,,,,,,,,,,,
,,66946e3054a30a2bf5b1be40,6685aa9113c938e83b4f1ea0,6700803f34fb66ea6dbf1971,2024-10-04_19h55.42.162,WTP_SM_Choice,2022.2.1,Win32,303.030303,,,,,space,0.1219,NAN,,NAN,1.51,4.49,,0,72,72,72,1,73,Alex,Acc,Participant_Images/66946e3054a30a2bf5b1be40/66946e3054a30a2bf5b1be40_Images/66946e3054a30a2bf5b1be40_Image_2.jpeg,liked,2.071164779,,,,,,,,,,,,,,,,,,,,,,
,,66946e3054a30a2bf5b1be40,6685aa9113c938e83b4f1ea0,6700803f34fb66ea6dbf1971,2024-10-04_19h55.42.162,WTP_SM_Choice,2022.2.1,Win32,303.030303,,,,,space,4.143,NAN,,NAN,1.51,4.49,,0,73,73,73,1,74,Alex,Acc,Participant_Images/66946e3054a30a2bf5b1be40/66946e3054a30a2bf5b1be40_Images/66946e3054a30a2bf5b1be40_Image_16.jpeg,did not like,5.336503566,,,,,,,,,,,,,,,,,,,,,,
,,66946e3054a30a2bf5b1be40,6685aa9113c938e83b4f1ea0,6700803f34fb66ea6dbf1971,2024-10-04_19h55.42.162,WTP_SM_Choice,2022.2.1,Win32,303.030303,,,,,,,,,,,,,,,,,,71,,,,,,space,4.6295,space,1.8138,0.01,1,0.94,0,0,0,0,1,Go to the movie theater with my friends,Research online for my next tech purchases,0.01,0.05,3.3,0,,,,
,,66946e3054a30a2bf5b1be40,6685aa9113c938e83b4f1ea0,6700803f34fb66ea6dbf1971,2024-10-04_19h55.42.162,WTP_SM_Choice,2022.2.1,Win32,303.030303,,,,,,,,,,,,,,,,,,72,,,,,,,,,,0.02,1,1.3803,0,1,1,1,1,Watch movies and tv shows with my boyfriend on the bed,Research online for my next tech purchases,0.02,0.05,8.8,0,,,,
,,66946e3054a30a2bf5b1be40,6685aa9113c938e83b4f1ea0,6700803f34fb66ea6dbf1971,2024-10-04_19h55.42.162,WTP_SM_Choice,2022.2.1,Win32,303.030303,,,,,,,,,,,,,,,,,,73,,,,,,,,,,0.03,1,1.2904,0,2,2,2,1,Grab a bite at a restaurant with my boyfriend,Make outfits I will wear for the rest of the week,0.03,0.05,3.3,0,,,,
,,66946e3054a30a2bf5b1be40,6685aa9113c938e83b4f1ea0,6700803f34fb66ea6dbf1971,2024-10-04_19h55.42.162,WTP_SM_Choice,2022.2.1,Win32,303.030303,,,,,,,,,,,,,,,,,,74,,,,,,,,,,0.04,1,1.2265,0,3,3,3,1,Listen to music while in a good mood and in my house,Go to the movie theater with my friends,0.04,0.05,4.4,1,,,,
,,66946e3054a30a2bf5b1be40,6685aa9113c938e83b4f1ea0,6700803f34fb66ea6dbf1971,2024-10-04_19h55.42.162,WTP_SM_Choice,2022.2.1,Win32,303.030303,,,,,,,,,,,,,,,,,,75,,,,,,,,,,0.05,2,3.6436,0,4,4,4,1,Read whatever new book I have at the time on my sofa at night,Walk my dogs with my boyfriend while chatting about life,0.05,0.05,3.3,1,,,,
,,66946e3054a30a2bf5b1be40,6685aa9113c938e83b4f1ea0,6700803f34fb66ea6dbf1971,2024-10-04_19h55.42.162,WTP_SM_Choice,2022.2.1,Win32,303.030303,,,,,,,4,,9,1.66,4.34,,0,74,74,74,1,75,Alex,Acc,Participant_Images/66946e3054a30a2bf5b1be40/66946e3054a30a2bf5b1be40_Images/66946e3054a30a2bf5b1be40_Image_20.jpeg,liked,2.642157193,,,,,,,,,,,,,,,,,,,space,3.0782,,
,,66946e3054a30a2bf5b1be40,6685aa9113c938e83b4f1ea0,6700803f34fb66ea6dbf1971,2024-10-04_19h55.42.162,WTP_SM_Choice,2022.2.1,Win32,303.030303,,,space,4.8515,space,0.4568,NAN,,NAN,1.66,4.34,,0,75,75,75,1,76,Sam,Acc,Participant_Images/66946e3054a30a2bf5b1be40/66946e3054a30a2bf5b1be40_Images/66946e3054a30a2bf5b1be40_Image_25.jpeg,liked,4.456234322,,,,,,,,,,,,,,,,,,,,,,
,,66946e3054a30a2bf5b1be40,6685aa9113c938e83b4f1ea0,6700803f34fb66ea6dbf1971,2024-10-04_19h55.42.162,WTP_SM_Choice,2022.2.1,Win32,303.030303,,,,,space,2.7113,NAN,,NAN,1.66,4.34,,0,76,76,76,1,77,Sam,Acc,Participant_Images/66946e3054a30a2bf5b1be40/66946e3054a30a2bf5b1be40_Images/66946e3054a30a2bf5b1be40_Image_5.jpeg,liked,4.438512181,,,,,,,,,,,,,,,,,,,,,,
,,66946e3054a30a2bf5b1be40,6685aa9113c938e83b4f1ea0,6700803f34fb66ea6dbf1971,2024-10-04_19h55.42.162,WTP_SM_Choice,2022.2.1,Win32,303.030303,,,,,space,0.7576,NAN,,NAN,1.66,4.34,,0,77,77,77,1,78,Sam,Acc,Participant_Images/66946e3054a30a2bf5b1be40/66946e3054a30a2bf5b1be40_Images/66946e3054a30a2bf5b1be40_Image_4.jpeg,liked,2.682944783,,,,,,,,,,,,,,,,,,,,,,
,,66946e3054a30a2bf5b1be40,6685aa9113c938e83b4f1ea0,6700803f34fb66ea6dbf1971,2024-10-04_19h55.42.162,WTP_SM_Choice,2022.2.1,Win32,303.030303,,,,,space,2.6923,NAN,,NAN,1.66,4.34,,0,78,78,78,1,79,Sam,Acc,Participant_Images/66946e3054a30a2bf5b1be40/66946e3054a30a2bf5b1be40_Images/66946e3054a30a2bf5b1be40_Image_9.jpeg,did not like,4.51984296,,,,,,,,,,,,,,,,,,,,,,
,,66946e3054a30a2bf5b1be40,6685aa9113c938e83b4f1ea0,6700803f34fb66ea6dbf1971,2024-10-04_19h55.42.162,WTP_SM_Choice,2022.2.1,Win32,303.030303,,,,,,,,,,,,,,,,,,76,,,,,,space,0.5177,space,1.0833,0.01,2,3.1331,0,0,0,0,1,Play videogames with my boyfriend while ordering doordash,Going on a roadtrip with my boyfriends and visiting places we've never seen before,0.01,0.01,1.1,0,,,,
,,66946e3054a30a2bf5b1be40,6685aa9113c938e83b4f1ea0,6700803f34fb66ea6dbf1971,2024-10-04_19h55.42.162,WTP_SM_Choice,2022.2.1,Win32,303.030303,,,,,,,,,,,,,,,,,,77,,,,,,,,,,0.01,2,1.7777,0,1,1,1,1,Clean the house and making it feel organized,Play videogames with my boyfriend while ordering doordash,0.02,0.01,8.8,1,,,,
,,66946e3054a30a2bf5b1be40,6685aa9113c938e83b4f1ea0,6700803f34fb66ea6dbf1971,2024-10-04_19h55.42.162,WTP_SM_Choice,2022.2.1,Win32,303.030303,,,,,,,,,,,,,,,,,,78,,,,,,,,,,0.01,2,1.0012,0,2,2,2,1,Play videogames with my boyfriend while ordering doordash,Listen to podcasts while doing house chores,0.03,0.01,1.1,0,,,,
,,66946e3054a30a2bf5b1be40,6685aa9113c938e83b4f1ea0,6700803f34fb66ea6dbf1971,2024-10-04_19h55.42.162,WTP_SM_Choice,2022.2.1,Win32,303.030303,,,,,,,,,,,,,,,,,,79,,,,,,,,,,0.01,2,1.4492,0,3,3,3,1,Going on a roadtrip with my boyfriends and visiting places we've never seen before,Grab a bite at a restaurant with my boyfriend,0.04,0.01,1.1,1,,,,
,,66946e3054a30a2bf5b1be40,6685aa9113c938e83b4f1ea0,6700803f34fb66ea6dbf1971,2024-10-04_19h55.42.162,WTP_SM_Choice,2022.2.1,Win32,303.030303,,,,,,,,,,,,,,,,,,80,,,,,,,,,,0.01,2,1.5008,0,4,4,4,1,Listen to music while in a good mood and in my house,Grab a bite at a restaurant with my boyfriend,0.05,0.01,4.4,1,,,,
,,66946e3054a30a2bf5b1be40,6685aa9113c938e83b4f1ea0,6700803f34fb66ea6dbf1971,2024-10-04_19h55.42.162,WTP_SM_Choice,2022.2.1,Win32,303.030303,,,,,,,NAN,,NAN,1.71,4.29,,0,79,79,79,1,80,Sam,Acc,Participant_Images/66946e3054a30a2bf5b1be40/66946e3054a30a2bf5b1be40_Images/66946e3054a30a2bf5b1be40_Image_22.jpeg,liked,3.195382774,,,,,,,,,,,,,,,,,,,,,,
,,66946e3054a30a2bf5b1be40,6685aa9113c938e83b4f1ea0,6700803f34fb66ea6dbf1971,2024-10-04_19h55.42.162,WTP_SM_Choice,2022.2.1,Win32,303.030303,,,,,space,2.1926,NAN,,NAN,1.71,4.29,,0,80,80,80,1,81,Sam,Acc,Participant_Images/66946e3054a30a2bf5b1be40/66946e3054a30a2bf5b1be40_Images/66946e3054a30a2bf5b1be40_Image_21.jpeg,liked,1.779333479,,,,,,,,,,,,,,,,,,,,,,
,,66946e3054a30a2bf5b1be40,6685aa9113c938e83b4f1ea0,6700803f34fb66ea6dbf1971,2024-10-04_19h55.42.162,WTP_SM_Choice,2022.2.1,Win32,303.030303,,,,,space,1.7007,NAN,,NAN,1.71,4.29,,0,81,81,81,1,82,Sam,Acc,Participant_Images/66946e3054a30a2bf5b1be40/66946e3054a30a2bf5b1be40_Images/66946e3054a30a2bf5b1be40_Image_19.jpeg,did not like,4.312468682,,,,,,,,,,,,,,,,,,,,,,
,,66946e3054a30a2bf5b1be40,6685aa9113c938e83b4f1ea0,6700803f34fb66ea6dbf1971,2024-10-04_19h55.42.162,WTP_SM_Choice,2022.2.1,Win32,303.030303,,,,,space,1.3158,NAN,,NAN,1.71,4.29,,0,82,82,82,1,83,Sam,Acc,Participant_Images/66946e3054a30a2bf5b1be40/66946e3054a30a2bf5b1be40_Images/66946e3054a30a2bf5b1be40_Image_12.jpeg,liked,4.940433059,,,,,,,,,,,,,,,,,,,,,,
,,66946e3054a30a2bf5b1be40,6685aa9113c938e83b4f1ea0,6700803f34fb66ea6dbf1971,2024-10-04_19h55.42.162,WTP_SM_Choice,2022.2.1,Win32,303.030303,,,,,space,0.5856,NAN,,NAN,1.71,4.29,,0,83,83,83,1,84,Sam,Acc,Participant_Images/66946e3054a30a2bf5b1be40/66946e3054a30a2bf5b1be40_Images/66946e3054a30a2bf5b1be40_Image_8.jpeg,liked,2.7105123,,,,,,,,,,,,,,,,,,,,,,
,,66946e3054a30a2bf5b1be40,6685aa9113c938e83b4f1ea0,6700803f34fb66ea6dbf1971,2024-10-04_19h55.42.162,WTP_SM_Choice,2022.2.1,Win32,303.030303,,,,,,,,,,,,,,,,,,81,,,,,,space,1.4236,space,0.4446,0.01,1,0.8039,0,0,0,0,1,Build legos with my boyfriend while drinking margaritas,Listen to music while in a good mood and in my house,0.01,0.02,3.3,0,,,,
,,66946e3054a30a2bf5b1be40,6685aa9113c938e83b4f1ea0,6700803f34fb66ea6dbf1971,2024-10-04_19h55.42.162,WTP_SM_Choice,2022.2.1,Win32,303.030303,,,,,,,,,,,,,,,,,,82,,,,,,,,,,0.02,1,2.6025,0,1,1,1,1,Read whatever new book I have at the time on my sofa at night,Go for a walk with my family at the afternoon,0.02,0.02,4.4,1,,,,
,,66946e3054a30a2bf5b1be40,6685aa9113c938e83b4f1ea0,6700803f34fb66ea6dbf1971,2024-10-04_19h55.42.162,WTP_SM_Choice,2022.2.1,Win32,303.030303,,,,,,,,,,,,,,,,,,83,,,,,,,,,,0.02,2,2.0503,0,2,2,2,1,Go to the movie theater with my friends,Going on a roadtrip with my boyfriends and visiting places we've never seen before,0.03,0.02,1.1,0,,,,
,,66946e3054a30a2bf5b1be40,6685aa9113c938e83b4f1ea0,6700803f34fb66ea6dbf1971,2024-10-04_19h55.42.162,WTP_SM_Choice,2022.2.1,Win32,303.030303,,,,,,,,,,,,,,,,,,84,,,,,,,,,,0.02,2,3.6245,0,3,3,3,1,Go to the gym very early in the morning,Go for a walk with my family at the afternoon,0.04,0.02,3.3,1,,,,
,,66946e3054a30a2bf5b1be40,6685aa9113c938e83b4f1ea0,6700803f34fb66ea6dbf1971,2024-10-04_19h55.42.162,WTP_SM_Choice,2022.2.1,Win32,303.030303,,,,,,,,,,,,,,,,,,85,,,,,,,,,,0.02,2,1.9752,0,4,4,4,1,Make outfits I will wear for the rest of the week,Cook food for dinner with my boyfriend,0.05,0.02,3.3,1,,,,
,,66946e3054a30a2bf5b1be40,6685aa9113c938e83b4f1ea0,6700803f34fb66ea6dbf1971,2024-10-04_19h55.42.162,WTP_SM_Choice,2022.2.1,Win32,303.030303,,,,,,,NAN,,NAN,1.8,4.2,,0,84,84,84,1,85,Sam,Acc,Participant_Images/66946e3054a30a2bf5b1be40/66946e3054a30a2bf5b1be40_Images/66946e3054a30a2bf5b1be40_Image_23.jpeg,liked,3.602308302,,,,,,,,,,,,,,,,,,,,,,
,,66946e3054a30a2bf5b1be40,6685aa9113c938e83b4f1ea0,6700803f34fb66ea6dbf1971,2024-10-04_19h55.42.162,WTP_SM_Choice,2022.2.1,Win32,303.030303,,,,,space,0.7307,NAN,,NAN,1.8,4.2,,0,85,85,85,1,86,Sam,Acc,Participant_Images/66946e3054a30a2bf5b1be40/66946e3054a30a2bf5b1be40_Images/66946e3054a30a2bf5b1be40_Image_10.jpeg,liked,4.106391878,,,,,,,,,,,,,,,,,,,,,,
,,66946e3054a30a2bf5b1be40,6685aa9113c938e83b4f1ea0,6700803f34fb66ea6dbf1971,2024-10-04_19h55.42.162,WTP_SM_Choice,2022.2.1,Win32,303.030303,,,,,space,0.1838,NAN,,NAN,1.8,4.2,,0,86,86,86,1,87,Sam,Acc,Participant_Images/66946e3054a30a2bf5b1be40/66946e3054a30a2bf5b1be40_Images/66946e3054a30a2bf5b1be40_Image_6.jpeg,liked,3.799433026,,,,,,,,,,,,,,,,,,,,,,
,,66946e3054a30a2bf5b1be40,6685aa9113c938e83b4f1ea0,6700803f34fb66ea6dbf1971,2024-10-04_19h55.42.162,WTP_SM_Choice,2022.2.1,Win32,303.030303,,,,,space,2.4477,NAN,,NAN,1.8,4.2,,0,87,87,87,1,88,Sam,Acc,Participant_Images/66946e3054a30a2bf5b1be40/66946e3054a30a2bf5b1be40_Images/66946e3054a30a2bf5b1be40_Image_11.jpeg,did not like,5.246980764,,,,,,,,,,,,,,,,,,,,,,
,,66946e3054a30a2bf5b1be40,6685aa9113c938e83b4f1ea0,6700803f34fb66ea6dbf1971,2024-10-04_19h55.42.162,WTP_SM_Choice,2022.2.1,Win32,303.030303,,,,,space,2.1696,NAN,,NAN,1.8,4.2,,0,88,88,88,1,89,Sam,Acc,Participant_Images/66946e3054a30a2bf5b1be40/66946e3054a30a2bf5b1be40_Images/66946e3054a30a2bf5b1be40_Image_7.jpeg,liked,3.30081769,,,,,,,,,,,,,,,,,,,,,,
,,66946e3054a30a2bf5b1be40,6685aa9113c938e83b4f1ea0,6700803f34fb66ea6dbf1971,2024-10-04_19h55.42.162,WTP_SM_Choice,2022.2.1,Win32,303.030303,,,,,,,,,,,,,,,,,,86,,,,,,space,0.7814,space,1.2713,0.01,1,0.9797,0,0,0,0,1,Research online for my next tech purchases,Walk my dogs with my boyfriend while chatting about life,0.01,0.03,1.1,1,,,,
,,66946e3054a30a2bf5b1be40,6685aa9113c938e83b4f1ea0,6700803f34fb66ea6dbf1971,2024-10-04_19h55.42.162,WTP_SM_Choice,2022.2.1,Win32,303.030303,,,,,,,,,,,,,,,,,,87,,,,,,,,,,0.02,1,0.7365,0,1,1,1,1,Listen to music while in a good mood and in my house,Run errands with my boyfriend the whole day,0.02,0.03,4.4,1,,,,
,,66946e3054a30a2bf5b1be40,6685aa9113c938e83b4f1ea0,6700803f34fb66ea6dbf1971,2024-10-04_19h55.42.162,WTP_SM_Choice,2022.2.1,Win32,303.030303,,,,,,,,,,,,,,,,,,88,,,,,,,,,,0.03,2,4.0488,0,2,2,2,1,Clean the house and making it feel organized,Walk my dogs with my boyfriend while chatting about life,0.03,0.03,1.1,1,,,,
,,66946e3054a30a2bf5b1be40,6685aa9113c938e83b4f1ea0,6700803f34fb66ea6dbf1971,2024-10-04_19h55.42.162,WTP_SM_Choice,2022.2.1,Win32,303.030303,,,,,,,,,,,,,,,,,,89,,,,,,,,,,0.03,2,3.5716,0,3,3,3,1,Clean the house and making it feel organized,Watch movies and tv shows with my boyfriend on the bed,0.04,0.03,3.3,1,,,,
,,66946e3054a30a2bf5b1be40,6685aa9113c938e83b4f1ea0,6700803f34fb66ea6dbf1971,2024-10-04_19h55.42.162,WTP_SM_Choice,2022.2.1,Win32,303.030303,,,,,,,,,,,,,,,,,,90,,,,,,,,,,0.03,2,2.0797,0,4,4,4,1,Go to the gym very early in the morning,Watch movies and tv shows with my boyfriend on the bed,0.05,0.03,8.8,1,,,,
,,66946e3054a30a2bf5b1be40,6685aa9113c938e83b4f1ea0,6700803f34fb66ea6dbf1971,2024-10-04_19h55.42.162,WTP_SM_Choice,2022.2.1,Win32,303.030303,,,,,,,NAN,,NAN,1.92,4.08,,0,89,89,89,1,90,Sam,Acc,Participant_Images/66946e3054a30a2bf5b1be40/66946e3054a30a2bf5b1be40_Images/66946e3054a30a2bf5b1be40_Image_15.jpeg,liked,1.661473164,,,,,,,,,,,,,,,,,,,,,,
,,66946e3054a30a2bf5b1be40,6685aa9113c938e83b4f1ea0,6700803f34fb66ea6dbf1971,2024-10-04_19h55.42.162,WTP_SM_Choice,2022.2.1,Win32,303.030303,,,,,space,3.6507,NAN,,NAN,1.92,4.08,,0,90,90,90,1,91,Sam,Acc,Participant_Images/66946e3054a30a2bf5b1be40/66946e3054a30a2bf5b1be40_Images/66946e3054a30a2bf5b1be40_Image_24.jpeg,liked,3.613205605,,,,,,,,,,,,,,,,,,,,,,
,,66946e3054a30a2bf5b1be40,6685aa9113c938e83b4f1ea0,6700803f34fb66ea6dbf1971,2024-10-04_19h55.42.162,WTP_SM_Choice,2022.2.1,Win32,303.030303,,,,,space,0.1234,NAN,,NAN,1.92,4.08,,0,91,91,91,1,92,Sam,Acc,Participant_Images/66946e3054a30a2bf5b1be40/66946e3054a30a2bf5b1be40_Images/66946e3054a30a2bf5b1be40_Image_1.jpeg,did not like,4.988446431,,,,,,,,,,,,,,,,,,,,,,
,,66946e3054a30a2bf5b1be40,6685aa9113c938e83b4f1ea0,6700803f34fb66ea6dbf1971,2024-10-04_19h55.42.162,WTP_SM_Choice,2022.2.1,Win32,303.030303,,,,,space,0.8006,NAN,,NAN,1.92,4.08,,0,92,92,92,1,93,Sam,Acc,Participant_Images/66946e3054a30a2bf5b1be40/66946e3054a30a2bf5b1be40_Images/66946e3054a30a2bf5b1be40_Image_2.jpeg,liked,3.470791822,,,,,,,,,,,,,,,,,,,,,,
,,66946e3054a30a2bf5b1be40,6685aa9113c938e83b4f1ea0,6700803f34fb66ea6dbf1971,2024-10-04_19h55.42.162,WTP_SM_Choice,2022.2.1,Win32,303.030303,,,,,space,0.0654,NAN,,NAN,1.92,4.08,,0,93,93,93,1,94,Sam,Acc,Participant_Images/66946e3054a30a2bf5b1be40/66946e3054a30a2bf5b1be40_Images/66946e3054a30a2bf5b1be40_Image_16.jpeg,liked,3.820572462,,,,,,,,,,,,,,,,,,,,,,
,,66946e3054a30a2bf5b1be40,6685aa9113c938e83b4f1ea0,6700803f34fb66ea6dbf1971,2024-10-04_19h55.42.162,WTP_SM_Choice,2022.2.1,Win32,303.030303,,,,,,,,,,,,,,,,,,91,,,,,,space,1.7422,space,0.4776,0.01,1,0.77,0,0,0,0,1,Listen to music while in a good mood and in my house,Cook food for dinner with my boyfriend,0.01,0.04,3.3,1,,,,
,,66946e3054a30a2bf5b1be40,6685aa9113c938e83b4f1ea0,6700803f34fb66ea6dbf1971,2024-10-04_19h55.42.162,WTP_SM_Choice,2022.2.1,Win32,303.030303,,,,,,,,,,,,,,,,,,92,,,,,,,,,,0.02,1,1.9717,0,1,1,1,1,Go to the mall to purchase new clothes and getting food afterwards,Cook food for dinner with my boyfriend,0.02,0.04,8.8,1,,,,
,,66946e3054a30a2bf5b1be40,6685aa9113c938e83b4f1ea0,6700803f34fb66ea6dbf1971,2024-10-04_19h55.42.162,WTP_SM_Choice,2022.2.1,Win32,303.030303,,,,,,,,,,,,,,,,,,93,,,,,,,,,,0.03,1,1.2069,0,2,2,2,1,Build legos with my boyfriend while drinking margaritas,Make outfits I will wear for the rest of the week,0.03,0.04,1.1,0,,,,
,,66946e3054a30a2bf5b1be40,6685aa9113c938e83b4f1ea0,6700803f34fb66ea6dbf1971,2024-10-04_19h55.42.162,WTP_SM_Choice,2022.2.1,Win32,303.030303,,,,,,,,,,,,,,,,,,94,,,,,,,,,,0.04,2,3.8209,0,3,3,3,1,Make outfits I will wear for the rest of the week,Watch movies and tv shows with my boyfriend on the bed,0.04,0.04,4.4,1,,,,
,,66946e3054a30a2bf5b1be40,6685aa9113c938e83b4f1ea0,6700803f34fb66ea6dbf1971,2024-10-04_19h55.42.162,WTP_SM_Choice,2022.2.1,Win32,303.030303,,,,,,,,,,,,,,,,,,95,,,,,,,,,,0.04,2,1.2393,0,4,4,4,1,Walk my dogs with my boyfriend while chatting about life,Going on a roadtrip with my boyfriends and visiting places we've never seen before,0.05,0.04,4.4,0,,,,
,,66946e3054a30a2bf5b1be40,6685aa9113c938e83b4f1ea0,6700803f34fb66ea6dbf1971,2024-10-04_19h55.42.162,WTP_SM_Choice,2022.2.1,Win32,303.030303,,,,,,,NAN,,NAN,2.06,3.94,,0,94,94,94,1,95,Sam,Acc,Participant_Images/66946e3054a30a2bf5b1be40/66946e3054a30a2bf5b1be40_Images/66946e3054a30a2bf5b1be40_Image_13.jpeg,did not like,2.455989137,,,,,,,,,,,,,,,,,,,,,,
,,66946e3054a30a2bf5b1be40,6685aa9113c938e83b4f1ea0,6700803f34fb66ea6dbf1971,2024-10-04_19h55.42.162,WTP_SM_Choice,2022.2.1,Win32,303.030303,,,,,space,3.7444,NAN,,NAN,2.06,3.94,,0,95,95,95,1,96,Sam,Acc,Participant_Images/66946e3054a30a2bf5b1be40/66946e3054a30a2bf5b1be40_Images/66946e3054a30a2bf5b1be40_Image_14.jpeg,did not like,3.79605092,,,,,,,,,,,,,,,,,,,,,,
,,66946e3054a30a2bf5b1be40,6685aa9113c938e83b4f1ea0,6700803f34fb66ea6dbf1971,2024-10-04_19h55.42.162,WTP_SM_Choice,2022.2.1,Win32,303.030303,,,,,space,1.5046,NAN,,NAN,2.06,3.94,,0,96,96,96,1,97,Sam,Acc,Participant_Images/66946e3054a30a2bf5b1be40/66946e3054a30a2bf5b1be40_Images/66946e3054a30a2bf5b1be40_Image_3.jpeg,did not like,3.562416326,,,,,,,,,,,,,,,,,,,,,,
,,66946e3054a30a2bf5b1be40,6685aa9113c938e83b4f1ea0,6700803f34fb66ea6dbf1971,2024-10-04_19h55.42.162,WTP_SM_Choice,2022.2.1,Win32,303.030303,,,,,space,3.7835,NAN,,NAN,2.06,3.94,,0,97,97,97,1,98,Sam,Acc,Participant_Images/66946e3054a30a2bf5b1be40/66946e3054a30a2bf5b1be40_Images/66946e3054a30a2bf5b1be40_Image_18.jpeg,liked,2.843822497,,,,,,,,,,,,,,,,,,,,,,
,,66946e3054a30a2bf5b1be40,6685aa9113c938e83b4f1ea0,6700803f34fb66ea6dbf1971,2024-10-04_19h55.42.162,WTP_SM_Choice,2022.2.1,Win32,303.030303,,,,,space,10.6604,NAN,,NAN,2.06,3.94,,0,98,98,98,1,99,Sam,Acc,Participant_Images/66946e3054a30a2bf5b1be40/66946e3054a30a2bf5b1be40_Images/66946e3054a30a2bf5b1be40_Image_17.jpeg,liked,3.546495948,,,,,,,,,,,,,,,,,,,,,,
,,66946e3054a30a2bf5b1be40,6685aa9113c938e83b4f1ea0,6700803f34fb66ea6dbf1971,2024-10-04_19h55.42.162,WTP_SM_Choice,2022.2.1,Win32,303.030303,,,,,,,,,,,,,,,,,,96,,,,,,space,0.1998,space,1.0182,0.01,1,1.0319,0,0,0,0,1,Build legos with my boyfriend while drinking margaritas,Eat my favorite foods while playing videogames,0.01,0.05,3.3,0,,,,
,,66946e3054a30a2bf5b1be40,6685aa9113c938e83b4f1ea0,6700803f34fb66ea6dbf1971,2024-10-04_19h55.42.162,WTP_SM_Choice,2022.2.1,Win32,303.030303,,,,,,,,,,,,,,,,,,97,,,,,,,,,,0.02,1,2.955,0,1,1,1,1,Watch movies and tv shows with my boyfriend on the bed,Eat my favorite foods while playing videogames,0.02,0.05,1.1,0,,,,
,,66946e3054a30a2bf5b1be40,6685aa9113c938e83b4f1ea0,6700803f34fb66ea6dbf1971,2024-10-04_19h55.42.162,WTP_SM_Choice,2022.2.1,Win32,303.030303,,,,,,,,,,,,,,,,,,98,,,,,,,,,,0.05,2,1.111,0,2,2,2,1,Going on a roadtrip with my boyfriends and visiting places we've never seen before,Research new clothes to buy with my boyfriend,0.03,0.05,1.1,1,,,,
,,66946e3054a30a2bf5b1be40,6685aa9113c938e83b4f1ea0,6700803f34fb66ea6dbf1971,2024-10-04_19h55.42.162,WTP_SM_Choice,2022.2.1,Win32,303.030303,,,,,,,,,,,,,,,,,,99,,,,,,,,,,0.04,1,8.125,0,3,3,3,1,Cook food for dinner with my boyfriend,Listen to podcasts while doing house chores,0.04,0.05,3.3,0,,,,
,,66946e3054a30a2bf5b1be40,6685aa9113c938e83b4f1ea0,6700803f34fb66ea6dbf1971,2024-10-04_19h55.42.162,WTP_SM_Choice,2022.2.1,Win32,303.030303,,,,,,,,,,,,,,,,,,100,,,,,,,,,,0.05,2,2.5989,0,4,4,4,1,Run errands with my boyfriend the whole day,Read whatever new book I have at the time on my sofa at night,0.05,0.05,4.4,0,,,,
,,66946e3054a30a2bf5b1be40,6685aa9113c938e83b4f1ea0,6700803f34fb66ea6dbf1971,2024-10-04_19h55.42.162,WTP_SM_Choice,2022.2.1,Win32,303.030303,,,,,,,4,,9,2.23,3.77,,0,99,99,99,1,100,Sam,Acc,Participant_Images/66946e3054a30a2bf5b1be40/66946e3054a30a2bf5b1be40_Images/66946e3054a30a2bf5b1be40_Image_20.jpeg,liked,1.672012706,,,,,,,,,,,,,,,,,,,space,1.8826,,
,,66946e3054a30a2bf5b1be40,6685aa9113c938e83b4f1ea0,6700803f34fb66ea6dbf1971,2024-10-04_19h55.42.162,WTP_SM_Choice,2022.2.1,Win32,303.030303,,,,,,,,,,,,,,,,,,,,,,,,,,,,,,,,,,,,,,,,,,,,space,1.824
