endwelcomescreen_keys.keys,endwelcomescreen_keys.rt,participant,STUDY_ID,SESSION_ID,date,expName,psychopyVersion,OS,frameRate,endinstructionscreen_keys.keys,endinstructionscreen_keys.rt,endpartnermatch_keys.keys,endpartnermatch_keys.rt,sharenextphoto_key.keys,sharenextphoto_key.rt,salience_rating,key_resp.keys,stress_level,subtract_bonus,TOTAL_TASK_BONUS,stresslevel_keypress.keys,entiretaskloop.thisRepN,entiretaskloop.thisTrialN,entiretaskloop.thisN,entiretaskloop.thisIndex,entiretaskloop.ran,TrialNumber,Partner,Condition,Photos,Feedback,FeedbackWait,WTP_ins_keys1.keys,WTP_ins_keys1.rt,WTP_ins_keys2.keys,WTP_ins_keys2.rt,decision_price,responses.keys,responses.rt,WTPTaskLoop.thisRepN,WTPTaskLoop.thisTrialN,WTPTaskLoop.thisN,WTPTaskLoop.thisIndex,WTPTaskLoop.ran,right,left,leftmoney,rightmoney,WTP_ITI,social_left,Resume_keys.keys,Resume_keys.rt,key_resp.rt,end_screen_keys.keys,end_screen_keys.rt
space,1.248,66a08dccc5cc029fc23a96a8,6685aa9113c938e83b4f1ea0,66fe3d45d41b83b4305fce21,2024-10-03_02h19.32.093,WTP_SM_Choice,2022.2.1,Win32,59.95203837,,,,,,,,,,,,,,,,,,,,,,,,,,,,,,,,,,,,,,,,,,,,,,
,,66a08dccc5cc029fc23a96a8,6685aa9113c938e83b4f1ea0,66fe3d45d41b83b4305fce21,2024-10-03_02h19.32.093,WTP_SM_Choice,2022.2.1,Win32,59.95203837,space,0.513,,,,,,,,,,,,,,,,,,,,,,,,,,,,,,,,,,,,,,,,,,,,
,,66a08dccc5cc029fc23a96a8,6685aa9113c938e83b4f1ea0,66fe3d45d41b83b4305fce21,2024-10-03_02h19.32.093,WTP_SM_Choice,2022.2.1,Win32,59.95203837,,,space,2.099,space,3.002,NAN,,NAN,0,6,,0,0,0,0,1,1,Alex,Acc,Participant_Images/66a08dccc5cc029fc23a96a8/66a08dccc5cc029fc23a96a8_Images/66a08dccc5cc029fc23a96a8_Image_11.jpeg,liked,3.613205605,,,,,,,,,,,,,,,,,,,,,,,
,,66a08dccc5cc029fc23a96a8,6685aa9113c938e83b4f1ea0,66fe3d45d41b83b4305fce21,2024-10-03_02h19.32.093,WTP_SM_Choice,2022.2.1,Win32,59.95203837,,,,,space,1.066,NAN,,NAN,0,6,,0,1,1,1,1,2,Alex,Acc,Participant_Images/66a08dccc5cc029fc23a96a8/66a08dccc5cc029fc23a96a8_Images/66a08dccc5cc029fc23a96a8_Image_19.jpeg,liked,4.988446431,,,,,,,,,,,,,,,,,,,,,,,
,,66a08dccc5cc029fc23a96a8,6685aa9113c938e83b4f1ea0,66fe3d45d41b83b4305fce21,2024-10-03_02h19.32.093,WTP_SM_Choice,2022.2.1,Win32,59.95203837,,,,,space,0.95,NAN,,NAN,0,6,,0,2,2,2,1,3,Alex,Acc,Participant_Images/66a08dccc5cc029fc23a96a8/66a08dccc5cc029fc23a96a8_Images/66a08dccc5cc029fc23a96a8_Image_2.jpeg,did not like,3.470791822,,,,,,,,,,,,,,,,,,,,,,,
,,66a08dccc5cc029fc23a96a8,6685aa9113c938e83b4f1ea0,66fe3d45d41b83b4305fce21,2024-10-03_02h19.32.093,WTP_SM_Choice,2022.2.1,Win32,59.95203837,,,,,space,1.907,NAN,,NAN,0,6,,0,3,3,3,1,4,Alex,Acc,Participant_Images/66a08dccc5cc029fc23a96a8/66a08dccc5cc029fc23a96a8_Images/66a08dccc5cc029fc23a96a8_Image_16.jpeg,did not like,3.820572462,,,,,,,,,,,,,,,,,,,,,,,
,,66a08dccc5cc029fc23a96a8,6685aa9113c938e83b4f1ea0,66fe3d45d41b83b4305fce21,2024-10-03_02h19.32.093,WTP_SM_Choice,2022.2.1,Win32,59.95203837,,,,,,,,,,,,,,,,,,1,,,,,,space,1.058,space,0.375,0.01,1,1.634,0,0,0,0,1,Solve logic puzzles on my couch with a cup of tea in hand,Have coffee and catching up with an old college friend at a quiet cafe in the afternoon,0.01,0.01,4.4,1,,,,,
,,66a08dccc5cc029fc23a96a8,6685aa9113c938e83b4f1ea0,66fe3d45d41b83b4305fce21,2024-10-03_02h19.32.093,WTP_SM_Choice,2022.2.1,Win32,59.95203837,,,,,,,,,,,,,,,,,,2,,,,,,,,,,0.02,1,0.892,0,1,1,1,1,Attend live concerts with my partner on warm summer nights,Listen to classical music while walking through a quiet park in the early morning,0.02,0.01,8.8,0,,,,,
,,66a08dccc5cc029fc23a96a8,6685aa9113c938e83b4f1ea0,66fe3d45d41b83b4305fce21,2024-10-03_02h19.32.093,WTP_SM_Choice,2022.2.1,Win32,59.95203837,,,,,,,,,,,,,,,,,,3,,,,,,,,,,0.03,1,0.942,0,2,2,2,1,Go for a hike with my best friend on a cool autumn morning,Stargaze from a rooftop on a cool clear night,0.03,0.01,3.3,0,,,,,
,,66a08dccc5cc029fc23a96a8,6685aa9113c938e83b4f1ea0,66fe3d45d41b83b4305fce21,2024-10-03_02h19.32.093,WTP_SM_Choice,2022.2.1,Win32,59.95203837,,,,,,,,,,,,,,,,,,4,,,,,,,,,,0.04,1,0.802,0,3,3,3,1,Go for a hike with my best friend on a cool autumn morning,Journal about my day in a small candlelit room before bed,0.04,0.01,1.1,0,,,,,
,,66a08dccc5cc029fc23a96a8,6685aa9113c938e83b4f1ea0,66fe3d45d41b83b4305fce21,2024-10-03_02h19.32.093,WTP_SM_Choice,2022.2.1,Win32,59.95203837,,,,,,,,,,,,,,,,,,5,,,,,,,,,,0.05,1,1.242,0,4,4,4,1,Write poetry while sitting by a window during a thunderstorm,Host a game night with friends at my place on a chilly winter evening,0.05,0.01,1.1,1,,,,,
,,66a08dccc5cc029fc23a96a8,6685aa9113c938e83b4f1ea0,66fe3d45d41b83b4305fce21,2024-10-03_02h19.32.093,WTP_SM_Choice,2022.2.1,Win32,59.95203837,,,,,,,NAN,,NAN,0.15,5.85,,0,4,4,4,1,5,Alex,Acc,Participant_Images/66a08dccc5cc029fc23a96a8/66a08dccc5cc029fc23a96a8_Images/66a08dccc5cc029fc23a96a8_Image_18.jpeg,did not like,2.455989137,,,,,,,,,,,,,,,,,,,,,,,
,,66a08dccc5cc029fc23a96a8,6685aa9113c938e83b4f1ea0,66fe3d45d41b83b4305fce21,2024-10-03_02h19.32.093,WTP_SM_Choice,2022.2.1,Win32,59.95203837,,,,,space,28.215,NAN,,NAN,0.15,5.85,,0,5,5,5,1,6,Alex,Acc,Participant_Images/66a08dccc5cc029fc23a96a8/66a08dccc5cc029fc23a96a8_Images/66a08dccc5cc029fc23a96a8_Image_17.jpeg,did not like,3.79605092,,,,,,,,,,,,,,,,,,,,,,,
,,66a08dccc5cc029fc23a96a8,6685aa9113c938e83b4f1ea0,66fe3d45d41b83b4305fce21,2024-10-03_02h19.32.093,WTP_SM_Choice,2022.2.1,Win32,59.95203837,,,,,space,14.068,NAN,,NAN,0.15,5.85,,0,6,6,6,1,7,Alex,Acc,Participant_Images/66a08dccc5cc029fc23a96a8/66a08dccc5cc029fc23a96a8_Images/66a08dccc5cc029fc23a96a8_Image_22.jpeg,did not like,3.562416326,,,,,,,,,,,,,,,,,,,,,,,
,,66a08dccc5cc029fc23a96a8,6685aa9113c938e83b4f1ea0,66fe3d45d41b83b4305fce21,2024-10-03_02h19.32.093,WTP_SM_Choice,2022.2.1,Win32,59.95203837,,,,,space,31.268,NAN,,NAN,0.15,5.85,,0,7,7,7,1,8,Alex,Acc,Participant_Images/66a08dccc5cc029fc23a96a8/66a08dccc5cc029fc23a96a8_Images/66a08dccc5cc029fc23a96a8_Image_21.jpeg,liked,2.843822497,,,,,,,,,,,,,,,,,,,,,,,
,,66a08dccc5cc029fc23a96a8,6685aa9113c938e83b4f1ea0,66fe3d45d41b83b4305fce21,2024-10-03_02h19.32.093,WTP_SM_Choice,2022.2.1,Win32,59.95203837,,,,,space,8.252,NAN,,NAN,0.15,5.85,,0,8,8,8,1,9,Alex,Acc,Participant_Images/66a08dccc5cc029fc23a96a8/66a08dccc5cc029fc23a96a8_Images/66a08dccc5cc029fc23a96a8_Image_23.jpeg,liked,3.546495948,,,,,,,,,,,,,,,,,,,,,,,
,,66a08dccc5cc029fc23a96a8,6685aa9113c938e83b4f1ea0,66fe3d45d41b83b4305fce21,2024-10-03_02h19.32.093,WTP_SM_Choice,2022.2.1,Win32,59.95203837,,,,,,,,,,,,,,,,,,6,,,,,,space,485.246,space,0.599,0.02,2,1.305,0,0,0,0,1,Solve logic puzzles on my couch with a cup of tea in hand,Go for a hike with my best friend on a cool autumn morning,0.01,0.02,3.3,1,,,,,
,,66a08dccc5cc029fc23a96a8,6685aa9113c938e83b4f1ea0,66fe3d45d41b83b4305fce21,2024-10-03_02h19.32.093,WTP_SM_Choice,2022.2.1,Win32,59.95203837,,,,,,,,,,,,,,,,,,7,,,,,,,,,,0.02,2,4.546,0,1,1,1,1,Play board games with my coworkers at the office after work on friday evenings,Organize my digital files and folders while sitting at my desk with calming music playing,0.02,0.02,1.1,0,,,,,
,,66a08dccc5cc029fc23a96a8,6685aa9113c938e83b4f1ea0,66fe3d45d41b83b4305fce21,2024-10-03_02h19.32.093,WTP_SM_Choice,2022.2.1,Win32,59.95203837,,,,,,,,,,,,,,,,,,8,,,,,,,,,,0.02,2,0.769,0,2,2,2,1,Go on weekend road trips to nearby towns with a close group of friends,Watch historical documentaries late at night with dim lighting,0.03,0.02,1.1,0,,,,,
,,66a08dccc5cc029fc23a96a8,6685aa9113c938e83b4f1ea0,66fe3d45d41b83b4305fce21,2024-10-03_02h19.32.093,WTP_SM_Choice,2022.2.1,Win32,59.95203837,,,,,,,,,,,,,,,,,,9,,,,,,,,,,0.04,1,1.482,0,3,3,3,1,Sketch abstract designs in a cozy cafe with a cup of coffee,Attend live concerts with my partner on warm summer nights,0.04,0.02,4.4,1,,,,,
,,66a08dccc5cc029fc23a96a8,6685aa9113c938e83b4f1ea0,66fe3d45d41b83b4305fce21,2024-10-03_02h19.32.093,WTP_SM_Choice,2022.2.1,Win32,59.95203837,,,,,,,,,,,,,,,,,,10,,,,,,,,,,0.05,1,3.171,0,4,4,4,1,Go for a hike with my best friend on a cool autumn morning,Organize my digital files and folders while sitting at my desk with calming music playing,0.05,0.02,1.1,0,,,,,
,,66a08dccc5cc029fc23a96a8,6685aa9113c938e83b4f1ea0,66fe3d45d41b83b4305fce21,2024-10-03_02h19.32.093,WTP_SM_Choice,2022.2.1,Win32,59.95203837,,,,,,,NAN,,NAN,0.3,5.7,,0,9,9,9,1,10,Alex,Acc,Participant_Images/66a08dccc5cc029fc23a96a8/66a08dccc5cc029fc23a96a8_Images/66a08dccc5cc029fc23a96a8_Image_25.jpeg,did not like,1.672012706,,,,,,,,,,,,,,,,,,,,,,,
,,66a08dccc5cc029fc23a96a8,6685aa9113c938e83b4f1ea0,66fe3d45d41b83b4305fce21,2024-10-03_02h19.32.093,WTP_SM_Choice,2022.2.1,Win32,59.95203837,,,,,space,2.402,NAN,,NAN,0.3,5.7,,0,10,10,10,1,11,Alex,Acc,Participant_Images/66a08dccc5cc029fc23a96a8/66a08dccc5cc029fc23a96a8_Images/66a08dccc5cc029fc23a96a8_Image_1.jpeg,liked,4.942172136,,,,,,,,,,,,,,,,,,,,,,,
,,66a08dccc5cc029fc23a96a8,6685aa9113c938e83b4f1ea0,66fe3d45d41b83b4305fce21,2024-10-03_02h19.32.093,WTP_SM_Choice,2022.2.1,Win32,59.95203837,,,,,space,0.89,NAN,,NAN,0.3,5.7,,0,11,11,11,1,12,Alex,Acc,Participant_Images/66a08dccc5cc029fc23a96a8/66a08dccc5cc029fc23a96a8_Images/66a08dccc5cc029fc23a96a8_Image_12.jpeg,liked,2.50187214,,,,,,,,,,,,,,,,,,,,,,,
,,66a08dccc5cc029fc23a96a8,6685aa9113c938e83b4f1ea0,66fe3d45d41b83b4305fce21,2024-10-03_02h19.32.093,WTP_SM_Choice,2022.2.1,Win32,59.95203837,,,,,space,30.878,NAN,,NAN,0.3,5.7,,0,12,12,12,1,13,Alex,Acc,Participant_Images/66a08dccc5cc029fc23a96a8/66a08dccc5cc029fc23a96a8_Images/66a08dccc5cc029fc23a96a8_Image_3.jpeg,liked,2.071164779,,,,,,,,,,,,,,,,,,,,,,,
,,66a08dccc5cc029fc23a96a8,6685aa9113c938e83b4f1ea0,66fe3d45d41b83b4305fce21,2024-10-03_02h19.32.093,WTP_SM_Choice,2022.2.1,Win32,59.95203837,,,,,space,2.075,NAN,,NAN,0.3,5.7,,0,13,13,13,1,14,Alex,Acc,Participant_Images/66a08dccc5cc029fc23a96a8/66a08dccc5cc029fc23a96a8_Images/66a08dccc5cc029fc23a96a8_Image_5.jpeg,liked,5.336503566,,,,,,,,,,,,,,,,,,,,,,,
,,66a08dccc5cc029fc23a96a8,6685aa9113c938e83b4f1ea0,66fe3d45d41b83b4305fce21,2024-10-03_02h19.32.093,WTP_SM_Choice,2022.2.1,Win32,59.95203837,,,,,,,,,,,,,,,,,,11,,,,,,space,3.964,space,0.5,0.03,2,1.817,0,0,0,0,1,Journal about my day in a small candlelit room before bed,Watch scifi movies with friends during a movie marathon on a rainy saturday,0.01,0.03,3.3,1,,,,,
,,66a08dccc5cc029fc23a96a8,6685aa9113c938e83b4f1ea0,66fe3d45d41b83b4305fce21,2024-10-03_02h19.32.093,WTP_SM_Choice,2022.2.1,Win32,59.95203837,,,,,,,,,,,,,,,,,,12,,,,,,,,,,0.03,2,0.707,0,1,1,1,1,Host a game night with friends at my place on a chilly winter evening,Sketch abstract designs in a cozy cafe with a cup of coffee,0.02,0.03,4.4,0,,,,,
,,66a08dccc5cc029fc23a96a8,6685aa9113c938e83b4f1ea0,66fe3d45d41b83b4305fce21,2024-10-03_02h19.32.093,WTP_SM_Choice,2022.2.1,Win32,59.95203837,,,,,,,,,,,,,,,,,,13,,,,,,,,,,0.03,1,2.857,0,2,2,2,1,Go on weekend road trips to nearby towns with a close group of friends,Meditate at sunrise on a beach with the sound of waves in the background,0.03,0.03,1.1,0,,,,,
,,66a08dccc5cc029fc23a96a8,6685aa9113c938e83b4f1ea0,66fe3d45d41b83b4305fce21,2024-10-03_02h19.32.093,WTP_SM_Choice,2022.2.1,Win32,59.95203837,,,,,,,,,,,,,,,,,,14,,,,,,,,,,0.04,1,3.472,0,3,3,3,1,Discuss current events with classmates over lunch between classes,Write poetry while sitting by a window during a thunderstorm,0.04,0.03,3.3,0,,,,,
,,66a08dccc5cc029fc23a96a8,6685aa9113c938e83b4f1ea0,66fe3d45d41b83b4305fce21,2024-10-03_02h19.32.093,WTP_SM_Choice,2022.2.1,Win32,59.95203837,,,,,,,,,,,,,,,,,,15,,,,,,,,,,0.05,1,1.648,0,4,4,4,1,Solve logic puzzles on my couch with a cup of tea in hand,Watch scifi movies with friends during a movie marathon on a rainy saturday,0.05,0.03,4.4,1,,,,,
,,66a08dccc5cc029fc23a96a8,6685aa9113c938e83b4f1ea0,66fe3d45d41b83b4305fce21,2024-10-03_02h19.32.093,WTP_SM_Choice,2022.2.1,Win32,59.95203837,,,,,,,NAN,,NAN,0.48,5.52,,0,14,14,14,1,15,Alex,Acc,Participant_Images/66a08dccc5cc029fc23a96a8/66a08dccc5cc029fc23a96a8_Images/66a08dccc5cc029fc23a96a8_Image_15.jpeg,liked,2.642157193,,,,,,,,,,,,,,,,,,,,,,,
,,66a08dccc5cc029fc23a96a8,6685aa9113c938e83b4f1ea0,66fe3d45d41b83b4305fce21,2024-10-03_02h19.32.093,WTP_SM_Choice,2022.2.1,Win32,59.95203837,,,,,space,2.662,NAN,,NAN,0.48,5.52,,0,15,15,15,1,16,Alex,Acc,Participant_Images/66a08dccc5cc029fc23a96a8/66a08dccc5cc029fc23a96a8_Images/66a08dccc5cc029fc23a96a8_Image_13.jpeg,liked,4.456234322,,,,,,,,,,,,,,,,,,,,,,,
,,66a08dccc5cc029fc23a96a8,6685aa9113c938e83b4f1ea0,66fe3d45d41b83b4305fce21,2024-10-03_02h19.32.093,WTP_SM_Choice,2022.2.1,Win32,59.95203837,,,,,space,10.856,NAN,,NAN,0.48,5.52,,0,16,16,16,1,17,Alex,Acc,Participant_Images/66a08dccc5cc029fc23a96a8/66a08dccc5cc029fc23a96a8_Images/66a08dccc5cc029fc23a96a8_Image_9.jpeg,liked,4.438512181,,,,,,,,,,,,,,,,,,,,,,,
,,66a08dccc5cc029fc23a96a8,6685aa9113c938e83b4f1ea0,66fe3d45d41b83b4305fce21,2024-10-03_02h19.32.093,WTP_SM_Choice,2022.2.1,Win32,59.95203837,,,,,space,25.167,NAN,,NAN,0.48,5.52,,0,17,17,17,1,18,Alex,Acc,Participant_Images/66a08dccc5cc029fc23a96a8/66a08dccc5cc029fc23a96a8_Images/66a08dccc5cc029fc23a96a8_Image_8.jpeg,liked,2.682944783,,,,,,,,,,,,,,,,,,,,,,,
,,66a08dccc5cc029fc23a96a8,6685aa9113c938e83b4f1ea0,66fe3d45d41b83b4305fce21,2024-10-03_02h19.32.093,WTP_SM_Choice,2022.2.1,Win32,59.95203837,,,,,space,0.921,NAN,,NAN,0.48,5.52,,0,18,18,18,1,19,Alex,Acc,Participant_Images/66a08dccc5cc029fc23a96a8/66a08dccc5cc029fc23a96a8_Images/66a08dccc5cc029fc23a96a8_Image_24.jpeg,liked,4.51984296,,,,,,,,,,,,,,,,,,,,,,,
,,66a08dccc5cc029fc23a96a8,6685aa9113c938e83b4f1ea0,66fe3d45d41b83b4305fce21,2024-10-03_02h19.32.093,WTP_SM_Choice,2022.2.1,Win32,59.95203837,,,,,,,,,,,,,,,,,,16,,,,,,space,0.001,space,2.101,0.04,2,2.389,0,0,0,0,1,Journal about my day in a small candlelit room before bed,Host a game night with friends at my place on a chilly winter evening,0.01,0.04,1.1,1,,,,,
,,66a08dccc5cc029fc23a96a8,6685aa9113c938e83b4f1ea0,66fe3d45d41b83b4305fce21,2024-10-03_02h19.32.093,WTP_SM_Choice,2022.2.1,Win32,59.95203837,,,,,,,,,,,,,,,,,,17,,,,,,,,,,0.04,2,2.593,0,1,1,1,1,Write poetry while sitting by a window during a thunderstorm,Bake holiday cookies with my cousins in the kitchen during the winter holidays,0.02,0.04,8.8,1,,,,,
,,66a08dccc5cc029fc23a96a8,6685aa9113c938e83b4f1ea0,66fe3d45d41b83b4305fce21,2024-10-03_02h19.32.093,WTP_SM_Choice,2022.2.1,Win32,59.95203837,,,,,,,,,,,,,,,,,,18,,,,,,,,,,0.04,2,1.879,0,2,2,2,1,Bake holiday cookies with my cousins in the kitchen during the winter holidays,Watch historical documentaries late at night with dim lighting,0.03,0.04,3.3,0,,,,,
,,66a08dccc5cc029fc23a96a8,6685aa9113c938e83b4f1ea0,66fe3d45d41b83b4305fce21,2024-10-03_02h19.32.093,WTP_SM_Choice,2022.2.1,Win32,59.95203837,,,,,,,,,,,,,,,,,,19,,,,,,,,,,0.04,2,1.559,0,3,3,3,1,Go on weekend road trips to nearby towns with a close group of friends,Sketch abstract designs in a cozy cafe with a cup of coffee,0.04,0.04,3.3,0,,,,,
,,66a08dccc5cc029fc23a96a8,6685aa9113c938e83b4f1ea0,66fe3d45d41b83b4305fce21,2024-10-03_02h19.32.093,WTP_SM_Choice,2022.2.1,Win32,59.95203837,,,,,,,,,,,,,,,,,,20,,,,,,,,,,0.04,2,1.062,0,4,4,4,1,Listen to classical music while walking through a quiet park in the early morning,Go for a hike with my best friend on a cool autumn morning,0.05,0.04,1.1,1,,,,,
,,66a08dccc5cc029fc23a96a8,6685aa9113c938e83b4f1ea0,66fe3d45d41b83b4305fce21,2024-10-03_02h19.32.093,WTP_SM_Choice,2022.2.1,Win32,59.95203837,,,,,,,NAN,,NAN,0.68,5.32,,0,19,19,19,1,20,Alex,Acc,Participant_Images/66a08dccc5cc029fc23a96a8/66a08dccc5cc029fc23a96a8_Images/66a08dccc5cc029fc23a96a8_Image_10.jpeg,did not like,3.195382774,,,,,,,,,,,,,,,,,,,,,,,
,,66a08dccc5cc029fc23a96a8,6685aa9113c938e83b4f1ea0,66fe3d45d41b83b4305fce21,2024-10-03_02h19.32.093,WTP_SM_Choice,2022.2.1,Win32,59.95203837,,,,,space,7.275,NAN,,NAN,0.68,5.32,,0,20,20,20,1,21,Alex,Acc,Participant_Images/66a08dccc5cc029fc23a96a8/66a08dccc5cc029fc23a96a8_Images/66a08dccc5cc029fc23a96a8_Image_4.jpeg,liked,1.779333479,,,,,,,,,,,,,,,,,,,,,,,
,,66a08dccc5cc029fc23a96a8,6685aa9113c938e83b4f1ea0,66fe3d45d41b83b4305fce21,2024-10-03_02h19.32.093,WTP_SM_Choice,2022.2.1,Win32,59.95203837,,,,,space,8.087,NAN,,NAN,0.68,5.32,,0,21,21,21,1,22,Alex,Acc,Participant_Images/66a08dccc5cc029fc23a96a8/66a08dccc5cc029fc23a96a8_Images/66a08dccc5cc029fc23a96a8_Image_20.jpeg,liked,4.312468682,,,,,,,,,,,,,,,,,,,,,,,
,,66a08dccc5cc029fc23a96a8,6685aa9113c938e83b4f1ea0,66fe3d45d41b83b4305fce21,2024-10-03_02h19.32.093,WTP_SM_Choice,2022.2.1,Win32,59.95203837,,,,,space,8.249,NAN,,NAN,0.68,5.32,,0,22,22,22,1,23,Alex,Acc,Participant_Images/66a08dccc5cc029fc23a96a8/66a08dccc5cc029fc23a96a8_Images/66a08dccc5cc029fc23a96a8_Image_14.jpeg,liked,4.940433059,,,,,,,,,,,,,,,,,,,,,,,
,,66a08dccc5cc029fc23a96a8,6685aa9113c938e83b4f1ea0,66fe3d45d41b83b4305fce21,2024-10-03_02h19.32.093,WTP_SM_Choice,2022.2.1,Win32,59.95203837,,,,,space,10.184,NAN,,NAN,0.68,5.32,,0,23,23,23,1,24,Alex,Acc,Participant_Images/66a08dccc5cc029fc23a96a8/66a08dccc5cc029fc23a96a8_Images/66a08dccc5cc029fc23a96a8_Image_7.jpeg,liked,2.7105123,,,,,,,,,,,,,,,,,,,,,,,
,,66a08dccc5cc029fc23a96a8,6685aa9113c938e83b4f1ea0,66fe3d45d41b83b4305fce21,2024-10-03_02h19.32.093,WTP_SM_Choice,2022.2.1,Win32,59.95203837,,,,,,,,,,,,,,,,,,21,,,,,,space,1.99,space,1.908,0.05,2,3.096,0,0,0,0,1,Listen to classical music while walking through a quiet park in the early morning,Host a game night with friends at my place on a chilly winter evening,0.01,0.05,8.8,1,,,,,
,,66a08dccc5cc029fc23a96a8,6685aa9113c938e83b4f1ea0,66fe3d45d41b83b4305fce21,2024-10-03_02h19.32.093,WTP_SM_Choice,2022.2.1,Win32,59.95203837,,,,,,,,,,,,,,,,,,22,,,,,,,,,,0.05,2,9.672,0,1,1,1,1,Have coffee and catching up with an old college friend at a quiet cafe in the afternoon,Listen to classical music while walking through a quiet park in the early morning,0.02,0.05,4.4,0,,,,,
,,66a08dccc5cc029fc23a96a8,6685aa9113c938e83b4f1ea0,66fe3d45d41b83b4305fce21,2024-10-03_02h19.32.093,WTP_SM_Choice,2022.2.1,Win32,59.95203837,,,,,,,,,,,,,,,,,,23,,,,,,,,,,0.05,2,8.565,0,2,2,2,1,Share a homemade dinner with my family on a cozy sunday evening,Sketch abstract designs in a cozy cafe with a cup of coffee,0.03,0.05,1.1,0,,,,,
,,66a08dccc5cc029fc23a96a8,6685aa9113c938e83b4f1ea0,66fe3d45d41b83b4305fce21,2024-10-03_02h19.32.093,WTP_SM_Choice,2022.2.1,Win32,59.95203837,,,,,,,,,,,,,,,,,,24,,,,,,,,,,0.05,2,1.535,0,3,3,3,1,Sketch abstract designs in a cozy cafe with a cup of coffee,Play board games with my coworkers at the office after work on friday evenings,0.04,0.05,4.4,1,,,,,
,,66a08dccc5cc029fc23a96a8,6685aa9113c938e83b4f1ea0,66fe3d45d41b83b4305fce21,2024-10-03_02h19.32.093,WTP_SM_Choice,2022.2.1,Win32,59.95203837,,,,,,,,,,,,,,,,,,25,,,,,,,,,,0.05,1,4.233,0,4,4,4,1,Journal about my day in a small candlelit room before bed,Play board games with my coworkers at the office after work on friday evenings,0.05,0.05,3.3,1,,,,,
,,66a08dccc5cc029fc23a96a8,6685aa9113c938e83b4f1ea0,66fe3d45d41b83b4305fce21,2024-10-03_02h19.32.093,WTP_SM_Choice,2022.2.1,Win32,59.95203837,,,,,,,NAN,space,8,0.93,5.07,,0,24,24,24,1,25,Alex,Acc,Participant_Images/66a08dccc5cc029fc23a96a8/66a08dccc5cc029fc23a96a8_Images/66a08dccc5cc029fc23a96a8_Image_6.jpeg,liked,3.602308302,,,,,,,,,,,,,,,,,,,space,1.436,116.166,,
,,66a08dccc5cc029fc23a96a8,6685aa9113c938e83b4f1ea0,66fe3d45d41b83b4305fce21,2024-10-03_02h19.32.093,WTP_SM_Choice,2022.2.1,Win32,59.95203837,,,space,0.868,space,13.637,NAN,,NAN,0.93,5.07,,0,25,25,25,1,26,Sam,Acc,Participant_Images/66a08dccc5cc029fc23a96a8/66a08dccc5cc029fc23a96a8_Images/66a08dccc5cc029fc23a96a8_Image_10.jpeg,liked,4.106391878,,,,,,,,,,,,,,,,,,,,,,,
,,66a08dccc5cc029fc23a96a8,6685aa9113c938e83b4f1ea0,66fe3d45d41b83b4305fce21,2024-10-03_02h19.32.093,WTP_SM_Choice,2022.2.1,Win32,59.95203837,,,,,space,0.772,NAN,,NAN,0.93,5.07,,0,26,26,26,1,27,Sam,Acc,Participant_Images/66a08dccc5cc029fc23a96a8/66a08dccc5cc029fc23a96a8_Images/66a08dccc5cc029fc23a96a8_Image_11.jpeg,did not like,3.799433026,,,,,,,,,,,,,,,,,,,,,,,
,,66a08dccc5cc029fc23a96a8,6685aa9113c938e83b4f1ea0,66fe3d45d41b83b4305fce21,2024-10-03_02h19.32.093,WTP_SM_Choice,2022.2.1,Win32,59.95203837,,,,,space,0.703,NAN,,NAN,0.93,5.07,,0,27,27,27,1,28,Sam,Acc,Participant_Images/66a08dccc5cc029fc23a96a8/66a08dccc5cc029fc23a96a8_Images/66a08dccc5cc029fc23a96a8_Image_1.jpeg,did not like,5.246980764,,,,,,,,,,,,,,,,,,,,,,,
,,66a08dccc5cc029fc23a96a8,6685aa9113c938e83b4f1ea0,66fe3d45d41b83b4305fce21,2024-10-03_02h19.32.093,WTP_SM_Choice,2022.2.1,Win32,59.95203837,,,,,space,17.846,NAN,,NAN,0.93,5.07,,0,28,28,28,1,29,Sam,Acc,Participant_Images/66a08dccc5cc029fc23a96a8/66a08dccc5cc029fc23a96a8_Images/66a08dccc5cc029fc23a96a8_Image_9.jpeg,liked,3.30081769,,,,,,,,,,,,,,,,,,,,,,,
,,66a08dccc5cc029fc23a96a8,6685aa9113c938e83b4f1ea0,66fe3d45d41b83b4305fce21,2024-10-03_02h19.32.093,WTP_SM_Choice,2022.2.1,Win32,59.95203837,,,,,,,,,,,,,,,,,,26,,,,,,space,2.128,space,0.604,0.01,1,1.613,0,0,0,0,1,Sketch abstract designs in a cozy cafe with a cup of coffee,Attend live concerts with my partner on warm summer nights,0.01,0.01,4.4,1,,,,,
,,66a08dccc5cc029fc23a96a8,6685aa9113c938e83b4f1ea0,66fe3d45d41b83b4305fce21,2024-10-03_02h19.32.093,WTP_SM_Choice,2022.2.1,Win32,59.95203837,,,,,,,,,,,,,,,,,,27,,,,,,,,,,0.02,1,1.219,0,1,1,1,1,Have coffee and catching up with an old college friend at a quiet cafe in the afternoon,Meditate at sunrise on a beach with the sound of waves in the background,0.02,0.01,3.3,0,,,,,
,,66a08dccc5cc029fc23a96a8,6685aa9113c938e83b4f1ea0,66fe3d45d41b83b4305fce21,2024-10-03_02h19.32.093,WTP_SM_Choice,2022.2.1,Win32,59.95203837,,,,,,,,,,,,,,,,,,28,,,,,,,,,,0.03,1,6.285,0,2,2,2,1,Go for a hike with my best friend on a cool autumn morning,Write poetry while sitting by a window during a thunderstorm,0.03,0.01,3.3,0,,,,,
,,66a08dccc5cc029fc23a96a8,6685aa9113c938e83b4f1ea0,66fe3d45d41b83b4305fce21,2024-10-03_02h19.32.093,WTP_SM_Choice,2022.2.1,Win32,59.95203837,,,,,,,,,,,,,,,,,,29,,,,,,,,,,0.04,1,1.529,0,3,3,3,1,Attend live concerts with my partner on warm summer nights,Organize my digital files and folders while sitting at my desk with calming music playing,0.04,0.01,4.4,0,,,,,
,,66a08dccc5cc029fc23a96a8,6685aa9113c938e83b4f1ea0,66fe3d45d41b83b4305fce21,2024-10-03_02h19.32.093,WTP_SM_Choice,2022.2.1,Win32,59.95203837,,,,,,,,,,,,,,,,,,30,,,,,,,,,,0.05,1,1.801,0,4,4,4,1,Watch historical documentaries late at night with dim lighting,Go for a hike with my best friend on a cool autumn morning,0.05,0.01,8.8,1,,,,,
,,66a08dccc5cc029fc23a96a8,6685aa9113c938e83b4f1ea0,66fe3d45d41b83b4305fce21,2024-10-03_02h19.32.093,WTP_SM_Choice,2022.2.1,Win32,59.95203837,,,,,,,NAN,,NAN,1.08,4.92,,0,29,29,29,1,30,Sam,Acc,Participant_Images/66a08dccc5cc029fc23a96a8/66a08dccc5cc029fc23a96a8_Images/66a08dccc5cc029fc23a96a8_Image_20.jpeg,liked,1.661473164,,,,,,,,,,,,,,,,,,,,,,,
,,66a08dccc5cc029fc23a96a8,6685aa9113c938e83b4f1ea0,66fe3d45d41b83b4305fce21,2024-10-03_02h19.32.093,WTP_SM_Choice,2022.2.1,Win32,59.95203837,,,,,space,1.834,NAN,,NAN,1.08,4.92,,0,30,30,30,1,31,Sam,Acc,Participant_Images/66a08dccc5cc029fc23a96a8/66a08dccc5cc029fc23a96a8_Images/66a08dccc5cc029fc23a96a8_Image_17.jpeg,liked,3.613205605,,,,,,,,,,,,,,,,,,,,,,,
,,66a08dccc5cc029fc23a96a8,6685aa9113c938e83b4f1ea0,66fe3d45d41b83b4305fce21,2024-10-03_02h19.32.093,WTP_SM_Choice,2022.2.1,Win32,59.95203837,,,,,space,5.731,NAN,,NAN,1.08,4.92,,0,31,31,31,1,32,Sam,Acc,Participant_Images/66a08dccc5cc029fc23a96a8/66a08dccc5cc029fc23a96a8_Images/66a08dccc5cc029fc23a96a8_Image_13.jpeg,liked,4.988446431,,,,,,,,,,,,,,,,,,,,,,,
,,66a08dccc5cc029fc23a96a8,6685aa9113c938e83b4f1ea0,66fe3d45d41b83b4305fce21,2024-10-03_02h19.32.093,WTP_SM_Choice,2022.2.1,Win32,59.95203837,,,,,space,4.264,NAN,,NAN,1.08,4.92,,0,32,32,32,1,33,Sam,Acc,Participant_Images/66a08dccc5cc029fc23a96a8/66a08dccc5cc029fc23a96a8_Images/66a08dccc5cc029fc23a96a8_Image_14.jpeg,liked,3.470791822,,,,,,,,,,,,,,,,,,,,,,,
,,66a08dccc5cc029fc23a96a8,6685aa9113c938e83b4f1ea0,66fe3d45d41b83b4305fce21,2024-10-03_02h19.32.093,WTP_SM_Choice,2022.2.1,Win32,59.95203837,,,,,space,1.262,NAN,,NAN,1.08,4.92,,0,33,33,33,1,34,Sam,Acc,Participant_Images/66a08dccc5cc029fc23a96a8/66a08dccc5cc029fc23a96a8_Images/66a08dccc5cc029fc23a96a8_Image_22.jpeg,did not like,3.820572462,,,,,,,,,,,,,,,,,,,,,,,
,,66a08dccc5cc029fc23a96a8,6685aa9113c938e83b4f1ea0,66fe3d45d41b83b4305fce21,2024-10-03_02h19.32.093,WTP_SM_Choice,2022.2.1,Win32,59.95203837,,,,,,,,,,,,,,,,,,31,,,,,,space,2.403,space,0.794,0.02,2,1.587,0,0,0,0,1,Share a homemade dinner with my family on a cozy sunday evening,Journal about my day in a small candlelit room before bed,0.01,0.02,8.8,0,,,,,
,,66a08dccc5cc029fc23a96a8,6685aa9113c938e83b4f1ea0,66fe3d45d41b83b4305fce21,2024-10-03_02h19.32.093,WTP_SM_Choice,2022.2.1,Win32,59.95203837,,,,,,,,,,,,,,,,,,32,,,,,,,,,,0.02,2,3.738,0,1,1,1,1,Stargaze from a rooftop on a cool clear night,Host a game night with friends at my place on a chilly winter evening,0.02,0.02,1.1,1,,,,,
,,66a08dccc5cc029fc23a96a8,6685aa9113c938e83b4f1ea0,66fe3d45d41b83b4305fce21,2024-10-03_02h19.32.093,WTP_SM_Choice,2022.2.1,Win32,59.95203837,,,,,,,,,,,,,,,,,,33,,,,,,,,,,0.03,1,1.644,0,2,2,2,1,Attend live concerts with my partner on warm summer nights,Journal about my day in a small candlelit room before bed,0.03,0.02,4.4,0,,,,,
,,66a08dccc5cc029fc23a96a8,6685aa9113c938e83b4f1ea0,66fe3d45d41b83b4305fce21,2024-10-03_02h19.32.093,WTP_SM_Choice,2022.2.1,Win32,59.95203837,,,,,,,,,,,,,,,,,,34,,,,,,,,,,0.04,1,2.471,0,3,3,3,1,Bake holiday cookies with my cousins in the kitchen during the winter holidays,Organize my digital files and folders while sitting at my desk with calming music playing,0.04,0.02,3.3,0,,,,,
,,66a08dccc5cc029fc23a96a8,6685aa9113c938e83b4f1ea0,66fe3d45d41b83b4305fce21,2024-10-03_02h19.32.093,WTP_SM_Choice,2022.2.1,Win32,59.95203837,,,,,,,,,,,,,,,,,,35,,,,,,,,,,0.05,1,1.885,0,4,4,4,1,Watch scifi movies with friends during a movie marathon on a rainy saturday,Meditate at sunrise on a beach with the sound of waves in the background,0.05,0.02,1.1,0,,,,,
,,66a08dccc5cc029fc23a96a8,6685aa9113c938e83b4f1ea0,66fe3d45d41b83b4305fce21,2024-10-03_02h19.32.093,WTP_SM_Choice,2022.2.1,Win32,59.95203837,,,,,,,NAN,,NAN,1.24,4.76,,0,34,34,34,1,35,Sam,Acc,Participant_Images/66a08dccc5cc029fc23a96a8/66a08dccc5cc029fc23a96a8_Images/66a08dccc5cc029fc23a96a8_Image_5.jpeg,liked,2.455989137,,,,,,,,,,,,,,,,,,,,,,,
,,66a08dccc5cc029fc23a96a8,6685aa9113c938e83b4f1ea0,66fe3d45d41b83b4305fce21,2024-10-03_02h19.32.093,WTP_SM_Choice,2022.2.1,Win32,59.95203837,,,,,space,2.829,NAN,,NAN,1.24,4.76,,0,35,35,35,1,36,Sam,Acc,Participant_Images/66a08dccc5cc029fc23a96a8/66a08dccc5cc029fc23a96a8_Images/66a08dccc5cc029fc23a96a8_Image_18.jpeg,liked,3.79605092,,,,,,,,,,,,,,,,,,,,,,,
,,66a08dccc5cc029fc23a96a8,6685aa9113c938e83b4f1ea0,66fe3d45d41b83b4305fce21,2024-10-03_02h19.32.093,WTP_SM_Choice,2022.2.1,Win32,59.95203837,,,,,space,2.242,NAN,,NAN,1.24,4.76,,0,36,36,36,1,37,Sam,Acc,Participant_Images/66a08dccc5cc029fc23a96a8/66a08dccc5cc029fc23a96a8_Images/66a08dccc5cc029fc23a96a8_Image_12.jpeg,liked,3.562416326,,,,,,,,,,,,,,,,,,,,,,,
,,66a08dccc5cc029fc23a96a8,6685aa9113c938e83b4f1ea0,66fe3d45d41b83b4305fce21,2024-10-03_02h19.32.093,WTP_SM_Choice,2022.2.1,Win32,59.95203837,,,,,space,55.809,NAN,,NAN,1.24,4.76,,0,37,37,37,1,38,Sam,Acc,Participant_Images/66a08dccc5cc029fc23a96a8/66a08dccc5cc029fc23a96a8_Images/66a08dccc5cc029fc23a96a8_Image_4.jpeg,liked,2.843822497,,,,,,,,,,,,,,,,,,,,,,,
,,66a08dccc5cc029fc23a96a8,6685aa9113c938e83b4f1ea0,66fe3d45d41b83b4305fce21,2024-10-03_02h19.32.093,WTP_SM_Choice,2022.2.1,Win32,59.95203837,,,,,space,6.169,NAN,,NAN,1.24,4.76,,0,38,38,38,1,39,Sam,Acc,Participant_Images/66a08dccc5cc029fc23a96a8/66a08dccc5cc029fc23a96a8_Images/66a08dccc5cc029fc23a96a8_Image_8.jpeg,liked,3.546495948,,,,,,,,,,,,,,,,,,,,,,,
,,66a08dccc5cc029fc23a96a8,6685aa9113c938e83b4f1ea0,66fe3d45d41b83b4305fce21,2024-10-03_02h19.32.093,WTP_SM_Choice,2022.2.1,Win32,59.95203837,,,,,,,,,,,,,,,,,,36,,,,,,space,4.973,space,0.734,0.03,2,1.398,0,0,0,0,1,Sketch abstract designs in a cozy cafe with a cup of coffee,Watch scifi movies with friends during a movie marathon on a rainy saturday,0.01,0.03,3.3,1,,,,,
,,66a08dccc5cc029fc23a96a8,6685aa9113c938e83b4f1ea0,66fe3d45d41b83b4305fce21,2024-10-03_02h19.32.093,WTP_SM_Choice,2022.2.1,Win32,59.95203837,,,,,,,,,,,,,,,,,,37,,,,,,,,,,0.03,2,3.618,0,1,1,1,1,Share a homemade dinner with my family on a cozy sunday evening,Solve logic puzzles on my couch with a cup of tea in hand,0.02,0.03,1.1,0,,,,,
,,66a08dccc5cc029fc23a96a8,6685aa9113c938e83b4f1ea0,66fe3d45d41b83b4305fce21,2024-10-03_02h19.32.093,WTP_SM_Choice,2022.2.1,Win32,59.95203837,,,,,,,,,,,,,,,,,,38,,,,,,,,,,0.03,2,1.215,0,2,2,2,1,Stargaze from a rooftop on a cool clear night,Bake holiday cookies with my cousins in the kitchen during the winter holidays,0.03,0.03,1.1,1,,,,,
,,66a08dccc5cc029fc23a96a8,6685aa9113c938e83b4f1ea0,66fe3d45d41b83b4305fce21,2024-10-03_02h19.32.093,WTP_SM_Choice,2022.2.1,Win32,59.95203837,,,,,,,,,,,,,,,,,,39,,,,,,,,,,0.04,1,6.507,0,3,3,3,1,Stargaze from a rooftop on a cool clear night,Watch scifi movies with friends during a movie marathon on a rainy saturday,0.04,0.03,3.3,1,,,,,
,,66a08dccc5cc029fc23a96a8,6685aa9113c938e83b4f1ea0,66fe3d45d41b83b4305fce21,2024-10-03_02h19.32.093,WTP_SM_Choice,2022.2.1,Win32,59.95203837,,,,,,,,,,,,,,,,,,40,,,,,,,,,,0.05,1,5.648,0,4,4,4,1,Bake holiday cookies with my cousins in the kitchen during the winter holidays,Journal about my day in a small candlelit room before bed,0.05,0.03,4.4,0,,,,,
,,66a08dccc5cc029fc23a96a8,6685aa9113c938e83b4f1ea0,66fe3d45d41b83b4305fce21,2024-10-03_02h19.32.093,WTP_SM_Choice,2022.2.1,Win32,59.95203837,,,,,,,NAN,,NAN,1.42,4.58,,0,39,39,39,1,40,Sam,Acc,Participant_Images/66a08dccc5cc029fc23a96a8/66a08dccc5cc029fc23a96a8_Images/66a08dccc5cc029fc23a96a8_Image_25.jpeg,liked,1.672012706,,,,,,,,,,,,,,,,,,,,,,,
,,66a08dccc5cc029fc23a96a8,6685aa9113c938e83b4f1ea0,66fe3d45d41b83b4305fce21,2024-10-03_02h19.32.093,WTP_SM_Choice,2022.2.1,Win32,59.95203837,,,,,space,1.103,NAN,,NAN,1.42,4.58,,0,40,40,40,1,41,Sam,Acc,Participant_Images/66a08dccc5cc029fc23a96a8/66a08dccc5cc029fc23a96a8_Images/66a08dccc5cc029fc23a96a8_Image_19.jpeg,did not like,4.942172136,,,,,,,,,,,,,,,,,,,,,,,
,,66a08dccc5cc029fc23a96a8,6685aa9113c938e83b4f1ea0,66fe3d45d41b83b4305fce21,2024-10-03_02h19.32.093,WTP_SM_Choice,2022.2.1,Win32,59.95203837,,,,,space,10.956,NAN,,NAN,1.42,4.58,,0,41,41,41,1,42,Sam,Acc,Participant_Images/66a08dccc5cc029fc23a96a8/66a08dccc5cc029fc23a96a8_Images/66a08dccc5cc029fc23a96a8_Image_15.jpeg,liked,2.50187214,,,,,,,,,,,,,,,,,,,,,,,
,,66a08dccc5cc029fc23a96a8,6685aa9113c938e83b4f1ea0,66fe3d45d41b83b4305fce21,2024-10-03_02h19.32.093,WTP_SM_Choice,2022.2.1,Win32,59.95203837,,,,,space,3.536,NAN,,NAN,1.42,4.58,,0,42,42,42,1,43,Sam,Acc,Participant_Images/66a08dccc5cc029fc23a96a8/66a08dccc5cc029fc23a96a8_Images/66a08dccc5cc029fc23a96a8_Image_24.jpeg,liked,2.071164779,,,,,,,,,,,,,,,,,,,,,,,
,,66a08dccc5cc029fc23a96a8,6685aa9113c938e83b4f1ea0,66fe3d45d41b83b4305fce21,2024-10-03_02h19.32.093,WTP_SM_Choice,2022.2.1,Win32,59.95203837,,,,,space,1.063,NAN,,NAN,1.42,4.58,,0,43,43,43,1,44,Sam,Acc,Participant_Images/66a08dccc5cc029fc23a96a8/66a08dccc5cc029fc23a96a8_Images/66a08dccc5cc029fc23a96a8_Image_6.jpeg,did not like,5.336503566,,,,,,,,,,,,,,,,,,,,,,,
,,66a08dccc5cc029fc23a96a8,6685aa9113c938e83b4f1ea0,66fe3d45d41b83b4305fce21,2024-10-03_02h19.32.093,WTP_SM_Choice,2022.2.1,Win32,59.95203837,,,,,,,,,,,,,,,,,,41,,,,,,space,10.427,space,0.522,,,,0,0,0,0,1,Play board games with my coworkers at the office after work on friday evenings,Sketch abstract designs in a cozy cafe with a cup of coffee,0.01,0.04,1.1,0,,,,,
,,66a08dccc5cc029fc23a96a8,6685aa9113c938e83b4f1ea0,66fe3d45d41b83b4305fce21,2024-10-03_02h19.32.093,WTP_SM_Choice,2022.2.1,Win32,59.95203837,,,,,,,,,,,,,,,,,,42,,,,,,,,,,0.04,2,2.18,0,1,1,1,1,Have coffee and catching up with an old college friend at a quiet cafe in the afternoon,Journal about my day in a small candlelit room before bed,0.02,0.04,3.3,0,,,,,
,,66a08dccc5cc029fc23a96a8,6685aa9113c938e83b4f1ea0,66fe3d45d41b83b4305fce21,2024-10-03_02h19.32.093,WTP_SM_Choice,2022.2.1,Win32,59.95203837,,,,,,,,,,,,,,,,,,43,,,,,,,,,,0.04,2,1.772,0,2,2,2,1,Bake holiday cookies with my cousins in the kitchen during the winter holidays,Sketch abstract designs in a cozy cafe with a cup of coffee,0.03,0.04,1.1,0,,,,,
,,66a08dccc5cc029fc23a96a8,6685aa9113c938e83b4f1ea0,66fe3d45d41b83b4305fce21,2024-10-03_02h19.32.093,WTP_SM_Choice,2022.2.1,Win32,59.95203837,,,,,,,,,,,,,,,,,,44,,,,,,,,,,0.04,2,6.68,0,3,3,3,1,Sketch abstract designs in a cozy cafe with a cup of coffee,Discuss current events with classmates over lunch between classes,0.04,0.04,1.1,1,,,,,
,,66a08dccc5cc029fc23a96a8,6685aa9113c938e83b4f1ea0,66fe3d45d41b83b4305fce21,2024-10-03_02h19.32.093,WTP_SM_Choice,2022.2.1,Win32,59.95203837,,,,,,,,,,,,,,,,,,45,,,,,,,,,,,,,0,4,4,4,1,Listen to classical music while walking through a quiet park in the early morning,Go on weekend road trips to nearby towns with a close group of friends,0.05,0.04,4.4,1,,,,,
,,66a08dccc5cc029fc23a96a8,6685aa9113c938e83b4f1ea0,66fe3d45d41b83b4305fce21,2024-10-03_02h19.32.093,WTP_SM_Choice,2022.2.1,Win32,59.95203837,,,,,,,NAN,,NAN,1.54,4.46,,0,44,44,44,1,45,Sam,Acc,Participant_Images/66a08dccc5cc029fc23a96a8/66a08dccc5cc029fc23a96a8_Images/66a08dccc5cc029fc23a96a8_Image_7.jpeg,liked,2.642157193,,,,,,,,,,,,,,,,,,,,,,,
,,66a08dccc5cc029fc23a96a8,6685aa9113c938e83b4f1ea0,66fe3d45d41b83b4305fce21,2024-10-03_02h19.32.093,WTP_SM_Choice,2022.2.1,Win32,59.95203837,,,,,space,32.883,NAN,,NAN,1.54,4.46,,0,45,45,45,1,46,Sam,Acc,Participant_Images/66a08dccc5cc029fc23a96a8/66a08dccc5cc029fc23a96a8_Images/66a08dccc5cc029fc23a96a8_Image_16.jpeg,did not like,4.456234322,,,,,,,,,,,,,,,,,,,,,,,
,,66a08dccc5cc029fc23a96a8,6685aa9113c938e83b4f1ea0,66fe3d45d41b83b4305fce21,2024-10-03_02h19.32.093,WTP_SM_Choice,2022.2.1,Win32,59.95203837,,,,,space,36.811,NAN,,NAN,1.54,4.46,,0,46,46,46,1,47,Sam,Acc,Participant_Images/66a08dccc5cc029fc23a96a8/66a08dccc5cc029fc23a96a8_Images/66a08dccc5cc029fc23a96a8_Image_23.jpeg,did not like,4.438512181,,,,,,,,,,,,,,,,,,,,,,,
,,66a08dccc5cc029fc23a96a8,6685aa9113c938e83b4f1ea0,66fe3d45d41b83b4305fce21,2024-10-03_02h19.32.093,WTP_SM_Choice,2022.2.1,Win32,59.95203837,,,,,space,4.032,NAN,,NAN,1.54,4.46,,0,47,47,47,1,48,Sam,Acc,Participant_Images/66a08dccc5cc029fc23a96a8/66a08dccc5cc029fc23a96a8_Images/66a08dccc5cc029fc23a96a8_Image_2.jpeg,liked,2.682944783,,,,,,,,,,,,,,,,,,,,,,,
,,66a08dccc5cc029fc23a96a8,6685aa9113c938e83b4f1ea0,66fe3d45d41b83b4305fce21,2024-10-03_02h19.32.093,WTP_SM_Choice,2022.2.1,Win32,59.95203837,,,,,space,1.295,NAN,,NAN,1.54,4.46,,0,48,48,48,1,49,Sam,Acc,Participant_Images/66a08dccc5cc029fc23a96a8/66a08dccc5cc029fc23a96a8_Images/66a08dccc5cc029fc23a96a8_Image_21.jpeg,liked,4.51984296,,,,,,,,,,,,,,,,,,,,,,,
,,66a08dccc5cc029fc23a96a8,6685aa9113c938e83b4f1ea0,66fe3d45d41b83b4305fce21,2024-10-03_02h19.32.093,WTP_SM_Choice,2022.2.1,Win32,59.95203837,,,,,,,,,,,,,,,,,,46,,,,,,space,18.568,space,0.522,0.05,2,2.056,0,0,0,0,1,Attend live concerts with my partner on warm summer nights,Meditate at sunrise on a beach with the sound of waves in the background,0.01,0.05,8.8,0,,,,,
,,66a08dccc5cc029fc23a96a8,6685aa9113c938e83b4f1ea0,66fe3d45d41b83b4305fce21,2024-10-03_02h19.32.093,WTP_SM_Choice,2022.2.1,Win32,59.95203837,,,,,,,,,,,,,,,,,,47,,,,,,,,,,0.05,2,1.282,0,1,1,1,1,Watch historical documentaries late at night with dim lighting,Share a homemade dinner with my family on a cozy sunday evening,0.02,0.05,1.1,1,,,,,
,,66a08dccc5cc029fc23a96a8,6685aa9113c938e83b4f1ea0,66fe3d45d41b83b4305fce21,2024-10-03_02h19.32.093,WTP_SM_Choice,2022.2.1,Win32,59.95203837,,,,,,,,,,,,,,,,,,48,,,,,,,,,,,,,0,2,2,2,1,Sketch abstract designs in a cozy cafe with a cup of coffee,Share a homemade dinner with my family on a cozy sunday evening,0.03,0.05,4.4,1,,,,,
,,66a08dccc5cc029fc23a96a8,6685aa9113c938e83b4f1ea0,66fe3d45d41b83b4305fce21,2024-10-03_02h19.32.093,WTP_SM_Choice,2022.2.1,Win32,59.95203837,,,,,,,,,,,,,,,,,,49,,,,,,,,,,0.05,2,1.732,0,3,3,3,1,Stargaze from a rooftop on a cool clear night,Go on weekend road trips to nearby towns with a close group of friends,0.04,0.05,3.3,1,,,,,
,,66a08dccc5cc029fc23a96a8,6685aa9113c938e83b4f1ea0,66fe3d45d41b83b4305fce21,2024-10-03_02h19.32.093,WTP_SM_Choice,2022.2.1,Win32,59.95203837,,,,,,,,,,,,,,,,,,50,,,,,,,,,,,,,0,4,4,4,1,Sketch abstract designs in a cozy cafe with a cup of coffee,Bake holiday cookies with my cousins in the kitchen during the winter holidays,0.05,0.05,1.1,1,,,,,
,,66a08dccc5cc029fc23a96a8,6685aa9113c938e83b4f1ea0,66fe3d45d41b83b4305fce21,2024-10-03_02h19.32.093,WTP_SM_Choice,2022.2.1,Win32,59.95203837,,,,,,,NAN,space,6,1.69,4.31,,0,49,49,49,1,50,Sam,Acc,Participant_Images/66a08dccc5cc029fc23a96a8/66a08dccc5cc029fc23a96a8_Images/66a08dccc5cc029fc23a96a8_Image_3.jpeg,liked,3.195382774,,,,,,,,,,,,,,,,,,,space,4.199,4.887,,
,,66a08dccc5cc029fc23a96a8,6685aa9113c938e83b4f1ea0,66fe3d45d41b83b4305fce21,2024-10-03_02h19.32.093,WTP_SM_Choice,2022.2.1,Win32,59.95203837,,,space,11.136,space,2.894,NAN,,NAN,1.69,4.31,,0,50,50,50,1,51,Riley,Rej,Participant_Images/66a08dccc5cc029fc23a96a8/66a08dccc5cc029fc23a96a8_Images/66a08dccc5cc029fc23a96a8_Image_14.jpeg,did not like,1.779333479,,,,,,,,,,,,,,,,,,,,,,,
,,66a08dccc5cc029fc23a96a8,6685aa9113c938e83b4f1ea0,66fe3d45d41b83b4305fce21,2024-10-03_02h19.32.093,WTP_SM_Choice,2022.2.1,Win32,59.95203837,,,,,space,1.868,NAN,,NAN,1.69,4.31,,0,51,51,51,1,52,Riley,Rej,Participant_Images/66a08dccc5cc029fc23a96a8/66a08dccc5cc029fc23a96a8_Images/66a08dccc5cc029fc23a96a8_Image_22.jpeg,did not like,4.312468682,,,,,,,,,,,,,,,,,,,,,,,
,,66a08dccc5cc029fc23a96a8,6685aa9113c938e83b4f1ea0,66fe3d45d41b83b4305fce21,2024-10-03_02h19.32.093,WTP_SM_Choice,2022.2.1,Win32,59.95203837,,,,,space,8.02,NAN,,NAN,1.69,4.31,,0,52,52,52,1,53,Riley,Rej,Participant_Images/66a08dccc5cc029fc23a96a8/66a08dccc5cc029fc23a96a8_Images/66a08dccc5cc029fc23a96a8_Image_15.jpeg,did not like,4.940433059,,,,,,,,,,,,,,,,,,,,,,,
,,66a08dccc5cc029fc23a96a8,6685aa9113c938e83b4f1ea0,66fe3d45d41b83b4305fce21,2024-10-03_02h19.32.093,WTP_SM_Choice,2022.2.1,Win32,59.95203837,,,,,space,24.656,NAN,,NAN,1.69,4.31,,0,53,53,53,1,54,Riley,Rej,Participant_Images/66a08dccc5cc029fc23a96a8/66a08dccc5cc029fc23a96a8_Images/66a08dccc5cc029fc23a96a8_Image_16.jpeg,did not like,2.7105123,,,,,,,,,,,,,,,,,,,,,,,
,,66a08dccc5cc029fc23a96a8,6685aa9113c938e83b4f1ea0,66fe3d45d41b83b4305fce21,2024-10-03_02h19.32.093,WTP_SM_Choice,2022.2.1,Win32,59.95203837,,,,,,,,,,,,,,,,,,51,,,,,,space,1.015,space,0.874,0.01,1,5.699,0,0,0,0,1,Solve logic puzzles on my couch with a cup of tea in hand,Discuss current events with classmates over lunch between classes,0.01,0.01,1.1,1,,,,,
,,66a08dccc5cc029fc23a96a8,6685aa9113c938e83b4f1ea0,66fe3d45d41b83b4305fce21,2024-10-03_02h19.32.093,WTP_SM_Choice,2022.2.1,Win32,59.95203837,,,,,,,,,,,,,,,,,,52,,,,,,,,,,0.02,1,7.812,0,1,1,1,1,Have coffee and catching up with an old college friend at a quiet cafe in the afternoon,Write poetry while sitting by a window during a thunderstorm,0.02,0.01,3.3,0,,,,,
,,66a08dccc5cc029fc23a96a8,6685aa9113c938e83b4f1ea0,66fe3d45d41b83b4305fce21,2024-10-03_02h19.32.093,WTP_SM_Choice,2022.2.1,Win32,59.95203837,,,,,,,,,,,,,,,,,,53,,,,,,,,,,0.03,1,0.495,0,2,2,2,1,Organize my digital files and folders while sitting at my desk with calming music playing,Watch scifi movies with friends during a movie marathon on a rainy saturday,0.03,0.01,1.1,1,,,,,
,,66a08dccc5cc029fc23a96a8,6685aa9113c938e83b4f1ea0,66fe3d45d41b83b4305fce21,2024-10-03_02h19.32.093,WTP_SM_Choice,2022.2.1,Win32,59.95203837,,,,,,,,,,,,,,,,,,54,,,,,,,,,,0.04,1,9.852,0,3,3,3,1,Watch scifi movies with friends during a movie marathon on a rainy saturday,Write poetry while sitting by a window during a thunderstorm,0.04,0.01,4.4,0,,,,,
,,66a08dccc5cc029fc23a96a8,6685aa9113c938e83b4f1ea0,66fe3d45d41b83b4305fce21,2024-10-03_02h19.32.093,WTP_SM_Choice,2022.2.1,Win32,59.95203837,,,,,,,,,,,,,,,,,,55,,,,,,,,,,0.05,1,4.846,0,4,4,4,1,Stargaze from a rooftop on a cool clear night,Attend live concerts with my partner on warm summer nights,0.05,0.01,1.1,1,,,,,
,,66a08dccc5cc029fc23a96a8,6685aa9113c938e83b4f1ea0,66fe3d45d41b83b4305fce21,2024-10-03_02h19.32.093,WTP_SM_Choice,2022.2.1,Win32,59.95203837,,,,,,,NAN,,NAN,1.84,4.16,,0,54,54,54,1,55,Riley,Rej,Participant_Images/66a08dccc5cc029fc23a96a8/66a08dccc5cc029fc23a96a8_Images/66a08dccc5cc029fc23a96a8_Image_10.jpeg,did not like,3.602308302,,,,,,,,,,,,,,,,,,,,,,,
,,66a08dccc5cc029fc23a96a8,6685aa9113c938e83b4f1ea0,66fe3d45d41b83b4305fce21,2024-10-03_02h19.32.093,WTP_SM_Choice,2022.2.1,Win32,59.95203837,,,,,space,12.978,NAN,,NAN,1.84,4.16,,0,55,55,55,1,56,Riley,Rej,Participant_Images/66a08dccc5cc029fc23a96a8/66a08dccc5cc029fc23a96a8_Images/66a08dccc5cc029fc23a96a8_Image_3.jpeg,did not like,4.106391878,,,,,,,,,,,,,,,,,,,,,,,
,,66a08dccc5cc029fc23a96a8,6685aa9113c938e83b4f1ea0,66fe3d45d41b83b4305fce21,2024-10-03_02h19.32.093,WTP_SM_Choice,2022.2.1,Win32,59.95203837,,,,,space,1.158,NAN,,NAN,1.84,4.16,,0,56,56,56,1,57,Riley,Rej,Participant_Images/66a08dccc5cc029fc23a96a8/66a08dccc5cc029fc23a96a8_Images/66a08dccc5cc029fc23a96a8_Image_12.jpeg,liked,3.799433026,,,,,,,,,,,,,,,,,,,,,,,
,,66a08dccc5cc029fc23a96a8,6685aa9113c938e83b4f1ea0,66fe3d45d41b83b4305fce21,2024-10-03_02h19.32.093,WTP_SM_Choice,2022.2.1,Win32,59.95203837,,,,,space,13.789,NAN,,NAN,1.84,4.16,,0,57,57,57,1,58,Riley,Rej,Participant_Images/66a08dccc5cc029fc23a96a8/66a08dccc5cc029fc23a96a8_Images/66a08dccc5cc029fc23a96a8_Image_18.jpeg,did not like,5.246980764,,,,,,,,,,,,,,,,,,,,,,,
,,66a08dccc5cc029fc23a96a8,6685aa9113c938e83b4f1ea0,66fe3d45d41b83b4305fce21,2024-10-03_02h19.32.093,WTP_SM_Choice,2022.2.1,Win32,59.95203837,,,,,space,2.723,NAN,,NAN,1.84,4.16,,0,58,58,58,1,59,Riley,Rej,Participant_Images/66a08dccc5cc029fc23a96a8/66a08dccc5cc029fc23a96a8_Images/66a08dccc5cc029fc23a96a8_Image_6.jpeg,did not like,3.30081769,,,,,,,,,,,,,,,,,,,,,,,
,,66a08dccc5cc029fc23a96a8,6685aa9113c938e83b4f1ea0,66fe3d45d41b83b4305fce21,2024-10-03_02h19.32.093,WTP_SM_Choice,2022.2.1,Win32,59.95203837,,,,,,,,,,,,,,,,,,56,,,,,,space,1.294,space,0.516,0.02,2,1.656,0,0,0,0,1,Sketch abstract designs in a cozy cafe with a cup of coffee,Go for a hike with my best friend on a cool autumn morning,0.01,0.02,8.8,1,,,,,
,,66a08dccc5cc029fc23a96a8,6685aa9113c938e83b4f1ea0,66fe3d45d41b83b4305fce21,2024-10-03_02h19.32.093,WTP_SM_Choice,2022.2.1,Win32,59.95203837,,,,,,,,,,,,,,,,,,57,,,,,,,,,,0.02,2,3.36,0,1,1,1,1,Organize my digital files and folders while sitting at my desk with calming music playing,Have coffee and catching up with an old college friend at a quiet cafe in the afternoon,0.02,0.02,4.4,1,,,,,
,,66a08dccc5cc029fc23a96a8,6685aa9113c938e83b4f1ea0,66fe3d45d41b83b4305fce21,2024-10-03_02h19.32.093,WTP_SM_Choice,2022.2.1,Win32,59.95203837,,,,,,,,,,,,,,,,,,58,,,,,,,,,,0.03,1,2.938,0,2,2,2,1,Watch scifi movies with friends during a movie marathon on a rainy saturday,Watch historical documentaries late at night with dim lighting,0.03,0.02,4.4,0,,,,,
,,66a08dccc5cc029fc23a96a8,6685aa9113c938e83b4f1ea0,66fe3d45d41b83b4305fce21,2024-10-03_02h19.32.093,WTP_SM_Choice,2022.2.1,Win32,59.95203837,,,,,,,,,,,,,,,,,,59,,,,,,,,,,0.04,1,4.229,0,3,3,3,1,Watch scifi movies with friends during a movie marathon on a rainy saturday,Sketch abstract designs in a cozy cafe with a cup of coffee,0.04,0.02,4.4,0,,,,,
,,66a08dccc5cc029fc23a96a8,6685aa9113c938e83b4f1ea0,66fe3d45d41b83b4305fce21,2024-10-03_02h19.32.093,WTP_SM_Choice,2022.2.1,Win32,59.95203837,,,,,,,,,,,,,,,,,,60,,,,,,,,,,0.05,1,0.748,0,4,4,4,1,Journal about my day in a small candlelit room before bed,Discuss current events with classmates over lunch between classes,0.05,0.02,1.1,1,,,,,
,,66a08dccc5cc029fc23a96a8,6685aa9113c938e83b4f1ea0,66fe3d45d41b83b4305fce21,2024-10-03_02h19.32.093,WTP_SM_Choice,2022.2.1,Win32,59.95203837,,,,,,,NAN,,NAN,2,4,,0,59,59,59,1,60,Riley,Rej,Participant_Images/66a08dccc5cc029fc23a96a8/66a08dccc5cc029fc23a96a8_Images/66a08dccc5cc029fc23a96a8_Image_8.jpeg,did not like,1.661473164,,,,,,,,,,,,,,,,,,,,,,,
,,66a08dccc5cc029fc23a96a8,6685aa9113c938e83b4f1ea0,66fe3d45d41b83b4305fce21,2024-10-03_02h19.32.093,WTP_SM_Choice,2022.2.1,Win32,59.95203837,,,,,space,59.233,NAN,,NAN,2,4,,0,60,60,60,1,61,Riley,Rej,Participant_Images/66a08dccc5cc029fc23a96a8/66a08dccc5cc029fc23a96a8_Images/66a08dccc5cc029fc23a96a8_Image_24.jpeg,liked,3.613205605,,,,,,,,,,,,,,,,,,,,,,,
,,66a08dccc5cc029fc23a96a8,6685aa9113c938e83b4f1ea0,66fe3d45d41b83b4305fce21,2024-10-03_02h19.32.093,WTP_SM_Choice,2022.2.1,Win32,59.95203837,,,,,space,8.448,NAN,,NAN,2,4,,0,61,61,61,1,62,Riley,Rej,Participant_Images/66a08dccc5cc029fc23a96a8/66a08dccc5cc029fc23a96a8_Images/66a08dccc5cc029fc23a96a8_Image_4.jpeg,did not like,4.988446431,,,,,,,,,,,,,,,,,,,,,,,
,,66a08dccc5cc029fc23a96a8,6685aa9113c938e83b4f1ea0,66fe3d45d41b83b4305fce21,2024-10-03_02h19.32.093,WTP_SM_Choice,2022.2.1,Win32,59.95203837,,,,,space,7.425,NAN,,NAN,2,4,,0,62,62,62,1,63,Riley,Rej,Participant_Images/66a08dccc5cc029fc23a96a8/66a08dccc5cc029fc23a96a8_Images/66a08dccc5cc029fc23a96a8_Image_7.jpeg,liked,3.470791822,,,,,,,,,,,,,,,,,,,,,,,
,,66a08dccc5cc029fc23a96a8,6685aa9113c938e83b4f1ea0,66fe3d45d41b83b4305fce21,2024-10-03_02h19.32.093,WTP_SM_Choice,2022.2.1,Win32,59.95203837,,,,,space,0.8,NAN,,NAN,2,4,,0,63,63,63,1,64,Riley,Rej,Participant_Images/66a08dccc5cc029fc23a96a8/66a08dccc5cc029fc23a96a8_Images/66a08dccc5cc029fc23a96a8_Image_11.jpeg,did not like,3.820572462,,,,,,,,,,,,,,,,,,,,,,,
,,66a08dccc5cc029fc23a96a8,6685aa9113c938e83b4f1ea0,66fe3d45d41b83b4305fce21,2024-10-03_02h19.32.093,WTP_SM_Choice,2022.2.1,Win32,59.95203837,,,,,,,,,,,,,,,,,,61,,,,,,space,0.82,space,0.666,0.03,2,4.359,0,0,0,0,1,Host a game night with friends at my place on a chilly winter evening,Sketch abstract designs in a cozy cafe with a cup of coffee,0.01,0.03,3.3,0,,,,,
,,66a08dccc5cc029fc23a96a8,6685aa9113c938e83b4f1ea0,66fe3d45d41b83b4305fce21,2024-10-03_02h19.32.093,WTP_SM_Choice,2022.2.1,Win32,59.95203837,,,,,,,,,,,,,,,,,,62,,,,,,,,,,0.03,2,1.836,0,1,1,1,1,Organize my digital files and folders while sitting at my desk with calming music playing,Host a game night with friends at my place on a chilly winter evening,0.02,0.03,3.3,1,,,,,
,,66a08dccc5cc029fc23a96a8,6685aa9113c938e83b4f1ea0,66fe3d45d41b83b4305fce21,2024-10-03_02h19.32.093,WTP_SM_Choice,2022.2.1,Win32,59.95203837,,,,,,,,,,,,,,,,,,63,,,,,,,,,,0.03,2,1.904,0,2,2,2,1,Stargaze from a rooftop on a cool clear night,Have coffee and catching up with an old college friend at a quiet cafe in the afternoon,0.03,0.03,3.3,1,,,,,
,,66a08dccc5cc029fc23a96a8,6685aa9113c938e83b4f1ea0,66fe3d45d41b83b4305fce21,2024-10-03_02h19.32.093,WTP_SM_Choice,2022.2.1,Win32,59.95203837,,,,,,,,,,,,,,,,,,64,,,,,,,,,,0.03,2,0.691,0,3,3,3,1,Organize my digital files and folders while sitting at my desk with calming music playing,Go on weekend road trips to nearby towns with a close group of friends,0.04,0.03,1.1,1,,,,,
,,66a08dccc5cc029fc23a96a8,6685aa9113c938e83b4f1ea0,66fe3d45d41b83b4305fce21,2024-10-03_02h19.32.093,WTP_SM_Choice,2022.2.1,Win32,59.95203837,,,,,,,,,,,,,,,,,,65,,,,,,,,,,0.03,2,1.213,0,4,4,4,1,Go for a hike with my best friend on a cool autumn morning,Meditate at sunrise on a beach with the sound of waves in the background,0.05,0.03,1.1,0,,,,,
,,66a08dccc5cc029fc23a96a8,6685aa9113c938e83b4f1ea0,66fe3d45d41b83b4305fce21,2024-10-03_02h19.32.093,WTP_SM_Choice,2022.2.1,Win32,59.95203837,,,,,,,NAN,,NAN,2.15,3.85,,0,64,64,64,1,65,Riley,Rej,Participant_Images/66a08dccc5cc029fc23a96a8/66a08dccc5cc029fc23a96a8_Images/66a08dccc5cc029fc23a96a8_Image_25.jpeg,liked,2.455989137,,,,,,,,,,,,,,,,,,,,,,,
,,66a08dccc5cc029fc23a96a8,6685aa9113c938e83b4f1ea0,66fe3d45d41b83b4305fce21,2024-10-03_02h19.32.093,WTP_SM_Choice,2022.2.1,Win32,59.95203837,,,,,space,0.785,NAN,,NAN,2.15,3.85,,0,65,65,65,1,66,Riley,Rej,Participant_Images/66a08dccc5cc029fc23a96a8/66a08dccc5cc029fc23a96a8_Images/66a08dccc5cc029fc23a96a8_Image_5.jpeg,did not like,3.79605092,,,,,,,,,,,,,,,,,,,,,,,
,,66a08dccc5cc029fc23a96a8,6685aa9113c938e83b4f1ea0,66fe3d45d41b83b4305fce21,2024-10-03_02h19.32.093,WTP_SM_Choice,2022.2.1,Win32,59.95203837,,,,,space,13.268,NAN,,NAN,2.15,3.85,,0,66,66,66,1,67,Riley,Rej,Participant_Images/66a08dccc5cc029fc23a96a8/66a08dccc5cc029fc23a96a8_Images/66a08dccc5cc029fc23a96a8_Image_1.jpeg,did not like,3.562416326,,,,,,,,,,,,,,,,,,,,,,,
,,66a08dccc5cc029fc23a96a8,6685aa9113c938e83b4f1ea0,66fe3d45d41b83b4305fce21,2024-10-03_02h19.32.093,WTP_SM_Choice,2022.2.1,Win32,59.95203837,,,,,space,7.564,NAN,,NAN,2.15,3.85,,0,67,67,67,1,68,Riley,Rej,Participant_Images/66a08dccc5cc029fc23a96a8/66a08dccc5cc029fc23a96a8_Images/66a08dccc5cc029fc23a96a8_Image_19.jpeg,did not like,2.843822497,,,,,,,,,,,,,,,,,,,,,,,
,,66a08dccc5cc029fc23a96a8,6685aa9113c938e83b4f1ea0,66fe3d45d41b83b4305fce21,2024-10-03_02h19.32.093,WTP_SM_Choice,2022.2.1,Win32,59.95203837,,,,,space,3.541,NAN,,NAN,2.15,3.85,,0,68,68,68,1,69,Riley,Rej,Participant_Images/66a08dccc5cc029fc23a96a8/66a08dccc5cc029fc23a96a8_Images/66a08dccc5cc029fc23a96a8_Image_17.jpeg,liked,3.546495948,,,,,,,,,,,,,,,,,,,,,,,
,,66a08dccc5cc029fc23a96a8,6685aa9113c938e83b4f1ea0,66fe3d45d41b83b4305fce21,2024-10-03_02h19.32.093,WTP_SM_Choice,2022.2.1,Win32,59.95203837,,,,,,,,,,,,,,,,,,66,,,,,,space,6.369,space,0.53,0.04,2,2.15,0,0,0,0,1,Host a game night with friends at my place on a chilly winter evening,Watch historical documentaries late at night with dim lighting,0.01,0.04,1.1,0,,,,,
,,66a08dccc5cc029fc23a96a8,6685aa9113c938e83b4f1ea0,66fe3d45d41b83b4305fce21,2024-10-03_02h19.32.093,WTP_SM_Choice,2022.2.1,Win32,59.95203837,,,,,,,,,,,,,,,,,,67,,,,,,,,,,0.04,2,1.485,0,1,1,1,1,Sketch abstract designs in a cozy cafe with a cup of coffee,Have coffee and catching up with an old college friend at a quiet cafe in the afternoon,0.02,0.04,8.8,1,,,,,
,,66a08dccc5cc029fc23a96a8,6685aa9113c938e83b4f1ea0,66fe3d45d41b83b4305fce21,2024-10-03_02h19.32.093,WTP_SM_Choice,2022.2.1,Win32,59.95203837,,,,,,,,,,,,,,,,,,68,,,,,,,,,,0.04,2,2.002,0,2,2,2,1,Listen to classical music while walking through a quiet park in the early morning,Share a homemade dinner with my family on a cozy sunday evening,0.03,0.04,4.4,1,,,,,
,,66a08dccc5cc029fc23a96a8,6685aa9113c938e83b4f1ea0,66fe3d45d41b83b4305fce21,2024-10-03_02h19.32.093,WTP_SM_Choice,2022.2.1,Win32,59.95203837,,,,,,,,,,,,,,,,,,69,,,,,,,,,,0.04,1,1.949,0,3,3,3,1,Share a homemade dinner with my family on a cozy sunday evening,Meditate at sunrise on a beach with the sound of waves in the background,0.04,0.04,1.1,0,,,,,
,,66a08dccc5cc029fc23a96a8,6685aa9113c938e83b4f1ea0,66fe3d45d41b83b4305fce21,2024-10-03_02h19.32.093,WTP_SM_Choice,2022.2.1,Win32,59.95203837,,,,,,,,,,,,,,,,,,70,,,,,,,,,,0.05,1,4.579,0,4,4,4,1,Host a game night with friends at my place on a chilly winter evening,Meditate at sunrise on a beach with the sound of waves in the background,0.05,0.04,1.1,0,,,,,
,,66a08dccc5cc029fc23a96a8,6685aa9113c938e83b4f1ea0,66fe3d45d41b83b4305fce21,2024-10-03_02h19.32.093,WTP_SM_Choice,2022.2.1,Win32,59.95203837,,,,,,,NAN,,NAN,2.36,3.64,,0,69,69,69,1,70,Riley,Rej,Participant_Images/66a08dccc5cc029fc23a96a8/66a08dccc5cc029fc23a96a8_Images/66a08dccc5cc029fc23a96a8_Image_23.jpeg,did not like,1.672012706,,,,,,,,,,,,,,,,,,,,,,,
,,66a08dccc5cc029fc23a96a8,6685aa9113c938e83b4f1ea0,66fe3d45d41b83b4305fce21,2024-10-03_02h19.32.093,WTP_SM_Choice,2022.2.1,Win32,59.95203837,,,,,space,7.013,NAN,,NAN,2.36,3.64,,0,70,70,70,1,71,Riley,Rej,Participant_Images/66a08dccc5cc029fc23a96a8/66a08dccc5cc029fc23a96a8_Images/66a08dccc5cc029fc23a96a8_Image_9.jpeg,did not like,4.942172136,,,,,,,,,,,,,,,,,,,,,,,
,,66a08dccc5cc029fc23a96a8,6685aa9113c938e83b4f1ea0,66fe3d45d41b83b4305fce21,2024-10-03_02h19.32.093,WTP_SM_Choice,2022.2.1,Win32,59.95203837,,,,,space,13.162,NAN,,NAN,2.36,3.64,,0,71,71,71,1,72,Riley,Rej,Participant_Images/66a08dccc5cc029fc23a96a8/66a08dccc5cc029fc23a96a8_Images/66a08dccc5cc029fc23a96a8_Image_2.jpeg,did not like,2.50187214,,,,,,,,,,,,,,,,,,,,,,,
,,66a08dccc5cc029fc23a96a8,6685aa9113c938e83b4f1ea0,66fe3d45d41b83b4305fce21,2024-10-03_02h19.32.093,WTP_SM_Choice,2022.2.1,Win32,59.95203837,,,,,space,5.405,NAN,,NAN,2.36,3.64,,0,72,72,72,1,73,Riley,Rej,Participant_Images/66a08dccc5cc029fc23a96a8/66a08dccc5cc029fc23a96a8_Images/66a08dccc5cc029fc23a96a8_Image_20.jpeg,liked,2.071164779,,,,,,,,,,,,,,,,,,,,,,,
,,66a08dccc5cc029fc23a96a8,6685aa9113c938e83b4f1ea0,66fe3d45d41b83b4305fce21,2024-10-03_02h19.32.093,WTP_SM_Choice,2022.2.1,Win32,59.95203837,,,,,space,10.018,NAN,,NAN,2.36,3.64,,0,73,73,73,1,74,Riley,Rej,Participant_Images/66a08dccc5cc029fc23a96a8/66a08dccc5cc029fc23a96a8_Images/66a08dccc5cc029fc23a96a8_Image_13.jpeg,did not like,5.336503566,,,,,,,,,,,,,,,,,,,,,,,
,,66a08dccc5cc029fc23a96a8,6685aa9113c938e83b4f1ea0,66fe3d45d41b83b4305fce21,2024-10-03_02h19.32.093,WTP_SM_Choice,2022.2.1,Win32,59.95203837,,,,,,,,,,,,,,,,,,71,,,,,,space,0.846,space,9.528,0.05,2,2.264,0,0,0,0,1,Sketch abstract designs in a cozy cafe with a cup of coffee,Discuss current events with classmates over lunch between classes,0.01,0.05,3.3,1,,,,,
,,66a08dccc5cc029fc23a96a8,6685aa9113c938e83b4f1ea0,66fe3d45d41b83b4305fce21,2024-10-03_02h19.32.093,WTP_SM_Choice,2022.2.1,Win32,59.95203837,,,,,,,,,,,,,,,,,,72,,,,,,,,,,0.05,2,1.716,0,1,1,1,1,Host a game night with friends at my place on a chilly winter evening,Solve logic puzzles on my couch with a cup of tea in hand,0.02,0.05,8.8,0,,,,,
,,66a08dccc5cc029fc23a96a8,6685aa9113c938e83b4f1ea0,66fe3d45d41b83b4305fce21,2024-10-03_02h19.32.093,WTP_SM_Choice,2022.2.1,Win32,59.95203837,,,,,,,,,,,,,,,,,,73,,,,,,,,,,0.05,2,1.791,0,2,2,2,1,Play board games with my coworkers at the office after work on friday evenings,Meditate at sunrise on a beach with the sound of waves in the background,0.03,0.05,3.3,0,,,,,
,,66a08dccc5cc029fc23a96a8,6685aa9113c938e83b4f1ea0,66fe3d45d41b83b4305fce21,2024-10-03_02h19.32.093,WTP_SM_Choice,2022.2.1,Win32,59.95203837,,,,,,,,,,,,,,,,,,74,,,,,,,,,,0.05,2,1.478,0,3,3,3,1,Share a homemade dinner with my family on a cozy sunday evening,Write poetry while sitting by a window during a thunderstorm,0.04,0.05,4.4,0,,,,,
,,66a08dccc5cc029fc23a96a8,6685aa9113c938e83b4f1ea0,66fe3d45d41b83b4305fce21,2024-10-03_02h19.32.093,WTP_SM_Choice,2022.2.1,Win32,59.95203837,,,,,,,,,,,,,,,,,,75,,,,,,,,,,0.05,2,3.568,0,4,4,4,1,Solve logic puzzles on my couch with a cup of tea in hand,Go on weekend road trips to nearby towns with a close group of friends,0.05,0.05,3.3,1,,,,,
,,66a08dccc5cc029fc23a96a8,6685aa9113c938e83b4f1ea0,66fe3d45d41b83b4305fce21,2024-10-03_02h19.32.093,WTP_SM_Choice,2022.2.1,Win32,59.95203837,,,,,,,2,,3,2.61,3.39,,0,74,74,74,1,75,Riley,Rej,Participant_Images/66a08dccc5cc029fc23a96a8/66a08dccc5cc029fc23a96a8_Images/66a08dccc5cc029fc23a96a8_Image_21.jpeg,liked,2.642157193,,,,,,,,,,,,,,,,,,,space,4.793,,,
,,66a08dccc5cc029fc23a96a8,6685aa9113c938e83b4f1ea0,66fe3d45d41b83b4305fce21,2024-10-03_02h19.32.093,WTP_SM_Choice,2022.2.1,Win32,59.95203837,,,space,66.069,space,2.136,NAN,,NAN,2.61,3.39,,0,75,75,75,1,76,Charlie,Rej,Participant_Images/66a08dccc5cc029fc23a96a8/66a08dccc5cc029fc23a96a8_Images/66a08dccc5cc029fc23a96a8_Image_25.jpeg,did not like,4.456234322,,,,,,,,,,,,,,,,,,,,,,,
,,66a08dccc5cc029fc23a96a8,6685aa9113c938e83b4f1ea0,66fe3d45d41b83b4305fce21,2024-10-03_02h19.32.093,WTP_SM_Choice,2022.2.1,Win32,59.95203837,,,,,space,23.859,NAN,,NAN,2.61,3.39,,0,76,76,76,1,77,Charlie,Rej,Participant_Images/66a08dccc5cc029fc23a96a8/66a08dccc5cc029fc23a96a8_Images/66a08dccc5cc029fc23a96a8_Image_4.jpeg,did not like,4.438512181,,,,,,,,,,,,,,,,,,,,,,,
,,66a08dccc5cc029fc23a96a8,6685aa9113c938e83b4f1ea0,66fe3d45d41b83b4305fce21,2024-10-03_02h19.32.093,WTP_SM_Choice,2022.2.1,Win32,59.95203837,,,,,space,36.148,NAN,,NAN,2.61,3.39,,0,77,77,77,1,78,Charlie,Rej,Participant_Images/66a08dccc5cc029fc23a96a8/66a08dccc5cc029fc23a96a8_Images/66a08dccc5cc029fc23a96a8_Image_9.jpeg,did not like,2.682944783,,,,,,,,,,,,,,,,,,,,,,,
,,66a08dccc5cc029fc23a96a8,6685aa9113c938e83b4f1ea0,66fe3d45d41b83b4305fce21,2024-10-03_02h19.32.093,WTP_SM_Choice,2022.2.1,Win32,59.95203837,,,,,space,1.091,NAN,,NAN,2.61,3.39,,0,78,78,78,1,79,Charlie,Rej,Participant_Images/66a08dccc5cc029fc23a96a8/66a08dccc5cc029fc23a96a8_Images/66a08dccc5cc029fc23a96a8_Image_3.jpeg,did not like,4.51984296,,,,,,,,,,,,,,,,,,,,,,,
,,66a08dccc5cc029fc23a96a8,6685aa9113c938e83b4f1ea0,66fe3d45d41b83b4305fce21,2024-10-03_02h19.32.093,WTP_SM_Choice,2022.2.1,Win32,59.95203837,,,,,,,,,,,,,,,,,,76,,,,,,space,18.157,space,0.639,0.01,1,1.83,0,0,0,0,1,Listen to classical music while walking through a quiet park in the early morning,Play board games with my coworkers at the office after work on friday evenings,0.01,0.01,1.1,1,,,,,
,,66a08dccc5cc029fc23a96a8,6685aa9113c938e83b4f1ea0,66fe3d45d41b83b4305fce21,2024-10-03_02h19.32.093,WTP_SM_Choice,2022.2.1,Win32,59.95203837,,,,,,,,,,,,,,,,,,77,,,,,,,,,,0.02,1,0.993,0,1,1,1,1,Bake holiday cookies with my cousins in the kitchen during the winter holidays,Listen to classical music while walking through a quiet park in the early morning,0.02,0.01,8.8,0,,,,,
,,66a08dccc5cc029fc23a96a8,6685aa9113c938e83b4f1ea0,66fe3d45d41b83b4305fce21,2024-10-03_02h19.32.093,WTP_SM_Choice,2022.2.1,Win32,59.95203837,,,,,,,,,,,,,,,,,,78,,,,,,,,,,0.03,1,2.121,0,2,2,2,1,Attend live concerts with my partner on warm summer nights,Solve logic puzzles on my couch with a cup of tea in hand,0.03,0.01,1.1,0,,,,,
,,66a08dccc5cc029fc23a96a8,6685aa9113c938e83b4f1ea0,66fe3d45d41b83b4305fce21,2024-10-03_02h19.32.093,WTP_SM_Choice,2022.2.1,Win32,59.95203837,,,,,,,,,,,,,,,,,,79,,,,,,,,,,0.04,1,4.015,0,3,3,3,1,Sketch abstract designs in a cozy cafe with a cup of coffee,Go on weekend road trips to nearby towns with a close group of friends,0.04,0.01,1.1,1,,,,,
,,66a08dccc5cc029fc23a96a8,6685aa9113c938e83b4f1ea0,66fe3d45d41b83b4305fce21,2024-10-03_02h19.32.093,WTP_SM_Choice,2022.2.1,Win32,59.95203837,,,,,,,,,,,,,,,,,,80,,,,,,,,,,0.05,1,3.51,0,4,4,4,1,Discuss current events with classmates over lunch between classes,Meditate at sunrise on a beach with the sound of waves in the background,0.05,0.01,4.4,0,,,,,
,,66a08dccc5cc029fc23a96a8,6685aa9113c938e83b4f1ea0,66fe3d45d41b83b4305fce21,2024-10-03_02h19.32.093,WTP_SM_Choice,2022.2.1,Win32,59.95203837,,,,,,,NAN,,NAN,2.76,3.24,,0,79,79,79,1,80,Charlie,Rej,Participant_Images/66a08dccc5cc029fc23a96a8/66a08dccc5cc029fc23a96a8_Images/66a08dccc5cc029fc23a96a8_Image_10.jpeg,did not like,3.195382774,,,,,,,,,,,,,,,,,,,,,,,
,,66a08dccc5cc029fc23a96a8,6685aa9113c938e83b4f1ea0,66fe3d45d41b83b4305fce21,2024-10-03_02h19.32.093,WTP_SM_Choice,2022.2.1,Win32,59.95203837,,,,,space,13.421,NAN,,NAN,2.76,3.24,,0,80,80,80,1,81,Charlie,Rej,Participant_Images/66a08dccc5cc029fc23a96a8/66a08dccc5cc029fc23a96a8_Images/66a08dccc5cc029fc23a96a8_Image_21.jpeg,did not like,1.779333479,,,,,,,,,,,,,,,,,,,,,,,
,,66a08dccc5cc029fc23a96a8,6685aa9113c938e83b4f1ea0,66fe3d45d41b83b4305fce21,2024-10-03_02h19.32.093,WTP_SM_Choice,2022.2.1,Win32,59.95203837,,,,,space,23.463,NAN,,NAN,2.76,3.24,,0,81,81,81,1,82,Charlie,Rej,Participant_Images/66a08dccc5cc029fc23a96a8/66a08dccc5cc029fc23a96a8_Images/66a08dccc5cc029fc23a96a8_Image_15.jpeg,liked,4.312468682,,,,,,,,,,,,,,,,,,,,,,,
,,66a08dccc5cc029fc23a96a8,6685aa9113c938e83b4f1ea0,66fe3d45d41b83b4305fce21,2024-10-03_02h19.32.093,WTP_SM_Choice,2022.2.1,Win32,59.95203837,,,,,space,63.394,NAN,,NAN,2.76,3.24,,0,82,82,82,1,83,Charlie,Rej,Participant_Images/66a08dccc5cc029fc23a96a8/66a08dccc5cc029fc23a96a8_Images/66a08dccc5cc029fc23a96a8_Image_2.jpeg,did not like,4.940433059,,,,,,,,,,,,,,,,,,,,,,,
,,66a08dccc5cc029fc23a96a8,6685aa9113c938e83b4f1ea0,66fe3d45d41b83b4305fce21,2024-10-03_02h19.32.093,WTP_SM_Choice,2022.2.1,Win32,59.95203837,,,,,space,1.183,NAN,,NAN,2.76,3.24,,0,83,83,83,1,84,Charlie,Rej,Participant_Images/66a08dccc5cc029fc23a96a8/66a08dccc5cc029fc23a96a8_Images/66a08dccc5cc029fc23a96a8_Image_6.jpeg,liked,2.7105123,,,,,,,,,,,,,,,,,,,,,,,
,,66a08dccc5cc029fc23a96a8,6685aa9113c938e83b4f1ea0,66fe3d45d41b83b4305fce21,2024-10-03_02h19.32.093,WTP_SM_Choice,2022.2.1,Win32,59.95203837,,,,,,,,,,,,,,,,,,81,,,,,,space,1.322,space,0.369,0.02,2,3.939,0,0,0,0,1,Discuss current events with classmates over lunch between classes,Organize my digital files and folders while sitting at my desk with calming music playing,0.01,0.02,3.3,0,,,,,
,,66a08dccc5cc029fc23a96a8,6685aa9113c938e83b4f1ea0,66fe3d45d41b83b4305fce21,2024-10-03_02h19.32.093,WTP_SM_Choice,2022.2.1,Win32,59.95203837,,,,,,,,,,,,,,,,,,82,,,,,,,,,,0.02,2,2.402,0,1,1,1,1,Go on weekend road trips to nearby towns with a close group of friends,Journal about my day in a small candlelit room before bed,0.02,0.02,4.4,0,,,,,
,,66a08dccc5cc029fc23a96a8,6685aa9113c938e83b4f1ea0,66fe3d45d41b83b4305fce21,2024-10-03_02h19.32.093,WTP_SM_Choice,2022.2.1,Win32,59.95203837,,,,,,,,,,,,,,,,,,83,,,,,,,,,,0.02,2,1.546,0,2,2,2,1,Go for a hike with my best friend on a cool autumn morning,Sketch abstract designs in a cozy cafe with a cup of coffee,0.03,0.02,1.1,0,,,,,
,,66a08dccc5cc029fc23a96a8,6685aa9113c938e83b4f1ea0,66fe3d45d41b83b4305fce21,2024-10-03_02h19.32.093,WTP_SM_Choice,2022.2.1,Win32,59.95203837,,,,,,,,,,,,,,,,,,84,,,,,,,,,,0.04,1,2.026,0,3,3,3,1,Play board games with my coworkers at the office after work on friday evenings,Stargaze from a rooftop on a cool clear night,0.04,0.02,3.3,0,,,,,
,,66a08dccc5cc029fc23a96a8,6685aa9113c938e83b4f1ea0,66fe3d45d41b83b4305fce21,2024-10-03_02h19.32.093,WTP_SM_Choice,2022.2.1,Win32,59.95203837,,,,,,,,,,,,,,,,,,85,,,,,,,,,,0.05,1,2.827,0,4,4,4,1,Write poetry while sitting by a window during a thunderstorm,Play board games with my coworkers at the office after work on friday evenings,0.05,0.02,3.3,1,,,,,
,,66a08dccc5cc029fc23a96a8,6685aa9113c938e83b4f1ea0,66fe3d45d41b83b4305fce21,2024-10-03_02h19.32.093,WTP_SM_Choice,2022.2.1,Win32,59.95203837,,,,,,,NAN,,NAN,2.91,3.09,,0,84,84,84,1,85,Charlie,Rej,Participant_Images/66a08dccc5cc029fc23a96a8/66a08dccc5cc029fc23a96a8_Images/66a08dccc5cc029fc23a96a8_Image_17.jpeg,did not like,3.602308302,,,,,,,,,,,,,,,,,,,,,,,
,,66a08dccc5cc029fc23a96a8,6685aa9113c938e83b4f1ea0,66fe3d45d41b83b4305fce21,2024-10-03_02h19.32.093,WTP_SM_Choice,2022.2.1,Win32,59.95203837,,,,,space,2.433,NAN,,NAN,2.91,3.09,,0,85,85,85,1,86,Charlie,Rej,Participant_Images/66a08dccc5cc029fc23a96a8/66a08dccc5cc029fc23a96a8_Images/66a08dccc5cc029fc23a96a8_Image_8.jpeg,liked,4.106391878,,,,,,,,,,,,,,,,,,,,,,,
,,66a08dccc5cc029fc23a96a8,6685aa9113c938e83b4f1ea0,66fe3d45d41b83b4305fce21,2024-10-03_02h19.32.093,WTP_SM_Choice,2022.2.1,Win32,59.95203837,,,,,space,1.468,NAN,,NAN,2.91,3.09,,0,86,86,86,1,87,Charlie,Rej,Participant_Images/66a08dccc5cc029fc23a96a8/66a08dccc5cc029fc23a96a8_Images/66a08dccc5cc029fc23a96a8_Image_23.jpeg,did not like,3.799433026,,,,,,,,,,,,,,,,,,,,,,,
,,66a08dccc5cc029fc23a96a8,6685aa9113c938e83b4f1ea0,66fe3d45d41b83b4305fce21,2024-10-03_02h19.32.093,WTP_SM_Choice,2022.2.1,Win32,59.95203837,,,,,space,0.851,NAN,,NAN,2.91,3.09,,0,87,87,87,1,88,Charlie,Rej,Participant_Images/66a08dccc5cc029fc23a96a8/66a08dccc5cc029fc23a96a8_Images/66a08dccc5cc029fc23a96a8_Image_22.jpeg,did not like,5.246980764,,,,,,,,,,,,,,,,,,,,,,,
,,66a08dccc5cc029fc23a96a8,6685aa9113c938e83b4f1ea0,66fe3d45d41b83b4305fce21,2024-10-03_02h19.32.093,WTP_SM_Choice,2022.2.1,Win32,59.95203837,,,,,space,1.98,NAN,,NAN,2.91,3.09,,0,88,88,88,1,89,Charlie,Rej,Participant_Images/66a08dccc5cc029fc23a96a8/66a08dccc5cc029fc23a96a8_Images/66a08dccc5cc029fc23a96a8_Image_12.jpeg,did not like,3.30081769,,,,,,,,,,,,,,,,,,,,,,,
,,66a08dccc5cc029fc23a96a8,6685aa9113c938e83b4f1ea0,66fe3d45d41b83b4305fce21,2024-10-03_02h19.32.093,WTP_SM_Choice,2022.2.1,Win32,59.95203837,,,,,,,,,,,,,,,,,,86,,,,,,space,0.649,space,0.406,0.03,2,1.792,0,0,0,0,1,Watch historical documentaries late at night with dim lighting,Have coffee and catching up with an old college friend at a quiet cafe in the afternoon,0.01,0.03,1.1,1,,,,,
,,66a08dccc5cc029fc23a96a8,6685aa9113c938e83b4f1ea0,66fe3d45d41b83b4305fce21,2024-10-03_02h19.32.093,WTP_SM_Choice,2022.2.1,Win32,59.95203837,,,,,,,,,,,,,,,,,,87,,,,,,,,,,0.03,2,1.614,0,1,1,1,1,Share a homemade dinner with my family on a cozy sunday evening,Stargaze from a rooftop on a cool clear night,0.02,0.03,4.4,0,,,,,
,,66a08dccc5cc029fc23a96a8,6685aa9113c938e83b4f1ea0,66fe3d45d41b83b4305fce21,2024-10-03_02h19.32.093,WTP_SM_Choice,2022.2.1,Win32,59.95203837,,,,,,,,,,,,,,,,,,88,,,,,,,,,,0.03,2,1.322,0,2,2,2,1,Solve logic puzzles on my couch with a cup of tea in hand,Play board games with my coworkers at the office after work on friday evenings,0.03,0.03,1.1,1,,,,,
,,66a08dccc5cc029fc23a96a8,6685aa9113c938e83b4f1ea0,66fe3d45d41b83b4305fce21,2024-10-03_02h19.32.093,WTP_SM_Choice,2022.2.1,Win32,59.95203837,,,,,,,,,,,,,,,,,,89,,,,,,,,,,0.03,2,2.106,0,3,3,3,1,Watch historical documentaries late at night with dim lighting,Attend live concerts with my partner on warm summer nights,0.04,0.03,3.3,1,,,,,
,,66a08dccc5cc029fc23a96a8,6685aa9113c938e83b4f1ea0,66fe3d45d41b83b4305fce21,2024-10-03_02h19.32.093,WTP_SM_Choice,2022.2.1,Win32,59.95203837,,,,,,,,,,,,,,,,,,90,,,,,,,,,,0.05,1,1.371,0,4,4,4,1,Write poetry while sitting by a window during a thunderstorm,Attend live concerts with my partner on warm summer nights,0.05,0.03,8.8,1,,,,,
,,66a08dccc5cc029fc23a96a8,6685aa9113c938e83b4f1ea0,66fe3d45d41b83b4305fce21,2024-10-03_02h19.32.093,WTP_SM_Choice,2022.2.1,Win32,59.95203837,,,,,,,NAN,,NAN,3.08,2.92,,0,89,89,89,1,90,Charlie,Rej,Participant_Images/66a08dccc5cc029fc23a96a8/66a08dccc5cc029fc23a96a8_Images/66a08dccc5cc029fc23a96a8_Image_20.jpeg,did not like,1.661473164,,,,,,,,,,,,,,,,,,,,,,,
,,66a08dccc5cc029fc23a96a8,6685aa9113c938e83b4f1ea0,66fe3d45d41b83b4305fce21,2024-10-03_02h19.32.093,WTP_SM_Choice,2022.2.1,Win32,59.95203837,,,,,space,12.824,NAN,,NAN,3.08,2.92,,0,90,90,90,1,91,Charlie,Rej,Participant_Images/66a08dccc5cc029fc23a96a8/66a08dccc5cc029fc23a96a8_Images/66a08dccc5cc029fc23a96a8_Image_19.jpeg,did not like,3.613205605,,,,,,,,,,,,,,,,,,,,,,,
,,66a08dccc5cc029fc23a96a8,6685aa9113c938e83b4f1ea0,66fe3d45d41b83b4305fce21,2024-10-03_02h19.32.093,WTP_SM_Choice,2022.2.1,Win32,59.95203837,,,,,space,0.84,NAN,,NAN,3.08,2.92,,0,91,91,91,1,92,Charlie,Rej,Participant_Images/66a08dccc5cc029fc23a96a8/66a08dccc5cc029fc23a96a8_Images/66a08dccc5cc029fc23a96a8_Image_24.jpeg,liked,4.988446431,,,,,,,,,,,,,,,,,,,,,,,
,,66a08dccc5cc029fc23a96a8,6685aa9113c938e83b4f1ea0,66fe3d45d41b83b4305fce21,2024-10-03_02h19.32.093,WTP_SM_Choice,2022.2.1,Win32,59.95203837,,,,,space,1.476,NAN,,NAN,3.08,2.92,,0,92,92,92,1,93,Charlie,Rej,Participant_Images/66a08dccc5cc029fc23a96a8/66a08dccc5cc029fc23a96a8_Images/66a08dccc5cc029fc23a96a8_Image_13.jpeg,liked,3.470791822,,,,,,,,,,,,,,,,,,,,,,,
,,66a08dccc5cc029fc23a96a8,6685aa9113c938e83b4f1ea0,66fe3d45d41b83b4305fce21,2024-10-03_02h19.32.093,WTP_SM_Choice,2022.2.1,Win32,59.95203837,,,,,space,31.04,NAN,,NAN,3.08,2.92,,0,93,93,93,1,94,Charlie,Rej,Participant_Images/66a08dccc5cc029fc23a96a8/66a08dccc5cc029fc23a96a8_Images/66a08dccc5cc029fc23a96a8_Image_1.jpeg,did not like,3.820572462,,,,,,,,,,,,,,,,,,,,,,,
,,66a08dccc5cc029fc23a96a8,6685aa9113c938e83b4f1ea0,66fe3d45d41b83b4305fce21,2024-10-03_02h19.32.093,WTP_SM_Choice,2022.2.1,Win32,59.95203837,,,,,,,,,,,,,,,,,,91,,,,,,space,59.243,space,6.025,0.04,2,1.787,0,0,0,0,1,Solve logic puzzles on my couch with a cup of tea in hand,Bake holiday cookies with my cousins in the kitchen during the winter holidays,0.01,0.04,3.3,1,,,,,
,,66a08dccc5cc029fc23a96a8,6685aa9113c938e83b4f1ea0,66fe3d45d41b83b4305fce21,2024-10-03_02h19.32.093,WTP_SM_Choice,2022.2.1,Win32,59.95203837,,,,,,,,,,,,,,,,,,92,,,,,,,,,,0.04,2,0.906,0,1,1,1,1,Watch scifi movies with friends during a movie marathon on a rainy saturday,Listen to classical music while walking through a quiet park in the early morning,0.02,0.04,8.8,0,,,,,
,,66a08dccc5cc029fc23a96a8,6685aa9113c938e83b4f1ea0,66fe3d45d41b83b4305fce21,2024-10-03_02h19.32.093,WTP_SM_Choice,2022.2.1,Win32,59.95203837,,,,,,,,,,,,,,,,,,93,,,,,,,,,,0.04,2,1.125,0,2,2,2,1,Write poetry while sitting by a window during a thunderstorm,Go on weekend road trips to nearby towns with a close group of friends,0.03,0.04,1.1,1,,,,,
,,66a08dccc5cc029fc23a96a8,6685aa9113c938e83b4f1ea0,66fe3d45d41b83b4305fce21,2024-10-03_02h19.32.093,WTP_SM_Choice,2022.2.1,Win32,59.95203837,,,,,,,,,,,,,,,,,,94,,,,,,,,,,,,,0,3,3,3,1,Share a homemade dinner with my family on a cozy sunday evening,Organize my digital files and folders while sitting at my desk with calming music playing,0.04,0.04,4.4,0,,,,,
,,66a08dccc5cc029fc23a96a8,6685aa9113c938e83b4f1ea0,66fe3d45d41b83b4305fce21,2024-10-03_02h19.32.093,WTP_SM_Choice,2022.2.1,Win32,59.95203837,,,,,,,,,,,,,,,,,,95,,,,,,,,,,0.05,1,1.72,0,4,4,4,1,Play board games with my coworkers at the office after work on friday evenings,Watch historical documentaries late at night with dim lighting,0.05,0.04,4.4,0,,,,,
,,66a08dccc5cc029fc23a96a8,6685aa9113c938e83b4f1ea0,66fe3d45d41b83b4305fce21,2024-10-03_02h19.32.093,WTP_SM_Choice,2022.2.1,Win32,59.95203837,,,,,,,NAN,,NAN,3.25,2.75,,0,94,94,94,1,95,Charlie,Rej,Participant_Images/66a08dccc5cc029fc23a96a8/66a08dccc5cc029fc23a96a8_Images/66a08dccc5cc029fc23a96a8_Image_11.jpeg,did not like,2.455989137,,,,,,,,,,,,,,,,,,,,,,,
,,66a08dccc5cc029fc23a96a8,6685aa9113c938e83b4f1ea0,66fe3d45d41b83b4305fce21,2024-10-03_02h19.32.093,WTP_SM_Choice,2022.2.1,Win32,59.95203837,,,,,space,42.136,NAN,,NAN,3.25,2.75,,0,95,95,95,1,96,Charlie,Rej,Participant_Images/66a08dccc5cc029fc23a96a8/66a08dccc5cc029fc23a96a8_Images/66a08dccc5cc029fc23a96a8_Image_7.jpeg,liked,3.79605092,,,,,,,,,,,,,,,,,,,,,,,
,,66a08dccc5cc029fc23a96a8,6685aa9113c938e83b4f1ea0,66fe3d45d41b83b4305fce21,2024-10-03_02h19.32.093,WTP_SM_Choice,2022.2.1,Win32,59.95203837,,,,,space,28.854,NAN,,NAN,3.25,2.75,,0,96,96,96,1,97,Charlie,Rej,Participant_Images/66a08dccc5cc029fc23a96a8/66a08dccc5cc029fc23a96a8_Images/66a08dccc5cc029fc23a96a8_Image_18.jpeg,did not like,3.562416326,,,,,,,,,,,,,,,,,,,,,,,
,,66a08dccc5cc029fc23a96a8,6685aa9113c938e83b4f1ea0,66fe3d45d41b83b4305fce21,2024-10-03_02h19.32.093,WTP_SM_Choice,2022.2.1,Win32,59.95203837,,,,,space,37.411,NAN,,NAN,3.25,2.75,,0,97,97,97,1,98,Charlie,Rej,Participant_Images/66a08dccc5cc029fc23a96a8/66a08dccc5cc029fc23a96a8_Images/66a08dccc5cc029fc23a96a8_Image_16.jpeg,did not like,2.843822497,,,,,,,,,,,,,,,,,,,,,,,
,,66a08dccc5cc029fc23a96a8,6685aa9113c938e83b4f1ea0,66fe3d45d41b83b4305fce21,2024-10-03_02h19.32.093,WTP_SM_Choice,2022.2.1,Win32,59.95203837,,,,,space,3.759,NAN,,NAN,3.25,2.75,,0,98,98,98,1,99,Charlie,Rej,Participant_Images/66a08dccc5cc029fc23a96a8/66a08dccc5cc029fc23a96a8_Images/66a08dccc5cc029fc23a96a8_Image_14.jpeg,did not like,3.546495948,,,,,,,,,,,,,,,,,,,,,,,
,,66a08dccc5cc029fc23a96a8,6685aa9113c938e83b4f1ea0,66fe3d45d41b83b4305fce21,2024-10-03_02h19.32.093,WTP_SM_Choice,2022.2.1,Win32,59.95203837,,,,,,,,,,,,,,,,,,96,,,,,,space,0.676,space,5.315,0.05,2,2.095,0,0,0,0,1,Sketch abstract designs in a cozy cafe with a cup of coffee,Have coffee and catching up with an old college friend at a quiet cafe in the afternoon,0.01,0.05,3.3,1,,,,,
,,66a08dccc5cc029fc23a96a8,6685aa9113c938e83b4f1ea0,66fe3d45d41b83b4305fce21,2024-10-03_02h19.32.093,WTP_SM_Choice,2022.2.1,Win32,59.95203837,,,,,,,,,,,,,,,,,,97,,,,,,,,,,0.05,2,4.582,0,1,1,1,1,Watch historical documentaries late at night with dim lighting,Discuss current events with classmates over lunch between classes,0.02,0.05,1.1,1,,,,,
,,66a08dccc5cc029fc23a96a8,6685aa9113c938e83b4f1ea0,66fe3d45d41b83b4305fce21,2024-10-03_02h19.32.093,WTP_SM_Choice,2022.2.1,Win32,59.95203837,,,,,,,,,,,,,,,,,,98,,,,,,,,,,0.05,2,2.023,0,2,2,2,1,Discuss current events with classmates over lunch between classes,Listen to classical music while walking through a quiet park in the early morning,0.03,0.05,1.1,0,,,,,
,,66a08dccc5cc029fc23a96a8,6685aa9113c938e83b4f1ea0,66fe3d45d41b83b4305fce21,2024-10-03_02h19.32.093,WTP_SM_Choice,2022.2.1,Win32,59.95203837,,,,,,,,,,,,,,,,,,99,,,,,,,,,,0.05,2,1.459,0,3,3,3,1,Stargaze from a rooftop on a cool clear night,Discuss current events with classmates over lunch between classes,0.04,0.05,3.3,1,,,,,
,,66a08dccc5cc029fc23a96a8,6685aa9113c938e83b4f1ea0,66fe3d45d41b83b4305fce21,2024-10-03_02h19.32.093,WTP_SM_Choice,2022.2.1,Win32,59.95203837,,,,,,,,,,,,,,,,,,100,,,,,,,,,,0.05,1,5.206,0,4,4,4,1,Meditate at sunrise on a beach with the sound of waves in the background,Bake holiday cookies with my cousins in the kitchen during the winter holidays,0.05,0.05,4.4,1,,,,,
,,66a08dccc5cc029fc23a96a8,6685aa9113c938e83b4f1ea0,66fe3d45d41b83b4305fce21,2024-10-03_02h19.32.093,WTP_SM_Choice,2022.2.1,Win32,59.95203837,,,,,,,NAN,space,4,3.5,2.5,,0,99,99,99,1,100,Charlie,Rej,Participant_Images/66a08dccc5cc029fc23a96a8/66a08dccc5cc029fc23a96a8_Images/66a08dccc5cc029fc23a96a8_Image_5.jpeg,liked,1.672012706,,,,,,,,,,,,,,,,,,,space,2.187,15.712,,
,,66a08dccc5cc029fc23a96a8,6685aa9113c938e83b4f1ea0,66fe3d45d41b83b4305fce21,2024-10-03_02h19.32.093,WTP_SM_Choice,2022.2.1,Win32,59.95203837,,,,,,,,,,,,,,,,,,,,,,,,,,,,,,,,,,,,,,,,,,,,,space,2.852
