endwelcomescreen_keys.keys,endwelcomescreen_keys.rt,participant,STUDY_ID,SESSION_ID,date,expName,psychopyVersion,OS,frameRate,endinstructionscreen_keys.keys,endinstructionscreen_keys.rt,endpartnermatch_keys.keys,endpartnermatch_keys.rt,sharenextphoto_key.keys,sharenextphoto_key.rt,salience_rating,key_resp.keys,stress_level,subtract_bonus,TOTAL_TASK_BONUS,stresslevel_keypress.keys,entiretaskloop.thisRepN,entiretaskloop.thisTrialN,entiretaskloop.thisN,entiretaskloop.thisIndex,entiretaskloop.ran,TrialNumber,Partner,Condition,Photos,Feedback,FeedbackWait,WTP_ins_keys1.keys,WTP_ins_keys1.rt,WTP_ins_keys2.keys,WTP_ins_keys2.rt,decision_price,responses.keys,responses.rt,WTPTaskLoop.thisRepN,WTPTaskLoop.thisTrialN,WTPTaskLoop.thisN,WTPTaskLoop.thisIndex,WTPTaskLoop.ran,right,left,leftmoney,rightmoney,WTP_ITI,social_left,Resume_keys.keys,Resume_keys.rt,end_screen_keys.keys,end_screen_keys.rt
space,4.4906,66a049748b57caf868c3179d,6685aa9113c938e83b4f1ea0,6700816763e983ad83c026fe,2024-10-04_20h07.21.567,WTP_SM_Choice,2022.2.1,MacIntel,59.97720866,,,,,,,,,,,,,,,,,,,,,,,,,,,,,,,,,,,,,,,,,,,,,
,,66a049748b57caf868c3179d,6685aa9113c938e83b4f1ea0,6700816763e983ad83c026fe,2024-10-04_20h07.21.567,WTP_SM_Choice,2022.2.1,MacIntel,59.97720866,space,18.2794,,,,,,,,,,,,,,,,,,,,,,,,,,,,,,,,,,,,,,,,,,,
,,66a049748b57caf868c3179d,6685aa9113c938e83b4f1ea0,6700816763e983ad83c026fe,2024-10-04_20h07.21.567,WTP_SM_Choice,2022.2.1,MacIntel,59.97720866,,,space,1.931,space,6.5666,NAN,,NAN,0,6,,0,0,0,0,1,1,Charlie,Rej,Participant_Images/66a049748b57caf868c3179d/66a049748b57caf868c3179d_Images/66a049748b57caf868c3179d_Image_18.jpeg,did not like,3.613205605,,,,,,,,,,,,,,,,,,,,,,
,,66a049748b57caf868c3179d,6685aa9113c938e83b4f1ea0,6700816763e983ad83c026fe,2024-10-04_20h07.21.567,WTP_SM_Choice,2022.2.1,MacIntel,59.97720866,,,,,space,5.4692,NAN,,NAN,0,6,,0,1,1,1,1,2,Charlie,Rej,Participant_Images/66a049748b57caf868c3179d/66a049748b57caf868c3179d_Images/66a049748b57caf868c3179d_Image_19.jpeg,liked,4.988446431,,,,,,,,,,,,,,,,,,,,,,
,,66a049748b57caf868c3179d,6685aa9113c938e83b4f1ea0,6700816763e983ad83c026fe,2024-10-04_20h07.21.567,WTP_SM_Choice,2022.2.1,MacIntel,59.97720866,,,,,space,5.2223,NAN,,NAN,0,6,,0,2,2,2,1,3,Charlie,Rej,Participant_Images/66a049748b57caf868c3179d/66a049748b57caf868c3179d_Images/66a049748b57caf868c3179d_Image_3.jpeg,liked,3.470791822,,,,,,,,,,,,,,,,,,,,,,
,,66a049748b57caf868c3179d,6685aa9113c938e83b4f1ea0,6700816763e983ad83c026fe,2024-10-04_20h07.21.567,WTP_SM_Choice,2022.2.1,MacIntel,59.97720866,,,,,space,0.903,NAN,,NAN,0,6,,0,3,3,3,1,4,Charlie,Rej,Participant_Images/66a049748b57caf868c3179d/66a049748b57caf868c3179d_Images/66a049748b57caf868c3179d_Image_9.jpeg,did not like,3.820572462,,,,,,,,,,,,,,,,,,,,,,
,,66a049748b57caf868c3179d,6685aa9113c938e83b4f1ea0,6700816763e983ad83c026fe,2024-10-04_20h07.21.567,WTP_SM_Choice,2022.2.1,MacIntel,59.97720866,,,,,,,,,,,,,,,,,,1,,,,,,space,11.2376,space,17.6611,0.01,1,2.2014,0,0,0,0,1,Go to the farm with my friends,watch ducks float by sitting on a comfy bench,0.01,0.01,4.4,0,,,,
,,66a049748b57caf868c3179d,6685aa9113c938e83b4f1ea0,6700816763e983ad83c026fe,2024-10-04_20h07.21.567,WTP_SM_Choice,2022.2.1,MacIntel,59.97720866,,,,,,,,,,,,,,,,,,2,,,,,,,,,,0.01,2,4.8795,0,1,1,1,1,Crochet cute toys for charity in a comfy chair,Play piano for my sister and friend,0.02,0.01,8.8,1,,,,
,,66a049748b57caf868c3179d,6685aa9113c938e83b4f1ea0,6700816763e983ad83c026fe,2024-10-04_20h07.21.567,WTP_SM_Choice,2022.2.1,MacIntel,59.97720866,,,,,,,,,,,,,,,,,,3,,,,,,,,,,0.01,2,4.7677,0,2,2,2,1,Crochet with my boyfriend on a weekend,Crochet cute toys for charity in a comfy chair,0.03,0.01,3.3,0,,,,
,,66a049748b57caf868c3179d,6685aa9113c938e83b4f1ea0,6700816763e983ad83c026fe,2024-10-04_20h07.21.567,WTP_SM_Choice,2022.2.1,MacIntel,59.97720866,,,,,,,,,,,,,,,,,,4,,,,,,,,,,0.04,1,2.5953,0,3,3,3,1,Make origami in the living room,See a nature documentary with my family,0.04,0.01,1.1,1,,,,
,,66a049748b57caf868c3179d,6685aa9113c938e83b4f1ea0,6700816763e983ad83c026fe,2024-10-04_20h07.21.567,WTP_SM_Choice,2022.2.1,MacIntel,59.97720866,,,,,,,,,,,,,,,,,,5,,,,,,,,,,0.05,1,3.7707,0,4,4,4,1,Crochet with my boyfriend on a weekend,Paint art on my ipad lying on the bed,0.05,0.01,1.1,0,,,,
,,66a049748b57caf868c3179d,6685aa9113c938e83b4f1ea0,6700816763e983ad83c026fe,2024-10-04_20h07.21.567,WTP_SM_Choice,2022.2.1,MacIntel,59.97720866,,,,,,,NAN,,NAN,0.12,5.88,,0,4,4,4,1,5,Charlie,Rej,Participant_Images/66a049748b57caf868c3179d/66a049748b57caf868c3179d_Images/66a049748b57caf868c3179d_Image_6.jpeg,did not like,2.455989137,,,,,,,,,,,,,,,,,,,,,,
,,66a049748b57caf868c3179d,6685aa9113c938e83b4f1ea0,6700816763e983ad83c026fe,2024-10-04_20h07.21.567,WTP_SM_Choice,2022.2.1,MacIntel,59.97720866,,,,,space,2.2692,NAN,,NAN,0.12,5.88,,0,5,5,5,1,6,Charlie,Rej,Participant_Images/66a049748b57caf868c3179d/66a049748b57caf868c3179d_Images/66a049748b57caf868c3179d_Image_22.jpeg,liked,3.79605092,,,,,,,,,,,,,,,,,,,,,,
,,66a049748b57caf868c3179d,6685aa9113c938e83b4f1ea0,6700816763e983ad83c026fe,2024-10-04_20h07.21.567,WTP_SM_Choice,2022.2.1,MacIntel,59.97720866,,,,,space,5.721,NAN,,NAN,0.12,5.88,,0,6,6,6,1,7,Charlie,Rej,Participant_Images/66a049748b57caf868c3179d/66a049748b57caf868c3179d_Images/66a049748b57caf868c3179d_Image_21.jpeg,liked,3.562416326,,,,,,,,,,,,,,,,,,,,,,
,,66a049748b57caf868c3179d,6685aa9113c938e83b4f1ea0,6700816763e983ad83c026fe,2024-10-04_20h07.21.567,WTP_SM_Choice,2022.2.1,MacIntel,59.97720866,,,,,space,2.8054,NAN,,NAN,0.12,5.88,,0,7,7,7,1,8,Charlie,Rej,Participant_Images/66a049748b57caf868c3179d/66a049748b57caf868c3179d_Images/66a049748b57caf868c3179d_Image_24.jpeg,liked,2.843822497,,,,,,,,,,,,,,,,,,,,,,
,,66a049748b57caf868c3179d,6685aa9113c938e83b4f1ea0,6700816763e983ad83c026fe,2024-10-04_20h07.21.567,WTP_SM_Choice,2022.2.1,MacIntel,59.97720866,,,,,space,1.0511,NAN,,NAN,0.12,5.88,,0,8,8,8,1,9,Charlie,Rej,Participant_Images/66a049748b57caf868c3179d/66a049748b57caf868c3179d_Images/66a049748b57caf868c3179d_Image_11.jpeg,did not like,3.546495948,,,,,,,,,,,,,,,,,,,,,,
,,66a049748b57caf868c3179d,6685aa9113c938e83b4f1ea0,6700816763e983ad83c026fe,2024-10-04_20h07.21.567,WTP_SM_Choice,2022.2.1,MacIntel,59.97720866,,,,,,,,,,,,,,,,,,6,,,,,,space,4.9023,space,3.8688,0.02,2,3.421,0,0,0,0,1,watch funny comedy with sister and friends,Make origami in the living room,0.01,0.02,3.3,0,,,,
,,66a049748b57caf868c3179d,6685aa9113c938e83b4f1ea0,6700816763e983ad83c026fe,2024-10-04_20h07.21.567,WTP_SM_Choice,2022.2.1,MacIntel,59.97720866,,,,,,,,,,,,,,,,,,7,,,,,,,,,,0.02,1,3.6277,0,1,1,1,1,Go sightseeing on the water,Go out to nature with my mom,0.02,0.02,1.1,1,,,,
,,66a049748b57caf868c3179d,6685aa9113c938e83b4f1ea0,6700816763e983ad83c026fe,2024-10-04_20h07.21.567,WTP_SM_Choice,2022.2.1,MacIntel,59.97720866,,,,,,,,,,,,,,,,,,8,,,,,,,,,,0.02,2,5.4587,0,2,2,2,1,Paint art on my ipad lying on the bed,get starbucks with sister,0.03,0.02,1.1,1,,,,
,,66a049748b57caf868c3179d,6685aa9113c938e83b4f1ea0,6700816763e983ad83c026fe,2024-10-04_20h07.21.567,WTP_SM_Choice,2022.2.1,MacIntel,59.97720866,,,,,,,,,,,,,,,,,,9,,,,,,,,,,0.02,2,6.3613,0,3,3,3,1,Go to the farm with my friends,Make origami in the living room,0.04,0.02,4.4,0,,,,
,,66a049748b57caf868c3179d,6685aa9113c938e83b4f1ea0,6700816763e983ad83c026fe,2024-10-04_20h07.21.567,WTP_SM_Choice,2022.2.1,MacIntel,59.97720866,,,,,,,,,,,,,,,,,,10,,,,,,,,,,0.05,1,5.0903,0,4,4,4,1,See a nature documentary with my family,Play with puppies in the park on the grass,0.05,0.02,1.1,0,,,,
,,66a049748b57caf868c3179d,6685aa9113c938e83b4f1ea0,6700816763e983ad83c026fe,2024-10-04_20h07.21.567,WTP_SM_Choice,2022.2.1,MacIntel,59.97720866,,,,,,,NAN,,NAN,0.25,5.75,,0,9,9,9,1,10,Charlie,Rej,Participant_Images/66a049748b57caf868c3179d/66a049748b57caf868c3179d_Images/66a049748b57caf868c3179d_Image_13.jpeg,did not like,1.672012706,,,,,,,,,,,,,,,,,,,,,,
,,66a049748b57caf868c3179d,6685aa9113c938e83b4f1ea0,6700816763e983ad83c026fe,2024-10-04_20h07.21.567,WTP_SM_Choice,2022.2.1,MacIntel,59.97720866,,,,,space,1.7364,NAN,,NAN,0.25,5.75,,0,10,10,10,1,11,Charlie,Rej,Participant_Images/66a049748b57caf868c3179d/66a049748b57caf868c3179d_Images/66a049748b57caf868c3179d_Image_4.jpeg,liked,4.942172136,,,,,,,,,,,,,,,,,,,,,,
,,66a049748b57caf868c3179d,6685aa9113c938e83b4f1ea0,6700816763e983ad83c026fe,2024-10-04_20h07.21.567,WTP_SM_Choice,2022.2.1,MacIntel,59.97720866,,,,,space,2.6488,NAN,,NAN,0.25,5.75,,0,11,11,11,1,12,Charlie,Rej,Participant_Images/66a049748b57caf868c3179d/66a049748b57caf868c3179d_Images/66a049748b57caf868c3179d_Image_20.jpeg,did not like,2.50187214,,,,,,,,,,,,,,,,,,,,,,
,,66a049748b57caf868c3179d,6685aa9113c938e83b4f1ea0,6700816763e983ad83c026fe,2024-10-04_20h07.21.567,WTP_SM_Choice,2022.2.1,MacIntel,59.97720866,,,,,space,6.6043,NAN,,NAN,0.25,5.75,,0,12,12,12,1,13,Charlie,Rej,Participant_Images/66a049748b57caf868c3179d/66a049748b57caf868c3179d_Images/66a049748b57caf868c3179d_Image_1.jpeg,did not like,2.071164779,,,,,,,,,,,,,,,,,,,,,,
,,66a049748b57caf868c3179d,6685aa9113c938e83b4f1ea0,6700816763e983ad83c026fe,2024-10-04_20h07.21.567,WTP_SM_Choice,2022.2.1,MacIntel,59.97720866,,,,,space,4.8028,NAN,,NAN,0.25,5.75,,0,13,13,13,1,14,Charlie,Rej,Participant_Images/66a049748b57caf868c3179d/66a049748b57caf868c3179d_Images/66a049748b57caf868c3179d_Image_12.jpeg,did not like,5.336503566,,,,,,,,,,,,,,,,,,,,,,
,,66a049748b57caf868c3179d,6685aa9113c938e83b4f1ea0,6700816763e983ad83c026fe,2024-10-04_20h07.21.567,WTP_SM_Choice,2022.2.1,MacIntel,59.97720866,,,,,,,,,,,,,,,,,,11,,,,,,space,2.8998,space,1.3342,0.01,1,3.1363,0,0,0,0,1,Crochet cute toys for charity in a comfy chair,See a nature documentary with my family,0.01,0.03,3.3,1,,,,
,,66a049748b57caf868c3179d,6685aa9113c938e83b4f1ea0,6700816763e983ad83c026fe,2024-10-04_20h07.21.567,WTP_SM_Choice,2022.2.1,MacIntel,59.97720866,,,,,,,,,,,,,,,,,,12,,,,,,,,,,0.02,1,8.6551,0,1,1,1,1,Drink maxim white gold coffee while working,watch funny comedy with sister and friends,0.02,0.03,4.4,1,,,,
,,66a049748b57caf868c3179d,6685aa9113c938e83b4f1ea0,6700816763e983ad83c026fe,2024-10-04_20h07.21.567,WTP_SM_Choice,2022.2.1,MacIntel,59.97720866,,,,,,,,,,,,,,,,,,13,,,,,,,,,,0.03,1,5.5106,0,2,2,2,1,watch funny comedy with sister and friends,Play with puppies in the park on the grass,0.03,0.03,1.1,0,,,,
,,66a049748b57caf868c3179d,6685aa9113c938e83b4f1ea0,6700816763e983ad83c026fe,2024-10-04_20h07.21.567,WTP_SM_Choice,2022.2.1,MacIntel,59.97720866,,,,,,,,,,,,,,,,,,14,,,,,,,,,,0.04,1,7.2255,0,3,3,3,1,Drink maxim white gold coffee while working,Go out to nature with my mom,0.04,0.03,3.3,1,,,,
,,66a049748b57caf868c3179d,6685aa9113c938e83b4f1ea0,6700816763e983ad83c026fe,2024-10-04_20h07.21.567,WTP_SM_Choice,2022.2.1,MacIntel,59.97720866,,,,,,,,,,,,,,,,,,15,,,,,,,,,,,,,0,4,4,4,1,Drink maxim white gold coffee while working,See a nature documentary with my family,0.05,0.03,4.4,1,,,,
,,66a049748b57caf868c3179d,6685aa9113c938e83b4f1ea0,6700816763e983ad83c026fe,2024-10-04_20h07.21.567,WTP_SM_Choice,2022.2.1,MacIntel,59.97720866,,,,,,,NAN,,NAN,0.35,5.65,,0,14,14,14,1,15,Charlie,Rej,Participant_Images/66a049748b57caf868c3179d/66a049748b57caf868c3179d_Images/66a049748b57caf868c3179d_Image_8.jpeg,did not like,2.642157193,,,,,,,,,,,,,,,,,,,,,,
,,66a049748b57caf868c3179d,6685aa9113c938e83b4f1ea0,6700816763e983ad83c026fe,2024-10-04_20h07.21.567,WTP_SM_Choice,2022.2.1,MacIntel,59.97720866,,,,,space,54.3891,NAN,,NAN,0.35,5.65,,0,15,15,15,1,16,Charlie,Rej,Participant_Images/66a049748b57caf868c3179d/66a049748b57caf868c3179d_Images/66a049748b57caf868c3179d_Image_25.jpeg,liked,4.456234322,,,,,,,,,,,,,,,,,,,,,,
,,66a049748b57caf868c3179d,6685aa9113c938e83b4f1ea0,6700816763e983ad83c026fe,2024-10-04_20h07.21.567,WTP_SM_Choice,2022.2.1,MacIntel,59.97720866,,,,,space,2.4684,NAN,,NAN,0.35,5.65,,0,16,16,16,1,17,Charlie,Rej,Participant_Images/66a049748b57caf868c3179d/66a049748b57caf868c3179d_Images/66a049748b57caf868c3179d_Image_15.jpeg,did not like,4.438512181,,,,,,,,,,,,,,,,,,,,,,
,,66a049748b57caf868c3179d,6685aa9113c938e83b4f1ea0,6700816763e983ad83c026fe,2024-10-04_20h07.21.567,WTP_SM_Choice,2022.2.1,MacIntel,59.97720866,,,,,space,1.5173,NAN,,NAN,0.35,5.65,,0,17,17,17,1,18,Charlie,Rej,Participant_Images/66a049748b57caf868c3179d/66a049748b57caf868c3179d_Images/66a049748b57caf868c3179d_Image_16.jpeg,did not like,2.682944783,,,,,,,,,,,,,,,,,,,,,,
,,66a049748b57caf868c3179d,6685aa9113c938e83b4f1ea0,6700816763e983ad83c026fe,2024-10-04_20h07.21.567,WTP_SM_Choice,2022.2.1,MacIntel,59.97720866,,,,,space,4.4036,NAN,,NAN,0.35,5.65,,0,18,18,18,1,19,Charlie,Rej,Participant_Images/66a049748b57caf868c3179d/66a049748b57caf868c3179d_Images/66a049748b57caf868c3179d_Image_23.jpeg,did not like,4.51984296,,,,,,,,,,,,,,,,,,,,,,
,,66a049748b57caf868c3179d,6685aa9113c938e83b4f1ea0,6700816763e983ad83c026fe,2024-10-04_20h07.21.567,WTP_SM_Choice,2022.2.1,MacIntel,59.97720866,,,,,,,,,,,,,,,,,,16,,,,,,space,2.0999,space,0.9182,0.04,2,2.501,0,0,0,0,1,Petsit my friends dogs,Go to the movies with my best friends,0.01,0.04,1.1,1,,,,
,,66a049748b57caf868c3179d,6685aa9113c938e83b4f1ea0,6700816763e983ad83c026fe,2024-10-04_20h07.21.567,WTP_SM_Choice,2022.2.1,MacIntel,59.97720866,,,,,,,,,,,,,,,,,,17,,,,,,,,,,,,,0,1,1,1,1,Crochet cute toys for charity in a comfy chair,Catch fireflies with friends,0.02,0.04,8.8,1,,,,
,,66a049748b57caf868c3179d,6685aa9113c938e83b4f1ea0,6700816763e983ad83c026fe,2024-10-04_20h07.21.567,WTP_SM_Choice,2022.2.1,MacIntel,59.97720866,,,,,,,,,,,,,,,,,,18,,,,,,,,,,0.04,2,3.2896,0,2,2,2,1,Catch fireflies with friends,Paint art on my ipad lying on the bed,0.03,0.04,3.3,0,,,,
,,66a049748b57caf868c3179d,6685aa9113c938e83b4f1ea0,6700816763e983ad83c026fe,2024-10-04_20h07.21.567,WTP_SM_Choice,2022.2.1,MacIntel,59.97720866,,,,,,,,,,,,,,,,,,19,,,,,,,,,,0.04,2,2.9704,0,3,3,3,1,Play with puppies in the park on the grass,get starbucks with sister,0.04,0.04,3.3,1,,,,
,,66a049748b57caf868c3179d,6685aa9113c938e83b4f1ea0,6700816763e983ad83c026fe,2024-10-04_20h07.21.567,WTP_SM_Choice,2022.2.1,MacIntel,59.97720866,,,,,,,,,,,,,,,,,,20,,,,,,,,,,0.05,1,2.5538,0,4,4,4,1,Crochet with my boyfriend on a weekend,Make origami in the living room,0.05,0.04,1.1,0,,,,
,,66a049748b57caf868c3179d,6685aa9113c938e83b4f1ea0,6700816763e983ad83c026fe,2024-10-04_20h07.21.567,WTP_SM_Choice,2022.2.1,MacIntel,59.97720866,,,,,,,NAN,,NAN,0.52,5.48,,0,19,19,19,1,20,Charlie,Rej,Participant_Images/66a049748b57caf868c3179d/66a049748b57caf868c3179d_Images/66a049748b57caf868c3179d_Image_5.jpeg,did not like,3.195382774,,,,,,,,,,,,,,,,,,,,,,
,,66a049748b57caf868c3179d,6685aa9113c938e83b4f1ea0,6700816763e983ad83c026fe,2024-10-04_20h07.21.567,WTP_SM_Choice,2022.2.1,MacIntel,59.97720866,,,,,space,1.8499,NAN,,NAN,0.52,5.48,,0,20,20,20,1,21,Charlie,Rej,Participant_Images/66a049748b57caf868c3179d/66a049748b57caf868c3179d_Images/66a049748b57caf868c3179d_Image_10.jpeg,did not like,1.779333479,,,,,,,,,,,,,,,,,,,,,,
,,66a049748b57caf868c3179d,6685aa9113c938e83b4f1ea0,6700816763e983ad83c026fe,2024-10-04_20h07.21.567,WTP_SM_Choice,2022.2.1,MacIntel,59.97720866,,,,,space,1.7353,NAN,,NAN,0.52,5.48,,0,21,21,21,1,22,Charlie,Rej,Participant_Images/66a049748b57caf868c3179d/66a049748b57caf868c3179d_Images/66a049748b57caf868c3179d_Image_2.jpeg,did not like,4.312468682,,,,,,,,,,,,,,,,,,,,,,
,,66a049748b57caf868c3179d,6685aa9113c938e83b4f1ea0,6700816763e983ad83c026fe,2024-10-04_20h07.21.567,WTP_SM_Choice,2022.2.1,MacIntel,59.97720866,,,,,space,2.0168,NAN,,NAN,0.52,5.48,,0,22,22,22,1,23,Charlie,Rej,Participant_Images/66a049748b57caf868c3179d/66a049748b57caf868c3179d_Images/66a049748b57caf868c3179d_Image_7.jpeg,did not like,4.940433059,,,,,,,,,,,,,,,,,,,,,,
,,66a049748b57caf868c3179d,6685aa9113c938e83b4f1ea0,6700816763e983ad83c026fe,2024-10-04_20h07.21.567,WTP_SM_Choice,2022.2.1,MacIntel,59.97720866,,,,,space,1.4356,NAN,,NAN,0.52,5.48,,0,23,23,23,1,24,Charlie,Rej,Participant_Images/66a049748b57caf868c3179d/66a049748b57caf868c3179d_Images/66a049748b57caf868c3179d_Image_17.jpeg,did not like,2.7105123,,,,,,,,,,,,,,,,,,,,,,
,,66a049748b57caf868c3179d,6685aa9113c938e83b4f1ea0,6700816763e983ad83c026fe,2024-10-04_20h07.21.567,WTP_SM_Choice,2022.2.1,MacIntel,59.97720866,,,,,,,,,,,,,,,,,,21,,,,,,space,2.0341,space,15.7022,0.05,2,2.0989,0,0,0,0,1,Play with puppies in the park on the grass,Crochet with my boyfriend on a weekend,0.01,0.05,8.8,1,,,,
,,66a049748b57caf868c3179d,6685aa9113c938e83b4f1ea0,6700816763e983ad83c026fe,2024-10-04_20h07.21.567,WTP_SM_Choice,2022.2.1,MacIntel,59.97720866,,,,,,,,,,,,,,,,,,22,,,,,,,,,,0.05,2,2.0861,0,1,1,1,1,get starbucks with sister,Make origami in the living room,0.02,0.05,4.4,0,,,,
,,66a049748b57caf868c3179d,6685aa9113c938e83b4f1ea0,6700816763e983ad83c026fe,2024-10-04_20h07.21.567,WTP_SM_Choice,2022.2.1,MacIntel,59.97720866,,,,,,,,,,,,,,,,,,23,,,,,,,,,,0.03,1,5.037,0,2,2,2,1,Catch fireflies with friends,Petsit my friends dogs,0.03,0.05,1.1,0,,,,
,,66a049748b57caf868c3179d,6685aa9113c938e83b4f1ea0,6700816763e983ad83c026fe,2024-10-04_20h07.21.567,WTP_SM_Choice,2022.2.1,MacIntel,59.97720866,,,,,,,,,,,,,,,,,,24,,,,,,,,,,0.04,1,5.1534,0,3,3,3,1,Go out to nature with my mom,Crochet cute toys for charity in a comfy chair,0.04,0.05,4.4,0,,,,
,,66a049748b57caf868c3179d,6685aa9113c938e83b4f1ea0,6700816763e983ad83c026fe,2024-10-04_20h07.21.567,WTP_SM_Choice,2022.2.1,MacIntel,59.97720866,,,,,,,,,,,,,,,,,,25,,,,,,,,,,0.05,2,5.0029,0,4,4,4,1,Play with puppies in the park on the grass,Go to the farm with my friends,0.05,0.05,3.3,1,,,,
,,66a049748b57caf868c3179d,6685aa9113c938e83b4f1ea0,6700816763e983ad83c026fe,2024-10-04_20h07.21.567,WTP_SM_Choice,2022.2.1,MacIntel,59.97720866,,,,,,,1,,3,0.74,5.26,,0,24,24,24,1,25,Charlie,Rej,Participant_Images/66a049748b57caf868c3179d/66a049748b57caf868c3179d_Images/66a049748b57caf868c3179d_Image_14.jpeg,did not like,3.602308302,,,,,,,,,,,,,,,,,,,space,2.7627,,
,,66a049748b57caf868c3179d,6685aa9113c938e83b4f1ea0,6700816763e983ad83c026fe,2024-10-04_20h07.21.567,WTP_SM_Choice,2022.2.1,MacIntel,59.97720866,,,space,2.0134,space,1.082,NAN,,NAN,0.74,5.26,,0,25,25,25,1,26,Sam,Acc,Participant_Images/66a049748b57caf868c3179d/66a049748b57caf868c3179d_Images/66a049748b57caf868c3179d_Image_14.jpeg,liked,4.106391878,,,,,,,,,,,,,,,,,,,,,,
,,66a049748b57caf868c3179d,6685aa9113c938e83b4f1ea0,6700816763e983ad83c026fe,2024-10-04_20h07.21.567,WTP_SM_Choice,2022.2.1,MacIntel,59.97720866,,,,,space,0.7844,NAN,,NAN,0.74,5.26,,0,26,26,26,1,27,Sam,Acc,Participant_Images/66a049748b57caf868c3179d/66a049748b57caf868c3179d_Images/66a049748b57caf868c3179d_Image_2.jpeg,did not like,3.799433026,,,,,,,,,,,,,,,,,,,,,,
,,66a049748b57caf868c3179d,6685aa9113c938e83b4f1ea0,6700816763e983ad83c026fe,2024-10-04_20h07.21.567,WTP_SM_Choice,2022.2.1,MacIntel,59.97720866,,,,,space,1.8021,NAN,,NAN,0.74,5.26,,0,27,27,27,1,28,Sam,Acc,Participant_Images/66a049748b57caf868c3179d/66a049748b57caf868c3179d_Images/66a049748b57caf868c3179d_Image_10.jpeg,liked,5.246980764,,,,,,,,,,,,,,,,,,,,,,
,,66a049748b57caf868c3179d,6685aa9113c938e83b4f1ea0,6700816763e983ad83c026fe,2024-10-04_20h07.21.567,WTP_SM_Choice,2022.2.1,MacIntel,59.97720866,,,,,space,1.5684,NAN,,NAN,0.74,5.26,,0,28,28,28,1,29,Sam,Acc,Participant_Images/66a049748b57caf868c3179d/66a049748b57caf868c3179d_Images/66a049748b57caf868c3179d_Image_24.jpeg,liked,3.30081769,,,,,,,,,,,,,,,,,,,,,,
,,66a049748b57caf868c3179d,6685aa9113c938e83b4f1ea0,6700816763e983ad83c026fe,2024-10-04_20h07.21.567,WTP_SM_Choice,2022.2.1,MacIntel,59.97720866,,,,,,,,,,,,,,,,,,26,,,,,,space,1.8662,space,0.186,0.01,2,1.3814,0,0,0,0,1,Petsit my friends dogs,Go out to nature with my mom,0.01,0.01,4.4,1,,,,
,,66a049748b57caf868c3179d,6685aa9113c938e83b4f1ea0,6700816763e983ad83c026fe,2024-10-04_20h07.21.567,WTP_SM_Choice,2022.2.1,MacIntel,59.97720866,,,,,,,,,,,,,,,,,,27,,,,,,,,,,0.01,2,4.6058,0,1,1,1,1,get starbucks with sister,Drink maxim white gold coffee while working,0.02,0.01,3.3,0,,,,
,,66a049748b57caf868c3179d,6685aa9113c938e83b4f1ea0,6700816763e983ad83c026fe,2024-10-04_20h07.21.567,WTP_SM_Choice,2022.2.1,MacIntel,59.97720866,,,,,,,,,,,,,,,,,,28,,,,,,,,,,0.01,2,3.8421,0,2,2,2,1,Learn sign language daily,Catch fireflies with friends,0.03,0.01,3.3,1,,,,
,,66a049748b57caf868c3179d,6685aa9113c938e83b4f1ea0,6700816763e983ad83c026fe,2024-10-04_20h07.21.567,WTP_SM_Choice,2022.2.1,MacIntel,59.97720866,,,,,,,,,,,,,,,,,,29,,,,,,,,,,,,,0,3,3,3,1,Play games on switch,Paint art on my ipad lying on the bed,0.04,0.01,4.4,0,,,,
,,66a049748b57caf868c3179d,6685aa9113c938e83b4f1ea0,6700816763e983ad83c026fe,2024-10-04_20h07.21.567,WTP_SM_Choice,2022.2.1,MacIntel,59.97720866,,,,,,,,,,,,,,,,,,30,,,,,,,,,,,,,0,4,4,4,1,Paint art on my ipad lying on the bed,Go to the movies with my best friends,0.05,0.01,8.8,1,,,,
,,66a049748b57caf868c3179d,6685aa9113c938e83b4f1ea0,6700816763e983ad83c026fe,2024-10-04_20h07.21.567,WTP_SM_Choice,2022.2.1,MacIntel,59.97720866,,,,,,,NAN,,NAN,0.77,5.23,,0,29,29,29,1,30,Sam,Acc,Participant_Images/66a049748b57caf868c3179d/66a049748b57caf868c3179d_Images/66a049748b57caf868c3179d_Image_3.jpeg,did not like,1.661473164,,,,,,,,,,,,,,,,,,,,,,
,,66a049748b57caf868c3179d,6685aa9113c938e83b4f1ea0,6700816763e983ad83c026fe,2024-10-04_20h07.21.567,WTP_SM_Choice,2022.2.1,MacIntel,59.97720866,,,,,space,1.0674,NAN,,NAN,0.77,5.23,,0,30,30,30,1,31,Sam,Acc,Participant_Images/66a049748b57caf868c3179d/66a049748b57caf868c3179d_Images/66a049748b57caf868c3179d_Image_4.jpeg,liked,3.613205605,,,,,,,,,,,,,,,,,,,,,,
,,66a049748b57caf868c3179d,6685aa9113c938e83b4f1ea0,6700816763e983ad83c026fe,2024-10-04_20h07.21.567,WTP_SM_Choice,2022.2.1,MacIntel,59.97720866,,,,,space,2.4702,NAN,,NAN,0.77,5.23,,0,31,31,31,1,32,Sam,Acc,Participant_Images/66a049748b57caf868c3179d/66a049748b57caf868c3179d_Images/66a049748b57caf868c3179d_Image_8.jpeg,did not like,4.988446431,,,,,,,,,,,,,,,,,,,,,,
,,66a049748b57caf868c3179d,6685aa9113c938e83b4f1ea0,6700816763e983ad83c026fe,2024-10-04_20h07.21.567,WTP_SM_Choice,2022.2.1,MacIntel,59.97720866,,,,,space,1.2211,NAN,,NAN,0.77,5.23,,0,32,32,32,1,33,Sam,Acc,Participant_Images/66a049748b57caf868c3179d/66a049748b57caf868c3179d_Images/66a049748b57caf868c3179d_Image_18.jpeg,liked,3.470791822,,,,,,,,,,,,,,,,,,,,,,
,,66a049748b57caf868c3179d,6685aa9113c938e83b4f1ea0,6700816763e983ad83c026fe,2024-10-04_20h07.21.567,WTP_SM_Choice,2022.2.1,MacIntel,59.97720866,,,,,space,1.1354,NAN,,NAN,0.77,5.23,,0,33,33,33,1,34,Sam,Acc,Participant_Images/66a049748b57caf868c3179d/66a049748b57caf868c3179d_Images/66a049748b57caf868c3179d_Image_19.jpeg,liked,3.820572462,,,,,,,,,,,,,,,,,,,,,,
,,66a049748b57caf868c3179d,6685aa9113c938e83b4f1ea0,6700816763e983ad83c026fe,2024-10-04_20h07.21.567,WTP_SM_Choice,2022.2.1,MacIntel,59.97720866,,,,,,,,,,,,,,,,,,31,,,,,,space,8.167,space,1.2497,0.01,1,2.0793,0,0,0,0,1,Petsit my friends dogs,Go to the farm with my friends,0.01,0.02,8.8,1,,,,
,,66a049748b57caf868c3179d,6685aa9113c938e83b4f1ea0,6700816763e983ad83c026fe,2024-10-04_20h07.21.567,WTP_SM_Choice,2022.2.1,MacIntel,59.97720866,,,,,,,,,,,,,,,,,,32,,,,,,,,,,0.02,2,2.1573,0,1,1,1,1,Watch studio ghibli on a weekend on the couch,get starbucks with sister,0.02,0.02,1.1,1,,,,
,,66a049748b57caf868c3179d,6685aa9113c938e83b4f1ea0,6700816763e983ad83c026fe,2024-10-04_20h07.21.567,WTP_SM_Choice,2022.2.1,MacIntel,59.97720866,,,,,,,,,,,,,,,,,,33,,,,,,,,,,,,,0,2,2,2,1,See a nature documentary with my family,Learn sign language daily,0.03,0.02,4.4,0,,,,
,,66a049748b57caf868c3179d,6685aa9113c938e83b4f1ea0,6700816763e983ad83c026fe,2024-10-04_20h07.21.567,WTP_SM_Choice,2022.2.1,MacIntel,59.97720866,,,,,,,,,,,,,,,,,,34,,,,,,,,,,0.02,2,2.8893,0,3,3,3,1,Watch studio ghibli on a weekend on the couch,Catch fireflies with friends,0.04,0.02,3.3,1,,,,
,,66a049748b57caf868c3179d,6685aa9113c938e83b4f1ea0,6700816763e983ad83c026fe,2024-10-04_20h07.21.567,WTP_SM_Choice,2022.2.1,MacIntel,59.97720866,,,,,,,,,,,,,,,,,,35,,,,,,,,,,0.05,1,4.8577,0,4,4,4,1,Drink maxim white gold coffee while working,Catch fireflies with friends,0.05,0.02,1.1,1,,,,
,,66a049748b57caf868c3179d,6685aa9113c938e83b4f1ea0,6700816763e983ad83c026fe,2024-10-04_20h07.21.567,WTP_SM_Choice,2022.2.1,MacIntel,59.97720866,,,,,,,NAN,,NAN,0.87,5.13,,0,34,34,34,1,35,Sam,Acc,Participant_Images/66a049748b57caf868c3179d/66a049748b57caf868c3179d_Images/66a049748b57caf868c3179d_Image_5.jpeg,did not like,2.455989137,,,,,,,,,,,,,,,,,,,,,,
,,66a049748b57caf868c3179d,6685aa9113c938e83b4f1ea0,6700816763e983ad83c026fe,2024-10-04_20h07.21.567,WTP_SM_Choice,2022.2.1,MacIntel,59.97720866,,,,,space,4.2143,NAN,,NAN,0.87,5.13,,0,35,35,35,1,36,Sam,Acc,Participant_Images/66a049748b57caf868c3179d/66a049748b57caf868c3179d_Images/66a049748b57caf868c3179d_Image_17.jpeg,liked,3.79605092,,,,,,,,,,,,,,,,,,,,,,
,,66a049748b57caf868c3179d,6685aa9113c938e83b4f1ea0,6700816763e983ad83c026fe,2024-10-04_20h07.21.567,WTP_SM_Choice,2022.2.1,MacIntel,59.97720866,,,,,space,6.9875,NAN,,NAN,0.87,5.13,,0,36,36,36,1,37,Sam,Acc,Participant_Images/66a049748b57caf868c3179d/66a049748b57caf868c3179d_Images/66a049748b57caf868c3179d_Image_7.jpeg,liked,3.562416326,,,,,,,,,,,,,,,,,,,,,,
,,66a049748b57caf868c3179d,6685aa9113c938e83b4f1ea0,6700816763e983ad83c026fe,2024-10-04_20h07.21.567,WTP_SM_Choice,2022.2.1,MacIntel,59.97720866,,,,,space,0.5683,NAN,,NAN,0.87,5.13,,0,37,37,37,1,38,Sam,Acc,Participant_Images/66a049748b57caf868c3179d/66a049748b57caf868c3179d_Images/66a049748b57caf868c3179d_Image_22.jpeg,liked,2.843822497,,,,,,,,,,,,,,,,,,,,,,
,,66a049748b57caf868c3179d,6685aa9113c938e83b4f1ea0,6700816763e983ad83c026fe,2024-10-04_20h07.21.567,WTP_SM_Choice,2022.2.1,MacIntel,59.97720866,,,,,space,1.3507,NAN,,NAN,0.87,5.13,,0,38,38,38,1,39,Sam,Acc,Participant_Images/66a049748b57caf868c3179d/66a049748b57caf868c3179d_Images/66a049748b57caf868c3179d_Image_6.jpeg,did not like,3.546495948,,,,,,,,,,,,,,,,,,,,,,
,,66a049748b57caf868c3179d,6685aa9113c938e83b4f1ea0,6700816763e983ad83c026fe,2024-10-04_20h07.21.567,WTP_SM_Choice,2022.2.1,MacIntel,59.97720866,,,,,,,,,,,,,,,,,,36,,,,,,space,93.2209,space,0.5822,0.03,2,1.3506,0,0,0,0,1,Play games on switch,Drink maxim white gold coffee while working,0.01,0.03,3.3,0,,,,
,,66a049748b57caf868c3179d,6685aa9113c938e83b4f1ea0,6700816763e983ad83c026fe,2024-10-04_20h07.21.567,WTP_SM_Choice,2022.2.1,MacIntel,59.97720866,,,,,,,,,,,,,,,,,,37,,,,,,,,,,,,,0,1,1,1,1,watch funny comedy with sister and friends,Learn sign language daily,0.02,0.03,1.1,0,,,,
,,66a049748b57caf868c3179d,6685aa9113c938e83b4f1ea0,6700816763e983ad83c026fe,2024-10-04_20h07.21.567,WTP_SM_Choice,2022.2.1,MacIntel,59.97720866,,,,,,,,,,,,,,,,,,38,,,,,,,,,,,,,0,2,2,2,1,Go sightseeing on the water,watch funny comedy with sister and friends,0.03,0.03,1.1,1,,,,
,,66a049748b57caf868c3179d,6685aa9113c938e83b4f1ea0,6700816763e983ad83c026fe,2024-10-04_20h07.21.567,WTP_SM_Choice,2022.2.1,MacIntel,59.97720866,,,,,,,,,,,,,,,,,,39,,,,,,,,,,,,,0,3,3,3,1,watch ducks float by sitting on a comfy bench,get starbucks with sister,0.04,0.03,3.3,1,,,,
,,66a049748b57caf868c3179d,6685aa9113c938e83b4f1ea0,6700816763e983ad83c026fe,2024-10-04_20h07.21.567,WTP_SM_Choice,2022.2.1,MacIntel,59.97720866,,,,,,,,,,,,,,,,,,40,,,,,,,,,,0.03,2,1.3393,0,4,4,4,1,Watch studio ghibli on a weekend on the couch,Go out to nature with my mom,0.05,0.03,4.4,1,,,,
,,66a049748b57caf868c3179d,6685aa9113c938e83b4f1ea0,6700816763e983ad83c026fe,2024-10-04_20h07.21.567,WTP_SM_Choice,2022.2.1,MacIntel,59.97720866,,,,,,,NAN,,NAN,0.93,5.07,,0,39,39,39,1,40,Sam,Acc,Participant_Images/66a049748b57caf868c3179d/66a049748b57caf868c3179d_Images/66a049748b57caf868c3179d_Image_25.jpeg,did not like,1.672012706,,,,,,,,,,,,,,,,,,,,,,
,,66a049748b57caf868c3179d,6685aa9113c938e83b4f1ea0,6700816763e983ad83c026fe,2024-10-04_20h07.21.567,WTP_SM_Choice,2022.2.1,MacIntel,59.97720866,,,,,space,0.5346,NAN,,NAN,0.93,5.07,,0,40,40,40,1,41,Sam,Acc,Participant_Images/66a049748b57caf868c3179d/66a049748b57caf868c3179d_Images/66a049748b57caf868c3179d_Image_1.jpeg,liked,4.942172136,,,,,,,,,,,,,,,,,,,,,,
,,66a049748b57caf868c3179d,6685aa9113c938e83b4f1ea0,6700816763e983ad83c026fe,2024-10-04_20h07.21.567,WTP_SM_Choice,2022.2.1,MacIntel,59.97720866,,,,,space,3.4027,NAN,,NAN,0.93,5.07,,0,41,41,41,1,42,Sam,Acc,Participant_Images/66a049748b57caf868c3179d/66a049748b57caf868c3179d_Images/66a049748b57caf868c3179d_Image_11.jpeg,liked,2.50187214,,,,,,,,,,,,,,,,,,,,,,
,,66a049748b57caf868c3179d,6685aa9113c938e83b4f1ea0,6700816763e983ad83c026fe,2024-10-04_20h07.21.567,WTP_SM_Choice,2022.2.1,MacIntel,59.97720866,,,,,space,1.1213,NAN,,NAN,0.93,5.07,,0,42,42,42,1,43,Sam,Acc,Participant_Images/66a049748b57caf868c3179d/66a049748b57caf868c3179d_Images/66a049748b57caf868c3179d_Image_21.jpeg,liked,2.071164779,,,,,,,,,,,,,,,,,,,,,,
,,66a049748b57caf868c3179d,6685aa9113c938e83b4f1ea0,6700816763e983ad83c026fe,2024-10-04_20h07.21.567,WTP_SM_Choice,2022.2.1,MacIntel,59.97720866,,,,,space,5.137,NAN,,NAN,0.93,5.07,,0,43,43,43,1,44,Sam,Acc,Participant_Images/66a049748b57caf868c3179d/66a049748b57caf868c3179d_Images/66a049748b57caf868c3179d_Image_20.jpeg,liked,5.336503566,,,,,,,,,,,,,,,,,,,,,,
,,66a049748b57caf868c3179d,6685aa9113c938e83b4f1ea0,6700816763e983ad83c026fe,2024-10-04_20h07.21.567,WTP_SM_Choice,2022.2.1,MacIntel,59.97720866,,,,,,,,,,,,,,,,,,41,,,,,,space,1.3163,space,0.6839,0.04,2,1.8793,0,0,0,0,1,Watch studio ghibli on a weekend on the couch,Play games on switch,0.01,0.04,1.1,1,,,,
,,66a049748b57caf868c3179d,6685aa9113c938e83b4f1ea0,6700816763e983ad83c026fe,2024-10-04_20h07.21.567,WTP_SM_Choice,2022.2.1,MacIntel,59.97720866,,,,,,,,,,,,,,,,,,42,,,,,,,,,,,,,0,1,1,1,1,get starbucks with sister,Go sightseeing on the water,0.02,0.04,3.3,0,,,,
,,66a049748b57caf868c3179d,6685aa9113c938e83b4f1ea0,6700816763e983ad83c026fe,2024-10-04_20h07.21.567,WTP_SM_Choice,2022.2.1,MacIntel,59.97720866,,,,,,,,,,,,,,,,,,43,,,,,,,,,,,,,0,2,2,2,1,Drink maxim white gold coffee while working,Crochet with my boyfriend on a weekend,0.03,0.04,1.1,1,,,,
,,66a049748b57caf868c3179d,6685aa9113c938e83b4f1ea0,6700816763e983ad83c026fe,2024-10-04_20h07.21.567,WTP_SM_Choice,2022.2.1,MacIntel,59.97720866,,,,,,,,,,,,,,,,,,44,,,,,,,,,,0.04,2,1.6026,0,3,3,3,1,Go to the movies with my best friends,Make origami in the living room,0.04,0.04,1.1,0,,,,
,,66a049748b57caf868c3179d,6685aa9113c938e83b4f1ea0,6700816763e983ad83c026fe,2024-10-04_20h07.21.567,WTP_SM_Choice,2022.2.1,MacIntel,59.97720866,,,,,,,,,,,,,,,,,,45,,,,,,,,,,0.04,2,6.1327,0,4,4,4,1,Go to the movies with my best friends,Crochet cute toys for charity in a comfy chair,0.05,0.04,4.4,0,,,,
,,66a049748b57caf868c3179d,6685aa9113c938e83b4f1ea0,6700816763e983ad83c026fe,2024-10-04_20h07.21.567,WTP_SM_Choice,2022.2.1,MacIntel,59.97720866,,,,,,,NAN,,NAN,1.05,4.95,,0,44,44,44,1,45,Sam,Acc,Participant_Images/66a049748b57caf868c3179d/66a049748b57caf868c3179d_Images/66a049748b57caf868c3179d_Image_12.jpeg,liked,2.642157193,,,,,,,,,,,,,,,,,,,,,,
,,66a049748b57caf868c3179d,6685aa9113c938e83b4f1ea0,6700816763e983ad83c026fe,2024-10-04_20h07.21.567,WTP_SM_Choice,2022.2.1,MacIntel,59.97720866,,,,,space,8.638,NAN,,NAN,1.05,4.95,,0,45,45,45,1,46,Sam,Acc,Participant_Images/66a049748b57caf868c3179d/66a049748b57caf868c3179d_Images/66a049748b57caf868c3179d_Image_23.jpeg,liked,4.456234322,,,,,,,,,,,,,,,,,,,,,,
,,66a049748b57caf868c3179d,6685aa9113c938e83b4f1ea0,6700816763e983ad83c026fe,2024-10-04_20h07.21.567,WTP_SM_Choice,2022.2.1,MacIntel,59.97720866,,,,,space,3.5186,NAN,,NAN,1.05,4.95,,0,46,46,46,1,47,Sam,Acc,Participant_Images/66a049748b57caf868c3179d/66a049748b57caf868c3179d_Images/66a049748b57caf868c3179d_Image_15.jpeg,did not like,4.438512181,,,,,,,,,,,,,,,,,,,,,,
,,66a049748b57caf868c3179d,6685aa9113c938e83b4f1ea0,6700816763e983ad83c026fe,2024-10-04_20h07.21.567,WTP_SM_Choice,2022.2.1,MacIntel,59.97720866,,,,,space,0.9315,NAN,,NAN,1.05,4.95,,0,47,47,47,1,48,Sam,Acc,Participant_Images/66a049748b57caf868c3179d/66a049748b57caf868c3179d_Images/66a049748b57caf868c3179d_Image_16.jpeg,liked,2.682944783,,,,,,,,,,,,,,,,,,,,,,
,,66a049748b57caf868c3179d,6685aa9113c938e83b4f1ea0,6700816763e983ad83c026fe,2024-10-04_20h07.21.567,WTP_SM_Choice,2022.2.1,MacIntel,59.97720866,,,,,space,1.6355,NAN,,NAN,1.05,4.95,,0,48,48,48,1,49,Sam,Acc,Participant_Images/66a049748b57caf868c3179d/66a049748b57caf868c3179d_Images/66a049748b57caf868c3179d_Image_9.jpeg,liked,4.51984296,,,,,,,,,,,,,,,,,,,,,,
,,66a049748b57caf868c3179d,6685aa9113c938e83b4f1ea0,6700816763e983ad83c026fe,2024-10-04_20h07.21.567,WTP_SM_Choice,2022.2.1,MacIntel,59.97720866,,,,,,,,,,,,,,,,,,46,,,,,,space,3.4171,space,2.2011,0.05,2,3.4852,0,0,0,0,1,Go out to nature with my mom,Paint art on my ipad lying on the bed,0.01,0.05,8.8,0,,,,
,,66a049748b57caf868c3179d,6685aa9113c938e83b4f1ea0,6700816763e983ad83c026fe,2024-10-04_20h07.21.567,WTP_SM_Choice,2022.2.1,MacIntel,59.97720866,,,,,,,,,,,,,,,,,,47,,,,,,,,,,0.05,2,3.0747,0,1,1,1,1,Petsit my friends dogs,Play games on switch,0.02,0.05,1.1,1,,,,
,,66a049748b57caf868c3179d,6685aa9113c938e83b4f1ea0,6700816763e983ad83c026fe,2024-10-04_20h07.21.567,WTP_SM_Choice,2022.2.1,MacIntel,59.97720866,,,,,,,,,,,,,,,,,,48,,,,,,,,,,0.03,1,4.95,0,2,2,2,1,Go to the movies with my best friends,Go sightseeing on the water,0.03,0.05,4.4,0,,,,
,,66a049748b57caf868c3179d,6685aa9113c938e83b4f1ea0,6700816763e983ad83c026fe,2024-10-04_20h07.21.567,WTP_SM_Choice,2022.2.1,MacIntel,59.97720866,,,,,,,,,,,,,,,,,,49,,,,,,,,,,0.04,1,6.9108,0,3,3,3,1,Go to the movies with my best friends,Play with puppies in the park on the grass,0.04,0.05,3.3,0,,,,
,,66a049748b57caf868c3179d,6685aa9113c938e83b4f1ea0,6700816763e983ad83c026fe,2024-10-04_20h07.21.567,WTP_SM_Choice,2022.2.1,MacIntel,59.97720866,,,,,,,,,,,,,,,,,,50,,,,,,,,,,0.05,2,2.1722,0,4,4,4,1,Play piano for my sister and friend,Drink maxim white gold coffee while working,0.05,0.05,1.1,0,,,,
,,66a049748b57caf868c3179d,6685aa9113c938e83b4f1ea0,6700816763e983ad83c026fe,2024-10-04_20h07.21.567,WTP_SM_Choice,2022.2.1,MacIntel,59.97720866,,,,,,,2,,3,1.27,4.73,,0,49,49,49,1,50,Sam,Acc,Participant_Images/66a049748b57caf868c3179d/66a049748b57caf868c3179d_Images/66a049748b57caf868c3179d_Image_13.jpeg,liked,3.195382774,,,,,,,,,,,,,,,,,,,space,2.651,,
,,66a049748b57caf868c3179d,6685aa9113c938e83b4f1ea0,6700816763e983ad83c026fe,2024-10-04_20h07.21.567,WTP_SM_Choice,2022.2.1,MacIntel,59.97720866,,,space,3.1447,space,1.5051,NAN,,NAN,1.27,4.73,,0,50,50,50,1,51,Alex,Rej,Participant_Images/66a049748b57caf868c3179d/66a049748b57caf868c3179d_Images/66a049748b57caf868c3179d_Image_21.jpeg,did not like,1.779333479,,,,,,,,,,,,,,,,,,,,,,
,,66a049748b57caf868c3179d,6685aa9113c938e83b4f1ea0,6700816763e983ad83c026fe,2024-10-04_20h07.21.567,WTP_SM_Choice,2022.2.1,MacIntel,59.97720866,,,,,space,1.1486,NAN,,NAN,1.27,4.73,,0,51,51,51,1,52,Alex,Rej,Participant_Images/66a049748b57caf868c3179d/66a049748b57caf868c3179d_Images/66a049748b57caf868c3179d_Image_24.jpeg,did not like,4.312468682,,,,,,,,,,,,,,,,,,,,,,
,,66a049748b57caf868c3179d,6685aa9113c938e83b4f1ea0,6700816763e983ad83c026fe,2024-10-04_20h07.21.567,WTP_SM_Choice,2022.2.1,MacIntel,59.97720866,,,,,space,3.8073,NAN,,NAN,1.27,4.73,,0,52,52,52,1,53,Alex,Rej,Participant_Images/66a049748b57caf868c3179d/66a049748b57caf868c3179d_Images/66a049748b57caf868c3179d_Image_17.jpeg,did not like,4.940433059,,,,,,,,,,,,,,,,,,,,,,
,,66a049748b57caf868c3179d,6685aa9113c938e83b4f1ea0,6700816763e983ad83c026fe,2024-10-04_20h07.21.567,WTP_SM_Choice,2022.2.1,MacIntel,59.97720866,,,,,space,1.382,NAN,,NAN,1.27,4.73,,0,53,53,53,1,54,Alex,Rej,Participant_Images/66a049748b57caf868c3179d/66a049748b57caf868c3179d_Images/66a049748b57caf868c3179d_Image_19.jpeg,did not like,2.7105123,,,,,,,,,,,,,,,,,,,,,,
,,66a049748b57caf868c3179d,6685aa9113c938e83b4f1ea0,6700816763e983ad83c026fe,2024-10-04_20h07.21.567,WTP_SM_Choice,2022.2.1,MacIntel,59.97720866,,,,,,,,,,,,,,,,,,51,,,,,,space,1.351,space,0.414,0.01,1,1.7488,0,0,0,0,1,Go to the farm with my friends,Watch studio ghibli on a weekend on the couch,0.01,0.01,1.1,0,,,,
,,66a049748b57caf868c3179d,6685aa9113c938e83b4f1ea0,6700816763e983ad83c026fe,2024-10-04_20h07.21.567,WTP_SM_Choice,2022.2.1,MacIntel,59.97720866,,,,,,,,,,,,,,,,,,52,,,,,,,,,,0.01,2,2.4154,0,1,1,1,1,Learn sign language daily,Play piano for my sister and friend,0.02,0.01,3.3,1,,,,
,,66a049748b57caf868c3179d,6685aa9113c938e83b4f1ea0,6700816763e983ad83c026fe,2024-10-04_20h07.21.567,WTP_SM_Choice,2022.2.1,MacIntel,59.97720866,,,,,,,,,,,,,,,,,,53,,,,,,,,,,0.03,1,2.8699,0,2,2,2,1,Go to the farm with my friends,Go sightseeing on the water,0.03,0.01,1.1,0,,,,
,,66a049748b57caf868c3179d,6685aa9113c938e83b4f1ea0,6700816763e983ad83c026fe,2024-10-04_20h07.21.567,WTP_SM_Choice,2022.2.1,MacIntel,59.97720866,,,,,,,,,,,,,,,,,,54,,,,,,,,,,0.04,1,6.0074,0,3,3,3,1,Crochet cute toys for charity in a comfy chair,Go to the farm with my friends,0.04,0.01,4.4,1,,,,
,,66a049748b57caf868c3179d,6685aa9113c938e83b4f1ea0,6700816763e983ad83c026fe,2024-10-04_20h07.21.567,WTP_SM_Choice,2022.2.1,MacIntel,59.97720866,,,,,,,,,,,,,,,,,,55,,,,,,,,,,0.01,2,2.8778,0,4,4,4,1,Play games on switch,Make origami in the living room,0.05,0.01,1.1,0,,,,
,,66a049748b57caf868c3179d,6685aa9113c938e83b4f1ea0,6700816763e983ad83c026fe,2024-10-04_20h07.21.567,WTP_SM_Choice,2022.2.1,MacIntel,59.97720866,,,,,,,NAN,,NAN,1.37,4.63,,0,54,54,54,1,55,Alex,Rej,Participant_Images/66a049748b57caf868c3179d/66a049748b57caf868c3179d_Images/66a049748b57caf868c3179d_Image_7.jpeg,did not like,3.602308302,,,,,,,,,,,,,,,,,,,,,,
,,66a049748b57caf868c3179d,6685aa9113c938e83b4f1ea0,6700816763e983ad83c026fe,2024-10-04_20h07.21.567,WTP_SM_Choice,2022.2.1,MacIntel,59.97720866,,,,,space,1.9499,NAN,,NAN,1.37,4.63,,0,55,55,55,1,56,Alex,Rej,Participant_Images/66a049748b57caf868c3179d/66a049748b57caf868c3179d_Images/66a049748b57caf868c3179d_Image_13.jpeg,liked,4.106391878,,,,,,,,,,,,,,,,,,,,,,
,,66a049748b57caf868c3179d,6685aa9113c938e83b4f1ea0,6700816763e983ad83c026fe,2024-10-04_20h07.21.567,WTP_SM_Choice,2022.2.1,MacIntel,59.97720866,,,,,space,233.2577,NAN,,NAN,1.37,4.63,,0,56,56,56,1,57,Alex,Rej,Participant_Images/66a049748b57caf868c3179d/66a049748b57caf868c3179d_Images/66a049748b57caf868c3179d_Image_12.jpeg,liked,3.799433026,,,,,,,,,,,,,,,,,,,,,,
,,66a049748b57caf868c3179d,6685aa9113c938e83b4f1ea0,6700816763e983ad83c026fe,2024-10-04_20h07.21.567,WTP_SM_Choice,2022.2.1,MacIntel,59.97720866,,,,,space,4.6199,NAN,,NAN,1.37,4.63,,0,57,57,57,1,58,Alex,Rej,Participant_Images/66a049748b57caf868c3179d/66a049748b57caf868c3179d_Images/66a049748b57caf868c3179d_Image_22.jpeg,liked,5.246980764,,,,,,,,,,,,,,,,,,,,,,
,,66a049748b57caf868c3179d,6685aa9113c938e83b4f1ea0,6700816763e983ad83c026fe,2024-10-04_20h07.21.567,WTP_SM_Choice,2022.2.1,MacIntel,59.97720866,,,,,space,14.3572,NAN,,NAN,1.37,4.63,,0,58,58,58,1,59,Alex,Rej,Participant_Images/66a049748b57caf868c3179d/66a049748b57caf868c3179d_Images/66a049748b57caf868c3179d_Image_15.jpeg,did not like,3.30081769,,,,,,,,,,,,,,,,,,,,,,
,,66a049748b57caf868c3179d,6685aa9113c938e83b4f1ea0,6700816763e983ad83c026fe,2024-10-04_20h07.21.567,WTP_SM_Choice,2022.2.1,MacIntel,59.97720866,,,,,,,,,,,,,,,,,,56,,,,,,space,9.0714,space,8.0039,0.02,2,2.62,0,0,0,0,1,Petsit my friends dogs,See a nature documentary with my family,0.01,0.02,8.8,1,,,,
,,66a049748b57caf868c3179d,6685aa9113c938e83b4f1ea0,6700816763e983ad83c026fe,2024-10-04_20h07.21.567,WTP_SM_Choice,2022.2.1,MacIntel,59.97720866,,,,,,,,,,,,,,,,,,57,,,,,,,,,,0.02,2,4.8101,0,1,1,1,1,Play with puppies in the park on the grass,Go out to nature with my mom,0.02,0.02,4.4,1,,,,
,,66a049748b57caf868c3179d,6685aa9113c938e83b4f1ea0,6700816763e983ad83c026fe,2024-10-04_20h07.21.567,WTP_SM_Choice,2022.2.1,MacIntel,59.97720866,,,,,,,,,,,,,,,,,,58,,,,,,,,,,0.02,2,6.7934,0,2,2,2,1,Learn sign language daily,Crochet with my boyfriend on a weekend,0.03,0.02,4.4,1,,,,
,,66a049748b57caf868c3179d,6685aa9113c938e83b4f1ea0,6700816763e983ad83c026fe,2024-10-04_20h07.21.567,WTP_SM_Choice,2022.2.1,MacIntel,59.97720866,,,,,,,,,,,,,,,,,,59,,,,,,,,,,0.04,1,8.0081,0,3,3,3,1,Go sightseeing on the water,Catch fireflies with friends,0.04,0.02,4.4,1,,,,
,,66a049748b57caf868c3179d,6685aa9113c938e83b4f1ea0,6700816763e983ad83c026fe,2024-10-04_20h07.21.567,WTP_SM_Choice,2022.2.1,MacIntel,59.97720866,,,,,,,,,,,,,,,,,,60,,,,,,,,,,0.05,1,4.5026,0,4,4,4,1,Crochet with my boyfriend on a weekend,Watch studio ghibli on a weekend on the couch,0.05,0.02,1.1,0,,,,
,,66a049748b57caf868c3179d,6685aa9113c938e83b4f1ea0,6700816763e983ad83c026fe,2024-10-04_20h07.21.567,WTP_SM_Choice,2022.2.1,MacIntel,59.97720866,,,,,,,NAN,,NAN,1.52,4.48,,0,59,59,59,1,60,Alex,Rej,Participant_Images/66a049748b57caf868c3179d/66a049748b57caf868c3179d_Images/66a049748b57caf868c3179d_Image_25.jpeg,did not like,1.661473164,,,,,,,,,,,,,,,,,,,,,,
,,66a049748b57caf868c3179d,6685aa9113c938e83b4f1ea0,6700816763e983ad83c026fe,2024-10-04_20h07.21.567,WTP_SM_Choice,2022.2.1,MacIntel,59.97720866,,,,,space,0.8022,NAN,,NAN,1.52,4.48,,0,60,60,60,1,61,Alex,Rej,Participant_Images/66a049748b57caf868c3179d/66a049748b57caf868c3179d_Images/66a049748b57caf868c3179d_Image_23.jpeg,did not like,3.613205605,,,,,,,,,,,,,,,,,,,,,,
,,66a049748b57caf868c3179d,6685aa9113c938e83b4f1ea0,6700816763e983ad83c026fe,2024-10-04_20h07.21.567,WTP_SM_Choice,2022.2.1,MacIntel,59.97720866,,,,,space,8.2207,NAN,,NAN,1.52,4.48,,0,61,61,61,1,62,Alex,Rej,Participant_Images/66a049748b57caf868c3179d/66a049748b57caf868c3179d_Images/66a049748b57caf868c3179d_Image_3.jpeg,did not like,4.988446431,,,,,,,,,,,,,,,,,,,,,,
,,66a049748b57caf868c3179d,6685aa9113c938e83b4f1ea0,6700816763e983ad83c026fe,2024-10-04_20h07.21.567,WTP_SM_Choice,2022.2.1,MacIntel,59.97720866,,,,,space,6.0169,NAN,,NAN,1.52,4.48,,0,62,62,62,1,63,Alex,Rej,Participant_Images/66a049748b57caf868c3179d/66a049748b57caf868c3179d_Images/66a049748b57caf868c3179d_Image_2.jpeg,liked,3.470791822,,,,,,,,,,,,,,,,,,,,,,
,,66a049748b57caf868c3179d,6685aa9113c938e83b4f1ea0,6700816763e983ad83c026fe,2024-10-04_20h07.21.567,WTP_SM_Choice,2022.2.1,MacIntel,59.97720866,,,,,space,2.5509,NAN,,NAN,1.52,4.48,,0,63,63,63,1,64,Alex,Rej,Participant_Images/66a049748b57caf868c3179d/66a049748b57caf868c3179d_Images/66a049748b57caf868c3179d_Image_10.jpeg,did not like,3.820572462,,,,,,,,,,,,,,,,,,,,,,
,,66a049748b57caf868c3179d,6685aa9113c938e83b4f1ea0,6700816763e983ad83c026fe,2024-10-04_20h07.21.567,WTP_SM_Choice,2022.2.1,MacIntel,59.97720866,,,,,,,,,,,,,,,,,,61,,,,,,space,6.3648,space,1.6133,0.01,1,4.3487,0,0,0,0,1,Go sightseeing on the water,Play games on switch,0.01,0.03,3.3,1,,,,
,,66a049748b57caf868c3179d,6685aa9113c938e83b4f1ea0,6700816763e983ad83c026fe,2024-10-04_20h07.21.567,WTP_SM_Choice,2022.2.1,MacIntel,59.97720866,,,,,,,,,,,,,,,,,,62,,,,,,,,,,0.02,1,4.861,0,1,1,1,1,Drink maxim white gold coffee while working,Go to the movies with my best friends,0.02,0.03,3.3,1,,,,
,,66a049748b57caf868c3179d,6685aa9113c938e83b4f1ea0,6700816763e983ad83c026fe,2024-10-04_20h07.21.567,WTP_SM_Choice,2022.2.1,MacIntel,59.97720866,,,,,,,,,,,,,,,,,,63,,,,,,,,,,0.03,2,5.2924,0,2,2,2,1,Watch studio ghibli on a weekend on the couch,See a nature documentary with my family,0.03,0.03,3.3,1,,,,
,,66a049748b57caf868c3179d,6685aa9113c938e83b4f1ea0,6700816763e983ad83c026fe,2024-10-04_20h07.21.567,WTP_SM_Choice,2022.2.1,MacIntel,59.97720866,,,,,,,,,,,,,,,,,,64,,,,,,,,,,,,,0,3,3,3,1,Go to the farm with my friends,Learn sign language daily,0.04,0.03,1.1,0,,,,
,,66a049748b57caf868c3179d,6685aa9113c938e83b4f1ea0,6700816763e983ad83c026fe,2024-10-04_20h07.21.567,WTP_SM_Choice,2022.2.1,MacIntel,59.97720866,,,,,,,,,,,,,,,,,,65,,,,,,,,,,,,,0,4,4,4,1,Go to the movies with my best friends,watch ducks float by sitting on a comfy bench,0.05,0.03,1.1,0,,,,
,,66a049748b57caf868c3179d,6685aa9113c938e83b4f1ea0,6700816763e983ad83c026fe,2024-10-04_20h07.21.567,WTP_SM_Choice,2022.2.1,MacIntel,59.97720866,,,,,,,NAN,,NAN,1.58,4.42,,0,64,64,64,1,65,Alex,Rej,Participant_Images/66a049748b57caf868c3179d/66a049748b57caf868c3179d_Images/66a049748b57caf868c3179d_Image_1.jpeg,did not like,2.455989137,,,,,,,,,,,,,,,,,,,,,,
,,66a049748b57caf868c3179d,6685aa9113c938e83b4f1ea0,6700816763e983ad83c026fe,2024-10-04_20h07.21.567,WTP_SM_Choice,2022.2.1,MacIntel,59.97720866,,,,,space,28.5275,NAN,,NAN,1.58,4.42,,0,65,65,65,1,66,Alex,Rej,Participant_Images/66a049748b57caf868c3179d/66a049748b57caf868c3179d_Images/66a049748b57caf868c3179d_Image_9.jpeg,liked,3.79605092,,,,,,,,,,,,,,,,,,,,,,
,,66a049748b57caf868c3179d,6685aa9113c938e83b4f1ea0,6700816763e983ad83c026fe,2024-10-04_20h07.21.567,WTP_SM_Choice,2022.2.1,MacIntel,59.97720866,,,,,space,11.5053,NAN,,NAN,1.58,4.42,,0,66,66,66,1,67,Alex,Rej,Participant_Images/66a049748b57caf868c3179d/66a049748b57caf868c3179d_Images/66a049748b57caf868c3179d_Image_5.jpeg,did not like,3.562416326,,,,,,,,,,,,,,,,,,,,,,
,,66a049748b57caf868c3179d,6685aa9113c938e83b4f1ea0,6700816763e983ad83c026fe,2024-10-04_20h07.21.567,WTP_SM_Choice,2022.2.1,MacIntel,59.97720866,,,,,space,11.5515,NAN,,NAN,1.58,4.42,,0,67,67,67,1,68,Alex,Rej,Participant_Images/66a049748b57caf868c3179d/66a049748b57caf868c3179d_Images/66a049748b57caf868c3179d_Image_4.jpeg,did not like,2.843822497,,,,,,,,,,,,,,,,,,,,,,
,,66a049748b57caf868c3179d,6685aa9113c938e83b4f1ea0,6700816763e983ad83c026fe,2024-10-04_20h07.21.567,WTP_SM_Choice,2022.2.1,MacIntel,59.97720866,,,,,space,1.8124,NAN,,NAN,1.58,4.42,,0,68,68,68,1,69,Alex,Rej,Participant_Images/66a049748b57caf868c3179d/66a049748b57caf868c3179d_Images/66a049748b57caf868c3179d_Image_16.jpeg,did not like,3.546495948,,,,,,,,,,,,,,,,,,,,,,
,,66a049748b57caf868c3179d,6685aa9113c938e83b4f1ea0,6700816763e983ad83c026fe,2024-10-04_20h07.21.567,WTP_SM_Choice,2022.2.1,MacIntel,59.97720866,,,,,,,,,,,,,,,,,,66,,,,,,space,2.9208,space,0.7168,0.04,2,2.2195,0,0,0,0,1,Play piano for my sister and friend,Make origami in the living room,0.01,0.04,1.1,0,,,,
,,66a049748b57caf868c3179d,6685aa9113c938e83b4f1ea0,6700816763e983ad83c026fe,2024-10-04_20h07.21.567,WTP_SM_Choice,2022.2.1,MacIntel,59.97720866,,,,,,,,,,,,,,,,,,67,,,,,,,,,,0.04,2,2.9328,0,1,1,1,1,Petsit my friends dogs,Crochet with my boyfriend on a weekend,0.02,0.04,8.8,1,,,,
,,66a049748b57caf868c3179d,6685aa9113c938e83b4f1ea0,6700816763e983ad83c026fe,2024-10-04_20h07.21.567,WTP_SM_Choice,2022.2.1,MacIntel,59.97720866,,,,,,,,,,,,,,,,,,68,,,,,,,,,,,,,0,2,2,2,1,Learn sign language daily,Go out to nature with my mom,0.03,0.04,4.4,1,,,,
,,66a049748b57caf868c3179d,6685aa9113c938e83b4f1ea0,6700816763e983ad83c026fe,2024-10-04_20h07.21.567,WTP_SM_Choice,2022.2.1,MacIntel,59.97720866,,,,,,,,,,,,,,,,,,69,,,,,,,,,,,,,0,3,3,3,1,get starbucks with sister,Crochet cute toys for charity in a comfy chair,0.04,0.04,1.1,0,,,,
,,66a049748b57caf868c3179d,6685aa9113c938e83b4f1ea0,6700816763e983ad83c026fe,2024-10-04_20h07.21.567,WTP_SM_Choice,2022.2.1,MacIntel,59.97720866,,,,,,,,,,,,,,,,,,70,,,,,,,,,,,,,0,4,4,4,1,watch funny comedy with sister and friends,Paint art on my ipad lying on the bed,0.05,0.04,1.1,0,,,,
,,66a049748b57caf868c3179d,6685aa9113c938e83b4f1ea0,6700816763e983ad83c026fe,2024-10-04_20h07.21.567,WTP_SM_Choice,2022.2.1,MacIntel,59.97720866,,,,,,,NAN,,NAN,1.66,4.34,,0,69,69,69,1,70,Alex,Rej,Participant_Images/66a049748b57caf868c3179d/66a049748b57caf868c3179d_Images/66a049748b57caf868c3179d_Image_6.jpeg,did not like,1.672012706,,,,,,,,,,,,,,,,,,,,,,
,,66a049748b57caf868c3179d,6685aa9113c938e83b4f1ea0,6700816763e983ad83c026fe,2024-10-04_20h07.21.567,WTP_SM_Choice,2022.2.1,MacIntel,59.97720866,,,,,space,23.4619,NAN,,NAN,1.66,4.34,,0,70,70,70,1,71,Alex,Rej,Participant_Images/66a049748b57caf868c3179d/66a049748b57caf868c3179d_Images/66a049748b57caf868c3179d_Image_20.jpeg,did not like,4.942172136,,,,,,,,,,,,,,,,,,,,,,
,,66a049748b57caf868c3179d,6685aa9113c938e83b4f1ea0,6700816763e983ad83c026fe,2024-10-04_20h07.21.567,WTP_SM_Choice,2022.2.1,MacIntel,59.97720866,,,,,space,6.3035,NAN,,NAN,1.66,4.34,,0,71,71,71,1,72,Alex,Rej,Participant_Images/66a049748b57caf868c3179d/66a049748b57caf868c3179d_Images/66a049748b57caf868c3179d_Image_11.jpeg,did not like,2.50187214,,,,,,,,,,,,,,,,,,,,,,
,,66a049748b57caf868c3179d,6685aa9113c938e83b4f1ea0,6700816763e983ad83c026fe,2024-10-04_20h07.21.567,WTP_SM_Choice,2022.2.1,MacIntel,59.97720866,,,,,space,3.5044,NAN,,NAN,1.66,4.34,,0,72,72,72,1,73,Alex,Rej,Participant_Images/66a049748b57caf868c3179d/66a049748b57caf868c3179d_Images/66a049748b57caf868c3179d_Image_8.jpeg,liked,2.071164779,,,,,,,,,,,,,,,,,,,,,,
,,66a049748b57caf868c3179d,6685aa9113c938e83b4f1ea0,6700816763e983ad83c026fe,2024-10-04_20h07.21.567,WTP_SM_Choice,2022.2.1,MacIntel,59.97720866,,,,,space,1.9428,NAN,,NAN,1.66,4.34,,0,73,73,73,1,74,Alex,Rej,Participant_Images/66a049748b57caf868c3179d/66a049748b57caf868c3179d_Images/66a049748b57caf868c3179d_Image_14.jpeg,liked,5.336503566,,,,,,,,,,,,,,,,,,,,,,
,,66a049748b57caf868c3179d,6685aa9113c938e83b4f1ea0,6700816763e983ad83c026fe,2024-10-04_20h07.21.567,WTP_SM_Choice,2022.2.1,MacIntel,59.97720866,,,,,,,,,,,,,,,,,,71,,,,,,space,1.7505,space,0.3161,0.05,2,2.2327,0,0,0,0,1,get starbucks with sister,Petsit my friends dogs,0.01,0.05,3.3,0,,,,
,,66a049748b57caf868c3179d,6685aa9113c938e83b4f1ea0,6700816763e983ad83c026fe,2024-10-04_20h07.21.567,WTP_SM_Choice,2022.2.1,MacIntel,59.97720866,,,,,,,,,,,,,,,,,,72,,,,,,,,,,0.05,2,4.2105,0,1,1,1,1,Learn sign language daily,Play games on switch,0.02,0.05,8.8,1,,,,
,,66a049748b57caf868c3179d,6685aa9113c938e83b4f1ea0,6700816763e983ad83c026fe,2024-10-04_20h07.21.567,WTP_SM_Choice,2022.2.1,MacIntel,59.97720866,,,,,,,,,,,,,,,,,,73,,,,,,,,,,0.03,1,7.1917,0,2,2,2,1,Make origami in the living room,Catch fireflies with friends,0.03,0.05,3.3,1,,,,
,,66a049748b57caf868c3179d,6685aa9113c938e83b4f1ea0,6700816763e983ad83c026fe,2024-10-04_20h07.21.567,WTP_SM_Choice,2022.2.1,MacIntel,59.97720866,,,,,,,,,,,,,,,,,,74,,,,,,,,,,0.04,1,9.7782,0,3,3,3,1,Play piano for my sister and friend,Paint art on my ipad lying on the bed,0.04,0.05,4.4,0,,,,
,,66a049748b57caf868c3179d,6685aa9113c938e83b4f1ea0,6700816763e983ad83c026fe,2024-10-04_20h07.21.567,WTP_SM_Choice,2022.2.1,MacIntel,59.97720866,,,,,,,,,,,,,,,,,,75,,,,,,,,,,,,,0,4,4,4,1,Go sightseeing on the water,Play piano for my sister and friend,0.05,0.05,3.3,1,,,,
,,66a049748b57caf868c3179d,6685aa9113c938e83b4f1ea0,6700816763e983ad83c026fe,2024-10-04_20h07.21.567,WTP_SM_Choice,2022.2.1,MacIntel,59.97720866,,,,,,,2,,4,1.83,4.17,,0,74,74,74,1,75,Alex,Rej,Participant_Images/66a049748b57caf868c3179d/66a049748b57caf868c3179d_Images/66a049748b57caf868c3179d_Image_18.jpeg,did not like,2.642157193,,,,,,,,,,,,,,,,,,,space,56.3072,,
,,66a049748b57caf868c3179d,6685aa9113c938e83b4f1ea0,6700816763e983ad83c026fe,2024-10-04_20h07.21.567,WTP_SM_Choice,2022.2.1,MacIntel,59.97720866,,,space,3.7404,space,27.0629,NAN,,NAN,1.83,4.17,,0,75,75,75,1,76,Riley,Acc,Participant_Images/66a049748b57caf868c3179d/66a049748b57caf868c3179d_Images/66a049748b57caf868c3179d_Image_6.jpeg,did not like,4.456234322,,,,,,,,,,,,,,,,,,,,,,
,,66a049748b57caf868c3179d,6685aa9113c938e83b4f1ea0,6700816763e983ad83c026fe,2024-10-04_20h07.21.567,WTP_SM_Choice,2022.2.1,MacIntel,59.97720866,,,,,space,0.9514,NAN,,NAN,1.83,4.17,,0,76,76,76,1,77,Riley,Acc,Participant_Images/66a049748b57caf868c3179d/66a049748b57caf868c3179d_Images/66a049748b57caf868c3179d_Image_16.jpeg,liked,4.438512181,,,,,,,,,,,,,,,,,,,,,,
,,66a049748b57caf868c3179d,6685aa9113c938e83b4f1ea0,6700816763e983ad83c026fe,2024-10-04_20h07.21.567,WTP_SM_Choice,2022.2.1,MacIntel,59.97720866,,,,,space,2.441,NAN,,NAN,1.83,4.17,,0,77,77,77,1,78,Riley,Acc,Participant_Images/66a049748b57caf868c3179d/66a049748b57caf868c3179d_Images/66a049748b57caf868c3179d_Image_14.jpeg,did not like,2.682944783,,,,,,,,,,,,,,,,,,,,,,
,,66a049748b57caf868c3179d,6685aa9113c938e83b4f1ea0,6700816763e983ad83c026fe,2024-10-04_20h07.21.567,WTP_SM_Choice,2022.2.1,MacIntel,59.97720866,,,,,space,1.3515,NAN,,NAN,1.83,4.17,,0,78,78,78,1,79,Riley,Acc,Participant_Images/66a049748b57caf868c3179d/66a049748b57caf868c3179d_Images/66a049748b57caf868c3179d_Image_25.jpeg,liked,4.51984296,,,,,,,,,,,,,,,,,,,,,,
,,66a049748b57caf868c3179d,6685aa9113c938e83b4f1ea0,6700816763e983ad83c026fe,2024-10-04_20h07.21.567,WTP_SM_Choice,2022.2.1,MacIntel,59.97720866,,,,,,,,,,,,,,,,,,76,,,,,,space,1.1321,space,0.1833,0.01,2,2.2656,0,0,0,0,1,See a nature documentary with my family,Go sightseeing on the water,0.01,0.01,1.1,0,,,,
,,66a049748b57caf868c3179d,6685aa9113c938e83b4f1ea0,6700816763e983ad83c026fe,2024-10-04_20h07.21.567,WTP_SM_Choice,2022.2.1,MacIntel,59.97720866,,,,,,,,,,,,,,,,,,77,,,,,,,,,,0.01,2,4.581,0,1,1,1,1,See a nature documentary with my family,Paint art on my ipad lying on the bed,0.02,0.01,8.8,0,,,,
,,66a049748b57caf868c3179d,6685aa9113c938e83b4f1ea0,6700816763e983ad83c026fe,2024-10-04_20h07.21.567,WTP_SM_Choice,2022.2.1,MacIntel,59.97720866,,,,,,,,,,,,,,,,,,78,,,,,,,,,,,,,0,2,2,2,1,Watch studio ghibli on a weekend on the couch,Go to the movies with my best friends,0.03,0.01,1.1,1,,,,
,,66a049748b57caf868c3179d,6685aa9113c938e83b4f1ea0,6700816763e983ad83c026fe,2024-10-04_20h07.21.567,WTP_SM_Choice,2022.2.1,MacIntel,59.97720866,,,,,,,,,,,,,,,,,,79,,,,,,,,,,0.04,1,5.7888,0,3,3,3,1,watch funny comedy with sister and friends,Petsit my friends dogs,0.04,0.01,1.1,0,,,,
,,66a049748b57caf868c3179d,6685aa9113c938e83b4f1ea0,6700816763e983ad83c026fe,2024-10-04_20h07.21.567,WTP_SM_Choice,2022.2.1,MacIntel,59.97720866,,,,,,,,,,,,,,,,,,80,,,,,,,,,,,,,0,4,4,4,1,Petsit my friends dogs,Play piano for my sister and friend,0.05,0.01,4.4,1,,,,
,,66a049748b57caf868c3179d,6685aa9113c938e83b4f1ea0,6700816763e983ad83c026fe,2024-10-04_20h07.21.567,WTP_SM_Choice,2022.2.1,MacIntel,59.97720866,,,,,,,NAN,,NAN,1.89,4.11,,0,79,79,79,1,80,Riley,Acc,Participant_Images/66a049748b57caf868c3179d/66a049748b57caf868c3179d_Images/66a049748b57caf868c3179d_Image_20.jpeg,liked,3.195382774,,,,,,,,,,,,,,,,,,,,,,
,,66a049748b57caf868c3179d,6685aa9113c938e83b4f1ea0,6700816763e983ad83c026fe,2024-10-04_20h07.21.567,WTP_SM_Choice,2022.2.1,MacIntel,59.97720866,,,,,space,2.054,NAN,,NAN,1.89,4.11,,0,80,80,80,1,81,Riley,Acc,Participant_Images/66a049748b57caf868c3179d/66a049748b57caf868c3179d_Images/66a049748b57caf868c3179d_Image_5.jpeg,liked,1.779333479,,,,,,,,,,,,,,,,,,,,,,
,,66a049748b57caf868c3179d,6685aa9113c938e83b4f1ea0,6700816763e983ad83c026fe,2024-10-04_20h07.21.567,WTP_SM_Choice,2022.2.1,MacIntel,59.97720866,,,,,space,3.4534,NAN,,NAN,1.89,4.11,,0,81,81,81,1,82,Riley,Acc,Participant_Images/66a049748b57caf868c3179d/66a049748b57caf868c3179d_Images/66a049748b57caf868c3179d_Image_11.jpeg,liked,4.312468682,,,,,,,,,,,,,,,,,,,,,,
,,66a049748b57caf868c3179d,6685aa9113c938e83b4f1ea0,6700816763e983ad83c026fe,2024-10-04_20h07.21.567,WTP_SM_Choice,2022.2.1,MacIntel,59.97720866,,,,,space,2.1524,NAN,,NAN,1.89,4.11,,0,82,82,82,1,83,Riley,Acc,Participant_Images/66a049748b57caf868c3179d/66a049748b57caf868c3179d_Images/66a049748b57caf868c3179d_Image_2.jpeg,liked,4.940433059,,,,,,,,,,,,,,,,,,,,,,
,,66a049748b57caf868c3179d,6685aa9113c938e83b4f1ea0,6700816763e983ad83c026fe,2024-10-04_20h07.21.567,WTP_SM_Choice,2022.2.1,MacIntel,59.97720866,,,,,space,5.4876,NAN,,NAN,1.89,4.11,,0,83,83,83,1,84,Riley,Acc,Participant_Images/66a049748b57caf868c3179d/66a049748b57caf868c3179d_Images/66a049748b57caf868c3179d_Image_13.jpeg,liked,2.7105123,,,,,,,,,,,,,,,,,,,,,,
,,66a049748b57caf868c3179d,6685aa9113c938e83b4f1ea0,6700816763e983ad83c026fe,2024-10-04_20h07.21.567,WTP_SM_Choice,2022.2.1,MacIntel,59.97720866,,,,,,,,,,,,,,,,,,81,,,,,,space,1.9163,space,2.2853,0.01,1,2.6726,0,0,0,0,1,watch funny comedy with sister and friends,watch ducks float by sitting on a comfy bench,0.01,0.02,3.3,0,,,,
,,66a049748b57caf868c3179d,6685aa9113c938e83b4f1ea0,6700816763e983ad83c026fe,2024-10-04_20h07.21.567,WTP_SM_Choice,2022.2.1,MacIntel,59.97720866,,,,,,,,,,,,,,,,,,82,,,,,,,,,,0.02,2,2.8955,0,1,1,1,1,See a nature documentary with my family,watch ducks float by sitting on a comfy bench,0.02,0.02,4.4,0,,,,
,,66a049748b57caf868c3179d,6685aa9113c938e83b4f1ea0,6700816763e983ad83c026fe,2024-10-04_20h07.21.567,WTP_SM_Choice,2022.2.1,MacIntel,59.97720866,,,,,,,,,,,,,,,,,,83,,,,,,,,,,0.02,2,5.2286,0,2,2,2,1,Go to the movies with my best friends,Learn sign language daily,0.03,0.02,1.1,0,,,,
,,66a049748b57caf868c3179d,6685aa9113c938e83b4f1ea0,6700816763e983ad83c026fe,2024-10-04_20h07.21.567,WTP_SM_Choice,2022.2.1,MacIntel,59.97720866,,,,,,,,,,,,,,,,,,84,,,,,,,,,,,,,0,3,3,3,1,Catch fireflies with friends,Play with puppies in the park on the grass,0.04,0.02,3.3,0,,,,
,,66a049748b57caf868c3179d,6685aa9113c938e83b4f1ea0,6700816763e983ad83c026fe,2024-10-04_20h07.21.567,WTP_SM_Choice,2022.2.1,MacIntel,59.97720866,,,,,,,,,,,,,,,,,,85,,,,,,,,,,0.02,2,2.8372,0,4,4,4,1,watch funny comedy with sister and friends,Watch studio ghibli on a weekend on the couch,0.05,0.02,3.3,0,,,,
,,66a049748b57caf868c3179d,6685aa9113c938e83b4f1ea0,6700816763e983ad83c026fe,2024-10-04_20h07.21.567,WTP_SM_Choice,2022.2.1,MacIntel,59.97720866,,,,,,,NAN,,NAN,1.96,4.04,,0,84,84,84,1,85,Riley,Acc,Participant_Images/66a049748b57caf868c3179d/66a049748b57caf868c3179d_Images/66a049748b57caf868c3179d_Image_4.jpeg,liked,3.602308302,,,,,,,,,,,,,,,,,,,,,,
,,66a049748b57caf868c3179d,6685aa9113c938e83b4f1ea0,6700816763e983ad83c026fe,2024-10-04_20h07.21.567,WTP_SM_Choice,2022.2.1,MacIntel,59.97720866,,,,,space,1.332,NAN,,NAN,1.96,4.04,,0,85,85,85,1,86,Riley,Acc,Participant_Images/66a049748b57caf868c3179d/66a049748b57caf868c3179d_Images/66a049748b57caf868c3179d_Image_23.jpeg,liked,4.106391878,,,,,,,,,,,,,,,,,,,,,,
,,66a049748b57caf868c3179d,6685aa9113c938e83b4f1ea0,6700816763e983ad83c026fe,2024-10-04_20h07.21.567,WTP_SM_Choice,2022.2.1,MacIntel,59.97720866,,,,,space,3.5018,NAN,,NAN,1.96,4.04,,0,86,86,86,1,87,Riley,Acc,Participant_Images/66a049748b57caf868c3179d/66a049748b57caf868c3179d_Images/66a049748b57caf868c3179d_Image_24.jpeg,liked,3.799433026,,,,,,,,,,,,,,,,,,,,,,
,,66a049748b57caf868c3179d,6685aa9113c938e83b4f1ea0,6700816763e983ad83c026fe,2024-10-04_20h07.21.567,WTP_SM_Choice,2022.2.1,MacIntel,59.97720866,,,,,space,0.5339,NAN,,NAN,1.96,4.04,,0,87,87,87,1,88,Riley,Acc,Participant_Images/66a049748b57caf868c3179d/66a049748b57caf868c3179d_Images/66a049748b57caf868c3179d_Image_3.jpeg,liked,5.246980764,,,,,,,,,,,,,,,,,,,,,,
,,66a049748b57caf868c3179d,6685aa9113c938e83b4f1ea0,6700816763e983ad83c026fe,2024-10-04_20h07.21.567,WTP_SM_Choice,2022.2.1,MacIntel,59.97720866,,,,,space,3.2852,NAN,,NAN,1.96,4.04,,0,88,88,88,1,89,Riley,Acc,Participant_Images/66a049748b57caf868c3179d/66a049748b57caf868c3179d_Images/66a049748b57caf868c3179d_Image_15.jpeg,liked,3.30081769,,,,,,,,,,,,,,,,,,,,,,
,,66a049748b57caf868c3179d,6685aa9113c938e83b4f1ea0,6700816763e983ad83c026fe,2024-10-04_20h07.21.567,WTP_SM_Choice,2022.2.1,MacIntel,59.97720866,,,,,,,,,,,,,,,,,,86,,,,,,space,1.9001,space,0.7174,0.03,2,5.0199,0,0,0,0,1,Play with puppies in the park on the grass,Play games on switch,0.01,0.03,1.1,1,,,,
,,66a049748b57caf868c3179d,6685aa9113c938e83b4f1ea0,6700816763e983ad83c026fe,2024-10-04_20h07.21.567,WTP_SM_Choice,2022.2.1,MacIntel,59.97720866,,,,,,,,,,,,,,,,,,87,,,,,,,,,,0.03,2,4.8946,0,1,1,1,1,watch ducks float by sitting on a comfy bench,Play piano for my sister and friend,0.02,0.03,4.4,1,,,,
,,66a049748b57caf868c3179d,6685aa9113c938e83b4f1ea0,6700816763e983ad83c026fe,2024-10-04_20h07.21.567,WTP_SM_Choice,2022.2.1,MacIntel,59.97720866,,,,,,,,,,,,,,,,,,88,,,,,,,,,,0.03,1,2.8082,0,2,2,2,1,Learn sign language daily,get starbucks with sister,0.03,0.03,1.1,1,,,,
,,66a049748b57caf868c3179d,6685aa9113c938e83b4f1ea0,6700816763e983ad83c026fe,2024-10-04_20h07.21.567,WTP_SM_Choice,2022.2.1,MacIntel,59.97720866,,,,,,,,,,,,,,,,,,89,,,,,,,,,,0.03,2,6.7941,0,3,3,3,1,Go to the farm with my friends,Drink maxim white gold coffee while working,0.04,0.03,3.3,0,,,,
,,66a049748b57caf868c3179d,6685aa9113c938e83b4f1ea0,6700816763e983ad83c026fe,2024-10-04_20h07.21.567,WTP_SM_Choice,2022.2.1,MacIntel,59.97720866,,,,,,,,,,,,,,,,,,90,,,,,,,,,,0.05,1,4.7468,0,4,4,4,1,watch ducks float by sitting on a comfy bench,Go out to nature with my mom,0.05,0.03,8.8,1,,,,
,,66a049748b57caf868c3179d,6685aa9113c938e83b4f1ea0,6700816763e983ad83c026fe,2024-10-04_20h07.21.567,WTP_SM_Choice,2022.2.1,MacIntel,59.97720866,,,,,,,NAN,,NAN,2.13,3.87,,0,89,89,89,1,90,Riley,Acc,Participant_Images/66a049748b57caf868c3179d/66a049748b57caf868c3179d_Images/66a049748b57caf868c3179d_Image_18.jpeg,did not like,1.661473164,,,,,,,,,,,,,,,,,,,,,,
,,66a049748b57caf868c3179d,6685aa9113c938e83b4f1ea0,6700816763e983ad83c026fe,2024-10-04_20h07.21.567,WTP_SM_Choice,2022.2.1,MacIntel,59.97720866,,,,,space,5.5201,NAN,,NAN,2.13,3.87,,0,90,90,90,1,91,Riley,Acc,Participant_Images/66a049748b57caf868c3179d/66a049748b57caf868c3179d_Images/66a049748b57caf868c3179d_Image_21.jpeg,did not like,3.613205605,,,,,,,,,,,,,,,,,,,,,,
,,66a049748b57caf868c3179d,6685aa9113c938e83b4f1ea0,6700816763e983ad83c026fe,2024-10-04_20h07.21.567,WTP_SM_Choice,2022.2.1,MacIntel,59.97720866,,,,,space,6.3195,NAN,,NAN,2.13,3.87,,0,91,91,91,1,92,Riley,Acc,Participant_Images/66a049748b57caf868c3179d/66a049748b57caf868c3179d_Images/66a049748b57caf868c3179d_Image_9.jpeg,liked,4.988446431,,,,,,,,,,,,,,,,,,,,,,
,,66a049748b57caf868c3179d,6685aa9113c938e83b4f1ea0,6700816763e983ad83c026fe,2024-10-04_20h07.21.567,WTP_SM_Choice,2022.2.1,MacIntel,59.97720866,,,,,space,6.7531,NAN,,NAN,2.13,3.87,,0,92,92,92,1,93,Riley,Acc,Participant_Images/66a049748b57caf868c3179d/66a049748b57caf868c3179d_Images/66a049748b57caf868c3179d_Image_22.jpeg,liked,3.470791822,,,,,,,,,,,,,,,,,,,,,,
,,66a049748b57caf868c3179d,6685aa9113c938e83b4f1ea0,6700816763e983ad83c026fe,2024-10-04_20h07.21.567,WTP_SM_Choice,2022.2.1,MacIntel,59.97720866,,,,,space,2.9796,NAN,,NAN,2.13,3.87,,0,93,93,93,1,94,Riley,Acc,Participant_Images/66a049748b57caf868c3179d/66a049748b57caf868c3179d_Images/66a049748b57caf868c3179d_Image_17.jpeg,liked,3.820572462,,,,,,,,,,,,,,,,,,,,,,
,,66a049748b57caf868c3179d,6685aa9113c938e83b4f1ea0,6700816763e983ad83c026fe,2024-10-04_20h07.21.567,WTP_SM_Choice,2022.2.1,MacIntel,59.97720866,,,,,,,,,,,,,,,,,,91,,,,,,space,0.9997,space,0.3486,0.04,2,2.3335,0,0,0,0,1,Watch studio ghibli on a weekend on the couch,Play piano for my sister and friend,0.01,0.04,3.3,1,,,,
,,66a049748b57caf868c3179d,6685aa9113c938e83b4f1ea0,6700816763e983ad83c026fe,2024-10-04_20h07.21.567,WTP_SM_Choice,2022.2.1,MacIntel,59.97720866,,,,,,,,,,,,,,,,,,92,,,,,,,,,,0.04,2,3.1575,0,1,1,1,1,watch ducks float by sitting on a comfy bench,Crochet with my boyfriend on a weekend,0.02,0.04,8.8,1,,,,
,,66a049748b57caf868c3179d,6685aa9113c938e83b4f1ea0,6700816763e983ad83c026fe,2024-10-04_20h07.21.567,WTP_SM_Choice,2022.2.1,MacIntel,59.97720866,,,,,,,,,,,,,,,,,,93,,,,,,,,,,0.04,2,4.3614,0,2,2,2,1,Play games on switch,Crochet cute toys for charity in a comfy chair,0.03,0.04,1.1,0,,,,
,,66a049748b57caf868c3179d,6685aa9113c938e83b4f1ea0,6700816763e983ad83c026fe,2024-10-04_20h07.21.567,WTP_SM_Choice,2022.2.1,MacIntel,59.97720866,,,,,,,,,,,,,,,,,,94,,,,,,,,,,0.04,1,2.9233,0,3,3,3,1,Crochet with my boyfriend on a weekend,Go sightseeing on the water,0.04,0.04,4.4,0,,,,
,,66a049748b57caf868c3179d,6685aa9113c938e83b4f1ea0,6700816763e983ad83c026fe,2024-10-04_20h07.21.567,WTP_SM_Choice,2022.2.1,MacIntel,59.97720866,,,,,,,,,,,,,,,,,,95,,,,,,,,,,,,,0,4,4,4,1,watch ducks float by sitting on a comfy bench,Play games on switch,0.05,0.04,4.4,1,,,,
,,66a049748b57caf868c3179d,6685aa9113c938e83b4f1ea0,6700816763e983ad83c026fe,2024-10-04_20h07.21.567,WTP_SM_Choice,2022.2.1,MacIntel,59.97720866,,,,,,,NAN,,NAN,2.29,3.71,,0,94,94,94,1,95,Riley,Acc,Participant_Images/66a049748b57caf868c3179d/66a049748b57caf868c3179d_Images/66a049748b57caf868c3179d_Image_1.jpeg,liked,2.455989137,,,,,,,,,,,,,,,,,,,,,,
,,66a049748b57caf868c3179d,6685aa9113c938e83b4f1ea0,6700816763e983ad83c026fe,2024-10-04_20h07.21.567,WTP_SM_Choice,2022.2.1,MacIntel,59.97720866,,,,,space,2.1195,NAN,,NAN,2.29,3.71,,0,95,95,95,1,96,Riley,Acc,Participant_Images/66a049748b57caf868c3179d/66a049748b57caf868c3179d_Images/66a049748b57caf868c3179d_Image_12.jpeg,liked,3.79605092,,,,,,,,,,,,,,,,,,,,,,
,,66a049748b57caf868c3179d,6685aa9113c938e83b4f1ea0,6700816763e983ad83c026fe,2024-10-04_20h07.21.567,WTP_SM_Choice,2022.2.1,MacIntel,59.97720866,,,,,space,1.4051,NAN,,NAN,2.29,3.71,,0,96,96,96,1,97,Riley,Acc,Participant_Images/66a049748b57caf868c3179d/66a049748b57caf868c3179d_Images/66a049748b57caf868c3179d_Image_8.jpeg,liked,3.562416326,,,,,,,,,,,,,,,,,,,,,,
,,66a049748b57caf868c3179d,6685aa9113c938e83b4f1ea0,6700816763e983ad83c026fe,2024-10-04_20h07.21.567,WTP_SM_Choice,2022.2.1,MacIntel,59.97720866,,,,,space,1.2681,NAN,,NAN,2.29,3.71,,0,97,97,97,1,98,Riley,Acc,Participant_Images/66a049748b57caf868c3179d/66a049748b57caf868c3179d_Images/66a049748b57caf868c3179d_Image_7.jpeg,did not like,2.843822497,,,,,,,,,,,,,,,,,,,,,,
,,66a049748b57caf868c3179d,6685aa9113c938e83b4f1ea0,6700816763e983ad83c026fe,2024-10-04_20h07.21.567,WTP_SM_Choice,2022.2.1,MacIntel,59.97720866,,,,,space,1.0506,NAN,,NAN,2.29,3.71,,0,98,98,98,1,99,Riley,Acc,Participant_Images/66a049748b57caf868c3179d/66a049748b57caf868c3179d_Images/66a049748b57caf868c3179d_Image_10.jpeg,did not like,3.546495948,,,,,,,,,,,,,,,,,,,,,,
,,66a049748b57caf868c3179d,6685aa9113c938e83b4f1ea0,6700816763e983ad83c026fe,2024-10-04_20h07.21.567,WTP_SM_Choice,2022.2.1,MacIntel,59.97720866,,,,,,,,,,,,,,,,,,96,,,,,,space,3.8676,space,0.7844,0.05,2,1.0331,0,0,0,0,1,Play piano for my sister and friend,Play with puppies in the park on the grass,0.01,0.05,3.3,0,,,,
,,66a049748b57caf868c3179d,6685aa9113c938e83b4f1ea0,6700816763e983ad83c026fe,2024-10-04_20h07.21.567,WTP_SM_Choice,2022.2.1,MacIntel,59.97720866,,,,,,,,,,,,,,,,,,97,,,,,,,,,,0.05,2,3.7732,0,1,1,1,1,watch funny comedy with sister and friends,Crochet cute toys for charity in a comfy chair,0.02,0.05,1.1,0,,,,
,,66a049748b57caf868c3179d,6685aa9113c938e83b4f1ea0,6700816763e983ad83c026fe,2024-10-04_20h07.21.567,WTP_SM_Choice,2022.2.1,MacIntel,59.97720866,,,,,,,,,,,,,,,,,,98,,,,,,,,,,,,,0,2,2,2,1,Catch fireflies with friends,watch ducks float by sitting on a comfy bench,0.03,0.05,1.1,0,,,,
,,66a049748b57caf868c3179d,6685aa9113c938e83b4f1ea0,6700816763e983ad83c026fe,2024-10-04_20h07.21.567,WTP_SM_Choice,2022.2.1,MacIntel,59.97720866,,,,,,,,,,,,,,,,,,99,,,,,,,,,,0.05,2,7.0931,0,3,3,3,1,Paint art on my ipad lying on the bed,Go to the farm with my friends,0.04,0.05,3.3,1,,,,
,,66a049748b57caf868c3179d,6685aa9113c938e83b4f1ea0,6700816763e983ad83c026fe,2024-10-04_20h07.21.567,WTP_SM_Choice,2022.2.1,MacIntel,59.97720866,,,,,,,,,,,,,,,,,,100,,,,,,,,,,0.05,2,2.5537,0,4,4,4,1,Go out to nature with my mom,Make origami in the living room,0.05,0.05,4.4,0,,,,
,,66a049748b57caf868c3179d,6685aa9113c938e83b4f1ea0,6700816763e983ad83c026fe,2024-10-04_20h07.21.567,WTP_SM_Choice,2022.2.1,MacIntel,59.97720866,,,,,,,2,,3,2.49,3.51,,0,99,99,99,1,100,Riley,Acc,Participant_Images/66a049748b57caf868c3179d/66a049748b57caf868c3179d_Images/66a049748b57caf868c3179d_Image_19.jpeg,did not like,1.672012706,,,,,,,,,,,,,,,,,,,space,3.7311,,
,,66a049748b57caf868c3179d,6685aa9113c938e83b4f1ea0,6700816763e983ad83c026fe,2024-10-04_20h07.21.567,WTP_SM_Choice,2022.2.1,MacIntel,59.97720866,,,,,,,,,,,,,,,,,,,,,,,,,,,,,,,,,,,,,,,,,,,,space,2.6484
