endwelcomescreen_keys.keys,endwelcomescreen_keys.rt,participant,STUDY_ID,SESSION_ID,date,expName,psychopyVersion,OS,frameRate,endinstructionscreen_keys.keys,endinstructionscreen_keys.rt,endpartnermatch_keys.keys,endpartnermatch_keys.rt,sharenextphoto_key.keys,sharenextphoto_key.rt,salience_rating,key_resp.keys,stress_level,subtract_bonus,TOTAL_TASK_BONUS,stresslevel_keypress.keys,entiretaskloop.thisRepN,entiretaskloop.thisTrialN,entiretaskloop.thisN,entiretaskloop.thisIndex,entiretaskloop.ran,TrialNumber,Partner,Condition,Photos,Feedback,FeedbackWait,WTP_ins_keys1.keys,WTP_ins_keys1.rt,WTP_ins_keys2.keys,WTP_ins_keys2.rt,decision_price,responses.keys,responses.rt,WTPTaskLoop.thisRepN,WTPTaskLoop.thisTrialN,WTPTaskLoop.thisN,WTPTaskLoop.thisIndex,WTPTaskLoop.ran,right,left,leftmoney,rightmoney,WTP_ITI,social_left,Resume_keys.keys,Resume_keys.rt,end_screen_keys.keys,end_screen_keys.rt
space,85.7708,66a3d4b8b4bf84ae5d959a60,6685aa9113c938e83b4f1ea0,66e47f8c9a74e976efcc5f5d,2024-09-13_11h25.15.562,WTP_SM_Choice,2022.2.1,Win32,59.88023952,,,,,,,,,,,,,,,,,,,,,,,,,,,,,,,,,,,,,,,,,,,,,
,,66a3d4b8b4bf84ae5d959a60,6685aa9113c938e83b4f1ea0,66e47f8c9a74e976efcc5f5d,2024-09-13_11h25.15.562,WTP_SM_Choice,2022.2.1,Win32,59.88023952,space,37.3495,,,,,,,,,,,,,,,,,,,,,,,,,,,,,,,,,,,,,,,,,,,
,,66a3d4b8b4bf84ae5d959a60,6685aa9113c938e83b4f1ea0,66e47f8c9a74e976efcc5f5d,2024-09-13_11h25.15.562,WTP_SM_Choice,2022.2.1,Win32,59.88023952,,,space,12.3052,space,1.5498,NAN,,NAN,0,6,,0,0,0,0,1,1,Charlie,Acc,Participant_Images/66a3d4b8b4bf84ae5d959a60/66a3d4b8b4bf84ae5d959a60_Images/66a3d4b8b4bf84ae5d959a60_Image_17.jpeg,liked,3.613205605,,,,,,,,,,,,,,,,,,,,,,
,,66a3d4b8b4bf84ae5d959a60,6685aa9113c938e83b4f1ea0,66e47f8c9a74e976efcc5f5d,2024-09-13_11h25.15.562,WTP_SM_Choice,2022.2.1,Win32,59.88023952,,,,,space,1.7567,NAN,,NAN,0,6,,0,1,1,1,1,2,Charlie,Acc,Participant_Images/66a3d4b8b4bf84ae5d959a60/66a3d4b8b4bf84ae5d959a60_Images/66a3d4b8b4bf84ae5d959a60_Image_23.jpeg,liked,4.988446431,,,,,,,,,,,,,,,,,,,,,,
,,66a3d4b8b4bf84ae5d959a60,6685aa9113c938e83b4f1ea0,66e47f8c9a74e976efcc5f5d,2024-09-13_11h25.15.562,WTP_SM_Choice,2022.2.1,Win32,59.88023952,,,,,space,1.2189,NAN,,NAN,0,6,,0,2,2,2,1,3,Charlie,Acc,Participant_Images/66a3d4b8b4bf84ae5d959a60/66a3d4b8b4bf84ae5d959a60_Images/66a3d4b8b4bf84ae5d959a60_Image_25.jpeg,did not like,3.470791822,,,,,,,,,,,,,,,,,,,,,,
,,66a3d4b8b4bf84ae5d959a60,6685aa9113c938e83b4f1ea0,66e47f8c9a74e976efcc5f5d,2024-09-13_11h25.15.562,WTP_SM_Choice,2022.2.1,Win32,59.88023952,,,,,space,6.111,NAN,,NAN,0,6,,0,3,3,3,1,4,Charlie,Acc,Participant_Images/66a3d4b8b4bf84ae5d959a60/66a3d4b8b4bf84ae5d959a60_Images/66a3d4b8b4bf84ae5d959a60_Image_13.jpeg,liked,3.820572462,,,,,,,,,,,,,,,,,,,,,,
,,66a3d4b8b4bf84ae5d959a60,6685aa9113c938e83b4f1ea0,66e47f8c9a74e976efcc5f5d,2024-09-13_11h25.15.562,WTP_SM_Choice,2022.2.1,Win32,59.88023952,,,,,,,,,,,,,,,,,,1,,,,,,space,32.4598,space,15.3251,0.01,2,9.733,0,0,0,0,1,Play board games with my family on a cozy winter evening by the fire place,Journal in bed on a rainy evening with a warm cup of tea by my side,0.01,0.01,4.4,0,,,,
,,66a3d4b8b4bf84ae5d959a60,6685aa9113c938e83b4f1ea0,66e47f8c9a74e976efcc5f5d,2024-09-13_11h25.15.562,WTP_SM_Choice,2022.2.1,Win32,59.88023952,,,,,,,,,,,,,,,,,,2,,,,,,,,,,0.01,2,8.6873,0,1,1,1,1,Watch the sunset on the beach with my close friends during a summer vacation,Garden in my backyard early in the morning with the smell of fresh soil,0.02,0.01,8.8,0,,,,
,,66a3d4b8b4bf84ae5d959a60,6685aa9113c938e83b4f1ea0,66e47f8c9a74e976efcc5f5d,2024-09-13_11h25.15.562,WTP_SM_Choice,2022.2.1,Win32,59.88023952,,,,,,,,,,,,,,,,,,3,,,,,,,,,,,,,0,2,2,2,1,Write poetry in a cozy coffee shop with soft jazz playing in the background,Play board games with my family on a cozy winter evening by the fire place,0.03,0.01,3.3,1,,,,
,,66a3d4b8b4bf84ae5d959a60,6685aa9113c938e83b4f1ea0,66e47f8c9a74e976efcc5f5d,2024-09-13_11h25.15.562,WTP_SM_Choice,2022.2.1,Win32,59.88023952,,,,,,,,,,,,,,,,,,4,,,,,,,,,,0.01,2,5.8353,0,3,3,3,1,Cook a holiday dinner with my parents in our kitchen while listening to festive music,Watch a sci-fi movie marathon in my living room with the curtains drawn,0.04,0.01,1.1,0,,,,
,,66a3d4b8b4bf84ae5d959a60,6685aa9113c938e83b4f1ea0,66e47f8c9a74e976efcc5f5d,2024-09-13_11h25.15.562,WTP_SM_Choice,2022.2.1,Win32,59.88023952,,,,,,,,,,,,,,,,,,5,,,,,,,,,,0.01,2,6.437,0,4,4,4,1,Walk around a local art fair with my significant other on a sunny Saturday afternoon,Listen to a podcast while walking along the beach at sunrise,0.05,0.01,1.1,0,,,,
,,66a3d4b8b4bf84ae5d959a60,6685aa9113c938e83b4f1ea0,66e47f8c9a74e976efcc5f5d,2024-09-13_11h25.15.562,WTP_SM_Choice,2022.2.1,Win32,59.88023952,,,,,,,NAN,,NAN,0.04,5.96,,0,4,4,4,1,5,Charlie,Acc,Participant_Images/66a3d4b8b4bf84ae5d959a60/66a3d4b8b4bf84ae5d959a60_Images/66a3d4b8b4bf84ae5d959a60_Image_21.jpeg,liked,2.455989137,,,,,,,,,,,,,,,,,,,,,,
,,66a3d4b8b4bf84ae5d959a60,6685aa9113c938e83b4f1ea0,66e47f8c9a74e976efcc5f5d,2024-09-13_11h25.15.562,WTP_SM_Choice,2022.2.1,Win32,59.88023952,,,,,space,1.6834,NAN,,NAN,0.04,5.96,,0,5,5,5,1,6,Charlie,Acc,Participant_Images/66a3d4b8b4bf84ae5d959a60/66a3d4b8b4bf84ae5d959a60_Images/66a3d4b8b4bf84ae5d959a60_Image_6.jpeg,did not like,3.79605092,,,,,,,,,,,,,,,,,,,,,,
,,66a3d4b8b4bf84ae5d959a60,6685aa9113c938e83b4f1ea0,66e47f8c9a74e976efcc5f5d,2024-09-13_11h25.15.562,WTP_SM_Choice,2022.2.1,Win32,59.88023952,,,,,space,1.1757,NAN,,NAN,0.04,5.96,,0,6,6,6,1,7,Charlie,Acc,Participant_Images/66a3d4b8b4bf84ae5d959a60/66a3d4b8b4bf84ae5d959a60_Images/66a3d4b8b4bf84ae5d959a60_Image_3.jpeg,liked,3.562416326,,,,,,,,,,,,,,,,,,,,,,
,,66a3d4b8b4bf84ae5d959a60,6685aa9113c938e83b4f1ea0,66e47f8c9a74e976efcc5f5d,2024-09-13_11h25.15.562,WTP_SM_Choice,2022.2.1,Win32,59.88023952,,,,,space,0.4095,NAN,,NAN,0.04,5.96,,0,7,7,7,1,8,Charlie,Acc,Participant_Images/66a3d4b8b4bf84ae5d959a60/66a3d4b8b4bf84ae5d959a60_Images/66a3d4b8b4bf84ae5d959a60_Image_5.jpeg,liked,2.843822497,,,,,,,,,,,,,,,,,,,,,,
,,66a3d4b8b4bf84ae5d959a60,6685aa9113c938e83b4f1ea0,66e47f8c9a74e976efcc5f5d,2024-09-13_11h25.15.562,WTP_SM_Choice,2022.2.1,Win32,59.88023952,,,,,space,0.8144,NAN,,NAN,0.04,5.96,,0,8,8,8,1,9,Charlie,Acc,Participant_Images/66a3d4b8b4bf84ae5d959a60/66a3d4b8b4bf84ae5d959a60_Images/66a3d4b8b4bf84ae5d959a60_Image_19.jpeg,liked,3.546495948,,,,,,,,,,,,,,,,,,,,,,
,,66a3d4b8b4bf84ae5d959a60,6685aa9113c938e83b4f1ea0,66e47f8c9a74e976efcc5f5d,2024-09-13_11h25.15.562,WTP_SM_Choice,2022.2.1,Win32,59.88023952,,,,,,,,,,,,,,,,,,6,,,,,,space,5.4915,space,2.1188,0.01,1,5.5194,0,0,0,0,1,Explore a new neighborhood with my camera to capture interesting architecture,Attend a live concert with my college friends on a summer evening,0.01,0.02,3.3,1,,,,
,,66a3d4b8b4bf84ae5d959a60,6685aa9113c938e83b4f1ea0,66e47f8c9a74e976efcc5f5d,2024-09-13_11h25.15.562,WTP_SM_Choice,2022.2.1,Win32,59.88023952,,,,,,,,,,,,,,,,,,7,,,,,,,,,,0.02,1,6.2148,0,1,1,1,1,Meditate in a serene forest clearing with the sound of birds chirping,Go on a spontaneous road trip with my siblings to explore nearby towns,0.02,0.02,1.1,1,,,,
,,66a3d4b8b4bf84ae5d959a60,6685aa9113c938e83b4f1ea0,66e47f8c9a74e976efcc5f5d,2024-09-13_11h25.15.562,WTP_SM_Choice,2022.2.1,Win32,59.88023952,,,,,,,,,,,,,,,,,,8,,,,,,,,,,0.03,1,6.5216,0,2,2,2,1,Go on a weekend hiking trip with my best friends in the mountains,Watch a sci-fi movie marathon in my living room with the curtains drawn,0.03,0.02,1.1,0,,,,
,,66a3d4b8b4bf84ae5d959a60,6685aa9113c938e83b4f1ea0,66e47f8c9a74e976efcc5f5d,2024-09-13_11h25.15.562,WTP_SM_Choice,2022.2.1,Win32,59.88023952,,,,,,,,,,,,,,,,,,9,,,,,,,,,,0.02,2,5.585,0,3,3,3,1,Share a meal at a new restaurant with my partner on a friday night in the city,Cook a new recipe in my kitchen with classical music softly playing,0.04,0.02,4.4,0,,,,
,,66a3d4b8b4bf84ae5d959a60,6685aa9113c938e83b4f1ea0,66e47f8c9a74e976efcc5f5d,2024-09-13_11h25.15.562,WTP_SM_Choice,2022.2.1,Win32,59.88023952,,,,,,,,,,,,,,,,,,10,,,,,,,,,,0.05,1,5.015,0,4,4,4,1,Meditate in a serene forest clearing with the sound of birds chirping,Watch the sunset on the beach with my close friends during a summer vacation,0.05,0.02,1.1,1,,,,
,,66a3d4b8b4bf84ae5d959a60,6685aa9113c938e83b4f1ea0,66e47f8c9a74e976efcc5f5d,2024-09-13_11h25.15.562,WTP_SM_Choice,2022.2.1,Win32,59.88023952,,,,,,,NAN,,NAN,0.17,5.83,,0,9,9,9,1,10,Charlie,Acc,Participant_Images/66a3d4b8b4bf84ae5d959a60/66a3d4b8b4bf84ae5d959a60_Images/66a3d4b8b4bf84ae5d959a60_Image_15.jpeg,did not like,1.672012706,,,,,,,,,,,,,,,,,,,,,,
,,66a3d4b8b4bf84ae5d959a60,6685aa9113c938e83b4f1ea0,66e47f8c9a74e976efcc5f5d,2024-09-13_11h25.15.562,WTP_SM_Choice,2022.2.1,Win32,59.88023952,,,,,space,0.9495,NAN,,NAN,0.17,5.83,,0,10,10,10,1,11,Charlie,Acc,Participant_Images/66a3d4b8b4bf84ae5d959a60/66a3d4b8b4bf84ae5d959a60_Images/66a3d4b8b4bf84ae5d959a60_Image_20.jpeg,did not like,4.942172136,,,,,,,,,,,,,,,,,,,,,,
,,66a3d4b8b4bf84ae5d959a60,6685aa9113c938e83b4f1ea0,66e47f8c9a74e976efcc5f5d,2024-09-13_11h25.15.562,WTP_SM_Choice,2022.2.1,Win32,59.88023952,,,,,space,0.4047,NAN,,NAN,0.17,5.83,,0,11,11,11,1,12,Charlie,Acc,Participant_Images/66a3d4b8b4bf84ae5d959a60/66a3d4b8b4bf84ae5d959a60_Images/66a3d4b8b4bf84ae5d959a60_Image_7.jpeg,liked,2.50187214,,,,,,,,,,,,,,,,,,,,,,
,,66a3d4b8b4bf84ae5d959a60,6685aa9113c938e83b4f1ea0,66e47f8c9a74e976efcc5f5d,2024-09-13_11h25.15.562,WTP_SM_Choice,2022.2.1,Win32,59.88023952,,,,,space,0.6708,NAN,,NAN,0.17,5.83,,0,12,12,12,1,13,Charlie,Acc,Participant_Images/66a3d4b8b4bf84ae5d959a60/66a3d4b8b4bf84ae5d959a60_Images/66a3d4b8b4bf84ae5d959a60_Image_10.jpeg,liked,2.071164779,,,,,,,,,,,,,,,,,,,,,,
,,66a3d4b8b4bf84ae5d959a60,6685aa9113c938e83b4f1ea0,66e47f8c9a74e976efcc5f5d,2024-09-13_11h25.15.562,WTP_SM_Choice,2022.2.1,Win32,59.88023952,,,,,space,0.7705,NAN,,NAN,0.17,5.83,,0,13,13,13,1,14,Charlie,Acc,Participant_Images/66a3d4b8b4bf84ae5d959a60/66a3d4b8b4bf84ae5d959a60_Images/66a3d4b8b4bf84ae5d959a60_Image_14.jpeg,liked,5.336503566,,,,,,,,,,,,,,,,,,,,,,
,,66a3d4b8b4bf84ae5d959a60,6685aa9113c938e83b4f1ea0,66e47f8c9a74e976efcc5f5d,2024-09-13_11h25.15.562,WTP_SM_Choice,2022.2.1,Win32,59.88023952,,,,,,,,,,,,,,,,,,11,,,,,,space,2.4266,space,2.3337,0.03,2,5.8196,0,0,0,0,1,Attend a weekend farmers market with my cousin to browse for fresh produce,Explore a new neighborhood with my camera to capture interesting architecture,0.01,0.03,3.3,0,,,,
,,66a3d4b8b4bf84ae5d959a60,6685aa9113c938e83b4f1ea0,66e47f8c9a74e976efcc5f5d,2024-09-13_11h25.15.562,WTP_SM_Choice,2022.2.1,Win32,59.88023952,,,,,,,,,,,,,,,,,,12,,,,,,,,,,0.03,2,3.9604,0,1,1,1,1,Share a meal at a new restaurant with my partner on a friday night in the city,Garden in my backyard early in the morning with the smell of fresh soil,0.02,0.03,4.4,0,,,,
,,66a3d4b8b4bf84ae5d959a60,6685aa9113c938e83b4f1ea0,66e47f8c9a74e976efcc5f5d,2024-09-13_11h25.15.562,WTP_SM_Choice,2022.2.1,Win32,59.88023952,,,,,,,,,,,,,,,,,,13,,,,,,,,,,0.03,1,3.801,0,2,2,2,1,Garden in my backyard early in the morning with the smell of fresh soil,Attend a live concert with my college friends on a summer evening,0.03,0.03,1.1,1,,,,
,,66a3d4b8b4bf84ae5d959a60,6685aa9113c938e83b4f1ea0,66e47f8c9a74e976efcc5f5d,2024-09-13_11h25.15.562,WTP_SM_Choice,2022.2.1,Win32,59.88023952,,,,,,,,,,,,,,,,,,14,,,,,,,,,,0.03,2,4.9477,0,3,3,3,1,Host a movie night with my coworkers at my apartment after a long week,Read a mystery novel on a park bench during a sunny afternoon,0.04,0.03,3.3,0,,,,
,,66a3d4b8b4bf84ae5d959a60,6685aa9113c938e83b4f1ea0,66e47f8c9a74e976efcc5f5d,2024-09-13_11h25.15.562,WTP_SM_Choice,2022.2.1,Win32,59.88023952,,,,,,,,,,,,,,,,,,15,,,,,,,,,,0.05,1,3.7486,0,4,4,4,1,Journal in bed on a rainy evening with a warm cup of tea by my side,Walk around a local art fair with my significant other on a sunny Saturday afternoon,0.05,0.03,4.4,1,,,,
,,66a3d4b8b4bf84ae5d959a60,6685aa9113c938e83b4f1ea0,66e47f8c9a74e976efcc5f5d,2024-09-13_11h25.15.562,WTP_SM_Choice,2022.2.1,Win32,59.88023952,,,,,,,NAN,,NAN,0.34,5.66,,0,14,14,14,1,15,Charlie,Acc,Participant_Images/66a3d4b8b4bf84ae5d959a60/66a3d4b8b4bf84ae5d959a60_Images/66a3d4b8b4bf84ae5d959a60_Image_11.jpeg,liked,2.642157193,,,,,,,,,,,,,,,,,,,,,,
,,66a3d4b8b4bf84ae5d959a60,6685aa9113c938e83b4f1ea0,66e47f8c9a74e976efcc5f5d,2024-09-13_11h25.15.562,WTP_SM_Choice,2022.2.1,Win32,59.88023952,,,,,space,0.832,NAN,,NAN,0.34,5.66,,0,15,15,15,1,16,Charlie,Acc,Participant_Images/66a3d4b8b4bf84ae5d959a60/66a3d4b8b4bf84ae5d959a60_Images/66a3d4b8b4bf84ae5d959a60_Image_24.jpeg,liked,4.456234322,,,,,,,,,,,,,,,,,,,,,,
,,66a3d4b8b4bf84ae5d959a60,6685aa9113c938e83b4f1ea0,66e47f8c9a74e976efcc5f5d,2024-09-13_11h25.15.562,WTP_SM_Choice,2022.2.1,Win32,59.88023952,,,,,space,0.5341,NAN,,NAN,0.34,5.66,,0,16,16,16,1,17,Charlie,Acc,Participant_Images/66a3d4b8b4bf84ae5d959a60/66a3d4b8b4bf84ae5d959a60_Images/66a3d4b8b4bf84ae5d959a60_Image_22.jpeg,liked,4.438512181,,,,,,,,,,,,,,,,,,,,,,
,,66a3d4b8b4bf84ae5d959a60,6685aa9113c938e83b4f1ea0,66e47f8c9a74e976efcc5f5d,2024-09-13_11h25.15.562,WTP_SM_Choice,2022.2.1,Win32,59.88023952,,,,,space,0.5214,NAN,,NAN,0.34,5.66,,0,17,17,17,1,18,Charlie,Acc,Participant_Images/66a3d4b8b4bf84ae5d959a60/66a3d4b8b4bf84ae5d959a60_Images/66a3d4b8b4bf84ae5d959a60_Image_18.jpeg,did not like,2.682944783,,,,,,,,,,,,,,,,,,,,,,
,,66a3d4b8b4bf84ae5d959a60,6685aa9113c938e83b4f1ea0,66e47f8c9a74e976efcc5f5d,2024-09-13_11h25.15.562,WTP_SM_Choice,2022.2.1,Win32,59.88023952,,,,,space,0.618,NAN,,NAN,0.34,5.66,,0,18,18,18,1,19,Charlie,Acc,Participant_Images/66a3d4b8b4bf84ae5d959a60/66a3d4b8b4bf84ae5d959a60_Images/66a3d4b8b4bf84ae5d959a60_Image_1.jpeg,did not like,4.51984296,,,,,,,,,,,,,,,,,,,,,,
,,66a3d4b8b4bf84ae5d959a60,6685aa9113c938e83b4f1ea0,66e47f8c9a74e976efcc5f5d,2024-09-13_11h25.15.562,WTP_SM_Choice,2022.2.1,Win32,59.88023952,,,,,,,,,,,,,,,,,,16,,,,,,space,23.9407,space,14.7716,0.01,1,4.5128,0,0,0,0,1,Write poetry in a cozy coffee shop with soft jazz playing in the background,Share a meal at a new restaurant with my partner on a friday night in the city,0.01,0.04,1.1,1,,,,
,,66a3d4b8b4bf84ae5d959a60,6685aa9113c938e83b4f1ea0,66e47f8c9a74e976efcc5f5d,2024-09-13_11h25.15.562,WTP_SM_Choice,2022.2.1,Win32,59.88023952,,,,,,,,,,,,,,,,,,17,,,,,,,,,,0.02,1,3.7803,0,1,1,1,1,Read a mystery novel on a park bench during a sunny afternoon,Attend a weekend farmers market with my cousin to browse for fresh produce,0.02,0.04,8.8,1,,,,
,,66a3d4b8b4bf84ae5d959a60,6685aa9113c938e83b4f1ea0,66e47f8c9a74e976efcc5f5d,2024-09-13_11h25.15.562,WTP_SM_Choice,2022.2.1,Win32,59.88023952,,,,,,,,,,,,,,,,,,18,,,,,,,,,,0.03,1,6.1199,0,2,2,2,1,Journal in bed on a rainy evening with a warm cup of tea by my side,Host a movie night with my coworkers at my apartment after a long week,0.03,0.04,3.3,1,,,,
,,66a3d4b8b4bf84ae5d959a60,6685aa9113c938e83b4f1ea0,66e47f8c9a74e976efcc5f5d,2024-09-13_11h25.15.562,WTP_SM_Choice,2022.2.1,Win32,59.88023952,,,,,,,,,,,,,,,,,,19,,,,,,,,,,0.04,2,4.941,0,3,3,3,1,Watch the sunset on the beach with my close friends during a summer vacation,Watch a sci-fi movie marathon in my living room with the curtains drawn,0.04,0.04,3.3,0,,,,
,,66a3d4b8b4bf84ae5d959a60,6685aa9113c938e83b4f1ea0,66e47f8c9a74e976efcc5f5d,2024-09-13_11h25.15.562,WTP_SM_Choice,2022.2.1,Win32,59.88023952,,,,,,,,,,,,,,,,,,20,,,,,,,,,,0.05,1,5.1479,0,4,4,4,1,Meditate in a serene forest clearing with the sound of birds chirping,Walk around a local art fair with my significant other on a sunny Saturday afternoon,0.05,0.04,1.1,1,,,,
,,66a3d4b8b4bf84ae5d959a60,6685aa9113c938e83b4f1ea0,66e47f8c9a74e976efcc5f5d,2024-09-13_11h25.15.562,WTP_SM_Choice,2022.2.1,Win32,59.88023952,,,,,,,NAN,,NAN,0.49,5.51,,0,19,19,19,1,20,Charlie,Acc,Participant_Images/66a3d4b8b4bf84ae5d959a60/66a3d4b8b4bf84ae5d959a60_Images/66a3d4b8b4bf84ae5d959a60_Image_16.jpeg,liked,3.195382774,,,,,,,,,,,,,,,,,,,,,,
,,66a3d4b8b4bf84ae5d959a60,6685aa9113c938e83b4f1ea0,66e47f8c9a74e976efcc5f5d,2024-09-13_11h25.15.562,WTP_SM_Choice,2022.2.1,Win32,59.88023952,,,,,space,3.7309,NAN,,NAN,0.49,5.51,,0,20,20,20,1,21,Charlie,Acc,Participant_Images/66a3d4b8b4bf84ae5d959a60/66a3d4b8b4bf84ae5d959a60_Images/66a3d4b8b4bf84ae5d959a60_Image_12.jpeg,liked,1.779333479,,,,,,,,,,,,,,,,,,,,,,
,,66a3d4b8b4bf84ae5d959a60,6685aa9113c938e83b4f1ea0,66e47f8c9a74e976efcc5f5d,2024-09-13_11h25.15.562,WTP_SM_Choice,2022.2.1,Win32,59.88023952,,,,,space,3.6605,NAN,,NAN,0.49,5.51,,0,21,21,21,1,22,Charlie,Acc,Participant_Images/66a3d4b8b4bf84ae5d959a60/66a3d4b8b4bf84ae5d959a60_Images/66a3d4b8b4bf84ae5d959a60_Image_4.jpeg,liked,4.312468682,,,,,,,,,,,,,,,,,,,,,,
,,66a3d4b8b4bf84ae5d959a60,6685aa9113c938e83b4f1ea0,66e47f8c9a74e976efcc5f5d,2024-09-13_11h25.15.562,WTP_SM_Choice,2022.2.1,Win32,59.88023952,,,,,space,5.8281,NAN,,NAN,0.49,5.51,,0,22,22,22,1,23,Charlie,Acc,Participant_Images/66a3d4b8b4bf84ae5d959a60/66a3d4b8b4bf84ae5d959a60_Images/66a3d4b8b4bf84ae5d959a60_Image_9.jpeg,did not like,4.940433059,,,,,,,,,,,,,,,,,,,,,,
,,66a3d4b8b4bf84ae5d959a60,6685aa9113c938e83b4f1ea0,66e47f8c9a74e976efcc5f5d,2024-09-13_11h25.15.562,WTP_SM_Choice,2022.2.1,Win32,59.88023952,,,,,space,1.6193,NAN,,NAN,0.49,5.51,,0,23,23,23,1,24,Charlie,Acc,Participant_Images/66a3d4b8b4bf84ae5d959a60/66a3d4b8b4bf84ae5d959a60_Images/66a3d4b8b4bf84ae5d959a60_Image_2.jpeg,liked,2.7105123,,,,,,,,,,,,,,,,,,,,,,
,,66a3d4b8b4bf84ae5d959a60,6685aa9113c938e83b4f1ea0,66e47f8c9a74e976efcc5f5d,2024-09-13_11h25.15.562,WTP_SM_Choice,2022.2.1,Win32,59.88023952,,,,,,,,,,,,,,,,,,21,,,,,,space,2.2532,space,0.9394,0.01,1,3.1735,0,0,0,0,1,Watch a sci-fi movie marathon in my living room with the curtains drawn,Share a meal at a new restaurant with my partner on a friday night in the city,0.01,0.05,8.8,1,,,,
,,66a3d4b8b4bf84ae5d959a60,6685aa9113c938e83b4f1ea0,66e47f8c9a74e976efcc5f5d,2024-09-13_11h25.15.562,WTP_SM_Choice,2022.2.1,Win32,59.88023952,,,,,,,,,,,,,,,,,,22,,,,,,,,,,0.05,2,6.8581,0,1,1,1,1,Cook a holiday dinner with my parents in our kitchen while listening to festive music,Write poetry in a cozy coffee shop with soft jazz playing in the background,0.02,0.05,4.4,0,,,,
,,66a3d4b8b4bf84ae5d959a60,6685aa9113c938e83b4f1ea0,66e47f8c9a74e976efcc5f5d,2024-09-13_11h25.15.562,WTP_SM_Choice,2022.2.1,Win32,59.88023952,,,,,,,,,,,,,,,,,,23,,,,,,,,,,0.05,2,3.0127,0,2,2,2,1,Play board games with my family on a cozy winter evening by the fire place,Listen to a podcast while walking along the beach at sunrise,0.03,0.05,1.1,0,,,,
,,66a3d4b8b4bf84ae5d959a60,6685aa9113c938e83b4f1ea0,66e47f8c9a74e976efcc5f5d,2024-09-13_11h25.15.562,WTP_SM_Choice,2022.2.1,Win32,59.88023952,,,,,,,,,,,,,,,,,,24,,,,,,,,,,0.05,2,4.1336,0,3,3,3,1,Attend a weekend farmers market with my cousin to browse for fresh produce,Sketch in a quiet art studio surrounded by canvases and paint supplies,0.04,0.05,4.4,0,,,,
,,66a3d4b8b4bf84ae5d959a60,6685aa9113c938e83b4f1ea0,66e47f8c9a74e976efcc5f5d,2024-09-13_11h25.15.562,WTP_SM_Choice,2022.2.1,Win32,59.88023952,,,,,,,,,,,,,,,,,,25,,,,,,,,,,0.05,1,5.0311,0,4,4,4,1,Cook a new recipe in my kitchen with classical music softly playing,Walk around a local art fair with my significant other on a sunny Saturday afternoon,0.05,0.05,3.3,1,,,,
,,66a3d4b8b4bf84ae5d959a60,6685aa9113c938e83b4f1ea0,66e47f8c9a74e976efcc5f5d,2024-09-13_11h25.15.562,WTP_SM_Choice,2022.2.1,Win32,59.88023952,,,,,,,4,,7,0.7,5.3,,0,24,24,24,1,25,Charlie,Acc,Participant_Images/66a3d4b8b4bf84ae5d959a60/66a3d4b8b4bf84ae5d959a60_Images/66a3d4b8b4bf84ae5d959a60_Image_8.jpeg,liked,3.602308302,,,,,,,,,,,,,,,,,,,space,1.8431,,
,,66a3d4b8b4bf84ae5d959a60,6685aa9113c938e83b4f1ea0,66e47f8c9a74e976efcc5f5d,2024-09-13_11h25.15.562,WTP_SM_Choice,2022.2.1,Win32,59.88023952,,,space,3.2963,space,3.9001,NAN,,NAN,0.7,5.3,,0,25,25,25,1,26,Riley,Rej,Participant_Images/66a3d4b8b4bf84ae5d959a60/66a3d4b8b4bf84ae5d959a60_Images/66a3d4b8b4bf84ae5d959a60_Image_18.jpeg,did not like,4.106391878,,,,,,,,,,,,,,,,,,,,,,
,,66a3d4b8b4bf84ae5d959a60,6685aa9113c938e83b4f1ea0,66e47f8c9a74e976efcc5f5d,2024-09-13_11h25.15.562,WTP_SM_Choice,2022.2.1,Win32,59.88023952,,,,,space,1.3654,NAN,,NAN,0.7,5.3,,0,26,26,26,1,27,Riley,Rej,Participant_Images/66a3d4b8b4bf84ae5d959a60/66a3d4b8b4bf84ae5d959a60_Images/66a3d4b8b4bf84ae5d959a60_Image_19.jpeg,did not like,3.799433026,,,,,,,,,,,,,,,,,,,,,,
,,66a3d4b8b4bf84ae5d959a60,6685aa9113c938e83b4f1ea0,66e47f8c9a74e976efcc5f5d,2024-09-13_11h25.15.562,WTP_SM_Choice,2022.2.1,Win32,59.88023952,,,,,space,1.9479,NAN,,NAN,0.7,5.3,,0,27,27,27,1,28,Riley,Rej,Participant_Images/66a3d4b8b4bf84ae5d959a60/66a3d4b8b4bf84ae5d959a60_Images/66a3d4b8b4bf84ae5d959a60_Image_14.jpeg,liked,5.246980764,,,,,,,,,,,,,,,,,,,,,,
,,66a3d4b8b4bf84ae5d959a60,6685aa9113c938e83b4f1ea0,66e47f8c9a74e976efcc5f5d,2024-09-13_11h25.15.562,WTP_SM_Choice,2022.2.1,Win32,59.88023952,,,,,space,0.5084,NAN,,NAN,0.7,5.3,,0,28,28,28,1,29,Riley,Rej,Participant_Images/66a3d4b8b4bf84ae5d959a60/66a3d4b8b4bf84ae5d959a60_Images/66a3d4b8b4bf84ae5d959a60_Image_24.jpeg,did not like,3.30081769,,,,,,,,,,,,,,,,,,,,,,
,,66a3d4b8b4bf84ae5d959a60,6685aa9113c938e83b4f1ea0,66e47f8c9a74e976efcc5f5d,2024-09-13_11h25.15.562,WTP_SM_Choice,2022.2.1,Win32,59.88023952,,,,,,,,,,,,,,,,,,26,,,,,,space,4.2358,space,1.5996,0.01,2,4.4135,0,0,0,0,1,Go on a weekend hiking trip with my best friends in the mountains,Read a mystery novel on a park bench during a sunny afternoon,0.01,0.01,4.4,0,,,,
,,66a3d4b8b4bf84ae5d959a60,6685aa9113c938e83b4f1ea0,66e47f8c9a74e976efcc5f5d,2024-09-13_11h25.15.562,WTP_SM_Choice,2022.2.1,Win32,59.88023952,,,,,,,,,,,,,,,,,,27,,,,,,,,,,0.02,1,5.5153,0,1,1,1,1,Listen to a podcast while walking along the beach at sunrise,Watch the sunset on the beach with my close friends during a summer vacation,0.02,0.01,3.3,1,,,,
,,66a3d4b8b4bf84ae5d959a60,6685aa9113c938e83b4f1ea0,66e47f8c9a74e976efcc5f5d,2024-09-13_11h25.15.562,WTP_SM_Choice,2022.2.1,Win32,59.88023952,,,,,,,,,,,,,,,,,,28,,,,,,,,,,0.01,2,3.6101,0,2,2,2,1,Host a movie night with my coworkers at my apartment after a long week,Write poetry in a cozy coffee shop with soft jazz playing in the background,0.03,0.01,3.3,0,,,,
,,66a3d4b8b4bf84ae5d959a60,6685aa9113c938e83b4f1ea0,66e47f8c9a74e976efcc5f5d,2024-09-13_11h25.15.562,WTP_SM_Choice,2022.2.1,Win32,59.88023952,,,,,,,,,,,,,,,,,,29,,,,,,,,,,0.01,2,6.0431,0,3,3,3,1,Attend a live concert with my college friends on a summer evening,Sketch in a quiet art studio surrounded by canvases and paint supplies,0.04,0.01,4.4,0,,,,
,,66a3d4b8b4bf84ae5d959a60,6685aa9113c938e83b4f1ea0,66e47f8c9a74e976efcc5f5d,2024-09-13_11h25.15.562,WTP_SM_Choice,2022.2.1,Win32,59.88023952,,,,,,,,,,,,,,,,,,30,,,,,,,,,,0.01,2,3.9999,0,4,4,4,1,Go on a spontaneous road trip with my siblings to explore nearby towns,Write poetry in a cozy coffee shop with soft jazz playing in the background,0.05,0.01,8.8,0,,,,
,,66a3d4b8b4bf84ae5d959a60,6685aa9113c938e83b4f1ea0,66e47f8c9a74e976efcc5f5d,2024-09-13_11h25.15.562,WTP_SM_Choice,2022.2.1,Win32,59.88023952,,,,,,,NAN,,NAN,0.76,5.24,,0,29,29,29,1,30,Riley,Rej,Participant_Images/66a3d4b8b4bf84ae5d959a60/66a3d4b8b4bf84ae5d959a60_Images/66a3d4b8b4bf84ae5d959a60_Image_4.jpeg,did not like,1.661473164,,,,,,,,,,,,,,,,,,,,,,
,,66a3d4b8b4bf84ae5d959a60,6685aa9113c938e83b4f1ea0,66e47f8c9a74e976efcc5f5d,2024-09-13_11h25.15.562,WTP_SM_Choice,2022.2.1,Win32,59.88023952,,,,,space,0.7485,NAN,,NAN,0.76,5.24,,0,30,30,30,1,31,Riley,Rej,Participant_Images/66a3d4b8b4bf84ae5d959a60/66a3d4b8b4bf84ae5d959a60_Images/66a3d4b8b4bf84ae5d959a60_Image_20.jpeg,did not like,3.613205605,,,,,,,,,,,,,,,,,,,,,,
,,66a3d4b8b4bf84ae5d959a60,6685aa9113c938e83b4f1ea0,66e47f8c9a74e976efcc5f5d,2024-09-13_11h25.15.562,WTP_SM_Choice,2022.2.1,Win32,59.88023952,,,,,space,0.7492,NAN,,NAN,0.76,5.24,,0,31,31,31,1,32,Riley,Rej,Participant_Images/66a3d4b8b4bf84ae5d959a60/66a3d4b8b4bf84ae5d959a60_Images/66a3d4b8b4bf84ae5d959a60_Image_9.jpeg,liked,4.988446431,,,,,,,,,,,,,,,,,,,,,,
,,66a3d4b8b4bf84ae5d959a60,6685aa9113c938e83b4f1ea0,66e47f8c9a74e976efcc5f5d,2024-09-13_11h25.15.562,WTP_SM_Choice,2022.2.1,Win32,59.88023952,,,,,space,3.8311,NAN,,NAN,0.76,5.24,,0,32,32,32,1,33,Riley,Rej,Participant_Images/66a3d4b8b4bf84ae5d959a60/66a3d4b8b4bf84ae5d959a60_Images/66a3d4b8b4bf84ae5d959a60_Image_23.jpeg,did not like,3.470791822,,,,,,,,,,,,,,,,,,,,,,
,,66a3d4b8b4bf84ae5d959a60,6685aa9113c938e83b4f1ea0,66e47f8c9a74e976efcc5f5d,2024-09-13_11h25.15.562,WTP_SM_Choice,2022.2.1,Win32,59.88023952,,,,,space,0.9692,NAN,,NAN,0.76,5.24,,0,33,33,33,1,34,Riley,Rej,Participant_Images/66a3d4b8b4bf84ae5d959a60/66a3d4b8b4bf84ae5d959a60_Images/66a3d4b8b4bf84ae5d959a60_Image_17.jpeg,did not like,3.820572462,,,,,,,,,,,,,,,,,,,,,,
,,66a3d4b8b4bf84ae5d959a60,6685aa9113c938e83b4f1ea0,66e47f8c9a74e976efcc5f5d,2024-09-13_11h25.15.562,WTP_SM_Choice,2022.2.1,Win32,59.88023952,,,,,,,,,,,,,,,,,,31,,,,,,space,2.9244,space,1.0819,0.02,2,2.734,0,0,0,0,1,Attend a live concert with my college friends on a summer evening,Meditate in a serene forest clearing with the sound of birds chirping,0.01,0.02,8.8,0,,,,
,,66a3d4b8b4bf84ae5d959a60,6685aa9113c938e83b4f1ea0,66e47f8c9a74e976efcc5f5d,2024-09-13_11h25.15.562,WTP_SM_Choice,2022.2.1,Win32,59.88023952,,,,,,,,,,,,,,,,,,32,,,,,,,,,,0.02,2,2.4292,0,1,1,1,1,Cook a holiday dinner with my parents in our kitchen while listening to festive music,Listen to a podcast while walking along the beach at sunrise,0.02,0.02,1.1,0,,,,
,,66a3d4b8b4bf84ae5d959a60,6685aa9113c938e83b4f1ea0,66e47f8c9a74e976efcc5f5d,2024-09-13_11h25.15.562,WTP_SM_Choice,2022.2.1,Win32,59.88023952,,,,,,,,,,,,,,,,,,33,,,,,,,,,,0.03,1,4.7666,0,2,2,2,1,Sketch in a quiet art studio surrounded by canvases and paint supplies,Share a meal at a new restaurant with my partner on a friday night in the city,0.03,0.02,4.4,1,,,,
,,66a3d4b8b4bf84ae5d959a60,6685aa9113c938e83b4f1ea0,66e47f8c9a74e976efcc5f5d,2024-09-13_11h25.15.562,WTP_SM_Choice,2022.2.1,Win32,59.88023952,,,,,,,,,,,,,,,,,,34,,,,,,,,,,0.02,2,2.1026,0,3,3,3,1,Host a movie night with my coworkers at my apartment after a long week,Sketch in a quiet art studio surrounded by canvases and paint supplies,0.04,0.02,3.3,0,,,,
,,66a3d4b8b4bf84ae5d959a60,6685aa9113c938e83b4f1ea0,66e47f8c9a74e976efcc5f5d,2024-09-13_11h25.15.562,WTP_SM_Choice,2022.2.1,Win32,59.88023952,,,,,,,,,,,,,,,,,,35,,,,,,,,,,0.05,1,3.2892,0,4,4,4,1,Listen to a podcast while walking along the beach at sunrise,Attend a live concert with my college friends on a summer evening,0.05,0.02,1.1,1,,,,
,,66a3d4b8b4bf84ae5d959a60,6685aa9113c938e83b4f1ea0,66e47f8c9a74e976efcc5f5d,2024-09-13_11h25.15.562,WTP_SM_Choice,2022.2.1,Win32,59.88023952,,,,,,,NAN,,NAN,0.9,5.1,,0,34,34,34,1,35,Riley,Rej,Participant_Images/66a3d4b8b4bf84ae5d959a60/66a3d4b8b4bf84ae5d959a60_Images/66a3d4b8b4bf84ae5d959a60_Image_10.jpeg,did not like,2.455989137,,,,,,,,,,,,,,,,,,,,,,
,,66a3d4b8b4bf84ae5d959a60,6685aa9113c938e83b4f1ea0,66e47f8c9a74e976efcc5f5d,2024-09-13_11h25.15.562,WTP_SM_Choice,2022.2.1,Win32,59.88023952,,,,,space,3.4794,NAN,,NAN,0.9,5.1,,0,35,35,35,1,36,Riley,Rej,Participant_Images/66a3d4b8b4bf84ae5d959a60/66a3d4b8b4bf84ae5d959a60_Images/66a3d4b8b4bf84ae5d959a60_Image_8.jpeg,liked,3.79605092,,,,,,,,,,,,,,,,,,,,,,
,,66a3d4b8b4bf84ae5d959a60,6685aa9113c938e83b4f1ea0,66e47f8c9a74e976efcc5f5d,2024-09-13_11h25.15.562,WTP_SM_Choice,2022.2.1,Win32,59.88023952,,,,,space,0.4784,NAN,,NAN,0.9,5.1,,0,36,36,36,1,37,Riley,Rej,Participant_Images/66a3d4b8b4bf84ae5d959a60/66a3d4b8b4bf84ae5d959a60_Images/66a3d4b8b4bf84ae5d959a60_Image_21.jpeg,did not like,3.562416326,,,,,,,,,,,,,,,,,,,,,,
,,66a3d4b8b4bf84ae5d959a60,6685aa9113c938e83b4f1ea0,66e47f8c9a74e976efcc5f5d,2024-09-13_11h25.15.562,WTP_SM_Choice,2022.2.1,Win32,59.88023952,,,,,space,0.5028,NAN,,NAN,0.9,5.1,,0,37,37,37,1,38,Riley,Rej,Participant_Images/66a3d4b8b4bf84ae5d959a60/66a3d4b8b4bf84ae5d959a60_Images/66a3d4b8b4bf84ae5d959a60_Image_25.jpeg,did not like,2.843822497,,,,,,,,,,,,,,,,,,,,,,
,,66a3d4b8b4bf84ae5d959a60,6685aa9113c938e83b4f1ea0,66e47f8c9a74e976efcc5f5d,2024-09-13_11h25.15.562,WTP_SM_Choice,2022.2.1,Win32,59.88023952,,,,,space,3.6764,NAN,,NAN,0.9,5.1,,0,38,38,38,1,39,Riley,Rej,Participant_Images/66a3d4b8b4bf84ae5d959a60/66a3d4b8b4bf84ae5d959a60_Images/66a3d4b8b4bf84ae5d959a60_Image_3.jpeg,did not like,3.546495948,,,,,,,,,,,,,,,,,,,,,,
,,66a3d4b8b4bf84ae5d959a60,6685aa9113c938e83b4f1ea0,66e47f8c9a74e976efcc5f5d,2024-09-13_11h25.15.562,WTP_SM_Choice,2022.2.1,Win32,59.88023952,,,,,,,,,,,,,,,,,,36,,,,,,space,2.7668,space,3.7328,0.03,2,5.0548,0,0,0,0,1,Share a meal at a new restaurant with my partner on a friday night in the city,Listen to a podcast while walking along the beach at sunrise,0.01,0.03,3.3,0,,,,
,,66a3d4b8b4bf84ae5d959a60,6685aa9113c938e83b4f1ea0,66e47f8c9a74e976efcc5f5d,2024-09-13_11h25.15.562,WTP_SM_Choice,2022.2.1,Win32,59.88023952,,,,,,,,,,,,,,,,,,37,,,,,,,,,,0.03,2,4.7025,0,1,1,1,1,Watch the sunset on the beach with my close friends during a summer vacation,Journal in bed on a rainy evening with a warm cup of tea by my side,0.02,0.03,1.1,0,,,,
,,66a3d4b8b4bf84ae5d959a60,6685aa9113c938e83b4f1ea0,66e47f8c9a74e976efcc5f5d,2024-09-13_11h25.15.562,WTP_SM_Choice,2022.2.1,Win32,59.88023952,,,,,,,,,,,,,,,,,,38,,,,,,,,,,0.03,2,4.2398,0,2,2,2,1,Walk around a local art fair with my significant other on a sunny Saturday afternoon,Explore a new neighborhood with my camera to capture interesting architecture,0.03,0.03,1.1,0,,,,
,,66a3d4b8b4bf84ae5d959a60,6685aa9113c938e83b4f1ea0,66e47f8c9a74e976efcc5f5d,2024-09-13_11h25.15.562,WTP_SM_Choice,2022.2.1,Win32,59.88023952,,,,,,,,,,,,,,,,,,39,,,,,,,,,,0.04,1,5.4992,0,3,3,3,1,Watch a sci-fi movie marathon in my living room with the curtains drawn,Go on a spontaneous road trip with my siblings to explore nearby towns,0.04,0.03,3.3,1,,,,
,,66a3d4b8b4bf84ae5d959a60,6685aa9113c938e83b4f1ea0,66e47f8c9a74e976efcc5f5d,2024-09-13_11h25.15.562,WTP_SM_Choice,2022.2.1,Win32,59.88023952,,,,,,,,,,,,,,,,,,40,,,,,,,,,,0.03,2,2.4588,0,4,4,4,1,Play board games with my family on a cozy winter evening by the fire place,Sketch in a quiet art studio surrounded by canvases and paint supplies,0.05,0.03,4.4,0,,,,
,,66a3d4b8b4bf84ae5d959a60,6685aa9113c938e83b4f1ea0,66e47f8c9a74e976efcc5f5d,2024-09-13_11h25.15.562,WTP_SM_Choice,2022.2.1,Win32,59.88023952,,,,,,,NAN,,NAN,1.06,4.94,,0,39,39,39,1,40,Riley,Rej,Participant_Images/66a3d4b8b4bf84ae5d959a60/66a3d4b8b4bf84ae5d959a60_Images/66a3d4b8b4bf84ae5d959a60_Image_7.jpeg,liked,1.672012706,,,,,,,,,,,,,,,,,,,,,,
,,66a3d4b8b4bf84ae5d959a60,6685aa9113c938e83b4f1ea0,66e47f8c9a74e976efcc5f5d,2024-09-13_11h25.15.562,WTP_SM_Choice,2022.2.1,Win32,59.88023952,,,,,space,0.5111,NAN,,NAN,1.06,4.94,,0,40,40,40,1,41,Riley,Rej,Participant_Images/66a3d4b8b4bf84ae5d959a60/66a3d4b8b4bf84ae5d959a60_Images/66a3d4b8b4bf84ae5d959a60_Image_2.jpeg,did not like,4.942172136,,,,,,,,,,,,,,,,,,,,,,
,,66a3d4b8b4bf84ae5d959a60,6685aa9113c938e83b4f1ea0,66e47f8c9a74e976efcc5f5d,2024-09-13_11h25.15.562,WTP_SM_Choice,2022.2.1,Win32,59.88023952,,,,,space,1.801,NAN,,NAN,1.06,4.94,,0,41,41,41,1,42,Riley,Rej,Participant_Images/66a3d4b8b4bf84ae5d959a60/66a3d4b8b4bf84ae5d959a60_Images/66a3d4b8b4bf84ae5d959a60_Image_11.jpeg,did not like,2.50187214,,,,,,,,,,,,,,,,,,,,,,
,,66a3d4b8b4bf84ae5d959a60,6685aa9113c938e83b4f1ea0,66e47f8c9a74e976efcc5f5d,2024-09-13_11h25.15.562,WTP_SM_Choice,2022.2.1,Win32,59.88023952,,,,,space,3.9932,NAN,,NAN,1.06,4.94,,0,42,42,42,1,43,Riley,Rej,Participant_Images/66a3d4b8b4bf84ae5d959a60/66a3d4b8b4bf84ae5d959a60_Images/66a3d4b8b4bf84ae5d959a60_Image_16.jpeg,liked,2.071164779,,,,,,,,,,,,,,,,,,,,,,
,,66a3d4b8b4bf84ae5d959a60,6685aa9113c938e83b4f1ea0,66e47f8c9a74e976efcc5f5d,2024-09-13_11h25.15.562,WTP_SM_Choice,2022.2.1,Win32,59.88023952,,,,,space,1.2559,NAN,,NAN,1.06,4.94,,0,43,43,43,1,44,Riley,Rej,Participant_Images/66a3d4b8b4bf84ae5d959a60/66a3d4b8b4bf84ae5d959a60_Images/66a3d4b8b4bf84ae5d959a60_Image_6.jpeg,liked,5.336503566,,,,,,,,,,,,,,,,,,,,,,
,,66a3d4b8b4bf84ae5d959a60,6685aa9113c938e83b4f1ea0,66e47f8c9a74e976efcc5f5d,2024-09-13_11h25.15.562,WTP_SM_Choice,2022.2.1,Win32,59.88023952,,,,,,,,,,,,,,,,,,41,,,,,,space,3.6489,space,0.8357,0.01,1,2.2548,0,0,0,0,1,Garden in my backyard early in the morning with the smell of fresh soil,Go on a weekend hiking trip with my best friends in the mountains,0.01,0.04,1.1,1,,,,
,,66a3d4b8b4bf84ae5d959a60,6685aa9113c938e83b4f1ea0,66e47f8c9a74e976efcc5f5d,2024-09-13_11h25.15.562,WTP_SM_Choice,2022.2.1,Win32,59.88023952,,,,,,,,,,,,,,,,,,42,,,,,,,,,,0.04,2,2.1993,0,1,1,1,1,Watch the sunset on the beach with my close friends during a summer vacation,Sketch in a quiet art studio surrounded by canvases and paint supplies,0.02,0.04,3.3,0,,,,
,,66a3d4b8b4bf84ae5d959a60,6685aa9113c938e83b4f1ea0,66e47f8c9a74e976efcc5f5d,2024-09-13_11h25.15.562,WTP_SM_Choice,2022.2.1,Win32,59.88023952,,,,,,,,,,,,,,,,,,43,,,,,,,,,,0.04,2,6.2906,0,2,2,2,1,Share a meal at a new restaurant with my partner on a friday night in the city,Journal in bed on a rainy evening with a warm cup of tea by my side,0.03,0.04,1.1,0,,,,
,,66a3d4b8b4bf84ae5d959a60,6685aa9113c938e83b4f1ea0,66e47f8c9a74e976efcc5f5d,2024-09-13_11h25.15.562,WTP_SM_Choice,2022.2.1,Win32,59.88023952,,,,,,,,,,,,,,,,,,44,,,,,,,,,,0.04,2,5.1083,0,3,3,3,1,Play board games with my family on a cozy winter evening by the fire place,Read a mystery novel on a park bench during a sunny afternoon,0.04,0.04,1.1,0,,,,
,,66a3d4b8b4bf84ae5d959a60,6685aa9113c938e83b4f1ea0,66e47f8c9a74e976efcc5f5d,2024-09-13_11h25.15.562,WTP_SM_Choice,2022.2.1,Win32,59.88023952,,,,,,,,,,,,,,,,,,45,,,,,,,,,,0.04,2,4.1741,0,4,4,4,1,Cook a holiday dinner with my parents in our kitchen while listening to festive music,Sketch in a quiet art studio surrounded by canvases and paint supplies,0.05,0.04,4.4,0,,,,
,,66a3d4b8b4bf84ae5d959a60,6685aa9113c938e83b4f1ea0,66e47f8c9a74e976efcc5f5d,2024-09-13_11h25.15.562,WTP_SM_Choice,2022.2.1,Win32,59.88023952,,,,,,,NAN,,NAN,1.23,4.77,,0,44,44,44,1,45,Riley,Rej,Participant_Images/66a3d4b8b4bf84ae5d959a60/66a3d4b8b4bf84ae5d959a60_Images/66a3d4b8b4bf84ae5d959a60_Image_13.jpeg,did not like,2.642157193,,,,,,,,,,,,,,,,,,,,,,
,,66a3d4b8b4bf84ae5d959a60,6685aa9113c938e83b4f1ea0,66e47f8c9a74e976efcc5f5d,2024-09-13_11h25.15.562,WTP_SM_Choice,2022.2.1,Win32,59.88023952,,,,,space,0.2194,NAN,,NAN,1.23,4.77,,0,45,45,45,1,46,Riley,Rej,Participant_Images/66a3d4b8b4bf84ae5d959a60/66a3d4b8b4bf84ae5d959a60_Images/66a3d4b8b4bf84ae5d959a60_Image_5.jpeg,did not like,4.456234322,,,,,,,,,,,,,,,,,,,,,,
,,66a3d4b8b4bf84ae5d959a60,6685aa9113c938e83b4f1ea0,66e47f8c9a74e976efcc5f5d,2024-09-13_11h25.15.562,WTP_SM_Choice,2022.2.1,Win32,59.88023952,,,,,space,1.094,NAN,,NAN,1.23,4.77,,0,46,46,46,1,47,Riley,Rej,Participant_Images/66a3d4b8b4bf84ae5d959a60/66a3d4b8b4bf84ae5d959a60_Images/66a3d4b8b4bf84ae5d959a60_Image_22.jpeg,did not like,4.438512181,,,,,,,,,,,,,,,,,,,,,,
,,66a3d4b8b4bf84ae5d959a60,6685aa9113c938e83b4f1ea0,66e47f8c9a74e976efcc5f5d,2024-09-13_11h25.15.562,WTP_SM_Choice,2022.2.1,Win32,59.88023952,,,,,space,1.9623,NAN,,NAN,1.23,4.77,,0,47,47,47,1,48,Riley,Rej,Participant_Images/66a3d4b8b4bf84ae5d959a60/66a3d4b8b4bf84ae5d959a60_Images/66a3d4b8b4bf84ae5d959a60_Image_1.jpeg,did not like,2.682944783,,,,,,,,,,,,,,,,,,,,,,
,,66a3d4b8b4bf84ae5d959a60,6685aa9113c938e83b4f1ea0,66e47f8c9a74e976efcc5f5d,2024-09-13_11h25.15.562,WTP_SM_Choice,2022.2.1,Win32,59.88023952,,,,,space,0.6664,NAN,,NAN,1.23,4.77,,0,48,48,48,1,49,Riley,Rej,Participant_Images/66a3d4b8b4bf84ae5d959a60/66a3d4b8b4bf84ae5d959a60_Images/66a3d4b8b4bf84ae5d959a60_Image_15.jpeg,did not like,4.51984296,,,,,,,,,,,,,,,,,,,,,,
,,66a3d4b8b4bf84ae5d959a60,6685aa9113c938e83b4f1ea0,66e47f8c9a74e976efcc5f5d,2024-09-13_11h25.15.562,WTP_SM_Choice,2022.2.1,Win32,59.88023952,,,,,,,,,,,,,,,,,,46,,,,,,space,1.9855,space,1.1027,0.05,2,1.9459,0,0,0,0,1,Go on a spontaneous road trip with my siblings to explore nearby towns,Journal in bed on a rainy evening with a warm cup of tea by my side,0.01,0.05,8.8,0,,,,
,,66a3d4b8b4bf84ae5d959a60,6685aa9113c938e83b4f1ea0,66e47f8c9a74e976efcc5f5d,2024-09-13_11h25.15.562,WTP_SM_Choice,2022.2.1,Win32,59.88023952,,,,,,,,,,,,,,,,,,47,,,,,,,,,,0.05,2,6.645,0,1,1,1,1,Watch the sunset on the beach with my close friends during a summer vacation,Cook a new recipe in my kitchen with classical music softly playing,0.02,0.05,1.1,0,,,,
,,66a3d4b8b4bf84ae5d959a60,6685aa9113c938e83b4f1ea0,66e47f8c9a74e976efcc5f5d,2024-09-13_11h25.15.562,WTP_SM_Choice,2022.2.1,Win32,59.88023952,,,,,,,,,,,,,,,,,,48,,,,,,,,,,0.05,2,3.5103,0,2,2,2,1,Play board games with my family on a cozy winter evening by the fire place,Cook a new recipe in my kitchen with classical music softly playing,0.03,0.05,4.4,0,,,,
,,66a3d4b8b4bf84ae5d959a60,6685aa9113c938e83b4f1ea0,66e47f8c9a74e976efcc5f5d,2024-09-13_11h25.15.562,WTP_SM_Choice,2022.2.1,Win32,59.88023952,,,,,,,,,,,,,,,,,,49,,,,,,,,,,0.05,2,4.1515,0,3,3,3,1,Share a meal at a new restaurant with my partner on a friday night in the city,Explore a new neighborhood with my camera to capture interesting architecture,0.04,0.05,3.3,0,,,,
,,66a3d4b8b4bf84ae5d959a60,6685aa9113c938e83b4f1ea0,66e47f8c9a74e976efcc5f5d,2024-09-13_11h25.15.562,WTP_SM_Choice,2022.2.1,Win32,59.88023952,,,,,,,,,,,,,,,,,,50,,,,,,,,,,0.05,2,4.1066,0,4,4,4,1,Go on a weekend hiking trip with my best friends in the mountains,Journal in bed on a rainy evening with a warm cup of tea by my side,0.05,0.05,1.1,0,,,,
,,66a3d4b8b4bf84ae5d959a60,6685aa9113c938e83b4f1ea0,66e47f8c9a74e976efcc5f5d,2024-09-13_11h25.15.562,WTP_SM_Choice,2022.2.1,Win32,59.88023952,,,,,,,1,,6,1.48,4.52,,0,49,49,49,1,50,Riley,Rej,Participant_Images/66a3d4b8b4bf84ae5d959a60/66a3d4b8b4bf84ae5d959a60_Images/66a3d4b8b4bf84ae5d959a60_Image_12.jpeg,liked,3.195382774,,,,,,,,,,,,,,,,,,,space,2.1348,,
,,66a3d4b8b4bf84ae5d959a60,6685aa9113c938e83b4f1ea0,66e47f8c9a74e976efcc5f5d,2024-09-13_11h25.15.562,WTP_SM_Choice,2022.2.1,Win32,59.88023952,,,space,3.7875,space,2.632,NAN,,NAN,1.48,4.52,,0,50,50,50,1,51,Alex,Rej,Participant_Images/66a3d4b8b4bf84ae5d959a60/66a3d4b8b4bf84ae5d959a60_Images/66a3d4b8b4bf84ae5d959a60_Image_19.jpeg,liked,1.779333479,,,,,,,,,,,,,,,,,,,,,,
,,66a3d4b8b4bf84ae5d959a60,6685aa9113c938e83b4f1ea0,66e47f8c9a74e976efcc5f5d,2024-09-13_11h25.15.562,WTP_SM_Choice,2022.2.1,Win32,59.88023952,,,,,space,0.6569,NAN,,NAN,1.48,4.52,,0,51,51,51,1,52,Alex,Rej,Participant_Images/66a3d4b8b4bf84ae5d959a60/66a3d4b8b4bf84ae5d959a60_Images/66a3d4b8b4bf84ae5d959a60_Image_16.jpeg,did not like,4.312468682,,,,,,,,,,,,,,,,,,,,,,
,,66a3d4b8b4bf84ae5d959a60,6685aa9113c938e83b4f1ea0,66e47f8c9a74e976efcc5f5d,2024-09-13_11h25.15.562,WTP_SM_Choice,2022.2.1,Win32,59.88023952,,,,,space,0.858,NAN,,NAN,1.48,4.52,,0,52,52,52,1,53,Alex,Rej,Participant_Images/66a3d4b8b4bf84ae5d959a60/66a3d4b8b4bf84ae5d959a60_Images/66a3d4b8b4bf84ae5d959a60_Image_4.jpeg,did not like,4.940433059,,,,,,,,,,,,,,,,,,,,,,
,,66a3d4b8b4bf84ae5d959a60,6685aa9113c938e83b4f1ea0,66e47f8c9a74e976efcc5f5d,2024-09-13_11h25.15.562,WTP_SM_Choice,2022.2.1,Win32,59.88023952,,,,,space,0.4556,NAN,,NAN,1.48,4.52,,0,53,53,53,1,54,Alex,Rej,Participant_Images/66a3d4b8b4bf84ae5d959a60/66a3d4b8b4bf84ae5d959a60_Images/66a3d4b8b4bf84ae5d959a60_Image_12.jpeg,did not like,2.7105123,,,,,,,,,,,,,,,,,,,,,,
,,66a3d4b8b4bf84ae5d959a60,6685aa9113c938e83b4f1ea0,66e47f8c9a74e976efcc5f5d,2024-09-13_11h25.15.562,WTP_SM_Choice,2022.2.1,Win32,59.88023952,,,,,,,,,,,,,,,,,,51,,,,,,space,1.1814,space,1.2779,0.01,1,1.4763,0,0,0,0,1,Sketch in a quiet art studio surrounded by canvases and paint supplies,Go on a spontaneous road trip with my siblings to explore nearby towns,0.01,0.01,1.1,1,,,,
,,66a3d4b8b4bf84ae5d959a60,6685aa9113c938e83b4f1ea0,66e47f8c9a74e976efcc5f5d,2024-09-13_11h25.15.562,WTP_SM_Choice,2022.2.1,Win32,59.88023952,,,,,,,,,,,,,,,,,,52,,,,,,,,,,0.02,1,3.1257,0,1,1,1,1,Cook a new recipe in my kitchen with classical music softly playing,Go on a spontaneous road trip with my siblings to explore nearby towns,0.02,0.01,3.3,1,,,,
,,66a3d4b8b4bf84ae5d959a60,6685aa9113c938e83b4f1ea0,66e47f8c9a74e976efcc5f5d,2024-09-13_11h25.15.562,WTP_SM_Choice,2022.2.1,Win32,59.88023952,,,,,,,,,,,,,,,,,,53,,,,,,,,,,0.03,1,2.5641,0,2,2,2,1,Garden in my backyard early in the morning with the smell of fresh soil,Cook a holiday dinner with my parents in our kitchen while listening to festive music,0.03,0.01,1.1,1,,,,
,,66a3d4b8b4bf84ae5d959a60,6685aa9113c938e83b4f1ea0,66e47f8c9a74e976efcc5f5d,2024-09-13_11h25.15.562,WTP_SM_Choice,2022.2.1,Win32,59.88023952,,,,,,,,,,,,,,,,,,54,,,,,,,,,,0.04,1,2.3329,0,3,3,3,1,Watch a sci-fi movie marathon in my living room with the curtains drawn,Attend a live concert with my college friends on a summer evening,0.04,0.01,4.4,1,,,,
,,66a3d4b8b4bf84ae5d959a60,6685aa9113c938e83b4f1ea0,66e47f8c9a74e976efcc5f5d,2024-09-13_11h25.15.562,WTP_SM_Choice,2022.2.1,Win32,59.88023952,,,,,,,,,,,,,,,,,,55,,,,,,,,,,0.01,2,6.0736,0,4,4,4,1,Cook a holiday dinner with my parents in our kitchen while listening to festive music,Cook a new recipe in my kitchen with classical music softly playing,0.05,0.01,1.1,0,,,,
,,66a3d4b8b4bf84ae5d959a60,6685aa9113c938e83b4f1ea0,66e47f8c9a74e976efcc5f5d,2024-09-13_11h25.15.562,WTP_SM_Choice,2022.2.1,Win32,59.88023952,,,,,,,NAN,,NAN,1.59,4.41,,0,54,54,54,1,55,Alex,Rej,Participant_Images/66a3d4b8b4bf84ae5d959a60/66a3d4b8b4bf84ae5d959a60_Images/66a3d4b8b4bf84ae5d959a60_Image_8.jpeg,did not like,3.602308302,,,,,,,,,,,,,,,,,,,,,,
,,66a3d4b8b4bf84ae5d959a60,6685aa9113c938e83b4f1ea0,66e47f8c9a74e976efcc5f5d,2024-09-13_11h25.15.562,WTP_SM_Choice,2022.2.1,Win32,59.88023952,,,,,space,2.9588,NAN,,NAN,1.59,4.41,,0,55,55,55,1,56,Alex,Rej,Participant_Images/66a3d4b8b4bf84ae5d959a60/66a3d4b8b4bf84ae5d959a60_Images/66a3d4b8b4bf84ae5d959a60_Image_21.jpeg,did not like,4.106391878,,,,,,,,,,,,,,,,,,,,,,
,,66a3d4b8b4bf84ae5d959a60,6685aa9113c938e83b4f1ea0,66e47f8c9a74e976efcc5f5d,2024-09-13_11h25.15.562,WTP_SM_Choice,2022.2.1,Win32,59.88023952,,,,,space,0.1517,NAN,,NAN,1.59,4.41,,0,56,56,56,1,57,Alex,Rej,Participant_Images/66a3d4b8b4bf84ae5d959a60/66a3d4b8b4bf84ae5d959a60_Images/66a3d4b8b4bf84ae5d959a60_Image_13.jpeg,did not like,3.799433026,,,,,,,,,,,,,,,,,,,,,,
,,66a3d4b8b4bf84ae5d959a60,6685aa9113c938e83b4f1ea0,66e47f8c9a74e976efcc5f5d,2024-09-13_11h25.15.562,WTP_SM_Choice,2022.2.1,Win32,59.88023952,,,,,space,0.3421,NAN,,NAN,1.59,4.41,,0,57,57,57,1,58,Alex,Rej,Participant_Images/66a3d4b8b4bf84ae5d959a60/66a3d4b8b4bf84ae5d959a60_Images/66a3d4b8b4bf84ae5d959a60_Image_2.jpeg,did not like,5.246980764,,,,,,,,,,,,,,,,,,,,,,
,,66a3d4b8b4bf84ae5d959a60,6685aa9113c938e83b4f1ea0,66e47f8c9a74e976efcc5f5d,2024-09-13_11h25.15.562,WTP_SM_Choice,2022.2.1,Win32,59.88023952,,,,,space,0.9733,NAN,,NAN,1.59,4.41,,0,58,58,58,1,59,Alex,Rej,Participant_Images/66a3d4b8b4bf84ae5d959a60/66a3d4b8b4bf84ae5d959a60_Images/66a3d4b8b4bf84ae5d959a60_Image_6.jpeg,liked,3.30081769,,,,,,,,,,,,,,,,,,,,,,
,,66a3d4b8b4bf84ae5d959a60,6685aa9113c938e83b4f1ea0,66e47f8c9a74e976efcc5f5d,2024-09-13_11h25.15.562,WTP_SM_Choice,2022.2.1,Win32,59.88023952,,,,,,,,,,,,,,,,,,56,,,,,,space,1.3422,space,1.8873,0.02,2,4.6573,0,0,0,0,1,Attend a weekend farmers market with my cousin to browse for fresh produce,Write poetry in a cozy coffee shop with soft jazz playing in the background,0.01,0.02,8.8,0,,,,
,,66a3d4b8b4bf84ae5d959a60,6685aa9113c938e83b4f1ea0,66e47f8c9a74e976efcc5f5d,2024-09-13_11h25.15.562,WTP_SM_Choice,2022.2.1,Win32,59.88023952,,,,,,,,,,,,,,,,,,57,,,,,,,,,,0.02,1,3.5675,0,1,1,1,1,Read a mystery novel on a park bench during a sunny afternoon,Go on a spontaneous road trip with my siblings to explore nearby towns,0.02,0.02,4.4,1,,,,
,,66a3d4b8b4bf84ae5d959a60,6685aa9113c938e83b4f1ea0,66e47f8c9a74e976efcc5f5d,2024-09-13_11h25.15.562,WTP_SM_Choice,2022.2.1,Win32,59.88023952,,,,,,,,,,,,,,,,,,58,,,,,,,,,,0.03,1,3.5026,0,2,2,2,1,Meditate in a serene forest clearing with the sound of birds chirping,Share a meal at a new restaurant with my partner on a friday night in the city,0.03,0.02,4.4,1,,,,
,,66a3d4b8b4bf84ae5d959a60,6685aa9113c938e83b4f1ea0,66e47f8c9a74e976efcc5f5d,2024-09-13_11h25.15.562,WTP_SM_Choice,2022.2.1,Win32,59.88023952,,,,,,,,,,,,,,,,,,59,,,,,,,,,,0.04,1,3.8912,0,3,3,3,1,Listen to a podcast while walking along the beach at sunrise,Host a movie night with my coworkers at my apartment after a long week,0.04,0.02,4.4,1,,,,
,,66a3d4b8b4bf84ae5d959a60,6685aa9113c938e83b4f1ea0,66e47f8c9a74e976efcc5f5d,2024-09-13_11h25.15.562,WTP_SM_Choice,2022.2.1,Win32,59.88023952,,,,,,,,,,,,,,,,,,60,,,,,,,,,,0.05,1,1.5787,0,4,4,4,1,Garden in my backyard early in the morning with the smell of fresh soil,Play board games with my family on a cozy winter evening by the fire place,0.05,0.02,1.1,1,,,,
,,66a3d4b8b4bf84ae5d959a60,6685aa9113c938e83b4f1ea0,66e47f8c9a74e976efcc5f5d,2024-09-13_11h25.15.562,WTP_SM_Choice,2022.2.1,Win32,59.88023952,,,,,,,NAN,,NAN,1.75,4.25,,0,59,59,59,1,60,Alex,Rej,Participant_Images/66a3d4b8b4bf84ae5d959a60/66a3d4b8b4bf84ae5d959a60_Images/66a3d4b8b4bf84ae5d959a60_Image_9.jpeg,did not like,1.661473164,,,,,,,,,,,,,,,,,,,,,,
,,66a3d4b8b4bf84ae5d959a60,6685aa9113c938e83b4f1ea0,66e47f8c9a74e976efcc5f5d,2024-09-13_11h25.15.562,WTP_SM_Choice,2022.2.1,Win32,59.88023952,,,,,space,0.9192,NAN,,NAN,1.75,4.25,,0,60,60,60,1,61,Alex,Rej,Participant_Images/66a3d4b8b4bf84ae5d959a60/66a3d4b8b4bf84ae5d959a60_Images/66a3d4b8b4bf84ae5d959a60_Image_18.jpeg,did not like,3.613205605,,,,,,,,,,,,,,,,,,,,,,
,,66a3d4b8b4bf84ae5d959a60,6685aa9113c938e83b4f1ea0,66e47f8c9a74e976efcc5f5d,2024-09-13_11h25.15.562,WTP_SM_Choice,2022.2.1,Win32,59.88023952,,,,,space,0.4827,NAN,,NAN,1.75,4.25,,0,61,61,61,1,62,Alex,Rej,Participant_Images/66a3d4b8b4bf84ae5d959a60/66a3d4b8b4bf84ae5d959a60_Images/66a3d4b8b4bf84ae5d959a60_Image_11.jpeg,did not like,4.988446431,,,,,,,,,,,,,,,,,,,,,,
,,66a3d4b8b4bf84ae5d959a60,6685aa9113c938e83b4f1ea0,66e47f8c9a74e976efcc5f5d,2024-09-13_11h25.15.562,WTP_SM_Choice,2022.2.1,Win32,59.88023952,,,,,space,0.7245,NAN,,NAN,1.75,4.25,,0,62,62,62,1,63,Alex,Rej,Participant_Images/66a3d4b8b4bf84ae5d959a60/66a3d4b8b4bf84ae5d959a60_Images/66a3d4b8b4bf84ae5d959a60_Image_7.jpeg,liked,3.470791822,,,,,,,,,,,,,,,,,,,,,,
,,66a3d4b8b4bf84ae5d959a60,6685aa9113c938e83b4f1ea0,66e47f8c9a74e976efcc5f5d,2024-09-13_11h25.15.562,WTP_SM_Choice,2022.2.1,Win32,59.88023952,,,,,space,0.1103,NAN,,NAN,1.75,4.25,,0,63,63,63,1,64,Alex,Rej,Participant_Images/66a3d4b8b4bf84ae5d959a60/66a3d4b8b4bf84ae5d959a60_Images/66a3d4b8b4bf84ae5d959a60_Image_10.jpeg,did not like,3.820572462,,,,,,,,,,,,,,,,,,,,,,
,,66a3d4b8b4bf84ae5d959a60,6685aa9113c938e83b4f1ea0,66e47f8c9a74e976efcc5f5d,2024-09-13_11h25.15.562,WTP_SM_Choice,2022.2.1,Win32,59.88023952,,,,,,,,,,,,,,,,,,61,,,,,,space,2.2667,space,0.9078,0.01,1,1.4287,0,0,0,0,1,Explore a new neighborhood with my camera to capture interesting architecture,Go on a spontaneous road trip with my siblings to explore nearby towns,0.01,0.03,3.3,1,,,,
,,66a3d4b8b4bf84ae5d959a60,6685aa9113c938e83b4f1ea0,66e47f8c9a74e976efcc5f5d,2024-09-13_11h25.15.562,WTP_SM_Choice,2022.2.1,Win32,59.88023952,,,,,,,,,,,,,,,,,,62,,,,,,,,,,0.02,1,2.8448,0,1,1,1,1,Cook a new recipe in my kitchen with classical music softly playing,Attend a weekend farmers market with my cousin to browse for fresh produce,0.02,0.03,3.3,1,,,,
,,66a3d4b8b4bf84ae5d959a60,6685aa9113c938e83b4f1ea0,66e47f8c9a74e976efcc5f5d,2024-09-13_11h25.15.562,WTP_SM_Choice,2022.2.1,Win32,59.88023952,,,,,,,,,,,,,,,,,,63,,,,,,,,,,0.03,2,3.6785,0,2,2,2,1,Host a movie night with my coworkers at my apartment after a long week,Explore a new neighborhood with my camera to capture interesting architecture,0.03,0.03,3.3,0,,,,
,,66a3d4b8b4bf84ae5d959a60,6685aa9113c938e83b4f1ea0,66e47f8c9a74e976efcc5f5d,2024-09-13_11h25.15.562,WTP_SM_Choice,2022.2.1,Win32,59.88023952,,,,,,,,,,,,,,,,,,64,,,,,,,,,,0.04,1,5.9161,0,3,3,3,1,Sketch in a quiet art studio surrounded by canvases and paint supplies,Go on a weekend hiking trip with my best friends in the mountains,0.04,0.03,1.1,1,,,,
,,66a3d4b8b4bf84ae5d959a60,6685aa9113c938e83b4f1ea0,66e47f8c9a74e976efcc5f5d,2024-09-13_11h25.15.562,WTP_SM_Choice,2022.2.1,Win32,59.88023952,,,,,,,,,,,,,,,,,,65,,,,,,,,,,0.03,2,4.1813,0,4,4,4,1,Go on a weekend hiking trip with my best friends in the mountains,Listen to a podcast while walking along the beach at sunrise,0.05,0.03,1.1,0,,,,
,,66a3d4b8b4bf84ae5d959a60,6685aa9113c938e83b4f1ea0,66e47f8c9a74e976efcc5f5d,2024-09-13_11h25.15.562,WTP_SM_Choice,2022.2.1,Win32,59.88023952,,,,,,,NAN,,NAN,1.88,4.12,,0,64,64,64,1,65,Alex,Rej,Participant_Images/66a3d4b8b4bf84ae5d959a60/66a3d4b8b4bf84ae5d959a60_Images/66a3d4b8b4bf84ae5d959a60_Image_20.jpeg,liked,2.455989137,,,,,,,,,,,,,,,,,,,,,,
,,66a3d4b8b4bf84ae5d959a60,6685aa9113c938e83b4f1ea0,66e47f8c9a74e976efcc5f5d,2024-09-13_11h25.15.562,WTP_SM_Choice,2022.2.1,Win32,59.88023952,,,,,space,0.3182,NAN,,NAN,1.88,4.12,,0,65,65,65,1,66,Alex,Rej,Participant_Images/66a3d4b8b4bf84ae5d959a60/66a3d4b8b4bf84ae5d959a60_Images/66a3d4b8b4bf84ae5d959a60_Image_22.jpeg,did not like,3.79605092,,,,,,,,,,,,,,,,,,,,,,
,,66a3d4b8b4bf84ae5d959a60,6685aa9113c938e83b4f1ea0,66e47f8c9a74e976efcc5f5d,2024-09-13_11h25.15.562,WTP_SM_Choice,2022.2.1,Win32,59.88023952,,,,,space,0.5116,NAN,,NAN,1.88,4.12,,0,66,66,66,1,67,Alex,Rej,Participant_Images/66a3d4b8b4bf84ae5d959a60/66a3d4b8b4bf84ae5d959a60_Images/66a3d4b8b4bf84ae5d959a60_Image_25.jpeg,liked,3.562416326,,,,,,,,,,,,,,,,,,,,,,
,,66a3d4b8b4bf84ae5d959a60,6685aa9113c938e83b4f1ea0,66e47f8c9a74e976efcc5f5d,2024-09-13_11h25.15.562,WTP_SM_Choice,2022.2.1,Win32,59.88023952,,,,,space,0.0189,NAN,,NAN,1.88,4.12,,0,67,67,67,1,68,Alex,Rej,Participant_Images/66a3d4b8b4bf84ae5d959a60/66a3d4b8b4bf84ae5d959a60_Images/66a3d4b8b4bf84ae5d959a60_Image_24.jpeg,did not like,2.843822497,,,,,,,,,,,,,,,,,,,,,,
,,66a3d4b8b4bf84ae5d959a60,6685aa9113c938e83b4f1ea0,66e47f8c9a74e976efcc5f5d,2024-09-13_11h25.15.562,WTP_SM_Choice,2022.2.1,Win32,59.88023952,,,,,space,2.1344,NAN,,NAN,1.88,4.12,,0,68,68,68,1,69,Alex,Rej,Participant_Images/66a3d4b8b4bf84ae5d959a60/66a3d4b8b4bf84ae5d959a60_Images/66a3d4b8b4bf84ae5d959a60_Image_3.jpeg,did not like,3.546495948,,,,,,,,,,,,,,,,,,,,,,
,,66a3d4b8b4bf84ae5d959a60,6685aa9113c938e83b4f1ea0,66e47f8c9a74e976efcc5f5d,2024-09-13_11h25.15.562,WTP_SM_Choice,2022.2.1,Win32,59.88023952,,,,,,,,,,,,,,,,,,66,,,,,,space,1.5679,space,0.5827,0.01,1,2.3315,0,0,0,0,1,Watch a sci-fi movie marathon in my living room with the curtains drawn,Attend a weekend farmers market with my cousin to browse for fresh produce,0.01,0.04,1.1,1,,,,
,,66a3d4b8b4bf84ae5d959a60,6685aa9113c938e83b4f1ea0,66e47f8c9a74e976efcc5f5d,2024-09-13_11h25.15.562,WTP_SM_Choice,2022.2.1,Win32,59.88023952,,,,,,,,,,,,,,,,,,67,,,,,,,,,,0.02,1,6.9546,0,1,1,1,1,Write poetry in a cozy coffee shop with soft jazz playing in the background,Watch the sunset on the beach with my close friends during a summer vacation,0.02,0.04,8.8,1,,,,
,,66a3d4b8b4bf84ae5d959a60,6685aa9113c938e83b4f1ea0,66e47f8c9a74e976efcc5f5d,2024-09-13_11h25.15.562,WTP_SM_Choice,2022.2.1,Win32,59.88023952,,,,,,,,,,,,,,,,,,68,,,,,,,,,,0.03,1,3.9691,0,2,2,2,1,Journal in bed on a rainy evening with a warm cup of tea by my side,Cook a holiday dinner with my parents in our kitchen while listening to festive music,0.03,0.04,4.4,1,,,,
,,66a3d4b8b4bf84ae5d959a60,6685aa9113c938e83b4f1ea0,66e47f8c9a74e976efcc5f5d,2024-09-13_11h25.15.562,WTP_SM_Choice,2022.2.1,Win32,59.88023952,,,,,,,,,,,,,,,,,,69,,,,,,,,,,0.04,1,2.9782,0,3,3,3,1,Watch a sci-fi movie marathon in my living room with the curtains drawn,Host a movie night with my coworkers at my apartment after a long week,0.04,0.04,1.1,1,,,,
,,66a3d4b8b4bf84ae5d959a60,6685aa9113c938e83b4f1ea0,66e47f8c9a74e976efcc5f5d,2024-09-13_11h25.15.562,WTP_SM_Choice,2022.2.1,Win32,59.88023952,,,,,,,,,,,,,,,,,,70,,,,,,,,,,0.04,2,7.1253,0,4,4,4,1,Walk around a local art fair with my significant other on a sunny Saturday afternoon,Watch a sci-fi movie marathon in my living room with the curtains drawn,0.05,0.04,1.1,0,,,,
,,66a3d4b8b4bf84ae5d959a60,6685aa9113c938e83b4f1ea0,66e47f8c9a74e976efcc5f5d,2024-09-13_11h25.15.562,WTP_SM_Choice,2022.2.1,Win32,59.88023952,,,,,,,NAN,,NAN,2.02,3.98,,0,69,69,69,1,70,Alex,Rej,Participant_Images/66a3d4b8b4bf84ae5d959a60/66a3d4b8b4bf84ae5d959a60_Images/66a3d4b8b4bf84ae5d959a60_Image_5.jpeg,did not like,1.672012706,,,,,,,,,,,,,,,,,,,,,,
,,66a3d4b8b4bf84ae5d959a60,6685aa9113c938e83b4f1ea0,66e47f8c9a74e976efcc5f5d,2024-09-13_11h25.15.562,WTP_SM_Choice,2022.2.1,Win32,59.88023952,,,,,space,0.443,NAN,,NAN,2.02,3.98,,0,70,70,70,1,71,Alex,Rej,Participant_Images/66a3d4b8b4bf84ae5d959a60/66a3d4b8b4bf84ae5d959a60_Images/66a3d4b8b4bf84ae5d959a60_Image_17.jpeg,did not like,4.942172136,,,,,,,,,,,,,,,,,,,,,,
,,66a3d4b8b4bf84ae5d959a60,6685aa9113c938e83b4f1ea0,66e47f8c9a74e976efcc5f5d,2024-09-13_11h25.15.562,WTP_SM_Choice,2022.2.1,Win32,59.88023952,,,,,space,2.714,NAN,,NAN,2.02,3.98,,0,71,71,71,1,72,Alex,Rej,Participant_Images/66a3d4b8b4bf84ae5d959a60/66a3d4b8b4bf84ae5d959a60_Images/66a3d4b8b4bf84ae5d959a60_Image_14.jpeg,did not like,2.50187214,,,,,,,,,,,,,,,,,,,,,,
,,66a3d4b8b4bf84ae5d959a60,6685aa9113c938e83b4f1ea0,66e47f8c9a74e976efcc5f5d,2024-09-13_11h25.15.562,WTP_SM_Choice,2022.2.1,Win32,59.88023952,,,,,space,0.9074,NAN,,NAN,2.02,3.98,,0,72,72,72,1,73,Alex,Rej,Participant_Images/66a3d4b8b4bf84ae5d959a60/66a3d4b8b4bf84ae5d959a60_Images/66a3d4b8b4bf84ae5d959a60_Image_1.jpeg,liked,2.071164779,,,,,,,,,,,,,,,,,,,,,,
,,66a3d4b8b4bf84ae5d959a60,6685aa9113c938e83b4f1ea0,66e47f8c9a74e976efcc5f5d,2024-09-13_11h25.15.562,WTP_SM_Choice,2022.2.1,Win32,59.88023952,,,,,space,1.1728,NAN,,NAN,2.02,3.98,,0,73,73,73,1,74,Alex,Rej,Participant_Images/66a3d4b8b4bf84ae5d959a60/66a3d4b8b4bf84ae5d959a60_Images/66a3d4b8b4bf84ae5d959a60_Image_23.jpeg,liked,5.336503566,,,,,,,,,,,,,,,,,,,,,,
,,66a3d4b8b4bf84ae5d959a60,6685aa9113c938e83b4f1ea0,66e47f8c9a74e976efcc5f5d,2024-09-13_11h25.15.562,WTP_SM_Choice,2022.2.1,Win32,59.88023952,,,,,,,,,,,,,,,,,,71,,,,,,space,1.0575,space,0.6074,0.01,1,4.1197,0,0,0,0,1,Read a mystery novel on a park bench during a sunny afternoon,Walk around a local art fair with my significant other on a sunny Saturday afternoon,0.01,0.05,3.3,1,,,,
,,66a3d4b8b4bf84ae5d959a60,6685aa9113c938e83b4f1ea0,66e47f8c9a74e976efcc5f5d,2024-09-13_11h25.15.562,WTP_SM_Choice,2022.2.1,Win32,59.88023952,,,,,,,,,,,,,,,,,,72,,,,,,,,,,0.02,1,2.3002,0,1,1,1,1,Garden in my backyard early in the morning with the smell of fresh soil,Walk around a local art fair with my significant other on a sunny Saturday afternoon,0.02,0.05,8.8,1,,,,
,,66a3d4b8b4bf84ae5d959a60,6685aa9113c938e83b4f1ea0,66e47f8c9a74e976efcc5f5d,2024-09-13_11h25.15.562,WTP_SM_Choice,2022.2.1,Win32,59.88023952,,,,,,,,,,,,,,,,,,73,,,,,,,,,,0.05,2,5.9648,0,2,2,2,1,Go on a spontaneous road trip with my siblings to explore nearby towns,Garden in my backyard early in the morning with the smell of fresh soil,0.03,0.05,3.3,0,,,,
,,66a3d4b8b4bf84ae5d959a60,6685aa9113c938e83b4f1ea0,66e47f8c9a74e976efcc5f5d,2024-09-13_11h25.15.562,WTP_SM_Choice,2022.2.1,Win32,59.88023952,,,,,,,,,,,,,,,,,,74,,,,,,,,,,0.05,2,4.9104,0,3,3,3,1,Attend a live concert with my college friends on a summer evening,Write poetry in a cozy coffee shop with soft jazz playing in the background,0.04,0.05,4.4,0,,,,
,,66a3d4b8b4bf84ae5d959a60,6685aa9113c938e83b4f1ea0,66e47f8c9a74e976efcc5f5d,2024-09-13_11h25.15.562,WTP_SM_Choice,2022.2.1,Win32,59.88023952,,,,,,,,,,,,,,,,,,75,,,,,,,,,,0.05,1,6.3465,0,4,4,4,1,Sketch in a quiet art studio surrounded by canvases and paint supplies,Walk around a local art fair with my significant other on a sunny Saturday afternoon,0.05,0.05,3.3,1,,,,
,,66a3d4b8b4bf84ae5d959a60,6685aa9113c938e83b4f1ea0,66e47f8c9a74e976efcc5f5d,2024-09-13_11h25.15.562,WTP_SM_Choice,2022.2.1,Win32,59.88023952,,,,,,,2,,6,2.2,3.8,,0,74,74,74,1,75,Alex,Rej,Participant_Images/66a3d4b8b4bf84ae5d959a60/66a3d4b8b4bf84ae5d959a60_Images/66a3d4b8b4bf84ae5d959a60_Image_15.jpeg,did not like,2.642157193,,,,,,,,,,,,,,,,,,,space,1.4657,,
,,66a3d4b8b4bf84ae5d959a60,6685aa9113c938e83b4f1ea0,66e47f8c9a74e976efcc5f5d,2024-09-13_11h25.15.562,WTP_SM_Choice,2022.2.1,Win32,59.88023952,,,space,4.0515,space,2.2577,NAN,,NAN,2.2,3.8,,0,75,75,75,1,76,Sam,Acc,Participant_Images/66a3d4b8b4bf84ae5d959a60/66a3d4b8b4bf84ae5d959a60_Images/66a3d4b8b4bf84ae5d959a60_Image_21.jpeg,liked,4.456234322,,,,,,,,,,,,,,,,,,,,,,
,,66a3d4b8b4bf84ae5d959a60,6685aa9113c938e83b4f1ea0,66e47f8c9a74e976efcc5f5d,2024-09-13_11h25.15.562,WTP_SM_Choice,2022.2.1,Win32,59.88023952,,,,,space,0.9958,NAN,,NAN,2.2,3.8,,0,76,76,76,1,77,Sam,Acc,Participant_Images/66a3d4b8b4bf84ae5d959a60/66a3d4b8b4bf84ae5d959a60_Images/66a3d4b8b4bf84ae5d959a60_Image_22.jpeg,did not like,4.438512181,,,,,,,,,,,,,,,,,,,,,,
,,66a3d4b8b4bf84ae5d959a60,6685aa9113c938e83b4f1ea0,66e47f8c9a74e976efcc5f5d,2024-09-13_11h25.15.562,WTP_SM_Choice,2022.2.1,Win32,59.88023952,,,,,space,0.8076,NAN,,NAN,2.2,3.8,,0,77,77,77,1,78,Sam,Acc,Participant_Images/66a3d4b8b4bf84ae5d959a60/66a3d4b8b4bf84ae5d959a60_Images/66a3d4b8b4bf84ae5d959a60_Image_18.jpeg,liked,2.682944783,,,,,,,,,,,,,,,,,,,,,,
,,66a3d4b8b4bf84ae5d959a60,6685aa9113c938e83b4f1ea0,66e47f8c9a74e976efcc5f5d,2024-09-13_11h25.15.562,WTP_SM_Choice,2022.2.1,Win32,59.88023952,,,,,space,0.0844,NAN,,NAN,2.2,3.8,,0,78,78,78,1,79,Sam,Acc,Participant_Images/66a3d4b8b4bf84ae5d959a60/66a3d4b8b4bf84ae5d959a60_Images/66a3d4b8b4bf84ae5d959a60_Image_13.jpeg,liked,4.51984296,,,,,,,,,,,,,,,,,,,,,,
,,66a3d4b8b4bf84ae5d959a60,6685aa9113c938e83b4f1ea0,66e47f8c9a74e976efcc5f5d,2024-09-13_11h25.15.562,WTP_SM_Choice,2022.2.1,Win32,59.88023952,,,,,,,,,,,,,,,,,,76,,,,,,space,0.5365,space,0.2014,0.01,1,4.8346,0,0,0,0,1,Explore a new neighborhood with my camera to capture interesting architecture,Go on a weekend hiking trip with my best friends in the mountains,0.01,0.01,1.1,1,,,,
,,66a3d4b8b4bf84ae5d959a60,6685aa9113c938e83b4f1ea0,66e47f8c9a74e976efcc5f5d,2024-09-13_11h25.15.562,WTP_SM_Choice,2022.2.1,Win32,59.88023952,,,,,,,,,,,,,,,,,,77,,,,,,,,,,0.02,1,3.7212,0,1,1,1,1,Listen to a podcast while walking along the beach at sunrise,Go on a spontaneous road trip with my siblings to explore nearby towns,0.02,0.01,8.8,1,,,,
,,66a3d4b8b4bf84ae5d959a60,6685aa9113c938e83b4f1ea0,66e47f8c9a74e976efcc5f5d,2024-09-13_11h25.15.562,WTP_SM_Choice,2022.2.1,Win32,59.88023952,,,,,,,,,,,,,,,,,,78,,,,,,,,,,0.03,1,3.1412,0,2,2,2,1,Meditate in a serene forest clearing with the sound of birds chirping,Play board games with my family on a cozy winter evening by the fire place,0.03,0.01,1.1,1,,,,
,,66a3d4b8b4bf84ae5d959a60,6685aa9113c938e83b4f1ea0,66e47f8c9a74e976efcc5f5d,2024-09-13_11h25.15.562,WTP_SM_Choice,2022.2.1,Win32,59.88023952,,,,,,,,,,,,,,,,,,79,,,,,,,,,,0.04,1,4.0933,0,3,3,3,1,Listen to a podcast while walking along the beach at sunrise,Attend a weekend farmers market with my cousin to browse for fresh produce,0.04,0.01,1.1,1,,,,
,,66a3d4b8b4bf84ae5d959a60,6685aa9113c938e83b4f1ea0,66e47f8c9a74e976efcc5f5d,2024-09-13_11h25.15.562,WTP_SM_Choice,2022.2.1,Win32,59.88023952,,,,,,,,,,,,,,,,,,80,,,,,,,,,,0.01,2,5.7525,0,4,4,4,1,Host a movie night with my coworkers at my apartment after a long week,Cook a new recipe in my kitchen with classical music softly playing,0.05,0.01,4.4,0,,,,
,,66a3d4b8b4bf84ae5d959a60,6685aa9113c938e83b4f1ea0,66e47f8c9a74e976efcc5f5d,2024-09-13_11h25.15.562,WTP_SM_Choice,2022.2.1,Win32,59.88023952,,,,,,,NAN,,NAN,2.31,3.69,,0,79,79,79,1,80,Sam,Acc,Participant_Images/66a3d4b8b4bf84ae5d959a60/66a3d4b8b4bf84ae5d959a60_Images/66a3d4b8b4bf84ae5d959a60_Image_19.jpeg,liked,3.195382774,,,,,,,,,,,,,,,,,,,,,,
,,66a3d4b8b4bf84ae5d959a60,6685aa9113c938e83b4f1ea0,66e47f8c9a74e976efcc5f5d,2024-09-13_11h25.15.562,WTP_SM_Choice,2022.2.1,Win32,59.88023952,,,,,space,0.6605,NAN,,NAN,2.31,3.69,,0,80,80,80,1,81,Sam,Acc,Participant_Images/66a3d4b8b4bf84ae5d959a60/66a3d4b8b4bf84ae5d959a60_Images/66a3d4b8b4bf84ae5d959a60_Image_10.jpeg,liked,1.779333479,,,,,,,,,,,,,,,,,,,,,,
,,66a3d4b8b4bf84ae5d959a60,6685aa9113c938e83b4f1ea0,66e47f8c9a74e976efcc5f5d,2024-09-13_11h25.15.562,WTP_SM_Choice,2022.2.1,Win32,59.88023952,,,,,space,2.7193,NAN,,NAN,2.31,3.69,,0,81,81,81,1,82,Sam,Acc,Participant_Images/66a3d4b8b4bf84ae5d959a60/66a3d4b8b4bf84ae5d959a60_Images/66a3d4b8b4bf84ae5d959a60_Image_6.jpeg,did not like,4.312468682,,,,,,,,,,,,,,,,,,,,,,
,,66a3d4b8b4bf84ae5d959a60,6685aa9113c938e83b4f1ea0,66e47f8c9a74e976efcc5f5d,2024-09-13_11h25.15.562,WTP_SM_Choice,2022.2.1,Win32,59.88023952,,,,,space,0.9873,NAN,,NAN,2.31,3.69,,0,82,82,82,1,83,Sam,Acc,Participant_Images/66a3d4b8b4bf84ae5d959a60/66a3d4b8b4bf84ae5d959a60_Images/66a3d4b8b4bf84ae5d959a60_Image_5.jpeg,liked,4.940433059,,,,,,,,,,,,,,,,,,,,,,
,,66a3d4b8b4bf84ae5d959a60,6685aa9113c938e83b4f1ea0,66e47f8c9a74e976efcc5f5d,2024-09-13_11h25.15.562,WTP_SM_Choice,2022.2.1,Win32,59.88023952,,,,,space,0.7723,NAN,,NAN,2.31,3.69,,0,83,83,83,1,84,Sam,Acc,Participant_Images/66a3d4b8b4bf84ae5d959a60/66a3d4b8b4bf84ae5d959a60_Images/66a3d4b8b4bf84ae5d959a60_Image_14.jpeg,liked,2.7105123,,,,,,,,,,,,,,,,,,,,,,
,,66a3d4b8b4bf84ae5d959a60,6685aa9113c938e83b4f1ea0,66e47f8c9a74e976efcc5f5d,2024-09-13_11h25.15.562,WTP_SM_Choice,2022.2.1,Win32,59.88023952,,,,,,,,,,,,,,,,,,81,,,,,,space,1.6363,space,4.0453,0.01,1,9.3736,0,0,0,0,1,Explore a new neighborhood with my camera to capture interesting architecture,Watch the sunset on the beach with my close friends during a summer vacation,0.01,0.02,3.3,1,,,,
,,66a3d4b8b4bf84ae5d959a60,6685aa9113c938e83b4f1ea0,66e47f8c9a74e976efcc5f5d,2024-09-13_11h25.15.562,WTP_SM_Choice,2022.2.1,Win32,59.88023952,,,,,,,,,,,,,,,,,,82,,,,,,,,,,0.02,1,7.7139,0,1,1,1,1,Read a mystery novel on a park bench during a sunny afternoon,Watch the sunset on the beach with my close friends during a summer vacation,0.02,0.02,4.4,1,,,,
,,66a3d4b8b4bf84ae5d959a60,6685aa9113c938e83b4f1ea0,66e47f8c9a74e976efcc5f5d,2024-09-13_11h25.15.562,WTP_SM_Choice,2022.2.1,Win32,59.88023952,,,,,,,,,,,,,,,,,,83,,,,,,,,,,0.03,1,4.5741,0,2,2,2,1,Cook a new recipe in my kitchen with classical music softly playing,Go on a weekend hiking trip with my best friends in the mountains,0.03,0.02,1.1,1,,,,
,,66a3d4b8b4bf84ae5d959a60,6685aa9113c938e83b4f1ea0,66e47f8c9a74e976efcc5f5d,2024-09-13_11h25.15.562,WTP_SM_Choice,2022.2.1,Win32,59.88023952,,,,,,,,,,,,,,,,,,84,,,,,,,,,,0.04,1,7.7834,0,3,3,3,1,Meditate in a serene forest clearing with the sound of birds chirping,Attend a weekend farmers market with my cousin to browse for fresh produce,0.04,0.02,3.3,1,,,,
,,66a3d4b8b4bf84ae5d959a60,6685aa9113c938e83b4f1ea0,66e47f8c9a74e976efcc5f5d,2024-09-13_11h25.15.562,WTP_SM_Choice,2022.2.1,Win32,59.88023952,,,,,,,,,,,,,,,,,,85,,,,,,,,,,0.05,1,4.7464,0,4,4,4,1,Meditate in a serene forest clearing with the sound of birds chirping,Host a movie night with my coworkers at my apartment after a long week,0.05,0.02,3.3,1,,,,
,,66a3d4b8b4bf84ae5d959a60,6685aa9113c938e83b4f1ea0,66e47f8c9a74e976efcc5f5d,2024-09-13_11h25.15.562,WTP_SM_Choice,2022.2.1,Win32,59.88023952,,,,,,,NAN,,NAN,2.46,3.54,,0,84,84,84,1,85,Sam,Acc,Participant_Images/66a3d4b8b4bf84ae5d959a60/66a3d4b8b4bf84ae5d959a60_Images/66a3d4b8b4bf84ae5d959a60_Image_2.jpeg,liked,3.602308302,,,,,,,,,,,,,,,,,,,,,,
,,66a3d4b8b4bf84ae5d959a60,6685aa9113c938e83b4f1ea0,66e47f8c9a74e976efcc5f5d,2024-09-13_11h25.15.562,WTP_SM_Choice,2022.2.1,Win32,59.88023952,,,,,space,5.9848,NAN,,NAN,2.46,3.54,,0,85,85,85,1,86,Sam,Acc,Participant_Images/66a3d4b8b4bf84ae5d959a60/66a3d4b8b4bf84ae5d959a60_Images/66a3d4b8b4bf84ae5d959a60_Image_4.jpeg,liked,4.106391878,,,,,,,,,,,,,,,,,,,,,,
,,66a3d4b8b4bf84ae5d959a60,6685aa9113c938e83b4f1ea0,66e47f8c9a74e976efcc5f5d,2024-09-13_11h25.15.562,WTP_SM_Choice,2022.2.1,Win32,59.88023952,,,,,space,0.5501,NAN,,NAN,2.46,3.54,,0,86,86,86,1,87,Sam,Acc,Participant_Images/66a3d4b8b4bf84ae5d959a60/66a3d4b8b4bf84ae5d959a60_Images/66a3d4b8b4bf84ae5d959a60_Image_15.jpeg,did not like,3.799433026,,,,,,,,,,,,,,,,,,,,,,
,,66a3d4b8b4bf84ae5d959a60,6685aa9113c938e83b4f1ea0,66e47f8c9a74e976efcc5f5d,2024-09-13_11h25.15.562,WTP_SM_Choice,2022.2.1,Win32,59.88023952,,,,,space,0.567,NAN,,NAN,2.46,3.54,,0,87,87,87,1,88,Sam,Acc,Participant_Images/66a3d4b8b4bf84ae5d959a60/66a3d4b8b4bf84ae5d959a60_Images/66a3d4b8b4bf84ae5d959a60_Image_25.jpeg,liked,5.246980764,,,,,,,,,,,,,,,,,,,,,,
,,66a3d4b8b4bf84ae5d959a60,6685aa9113c938e83b4f1ea0,66e47f8c9a74e976efcc5f5d,2024-09-13_11h25.15.562,WTP_SM_Choice,2022.2.1,Win32,59.88023952,,,,,space,1.3687,NAN,,NAN,2.46,3.54,,0,88,88,88,1,89,Sam,Acc,Participant_Images/66a3d4b8b4bf84ae5d959a60/66a3d4b8b4bf84ae5d959a60_Images/66a3d4b8b4bf84ae5d959a60_Image_3.jpeg,did not like,3.30081769,,,,,,,,,,,,,,,,,,,,,,
,,66a3d4b8b4bf84ae5d959a60,6685aa9113c938e83b4f1ea0,66e47f8c9a74e976efcc5f5d,2024-09-13_11h25.15.562,WTP_SM_Choice,2022.2.1,Win32,59.88023952,,,,,,,,,,,,,,,,,,86,,,,,,space,0.2535,space,0.6874,0.01,1,2.3015,0,0,0,0,1,Meditate in a serene forest clearing with the sound of birds chirping,Cook a holiday dinner with my parents in our kitchen while listening to festive music,0.01,0.03,1.1,1,,,,
,,66a3d4b8b4bf84ae5d959a60,6685aa9113c938e83b4f1ea0,66e47f8c9a74e976efcc5f5d,2024-09-13_11h25.15.562,WTP_SM_Choice,2022.2.1,Win32,59.88023952,,,,,,,,,,,,,,,,,,87,,,,,,,,,,0.02,1,2.4669,0,1,1,1,1,Write poetry in a cozy coffee shop with soft jazz playing in the background,Go on a weekend hiking trip with my best friends in the mountains,0.02,0.03,4.4,1,,,,
,,66a3d4b8b4bf84ae5d959a60,6685aa9113c938e83b4f1ea0,66e47f8c9a74e976efcc5f5d,2024-09-13_11h25.15.562,WTP_SM_Choice,2022.2.1,Win32,59.88023952,,,,,,,,,,,,,,,,,,88,,,,,,,,,,0.03,2,6.1743,0,2,2,2,1,Cook a holiday dinner with my parents in our kitchen while listening to festive music,Read a mystery novel on a park bench during a sunny afternoon,0.03,0.03,1.1,0,,,,
,,66a3d4b8b4bf84ae5d959a60,6685aa9113c938e83b4f1ea0,66e47f8c9a74e976efcc5f5d,2024-09-13_11h25.15.562,WTP_SM_Choice,2022.2.1,Win32,59.88023952,,,,,,,,,,,,,,,,,,89,,,,,,,,,,0.03,2,3.2902,0,3,3,3,1,Share a meal at a new restaurant with my partner on a friday night in the city,Read a mystery novel on a park bench during a sunny afternoon,0.04,0.03,3.3,0,,,,
,,66a3d4b8b4bf84ae5d959a60,6685aa9113c938e83b4f1ea0,66e47f8c9a74e976efcc5f5d,2024-09-13_11h25.15.562,WTP_SM_Choice,2022.2.1,Win32,59.88023952,,,,,,,,,,,,,,,,,,90,,,,,,,,,,0.03,2,4.532,0,4,4,4,1,Play board games with my family on a cozy winter evening by the fire place,Explore a new neighborhood with my camera to capture interesting architecture,0.05,0.03,8.8,0,,,,
,,66a3d4b8b4bf84ae5d959a60,6685aa9113c938e83b4f1ea0,66e47f8c9a74e976efcc5f5d,2024-09-13_11h25.15.562,WTP_SM_Choice,2022.2.1,Win32,59.88023952,,,,,,,NAN,,NAN,2.58,3.42,,0,89,89,89,1,90,Sam,Acc,Participant_Images/66a3d4b8b4bf84ae5d959a60/66a3d4b8b4bf84ae5d959a60_Images/66a3d4b8b4bf84ae5d959a60_Image_17.jpeg,liked,1.661473164,,,,,,,,,,,,,,,,,,,,,,
,,66a3d4b8b4bf84ae5d959a60,6685aa9113c938e83b4f1ea0,66e47f8c9a74e976efcc5f5d,2024-09-13_11h25.15.562,WTP_SM_Choice,2022.2.1,Win32,59.88023952,,,,,space,0.6109,NAN,,NAN,2.58,3.42,,0,90,90,90,1,91,Sam,Acc,Participant_Images/66a3d4b8b4bf84ae5d959a60/66a3d4b8b4bf84ae5d959a60_Images/66a3d4b8b4bf84ae5d959a60_Image_1.jpeg,did not like,3.613205605,,,,,,,,,,,,,,,,,,,,,,
,,66a3d4b8b4bf84ae5d959a60,6685aa9113c938e83b4f1ea0,66e47f8c9a74e976efcc5f5d,2024-09-13_11h25.15.562,WTP_SM_Choice,2022.2.1,Win32,59.88023952,,,,,space,0.3178,NAN,,NAN,2.58,3.42,,0,91,91,91,1,92,Sam,Acc,Participant_Images/66a3d4b8b4bf84ae5d959a60/66a3d4b8b4bf84ae5d959a60_Images/66a3d4b8b4bf84ae5d959a60_Image_11.jpeg,liked,4.988446431,,,,,,,,,,,,,,,,,,,,,,
,,66a3d4b8b4bf84ae5d959a60,6685aa9113c938e83b4f1ea0,66e47f8c9a74e976efcc5f5d,2024-09-13_11h25.15.562,WTP_SM_Choice,2022.2.1,Win32,59.88023952,,,,,space,0.0769,NAN,,NAN,2.58,3.42,,0,92,92,92,1,93,Sam,Acc,Participant_Images/66a3d4b8b4bf84ae5d959a60/66a3d4b8b4bf84ae5d959a60_Images/66a3d4b8b4bf84ae5d959a60_Image_7.jpeg,liked,3.470791822,,,,,,,,,,,,,,,,,,,,,,
,,66a3d4b8b4bf84ae5d959a60,6685aa9113c938e83b4f1ea0,66e47f8c9a74e976efcc5f5d,2024-09-13_11h25.15.562,WTP_SM_Choice,2022.2.1,Win32,59.88023952,,,,,space,0.1296,NAN,,NAN,2.58,3.42,,0,93,93,93,1,94,Sam,Acc,Participant_Images/66a3d4b8b4bf84ae5d959a60/66a3d4b8b4bf84ae5d959a60_Images/66a3d4b8b4bf84ae5d959a60_Image_16.jpeg,liked,3.820572462,,,,,,,,,,,,,,,,,,,,,,
,,66a3d4b8b4bf84ae5d959a60,6685aa9113c938e83b4f1ea0,66e47f8c9a74e976efcc5f5d,2024-09-13_11h25.15.562,WTP_SM_Choice,2022.2.1,Win32,59.88023952,,,,,,,,,,,,,,,,,,91,,,,,,space,1.5384,space,0.4874,0.04,2,2.7173,0,0,0,0,1,Attend a live concert with my college friends on a summer evening,Journal in bed on a rainy evening with a warm cup of tea by my side,0.01,0.04,3.3,0,,,,
,,66a3d4b8b4bf84ae5d959a60,6685aa9113c938e83b4f1ea0,66e47f8c9a74e976efcc5f5d,2024-09-13_11h25.15.562,WTP_SM_Choice,2022.2.1,Win32,59.88023952,,,,,,,,,,,,,,,,,,92,,,,,,,,,,0.04,2,5.7676,0,1,1,1,1,Attend a weekend farmers market with my cousin to browse for fresh produce,Garden in my backyard early in the morning with the smell of fresh soil,0.02,0.04,8.8,0,,,,
,,66a3d4b8b4bf84ae5d959a60,6685aa9113c938e83b4f1ea0,66e47f8c9a74e976efcc5f5d,2024-09-13_11h25.15.562,WTP_SM_Choice,2022.2.1,Win32,59.88023952,,,,,,,,,,,,,,,,,,93,,,,,,,,,,0.04,2,5.8751,0,2,2,2,1,Cook a holiday dinner with my parents in our kitchen while listening to festive music,Explore a new neighborhood with my camera to capture interesting architecture,0.03,0.04,1.1,0,,,,
,,66a3d4b8b4bf84ae5d959a60,6685aa9113c938e83b4f1ea0,66e47f8c9a74e976efcc5f5d,2024-09-13_11h25.15.562,WTP_SM_Choice,2022.2.1,Win32,59.88023952,,,,,,,,,,,,,,,,,,94,,,,,,,,,,0.04,1,4.6715,0,3,3,3,1,Garden in my backyard early in the morning with the smell of fresh soil,Host a movie night with my coworkers at my apartment after a long week,0.04,0.04,4.4,1,,,,
,,66a3d4b8b4bf84ae5d959a60,6685aa9113c938e83b4f1ea0,66e47f8c9a74e976efcc5f5d,2024-09-13_11h25.15.562,WTP_SM_Choice,2022.2.1,Win32,59.88023952,,,,,,,,,,,,,,,,,,95,,,,,,,,,,0.05,1,4.8025,0,4,4,4,1,Watch a sci-fi movie marathon in my living room with the curtains drawn,Play board games with my family on a cozy winter evening by the fire place,0.05,0.04,4.4,1,,,,
,,66a3d4b8b4bf84ae5d959a60,6685aa9113c938e83b4f1ea0,66e47f8c9a74e976efcc5f5d,2024-09-13_11h25.15.562,WTP_SM_Choice,2022.2.1,Win32,59.88023952,,,,,,,NAN,,NAN,2.79,3.21,,0,94,94,94,1,95,Sam,Acc,Participant_Images/66a3d4b8b4bf84ae5d959a60/66a3d4b8b4bf84ae5d959a60_Images/66a3d4b8b4bf84ae5d959a60_Image_9.jpeg,liked,2.455989137,,,,,,,,,,,,,,,,,,,,,,
,,66a3d4b8b4bf84ae5d959a60,6685aa9113c938e83b4f1ea0,66e47f8c9a74e976efcc5f5d,2024-09-13_11h25.15.562,WTP_SM_Choice,2022.2.1,Win32,59.88023952,,,,,space,0.775,NAN,,NAN,2.79,3.21,,0,95,95,95,1,96,Sam,Acc,Participant_Images/66a3d4b8b4bf84ae5d959a60/66a3d4b8b4bf84ae5d959a60_Images/66a3d4b8b4bf84ae5d959a60_Image_20.jpeg,did not like,3.79605092,,,,,,,,,,,,,,,,,,,,,,
,,66a3d4b8b4bf84ae5d959a60,6685aa9113c938e83b4f1ea0,66e47f8c9a74e976efcc5f5d,2024-09-13_11h25.15.562,WTP_SM_Choice,2022.2.1,Win32,59.88023952,,,,,space,2.782,NAN,,NAN,2.79,3.21,,0,96,96,96,1,97,Sam,Acc,Participant_Images/66a3d4b8b4bf84ae5d959a60/66a3d4b8b4bf84ae5d959a60_Images/66a3d4b8b4bf84ae5d959a60_Image_12.jpeg,did not like,3.562416326,,,,,,,,,,,,,,,,,,,,,,
,,66a3d4b8b4bf84ae5d959a60,6685aa9113c938e83b4f1ea0,66e47f8c9a74e976efcc5f5d,2024-09-13_11h25.15.562,WTP_SM_Choice,2022.2.1,Win32,59.88023952,,,,,space,2.6235,NAN,,NAN,2.79,3.21,,0,97,97,97,1,98,Sam,Acc,Participant_Images/66a3d4b8b4bf84ae5d959a60/66a3d4b8b4bf84ae5d959a60_Images/66a3d4b8b4bf84ae5d959a60_Image_8.jpeg,liked,2.843822497,,,,,,,,,,,,,,,,,,,,,,
,,66a3d4b8b4bf84ae5d959a60,6685aa9113c938e83b4f1ea0,66e47f8c9a74e976efcc5f5d,2024-09-13_11h25.15.562,WTP_SM_Choice,2022.2.1,Win32,59.88023952,,,,,space,1.4262,NAN,,NAN,2.79,3.21,,0,98,98,98,1,99,Sam,Acc,Participant_Images/66a3d4b8b4bf84ae5d959a60/66a3d4b8b4bf84ae5d959a60_Images/66a3d4b8b4bf84ae5d959a60_Image_24.jpeg,liked,3.546495948,,,,,,,,,,,,,,,,,,,,,,
,,66a3d4b8b4bf84ae5d959a60,6685aa9113c938e83b4f1ea0,66e47f8c9a74e976efcc5f5d,2024-09-13_11h25.15.562,WTP_SM_Choice,2022.2.1,Win32,59.88023952,,,,,,,,,,,,,,,,,,96,,,,,,space,1.343,space,0.6843,0.05,2,5.9621,0,0,0,0,1,Attend a live concert with my college friends on a summer evening,Cook a new recipe in my kitchen with classical music softly playing,0.01,0.05,3.3,0,,,,
,,66a3d4b8b4bf84ae5d959a60,6685aa9113c938e83b4f1ea0,66e47f8c9a74e976efcc5f5d,2024-09-13_11h25.15.562,WTP_SM_Choice,2022.2.1,Win32,59.88023952,,,,,,,,,,,,,,,,,,97,,,,,,,,,,0.05,2,7.4581,0,1,1,1,1,Attend a weekend farmers market with my cousin to browse for fresh produce,Journal in bed on a rainy evening with a warm cup of tea by my side,0.02,0.05,1.1,0,,,,
,,66a3d4b8b4bf84ae5d959a60,6685aa9113c938e83b4f1ea0,66e47f8c9a74e976efcc5f5d,2024-09-13_11h25.15.562,WTP_SM_Choice,2022.2.1,Win32,59.88023952,,,,,,,,,,,,,,,,,,98,,,,,,,,,,0.05,2,5.1719,0,2,2,2,1,Go on a weekend hiking trip with my best friends in the mountains,Meditate in a serene forest clearing with the sound of birds chirping,0.03,0.05,1.1,0,,,,
,,66a3d4b8b4bf84ae5d959a60,6685aa9113c938e83b4f1ea0,66e47f8c9a74e976efcc5f5d,2024-09-13_11h25.15.562,WTP_SM_Choice,2022.2.1,Win32,59.88023952,,,,,,,,,,,,,,,,,,99,,,,,,,,,,0.04,1,8.6464,0,3,3,3,1,Read a mystery novel on a park bench during a sunny afternoon,Attend a live concert with my college friends on a summer evening,0.04,0.05,3.3,1,,,,
,,66a3d4b8b4bf84ae5d959a60,6685aa9113c938e83b4f1ea0,66e47f8c9a74e976efcc5f5d,2024-09-13_11h25.15.562,WTP_SM_Choice,2022.2.1,Win32,59.88023952,,,,,,,,,,,,,,,,,,100,,,,,,,,,,0.05,1,6.5006,0,4,4,4,1,Write poetry in a cozy coffee shop with soft jazz playing in the background,Walk around a local art fair with my significant other on a sunny Saturday afternoon,0.05,0.05,4.4,1,,,,
,,66a3d4b8b4bf84ae5d959a60,6685aa9113c938e83b4f1ea0,66e47f8c9a74e976efcc5f5d,2024-09-13_11h25.15.562,WTP_SM_Choice,2022.2.1,Win32,59.88023952,,,,,,,4,,7,3.03,2.97,,0,99,99,99,1,100,Sam,Acc,Participant_Images/66a3d4b8b4bf84ae5d959a60/66a3d4b8b4bf84ae5d959a60_Images/66a3d4b8b4bf84ae5d959a60_Image_23.jpeg,liked,1.672012706,,,,,,,,,,,,,,,,,,,space,1.5264,,
,,66a3d4b8b4bf84ae5d959a60,6685aa9113c938e83b4f1ea0,66e47f8c9a74e976efcc5f5d,2024-09-13_11h25.15.562,WTP_SM_Choice,2022.2.1,Win32,59.88023952,,,,,,,,,,,,,,,,,,,,,,,,,,,,,,,,,,,,,,,,,,,,space,4.5003
