endwelcomescreen_keys.keys,endwelcomescreen_keys.rt,participant,STUDY_ID,SESSION_ID,date,expName,psychopyVersion,OS,frameRate,endinstructionscreen_keys.keys,endinstructionscreen_keys.rt,endpartnermatch_keys.keys,endpartnermatch_keys.rt,sharenextphoto_key.keys,sharenextphoto_key.rt,salience_rating,key_resp.keys,stress_level,subtract_bonus,TOTAL_TASK_BONUS,stresslevel_keypress.keys,entiretaskloop.thisRepN,entiretaskloop.thisTrialN,entiretaskloop.thisN,entiretaskloop.thisIndex,entiretaskloop.ran,TrialNumber,Partner,Condition,Photos,Feedback,FeedbackWait,WTP_ins_keys1.keys,WTP_ins_keys1.rt,WTP_ins_keys2.keys,WTP_ins_keys2.rt,decision_price,responses.keys,responses.rt,WTPTaskLoop.thisRepN,WTPTaskLoop.thisTrialN,WTPTaskLoop.thisN,WTPTaskLoop.thisIndex,WTPTaskLoop.ran,right,left,leftmoney,rightmoney,WTP_ITI,social_left,Resume_keys.keys,Resume_keys.rt,key_resp.rt,end_screen_keys.keys,end_screen_keys.rt
space,5.1673,66ada0d8b8ddd62c65d39bfe,6685aa9113c938e83b4f1ea0,670763f6719bd01ddbfce4f9,2024-10-10_01h19.59.419,WTP_SM_Choice,2022.2.1,Win32,60.24096386,,,,,,,,,,,,,,,,,,,,,,,,,,,,,,,,,,,,,,,,,,,,,,
,,66ada0d8b8ddd62c65d39bfe,6685aa9113c938e83b4f1ea0,670763f6719bd01ddbfce4f9,2024-10-10_01h19.59.419,WTP_SM_Choice,2022.2.1,Win32,60.24096386,space,14.9717,,,,,,,,,,,,,,,,,,,,,,,,,,,,,,,,,,,,,,,,,,,,
,,66ada0d8b8ddd62c65d39bfe,6685aa9113c938e83b4f1ea0,670763f6719bd01ddbfce4f9,2024-10-10_01h19.59.419,WTP_SM_Choice,2022.2.1,Win32,60.24096386,,,space,5.1341,space,1.2805,NAN,,NAN,0,6,,0,0,0,0,1,1,Alex,Acc,Participant_Images/66ada0d8b8ddd62c65d39bfe/66ada0d8b8ddd62c65d39bfe_Images/66ada0d8b8ddd62c65d39bfe_Image_23.jpeg,liked,3.613205605,,,,,,,,,,,,,,,,,,,,,,,
,,66ada0d8b8ddd62c65d39bfe,6685aa9113c938e83b4f1ea0,670763f6719bd01ddbfce4f9,2024-10-10_01h19.59.419,WTP_SM_Choice,2022.2.1,Win32,60.24096386,,,,,space,2.4001,NAN,,NAN,0,6,,0,1,1,1,1,2,Alex,Acc,Participant_Images/66ada0d8b8ddd62c65d39bfe/66ada0d8b8ddd62c65d39bfe_Images/66ada0d8b8ddd62c65d39bfe_Image_14.jpeg,liked,4.988446431,,,,,,,,,,,,,,,,,,,,,,,
,,66ada0d8b8ddd62c65d39bfe,6685aa9113c938e83b4f1ea0,670763f6719bd01ddbfce4f9,2024-10-10_01h19.59.419,WTP_SM_Choice,2022.2.1,Win32,60.24096386,,,,,space,1.0283,NAN,,NAN,0,6,,0,2,2,2,1,3,Alex,Acc,Participant_Images/66ada0d8b8ddd62c65d39bfe/66ada0d8b8ddd62c65d39bfe_Images/66ada0d8b8ddd62c65d39bfe_Image_22.jpeg,did not like,3.470791822,,,,,,,,,,,,,,,,,,,,,,,
,,66ada0d8b8ddd62c65d39bfe,6685aa9113c938e83b4f1ea0,670763f6719bd01ddbfce4f9,2024-10-10_01h19.59.419,WTP_SM_Choice,2022.2.1,Win32,60.24096386,,,,,space,0.6087,NAN,,NAN,0,6,,0,3,3,3,1,4,Alex,Acc,Participant_Images/66ada0d8b8ddd62c65d39bfe/66ada0d8b8ddd62c65d39bfe_Images/66ada0d8b8ddd62c65d39bfe_Image_10.jpeg,did not like,3.820572462,,,,,,,,,,,,,,,,,,,,,,,
,,66ada0d8b8ddd62c65d39bfe,6685aa9113c938e83b4f1ea0,670763f6719bd01ddbfce4f9,2024-10-10_01h19.59.419,WTP_SM_Choice,2022.2.1,Win32,60.24096386,,,,,,,,,,,,,,,,,,1,,,,,,space,13.0733,space,8.659,0.01,2,4.7898,0,0,0,0,1,Run a race with my dad,Sleep in late on a sunday,0.01,0.01,4.4,0,,,,,
,,66ada0d8b8ddd62c65d39bfe,6685aa9113c938e83b4f1ea0,670763f6719bd01ddbfce4f9,2024-10-10_01h19.59.419,WTP_SM_Choice,2022.2.1,Win32,60.24096386,,,,,,,,,,,,,,,,,,2,,,,,,,,,,0.01,2,5.5584,0,1,1,1,1,Hang out with my dogs in the summer,Go on a hike with my girlfriend,0.02,0.01,8.8,1,,,,,
,,66ada0d8b8ddd62c65d39bfe,6685aa9113c938e83b4f1ea0,670763f6719bd01ddbfce4f9,2024-10-10_01h19.59.419,WTP_SM_Choice,2022.2.1,Win32,60.24096386,,,,,,,,,,,,,,,,,,3,,,,,,,,,,0.01,2,3.6518,0,2,2,2,1,Fence with my sparing partner,Tan at the beach in miami,0.03,0.01,3.3,0,,,,,
,,66ada0d8b8ddd62c65d39bfe,6685aa9113c938e83b4f1ea0,670763f6719bd01ddbfce4f9,2024-10-10_01h19.59.419,WTP_SM_Choice,2022.2.1,Win32,60.24096386,,,,,,,,,,,,,,,,,,4,,,,,,,,,,0.01,2,3.5926,0,3,3,3,1,play scrabble with my girlfriend,Play piano on a rainy day at my home,0.04,0.01,1.1,0,,,,,
,,66ada0d8b8ddd62c65d39bfe,6685aa9113c938e83b4f1ea0,670763f6719bd01ddbfce4f9,2024-10-10_01h19.59.419,WTP_SM_Choice,2022.2.1,Win32,60.24096386,,,,,,,,,,,,,,,,,,5,,,,,,,,,,0.01,2,2.9914,0,4,4,4,1,Play piano on a rainy day at my home,Hang out at the park wiht my best friend,0.05,0.01,1.1,1,,,,,
,,66ada0d8b8ddd62c65d39bfe,6685aa9113c938e83b4f1ea0,670763f6719bd01ddbfce4f9,2024-10-10_01h19.59.419,WTP_SM_Choice,2022.2.1,Win32,60.24096386,,,,,,,NAN,,NAN,0.05,5.95,,0,4,4,4,1,5,Alex,Acc,Participant_Images/66ada0d8b8ddd62c65d39bfe/66ada0d8b8ddd62c65d39bfe_Images/66ada0d8b8ddd62c65d39bfe_Image_17.jpeg,liked,2.455989137,,,,,,,,,,,,,,,,,,,,,,,
,,66ada0d8b8ddd62c65d39bfe,6685aa9113c938e83b4f1ea0,670763f6719bd01ddbfce4f9,2024-10-10_01h19.59.419,WTP_SM_Choice,2022.2.1,Win32,60.24096386,,,,,space,1.3199,NAN,,NAN,0.05,5.95,,0,5,5,5,1,6,Alex,Acc,Participant_Images/66ada0d8b8ddd62c65d39bfe/66ada0d8b8ddd62c65d39bfe_Images/66ada0d8b8ddd62c65d39bfe_Image_19.jpeg,liked,3.79605092,,,,,,,,,,,,,,,,,,,,,,,
,,66ada0d8b8ddd62c65d39bfe,6685aa9113c938e83b4f1ea0,670763f6719bd01ddbfce4f9,2024-10-10_01h19.59.419,WTP_SM_Choice,2022.2.1,Win32,60.24096386,,,,,space,0.6221,NAN,,NAN,0.05,5.95,,0,6,6,6,1,7,Alex,Acc,Participant_Images/66ada0d8b8ddd62c65d39bfe/66ada0d8b8ddd62c65d39bfe_Images/66ada0d8b8ddd62c65d39bfe_Image_21.jpeg,liked,3.562416326,,,,,,,,,,,,,,,,,,,,,,,
,,66ada0d8b8ddd62c65d39bfe,6685aa9113c938e83b4f1ea0,670763f6719bd01ddbfce4f9,2024-10-10_01h19.59.419,WTP_SM_Choice,2022.2.1,Win32,60.24096386,,,,,space,0.6421,NAN,,NAN,0.05,5.95,,0,7,7,7,1,8,Alex,Acc,Participant_Images/66ada0d8b8ddd62c65d39bfe/66ada0d8b8ddd62c65d39bfe_Images/66ada0d8b8ddd62c65d39bfe_Image_4.jpeg,liked,2.843822497,,,,,,,,,,,,,,,,,,,,,,,
,,66ada0d8b8ddd62c65d39bfe,6685aa9113c938e83b4f1ea0,670763f6719bd01ddbfce4f9,2024-10-10_01h19.59.419,WTP_SM_Choice,2022.2.1,Win32,60.24096386,,,,,space,0.5261,NAN,,NAN,0.05,5.95,,0,8,8,8,1,9,Alex,Acc,Participant_Images/66ada0d8b8ddd62c65d39bfe/66ada0d8b8ddd62c65d39bfe_Images/66ada0d8b8ddd62c65d39bfe_Image_3.jpeg,did not like,3.546495948,,,,,,,,,,,,,,,,,,,,,,,
,,66ada0d8b8ddd62c65d39bfe,6685aa9113c938e83b4f1ea0,670763f6719bd01ddbfce4f9,2024-10-10_01h19.59.419,WTP_SM_Choice,2022.2.1,Win32,60.24096386,,,,,,,,,,,,,,,,,,6,,,,,,space,12.4541,space,1.0001,0.01,1,2.2191,0,0,0,0,1,Play video games with my younger brother,Hang out with my dogs in the summer,0.01,0.02,3.3,0,,,,,
,,66ada0d8b8ddd62c65d39bfe,6685aa9113c938e83b4f1ea0,670763f6719bd01ddbfce4f9,2024-10-10_01h19.59.419,WTP_SM_Choice,2022.2.1,Win32,60.24096386,,,,,,,,,,,,,,,,,,7,,,,,,,,,,0.02,1,2.9873,0,1,1,1,1,Work out a the gym early in the morning,play scrabble with my girlfriend,0.02,0.02,1.1,1,,,,,
,,66ada0d8b8ddd62c65d39bfe,6685aa9113c938e83b4f1ea0,670763f6719bd01ddbfce4f9,2024-10-10_01h19.59.419,WTP_SM_Choice,2022.2.1,Win32,60.24096386,,,,,,,,,,,,,,,,,,8,,,,,,,,,,0.02,2,1.6453,0,2,2,2,1,Cook a nice meal for myself,Fence with my sparing partner,0.03,0.02,1.1,1,,,,,
,,66ada0d8b8ddd62c65d39bfe,6685aa9113c938e83b4f1ea0,670763f6719bd01ddbfce4f9,2024-10-10_01h19.59.419,WTP_SM_Choice,2022.2.1,Win32,60.24096386,,,,,,,,,,,,,,,,,,9,,,,,,,,,,0.02,2,1.1625,0,3,3,3,1,Read a book at the park,Run a race with my dad,0.04,0.02,4.4,1,,,,,
,,66ada0d8b8ddd62c65d39bfe,6685aa9113c938e83b4f1ea0,670763f6719bd01ddbfce4f9,2024-10-10_01h19.59.419,WTP_SM_Choice,2022.2.1,Win32,60.24096386,,,,,,,,,,,,,,,,,,10,,,,,,,,,,0.02,2,1.3474,0,4,4,4,1,Hang out at the park wiht my best friend,Work out a the gym early in the morning,0.05,0.02,1.1,0,,,,,
,,66ada0d8b8ddd62c65d39bfe,6685aa9113c938e83b4f1ea0,670763f6719bd01ddbfce4f9,2024-10-10_01h19.59.419,WTP_SM_Choice,2022.2.1,Win32,60.24096386,,,,,,,NAN,,NAN,0.14,5.86,,0,9,9,9,1,10,Alex,Acc,Participant_Images/66ada0d8b8ddd62c65d39bfe/66ada0d8b8ddd62c65d39bfe_Images/66ada0d8b8ddd62c65d39bfe_Image_15.jpeg,liked,1.672012706,,,,,,,,,,,,,,,,,,,,,,,
,,66ada0d8b8ddd62c65d39bfe,6685aa9113c938e83b4f1ea0,670763f6719bd01ddbfce4f9,2024-10-10_01h19.59.419,WTP_SM_Choice,2022.2.1,Win32,60.24096386,,,,,space,4.8402,NAN,,NAN,0.14,5.86,,0,10,10,10,1,11,Alex,Acc,Participant_Images/66ada0d8b8ddd62c65d39bfe/66ada0d8b8ddd62c65d39bfe_Images/66ada0d8b8ddd62c65d39bfe_Image_16.jpeg,liked,4.942172136,,,,,,,,,,,,,,,,,,,,,,,
,,66ada0d8b8ddd62c65d39bfe,6685aa9113c938e83b4f1ea0,670763f6719bd01ddbfce4f9,2024-10-10_01h19.59.419,WTP_SM_Choice,2022.2.1,Win32,60.24096386,,,,,space,16.4274,NAN,,NAN,0.14,5.86,,0,11,11,11,1,12,Alex,Acc,Participant_Images/66ada0d8b8ddd62c65d39bfe/66ada0d8b8ddd62c65d39bfe_Images/66ada0d8b8ddd62c65d39bfe_Image_11.jpeg,liked,2.50187214,,,,,,,,,,,,,,,,,,,,,,,
,,66ada0d8b8ddd62c65d39bfe,6685aa9113c938e83b4f1ea0,670763f6719bd01ddbfce4f9,2024-10-10_01h19.59.419,WTP_SM_Choice,2022.2.1,Win32,60.24096386,,,,,space,3.6831,NAN,,NAN,0.14,5.86,,0,12,12,12,1,13,Alex,Acc,Participant_Images/66ada0d8b8ddd62c65d39bfe/66ada0d8b8ddd62c65d39bfe_Images/66ada0d8b8ddd62c65d39bfe_Image_6.jpeg,liked,2.071164779,,,,,,,,,,,,,,,,,,,,,,,
,,66ada0d8b8ddd62c65d39bfe,6685aa9113c938e83b4f1ea0,670763f6719bd01ddbfce4f9,2024-10-10_01h19.59.419,WTP_SM_Choice,2022.2.1,Win32,60.24096386,,,,,space,3.5835,NAN,,NAN,0.14,5.86,,0,13,13,13,1,14,Alex,Acc,Participant_Images/66ada0d8b8ddd62c65d39bfe/66ada0d8b8ddd62c65d39bfe_Images/66ada0d8b8ddd62c65d39bfe_Image_24.jpeg,liked,5.336503566,,,,,,,,,,,,,,,,,,,,,,,
,,66ada0d8b8ddd62c65d39bfe,6685aa9113c938e83b4f1ea0,670763f6719bd01ddbfce4f9,2024-10-10_01h19.59.419,WTP_SM_Choice,2022.2.1,Win32,60.24096386,,,,,,,,,,,,,,,,,,11,,,,,,space,1.1238,space,0.7114,0.01,1,1.0346,0,0,0,0,1,Tan at the beach in miami,Attend a rave with my second best friend ,0.01,0.03,3.3,1,,,,,
,,66ada0d8b8ddd62c65d39bfe,6685aa9113c938e83b4f1ea0,670763f6719bd01ddbfce4f9,2024-10-10_01h19.59.419,WTP_SM_Choice,2022.2.1,Win32,60.24096386,,,,,,,,,,,,,,,,,,12,,,,,,,,,,0.02,1,1.0441,0,1,1,1,1,Hang out at the park wiht my best friend,Cook a nice meal for myself,0.02,0.03,4.4,0,,,,,
,,66ada0d8b8ddd62c65d39bfe,6685aa9113c938e83b4f1ea0,670763f6719bd01ddbfce4f9,2024-10-10_01h19.59.419,WTP_SM_Choice,2022.2.1,Win32,60.24096386,,,,,,,,,,,,,,,,,,13,,,,,,,,,,0.03,2,3.2353,0,2,2,2,1,Fence with my sparing partner,Swim in the ocean on a hot day,0.03,0.03,1.1,0,,,,,
,,66ada0d8b8ddd62c65d39bfe,6685aa9113c938e83b4f1ea0,670763f6719bd01ddbfce4f9,2024-10-10_01h19.59.419,WTP_SM_Choice,2022.2.1,Win32,60.24096386,,,,,,,,,,,,,,,,,,14,,,,,,,,,,0.03,2,4.536,0,3,3,3,1,Attend a yoga class with my mom,Study a new philosphy topic when it rains,0.04,0.03,3.3,0,,,,,
,,66ada0d8b8ddd62c65d39bfe,6685aa9113c938e83b4f1ea0,670763f6719bd01ddbfce4f9,2024-10-10_01h19.59.419,WTP_SM_Choice,2022.2.1,Win32,60.24096386,,,,,,,,,,,,,,,,,,15,,,,,,,,,,0.03,2,1.8592,0,4,4,4,1,Read a book at the park,Fence with my sparing partner,0.05,0.03,4.4,1,,,,,
,,66ada0d8b8ddd62c65d39bfe,6685aa9113c938e83b4f1ea0,670763f6719bd01ddbfce4f9,2024-10-10_01h19.59.419,WTP_SM_Choice,2022.2.1,Win32,60.24096386,,,,,,,NAN,,NAN,0.26,5.74,,0,14,14,14,1,15,Alex,Acc,Participant_Images/66ada0d8b8ddd62c65d39bfe/66ada0d8b8ddd62c65d39bfe_Images/66ada0d8b8ddd62c65d39bfe_Image_7.jpeg,did not like,2.642157193,,,,,,,,,,,,,,,,,,,,,,,
,,66ada0d8b8ddd62c65d39bfe,6685aa9113c938e83b4f1ea0,670763f6719bd01ddbfce4f9,2024-10-10_01h19.59.419,WTP_SM_Choice,2022.2.1,Win32,60.24096386,,,,,space,1.0006,NAN,,NAN,0.26,5.74,,0,15,15,15,1,16,Alex,Acc,Participant_Images/66ada0d8b8ddd62c65d39bfe/66ada0d8b8ddd62c65d39bfe_Images/66ada0d8b8ddd62c65d39bfe_Image_8.jpeg,did not like,4.456234322,,,,,,,,,,,,,,,,,,,,,,,
,,66ada0d8b8ddd62c65d39bfe,6685aa9113c938e83b4f1ea0,670763f6719bd01ddbfce4f9,2024-10-10_01h19.59.419,WTP_SM_Choice,2022.2.1,Win32,60.24096386,,,,,space,0.5322,NAN,,NAN,0.26,5.74,,0,16,16,16,1,17,Alex,Acc,Participant_Images/66ada0d8b8ddd62c65d39bfe/66ada0d8b8ddd62c65d39bfe_Images/66ada0d8b8ddd62c65d39bfe_Image_1.jpeg,liked,4.438512181,,,,,,,,,,,,,,,,,,,,,,,
,,66ada0d8b8ddd62c65d39bfe,6685aa9113c938e83b4f1ea0,670763f6719bd01ddbfce4f9,2024-10-10_01h19.59.419,WTP_SM_Choice,2022.2.1,Win32,60.24096386,,,,,space,1.0457,NAN,,NAN,0.26,5.74,,0,17,17,17,1,18,Alex,Acc,Participant_Images/66ada0d8b8ddd62c65d39bfe/66ada0d8b8ddd62c65d39bfe_Images/66ada0d8b8ddd62c65d39bfe_Image_5.jpeg,liked,2.682944783,,,,,,,,,,,,,,,,,,,,,,,
,,66ada0d8b8ddd62c65d39bfe,6685aa9113c938e83b4f1ea0,670763f6719bd01ddbfce4f9,2024-10-10_01h19.59.419,WTP_SM_Choice,2022.2.1,Win32,60.24096386,,,,,space,0.9003,NAN,,NAN,0.26,5.74,,0,18,18,18,1,19,Alex,Acc,Participant_Images/66ada0d8b8ddd62c65d39bfe/66ada0d8b8ddd62c65d39bfe_Images/66ada0d8b8ddd62c65d39bfe_Image_25.jpeg,did not like,4.51984296,,,,,,,,,,,,,,,,,,,,,,,
,,66ada0d8b8ddd62c65d39bfe,6685aa9113c938e83b4f1ea0,670763f6719bd01ddbfce4f9,2024-10-10_01h19.59.419,WTP_SM_Choice,2022.2.1,Win32,60.24096386,,,,,,,,,,,,,,,,,,16,,,,,,space,0.6015,space,0.9052,0.01,1,1.0455,0,0,0,0,1,Work out a the gym early in the morning,Run a race with my dad,0.01,0.04,1.1,1,,,,,
,,66ada0d8b8ddd62c65d39bfe,6685aa9113c938e83b4f1ea0,670763f6719bd01ddbfce4f9,2024-10-10_01h19.59.419,WTP_SM_Choice,2022.2.1,Win32,60.24096386,,,,,,,,,,,,,,,,,,17,,,,,,,,,,0.02,1,1.5853,0,1,1,1,1,Attend a rave with my second best friend ,Cook a nice meal for myself,0.02,0.04,8.8,0,,,,,
,,66ada0d8b8ddd62c65d39bfe,6685aa9113c938e83b4f1ea0,670763f6719bd01ddbfce4f9,2024-10-10_01h19.59.419,WTP_SM_Choice,2022.2.1,Win32,60.24096386,,,,,,,,,,,,,,,,,,18,,,,,,,,,,0.03,1,1.8171,0,2,2,2,1,Read a book at the park,Attend a yoga class with my mom,0.03,0.04,3.3,1,,,,,
,,66ada0d8b8ddd62c65d39bfe,6685aa9113c938e83b4f1ea0,670763f6719bd01ddbfce4f9,2024-10-10_01h19.59.419,WTP_SM_Choice,2022.2.1,Win32,60.24096386,,,,,,,,,,,,,,,,,,19,,,,,,,,,,0.04,2,2.6763,0,3,3,3,1,Attend a rave with my second best friend ,Run at the track at the local community center,0.04,0.04,3.3,0,,,,,
,,66ada0d8b8ddd62c65d39bfe,6685aa9113c938e83b4f1ea0,670763f6719bd01ddbfce4f9,2024-10-10_01h19.59.419,WTP_SM_Choice,2022.2.1,Win32,60.24096386,,,,,,,,,,,,,,,,,,20,,,,,,,,,,0.04,2,1.1558,0,4,4,4,1,Tan at the beach in miami,Go on a hike with my girlfriend,0.05,0.04,1.1,1,,,,,
,,66ada0d8b8ddd62c65d39bfe,6685aa9113c938e83b4f1ea0,670763f6719bd01ddbfce4f9,2024-10-10_01h19.59.419,WTP_SM_Choice,2022.2.1,Win32,60.24096386,,,,,,,NAN,,NAN,0.4,5.6,,0,19,19,19,1,20,Alex,Acc,Participant_Images/66ada0d8b8ddd62c65d39bfe/66ada0d8b8ddd62c65d39bfe_Images/66ada0d8b8ddd62c65d39bfe_Image_12.jpeg,liked,3.195382774,,,,,,,,,,,,,,,,,,,,,,,
,,66ada0d8b8ddd62c65d39bfe,6685aa9113c938e83b4f1ea0,670763f6719bd01ddbfce4f9,2024-10-10_01h19.59.419,WTP_SM_Choice,2022.2.1,Win32,60.24096386,,,,,space,0.6134,NAN,,NAN,0.4,5.6,,0,20,20,20,1,21,Alex,Acc,Participant_Images/66ada0d8b8ddd62c65d39bfe/66ada0d8b8ddd62c65d39bfe_Images/66ada0d8b8ddd62c65d39bfe_Image_18.jpeg,liked,1.779333479,,,,,,,,,,,,,,,,,,,,,,,
,,66ada0d8b8ddd62c65d39bfe,6685aa9113c938e83b4f1ea0,670763f6719bd01ddbfce4f9,2024-10-10_01h19.59.419,WTP_SM_Choice,2022.2.1,Win32,60.24096386,,,,,space,0.9669,NAN,,NAN,0.4,5.6,,0,21,21,21,1,22,Alex,Acc,Participant_Images/66ada0d8b8ddd62c65d39bfe/66ada0d8b8ddd62c65d39bfe_Images/66ada0d8b8ddd62c65d39bfe_Image_20.jpeg,liked,4.312468682,,,,,,,,,,,,,,,,,,,,,,,
,,66ada0d8b8ddd62c65d39bfe,6685aa9113c938e83b4f1ea0,670763f6719bd01ddbfce4f9,2024-10-10_01h19.59.419,WTP_SM_Choice,2022.2.1,Win32,60.24096386,,,,,space,0.6248,NAN,,NAN,0.4,5.6,,0,22,22,22,1,23,Alex,Acc,Participant_Images/66ada0d8b8ddd62c65d39bfe/66ada0d8b8ddd62c65d39bfe_Images/66ada0d8b8ddd62c65d39bfe_Image_13.jpeg,liked,4.940433059,,,,,,,,,,,,,,,,,,,,,,,
,,66ada0d8b8ddd62c65d39bfe,6685aa9113c938e83b4f1ea0,670763f6719bd01ddbfce4f9,2024-10-10_01h19.59.419,WTP_SM_Choice,2022.2.1,Win32,60.24096386,,,,,space,0.7504,NAN,,NAN,0.4,5.6,,0,23,23,23,1,24,Alex,Acc,Participant_Images/66ada0d8b8ddd62c65d39bfe/66ada0d8b8ddd62c65d39bfe_Images/66ada0d8b8ddd62c65d39bfe_Image_9.jpeg,liked,2.7105123,,,,,,,,,,,,,,,,,,,,,,,
,,66ada0d8b8ddd62c65d39bfe,6685aa9113c938e83b4f1ea0,670763f6719bd01ddbfce4f9,2024-10-10_01h19.59.419,WTP_SM_Choice,2022.2.1,Win32,60.24096386,,,,,,,,,,,,,,,,,,21,,,,,,space,2.5595,space,2.0832,0.01,1,0.993,0,0,0,0,1,Run a race with my dad,Swim in the ocean on a hot day,0.01,0.05,8.8,0,,,,,
,,66ada0d8b8ddd62c65d39bfe,6685aa9113c938e83b4f1ea0,670763f6719bd01ddbfce4f9,2024-10-10_01h19.59.419,WTP_SM_Choice,2022.2.1,Win32,60.24096386,,,,,,,,,,,,,,,,,,22,,,,,,,,,,0.02,1,1.0539,0,1,1,1,1,Run at the track at the local community center,Attend a yoga class with my mom,0.02,0.05,4.4,1,,,,,
,,66ada0d8b8ddd62c65d39bfe,6685aa9113c938e83b4f1ea0,670763f6719bd01ddbfce4f9,2024-10-10_01h19.59.419,WTP_SM_Choice,2022.2.1,Win32,60.24096386,,,,,,,,,,,,,,,,,,23,,,,,,,,,,0.03,1,2.4797,0,2,2,2,1,Sleep in late on a sunday,Go on a hike with my girlfriend,0.03,0.05,1.1,1,,,,,
,,66ada0d8b8ddd62c65d39bfe,6685aa9113c938e83b4f1ea0,670763f6719bd01ddbfce4f9,2024-10-10_01h19.59.419,WTP_SM_Choice,2022.2.1,Win32,60.24096386,,,,,,,,,,,,,,,,,,24,,,,,,,,,,0.04,1,1.6949,0,3,3,3,1,Study a new philosphy topic when it rains,Go on a hike with my girlfriend,0.04,0.05,4.4,1,,,,,
,,66ada0d8b8ddd62c65d39bfe,6685aa9113c938e83b4f1ea0,670763f6719bd01ddbfce4f9,2024-10-10_01h19.59.419,WTP_SM_Choice,2022.2.1,Win32,60.24096386,,,,,,,,,,,,,,,,,,25,,,,,,,,,,0.05,1,5.6395,0,4,4,4,1,Attend a yoga class with my mom,Cook a nice meal for myself,0.05,0.05,3.3,0,,,,,
,,66ada0d8b8ddd62c65d39bfe,6685aa9113c938e83b4f1ea0,670763f6719bd01ddbfce4f9,2024-10-10_01h19.59.419,WTP_SM_Choice,2022.2.1,Win32,60.24096386,,,,,,,NAN,space,7,0.55,5.45,,0,24,24,24,1,25,Alex,Acc,Participant_Images/66ada0d8b8ddd62c65d39bfe/66ada0d8b8ddd62c65d39bfe_Images/66ada0d8b8ddd62c65d39bfe_Image_2.jpeg,did not like,3.602308302,,,,,,,,,,,,,,,,,,,space,1.3921,17.5646,,
,,66ada0d8b8ddd62c65d39bfe,6685aa9113c938e83b4f1ea0,670763f6719bd01ddbfce4f9,2024-10-10_01h19.59.419,WTP_SM_Choice,2022.2.1,Win32,60.24096386,,,space,10.1587,space,3.8116,NAN,,NAN,0.55,5.45,,0,25,25,25,1,26,Riley,Rej,Participant_Images/66ada0d8b8ddd62c65d39bfe/66ada0d8b8ddd62c65d39bfe_Images/66ada0d8b8ddd62c65d39bfe_Image_5.jpeg,did not like,4.106391878,,,,,,,,,,,,,,,,,,,,,,,
,,66ada0d8b8ddd62c65d39bfe,6685aa9113c938e83b4f1ea0,670763f6719bd01ddbfce4f9,2024-10-10_01h19.59.419,WTP_SM_Choice,2022.2.1,Win32,60.24096386,,,,,space,3.0991,NAN,,NAN,0.55,5.45,,0,26,26,26,1,27,Riley,Rej,Participant_Images/66ada0d8b8ddd62c65d39bfe/66ada0d8b8ddd62c65d39bfe_Images/66ada0d8b8ddd62c65d39bfe_Image_21.jpeg,did not like,3.799433026,,,,,,,,,,,,,,,,,,,,,,,
,,66ada0d8b8ddd62c65d39bfe,6685aa9113c938e83b4f1ea0,670763f6719bd01ddbfce4f9,2024-10-10_01h19.59.419,WTP_SM_Choice,2022.2.1,Win32,60.24096386,,,,,space,1.0674,NAN,,NAN,0.55,5.45,,0,27,27,27,1,28,Riley,Rej,Participant_Images/66ada0d8b8ddd62c65d39bfe/66ada0d8b8ddd62c65d39bfe_Images/66ada0d8b8ddd62c65d39bfe_Image_19.jpeg,liked,5.246980764,,,,,,,,,,,,,,,,,,,,,,,
,,66ada0d8b8ddd62c65d39bfe,6685aa9113c938e83b4f1ea0,670763f6719bd01ddbfce4f9,2024-10-10_01h19.59.419,WTP_SM_Choice,2022.2.1,Win32,60.24096386,,,,,space,0.5831,NAN,,NAN,0.55,5.45,,0,28,28,28,1,29,Riley,Rej,Participant_Images/66ada0d8b8ddd62c65d39bfe/66ada0d8b8ddd62c65d39bfe_Images/66ada0d8b8ddd62c65d39bfe_Image_25.jpeg,did not like,3.30081769,,,,,,,,,,,,,,,,,,,,,,,
,,66ada0d8b8ddd62c65d39bfe,6685aa9113c938e83b4f1ea0,670763f6719bd01ddbfce4f9,2024-10-10_01h19.59.419,WTP_SM_Choice,2022.2.1,Win32,60.24096386,,,,,,,,,,,,,,,,,,26,,,,,,space,1.4518,space,0.654,0.01,1,0.6792,0,0,0,0,1,Swim in the ocean on a hot day,Cook a meal for my friends,0.01,0.01,4.4,1,,,,,
,,66ada0d8b8ddd62c65d39bfe,6685aa9113c938e83b4f1ea0,670763f6719bd01ddbfce4f9,2024-10-10_01h19.59.419,WTP_SM_Choice,2022.2.1,Win32,60.24096386,,,,,,,,,,,,,,,,,,27,,,,,,,,,,0.01,2,1.1953,0,1,1,1,1,Study a new philosphy topic when it rains,play scrabble with my girlfriend,0.02,0.01,3.3,1,,,,,
,,66ada0d8b8ddd62c65d39bfe,6685aa9113c938e83b4f1ea0,670763f6719bd01ddbfce4f9,2024-10-10_01h19.59.419,WTP_SM_Choice,2022.2.1,Win32,60.24096386,,,,,,,,,,,,,,,,,,28,,,,,,,,,,0.01,2,7.2851,0,2,2,2,1,Attend a yoga class with my mom,Tan at the beach in miami,0.03,0.01,3.3,0,,,,,
,,66ada0d8b8ddd62c65d39bfe,6685aa9113c938e83b4f1ea0,670763f6719bd01ddbfce4f9,2024-10-10_01h19.59.419,WTP_SM_Choice,2022.2.1,Win32,60.24096386,,,,,,,,,,,,,,,,,,29,,,,,,,,,,0.01,2,2.076,0,3,3,3,1,Cook a meal for my friends,Play piano on a rainy day at my home,0.04,0.01,4.4,0,,,,,
,,66ada0d8b8ddd62c65d39bfe,6685aa9113c938e83b4f1ea0,670763f6719bd01ddbfce4f9,2024-10-10_01h19.59.419,WTP_SM_Choice,2022.2.1,Win32,60.24096386,,,,,,,,,,,,,,,,,,30,,,,,,,,,,0.01,2,1.7333,0,4,4,4,1,Hang out at the park wiht my best friend,Hang out with my dogs in the summer,0.05,0.01,8.8,0,,,,,
,,66ada0d8b8ddd62c65d39bfe,6685aa9113c938e83b4f1ea0,670763f6719bd01ddbfce4f9,2024-10-10_01h19.59.419,WTP_SM_Choice,2022.2.1,Win32,60.24096386,,,,,,,NAN,,NAN,0.6,5.4,,0,29,29,29,1,30,Riley,Rej,Participant_Images/66ada0d8b8ddd62c65d39bfe/66ada0d8b8ddd62c65d39bfe_Images/66ada0d8b8ddd62c65d39bfe_Image_13.jpeg,liked,1.661473164,,,,,,,,,,,,,,,,,,,,,,,
,,66ada0d8b8ddd62c65d39bfe,6685aa9113c938e83b4f1ea0,670763f6719bd01ddbfce4f9,2024-10-10_01h19.59.419,WTP_SM_Choice,2022.2.1,Win32,60.24096386,,,,,space,4.4145,NAN,,NAN,0.6,5.4,,0,30,30,30,1,31,Riley,Rej,Participant_Images/66ada0d8b8ddd62c65d39bfe/66ada0d8b8ddd62c65d39bfe_Images/66ada0d8b8ddd62c65d39bfe_Image_11.jpeg,did not like,3.613205605,,,,,,,,,,,,,,,,,,,,,,,
,,66ada0d8b8ddd62c65d39bfe,6685aa9113c938e83b4f1ea0,670763f6719bd01ddbfce4f9,2024-10-10_01h19.59.419,WTP_SM_Choice,2022.2.1,Win32,60.24096386,,,,,space,1.1232,NAN,,NAN,0.6,5.4,,0,31,31,31,1,32,Riley,Rej,Participant_Images/66ada0d8b8ddd62c65d39bfe/66ada0d8b8ddd62c65d39bfe_Images/66ada0d8b8ddd62c65d39bfe_Image_14.jpeg,did not like,4.988446431,,,,,,,,,,,,,,,,,,,,,,,
,,66ada0d8b8ddd62c65d39bfe,6685aa9113c938e83b4f1ea0,670763f6719bd01ddbfce4f9,2024-10-10_01h19.59.419,WTP_SM_Choice,2022.2.1,Win32,60.24096386,,,,,space,1.3191,NAN,,NAN,0.6,5.4,,0,32,32,32,1,33,Riley,Rej,Participant_Images/66ada0d8b8ddd62c65d39bfe/66ada0d8b8ddd62c65d39bfe_Images/66ada0d8b8ddd62c65d39bfe_Image_22.jpeg,liked,3.470791822,,,,,,,,,,,,,,,,,,,,,,,
,,66ada0d8b8ddd62c65d39bfe,6685aa9113c938e83b4f1ea0,670763f6719bd01ddbfce4f9,2024-10-10_01h19.59.419,WTP_SM_Choice,2022.2.1,Win32,60.24096386,,,,,space,1.1193,NAN,,NAN,0.6,5.4,,0,33,33,33,1,34,Riley,Rej,Participant_Images/66ada0d8b8ddd62c65d39bfe/66ada0d8b8ddd62c65d39bfe_Images/66ada0d8b8ddd62c65d39bfe_Image_18.jpeg,did not like,3.820572462,,,,,,,,,,,,,,,,,,,,,,,
,,66ada0d8b8ddd62c65d39bfe,6685aa9113c938e83b4f1ea0,670763f6719bd01ddbfce4f9,2024-10-10_01h19.59.419,WTP_SM_Choice,2022.2.1,Win32,60.24096386,,,,,,,,,,,,,,,,,,31,,,,,,space,2.136,space,0.4224,0.01,1,0.9526,0,0,0,0,1,Work out a the gym early in the morning,Go on a hike with my girlfriend,0.01,0.02,8.8,1,,,,,
,,66ada0d8b8ddd62c65d39bfe,6685aa9113c938e83b4f1ea0,670763f6719bd01ddbfce4f9,2024-10-10_01h19.59.419,WTP_SM_Choice,2022.2.1,Win32,60.24096386,,,,,,,,,,,,,,,,,,32,,,,,,,,,,0.02,1,2.3548,0,1,1,1,1,Study a new philosphy topic when it rains,Run a race with my dad,0.02,0.02,1.1,1,,,,,
,,66ada0d8b8ddd62c65d39bfe,6685aa9113c938e83b4f1ea0,670763f6719bd01ddbfce4f9,2024-10-10_01h19.59.419,WTP_SM_Choice,2022.2.1,Win32,60.24096386,,,,,,,,,,,,,,,,,,33,,,,,,,,,,0.02,2,1.1345,0,2,2,2,1,Run at the track at the local community center,Go on a hike with my girlfriend,0.03,0.02,4.4,1,,,,,
,,66ada0d8b8ddd62c65d39bfe,6685aa9113c938e83b4f1ea0,670763f6719bd01ddbfce4f9,2024-10-10_01h19.59.419,WTP_SM_Choice,2022.2.1,Win32,60.24096386,,,,,,,,,,,,,,,,,,34,,,,,,,,,,0.02,2,1.1011,0,3,3,3,1,Go on a hike with my girlfriend,Read a book at the park,0.04,0.02,3.3,0,,,,,
,,66ada0d8b8ddd62c65d39bfe,6685aa9113c938e83b4f1ea0,670763f6719bd01ddbfce4f9,2024-10-10_01h19.59.419,WTP_SM_Choice,2022.2.1,Win32,60.24096386,,,,,,,,,,,,,,,,,,35,,,,,,,,,,0.02,2,1.2029,0,4,4,4,1,Meet new people at a party,Work out a the gym early in the morning,0.05,0.02,1.1,0,,,,,
,,66ada0d8b8ddd62c65d39bfe,6685aa9113c938e83b4f1ea0,670763f6719bd01ddbfce4f9,2024-10-10_01h19.59.419,WTP_SM_Choice,2022.2.1,Win32,60.24096386,,,,,,,NAN,,NAN,0.69,5.31,,0,34,34,34,1,35,Riley,Rej,Participant_Images/66ada0d8b8ddd62c65d39bfe/66ada0d8b8ddd62c65d39bfe_Images/66ada0d8b8ddd62c65d39bfe_Image_1.jpeg,liked,2.455989137,,,,,,,,,,,,,,,,,,,,,,,
,,66ada0d8b8ddd62c65d39bfe,6685aa9113c938e83b4f1ea0,670763f6719bd01ddbfce4f9,2024-10-10_01h19.59.419,WTP_SM_Choice,2022.2.1,Win32,60.24096386,,,,,space,0.9666,NAN,,NAN,0.69,5.31,,0,35,35,35,1,36,Riley,Rej,Participant_Images/66ada0d8b8ddd62c65d39bfe/66ada0d8b8ddd62c65d39bfe_Images/66ada0d8b8ddd62c65d39bfe_Image_24.jpeg,liked,3.79605092,,,,,,,,,,,,,,,,,,,,,,,
,,66ada0d8b8ddd62c65d39bfe,6685aa9113c938e83b4f1ea0,670763f6719bd01ddbfce4f9,2024-10-10_01h19.59.419,WTP_SM_Choice,2022.2.1,Win32,60.24096386,,,,,space,1.1003,NAN,,NAN,0.69,5.31,,0,36,36,36,1,37,Riley,Rej,Participant_Images/66ada0d8b8ddd62c65d39bfe/66ada0d8b8ddd62c65d39bfe_Images/66ada0d8b8ddd62c65d39bfe_Image_4.jpeg,did not like,3.562416326,,,,,,,,,,,,,,,,,,,,,,,
,,66ada0d8b8ddd62c65d39bfe,6685aa9113c938e83b4f1ea0,670763f6719bd01ddbfce4f9,2024-10-10_01h19.59.419,WTP_SM_Choice,2022.2.1,Win32,60.24096386,,,,,space,0.7183,NAN,,NAN,0.69,5.31,,0,37,37,37,1,38,Riley,Rej,Participant_Images/66ada0d8b8ddd62c65d39bfe/66ada0d8b8ddd62c65d39bfe_Images/66ada0d8b8ddd62c65d39bfe_Image_10.jpeg,did not like,2.843822497,,,,,,,,,,,,,,,,,,,,,,,
,,66ada0d8b8ddd62c65d39bfe,6685aa9113c938e83b4f1ea0,670763f6719bd01ddbfce4f9,2024-10-10_01h19.59.419,WTP_SM_Choice,2022.2.1,Win32,60.24096386,,,,,space,1.57,NAN,,NAN,0.69,5.31,,0,38,38,38,1,39,Riley,Rej,Participant_Images/66ada0d8b8ddd62c65d39bfe/66ada0d8b8ddd62c65d39bfe_Images/66ada0d8b8ddd62c65d39bfe_Image_6.jpeg,did not like,3.546495948,,,,,,,,,,,,,,,,,,,,,,,
,,66ada0d8b8ddd62c65d39bfe,6685aa9113c938e83b4f1ea0,670763f6719bd01ddbfce4f9,2024-10-10_01h19.59.419,WTP_SM_Choice,2022.2.1,Win32,60.24096386,,,,,,,,,,,,,,,,,,36,,,,,,space,0.6869,space,0.4773,0.01,1,0.7319,0,0,0,0,1,play scrabble with my girlfriend,Run at the track at the local community center,0.01,0.03,3.3,0,,,,,
,,66ada0d8b8ddd62c65d39bfe,6685aa9113c938e83b4f1ea0,670763f6719bd01ddbfce4f9,2024-10-10_01h19.59.419,WTP_SM_Choice,2022.2.1,Win32,60.24096386,,,,,,,,,,,,,,,,,,37,,,,,,,,,,0.02,1,1.1182,0,1,1,1,1,Attend a rave with my second best friend ,Play piano on a rainy day at my home,0.02,0.03,1.1,0,,,,,
,,66ada0d8b8ddd62c65d39bfe,6685aa9113c938e83b4f1ea0,670763f6719bd01ddbfce4f9,2024-10-10_01h19.59.419,WTP_SM_Choice,2022.2.1,Win32,60.24096386,,,,,,,,,,,,,,,,,,38,,,,,,,,,,0.03,1,2.3148,0,2,2,2,1,Work out a the gym early in the morning,Attend a yoga class with my mom,0.03,0.03,1.1,1,,,,,
,,66ada0d8b8ddd62c65d39bfe,6685aa9113c938e83b4f1ea0,670763f6719bd01ddbfce4f9,2024-10-10_01h19.59.419,WTP_SM_Choice,2022.2.1,Win32,60.24096386,,,,,,,,,,,,,,,,,,39,,,,,,,,,,0.03,2,1.4663,0,3,3,3,1,Run a race with my dad,Hang out with my dogs in the summer,0.04,0.03,3.3,0,,,,,
,,66ada0d8b8ddd62c65d39bfe,6685aa9113c938e83b4f1ea0,670763f6719bd01ddbfce4f9,2024-10-10_01h19.59.419,WTP_SM_Choice,2022.2.1,Win32,60.24096386,,,,,,,,,,,,,,,,,,40,,,,,,,,,,0.03,2,1.3661,0,4,4,4,1,Play piano on a rainy day at my home,Play video games with my younger brother,0.05,0.03,4.4,1,,,,,
,,66ada0d8b8ddd62c65d39bfe,6685aa9113c938e83b4f1ea0,670763f6719bd01ddbfce4f9,2024-10-10_01h19.59.419,WTP_SM_Choice,2022.2.1,Win32,60.24096386,,,,,,,NAN,,NAN,0.81,5.19,,0,39,39,39,1,40,Riley,Rej,Participant_Images/66ada0d8b8ddd62c65d39bfe/66ada0d8b8ddd62c65d39bfe_Images/66ada0d8b8ddd62c65d39bfe_Image_7.jpeg,did not like,1.672012706,,,,,,,,,,,,,,,,,,,,,,,
,,66ada0d8b8ddd62c65d39bfe,6685aa9113c938e83b4f1ea0,670763f6719bd01ddbfce4f9,2024-10-10_01h19.59.419,WTP_SM_Choice,2022.2.1,Win32,60.24096386,,,,,space,2.4005,NAN,,NAN,0.81,5.19,,0,40,40,40,1,41,Riley,Rej,Participant_Images/66ada0d8b8ddd62c65d39bfe/66ada0d8b8ddd62c65d39bfe_Images/66ada0d8b8ddd62c65d39bfe_Image_23.jpeg,did not like,4.942172136,,,,,,,,,,,,,,,,,,,,,,,
,,66ada0d8b8ddd62c65d39bfe,6685aa9113c938e83b4f1ea0,670763f6719bd01ddbfce4f9,2024-10-10_01h19.59.419,WTP_SM_Choice,2022.2.1,Win32,60.24096386,,,,,space,4.5434,NAN,,NAN,0.81,5.19,,0,41,41,41,1,42,Riley,Rej,Participant_Images/66ada0d8b8ddd62c65d39bfe/66ada0d8b8ddd62c65d39bfe_Images/66ada0d8b8ddd62c65d39bfe_Image_2.jpeg,did not like,2.50187214,,,,,,,,,,,,,,,,,,,,,,,
,,66ada0d8b8ddd62c65d39bfe,6685aa9113c938e83b4f1ea0,670763f6719bd01ddbfce4f9,2024-10-10_01h19.59.419,WTP_SM_Choice,2022.2.1,Win32,60.24096386,,,,,space,3.9054,NAN,,NAN,0.81,5.19,,0,42,42,42,1,43,Riley,Rej,Participant_Images/66ada0d8b8ddd62c65d39bfe/66ada0d8b8ddd62c65d39bfe_Images/66ada0d8b8ddd62c65d39bfe_Image_8.jpeg,did not like,2.071164779,,,,,,,,,,,,,,,,,,,,,,,
,,66ada0d8b8ddd62c65d39bfe,6685aa9113c938e83b4f1ea0,670763f6719bd01ddbfce4f9,2024-10-10_01h19.59.419,WTP_SM_Choice,2022.2.1,Win32,60.24096386,,,,,space,1.2427,NAN,,NAN,0.81,5.19,,0,43,43,43,1,44,Riley,Rej,Participant_Images/66ada0d8b8ddd62c65d39bfe/66ada0d8b8ddd62c65d39bfe_Images/66ada0d8b8ddd62c65d39bfe_Image_12.jpeg,liked,5.336503566,,,,,,,,,,,,,,,,,,,,,,,
,,66ada0d8b8ddd62c65d39bfe,6685aa9113c938e83b4f1ea0,670763f6719bd01ddbfce4f9,2024-10-10_01h19.59.419,WTP_SM_Choice,2022.2.1,Win32,60.24096386,,,,,,,,,,,,,,,,,,41,,,,,,space,0.6773,space,1.3173,0.01,1,1.2967,0,0,0,0,1,Hang out with my dogs in the summer,Attend a rave with my second best friend ,0.01,0.04,1.1,1,,,,,
,,66ada0d8b8ddd62c65d39bfe,6685aa9113c938e83b4f1ea0,670763f6719bd01ddbfce4f9,2024-10-10_01h19.59.419,WTP_SM_Choice,2022.2.1,Win32,60.24096386,,,,,,,,,,,,,,,,,,42,,,,,,,,,,0.02,1,2.3607,0,1,1,1,1,Study a new philosphy topic when it rains,Play video games with my younger brother,0.02,0.04,3.3,1,,,,,
,,66ada0d8b8ddd62c65d39bfe,6685aa9113c938e83b4f1ea0,670763f6719bd01ddbfce4f9,2024-10-10_01h19.59.419,WTP_SM_Choice,2022.2.1,Win32,60.24096386,,,,,,,,,,,,,,,,,,43,,,,,,,,,,0.03,1,1.0354,0,2,2,2,1,Play video games with my younger brother,Run at the track at the local community center,0.03,0.04,1.1,0,,,,,
,,66ada0d8b8ddd62c65d39bfe,6685aa9113c938e83b4f1ea0,670763f6719bd01ddbfce4f9,2024-10-10_01h19.59.419,WTP_SM_Choice,2022.2.1,Win32,60.24096386,,,,,,,,,,,,,,,,,,44,,,,,,,,,,0.04,1,3.4087,0,3,3,3,1,Run a race with my dad,Play piano on a rainy day at my home,0.04,0.04,1.1,0,,,,,
,,66ada0d8b8ddd62c65d39bfe,6685aa9113c938e83b4f1ea0,670763f6719bd01ddbfce4f9,2024-10-10_01h19.59.419,WTP_SM_Choice,2022.2.1,Win32,60.24096386,,,,,,,,,,,,,,,,,,45,,,,,,,,,,0.04,2,3.8924,0,4,4,4,1,Swim in the ocean on a hot day,Play video games with my younger brother,0.05,0.04,4.4,1,,,,,
,,66ada0d8b8ddd62c65d39bfe,6685aa9113c938e83b4f1ea0,670763f6719bd01ddbfce4f9,2024-10-10_01h19.59.419,WTP_SM_Choice,2022.2.1,Win32,60.24096386,,,,,,,NAN,,NAN,0.95,5.05,,0,44,44,44,1,45,Riley,Rej,Participant_Images/66ada0d8b8ddd62c65d39bfe/66ada0d8b8ddd62c65d39bfe_Images/66ada0d8b8ddd62c65d39bfe_Image_3.jpeg,did not like,2.642157193,,,,,,,,,,,,,,,,,,,,,,,
,,66ada0d8b8ddd62c65d39bfe,6685aa9113c938e83b4f1ea0,670763f6719bd01ddbfce4f9,2024-10-10_01h19.59.419,WTP_SM_Choice,2022.2.1,Win32,60.24096386,,,,,space,0.9392,NAN,,NAN,0.95,5.05,,0,45,45,45,1,46,Riley,Rej,Participant_Images/66ada0d8b8ddd62c65d39bfe/66ada0d8b8ddd62c65d39bfe_Images/66ada0d8b8ddd62c65d39bfe_Image_20.jpeg,did not like,4.456234322,,,,,,,,,,,,,,,,,,,,,,,
,,66ada0d8b8ddd62c65d39bfe,6685aa9113c938e83b4f1ea0,670763f6719bd01ddbfce4f9,2024-10-10_01h19.59.419,WTP_SM_Choice,2022.2.1,Win32,60.24096386,,,,,space,0.6461,NAN,,NAN,0.95,5.05,,0,46,46,46,1,47,Riley,Rej,Participant_Images/66ada0d8b8ddd62c65d39bfe/66ada0d8b8ddd62c65d39bfe_Images/66ada0d8b8ddd62c65d39bfe_Image_15.jpeg,did not like,4.438512181,,,,,,,,,,,,,,,,,,,,,,,
,,66ada0d8b8ddd62c65d39bfe,6685aa9113c938e83b4f1ea0,670763f6719bd01ddbfce4f9,2024-10-10_01h19.59.419,WTP_SM_Choice,2022.2.1,Win32,60.24096386,,,,,space,0.8478,NAN,,NAN,0.95,5.05,,0,47,47,47,1,48,Riley,Rej,Participant_Images/66ada0d8b8ddd62c65d39bfe/66ada0d8b8ddd62c65d39bfe_Images/66ada0d8b8ddd62c65d39bfe_Image_9.jpeg,did not like,2.682944783,,,,,,,,,,,,,,,,,,,,,,,
,,66ada0d8b8ddd62c65d39bfe,6685aa9113c938e83b4f1ea0,670763f6719bd01ddbfce4f9,2024-10-10_01h19.59.419,WTP_SM_Choice,2022.2.1,Win32,60.24096386,,,,,space,0.7328,NAN,,NAN,0.95,5.05,,0,48,48,48,1,49,Riley,Rej,Participant_Images/66ada0d8b8ddd62c65d39bfe/66ada0d8b8ddd62c65d39bfe_Images/66ada0d8b8ddd62c65d39bfe_Image_17.jpeg,did not like,4.51984296,,,,,,,,,,,,,,,,,,,,,,,
,,66ada0d8b8ddd62c65d39bfe,6685aa9113c938e83b4f1ea0,670763f6719bd01ddbfce4f9,2024-10-10_01h19.59.419,WTP_SM_Choice,2022.2.1,Win32,60.24096386,,,,,,,,,,,,,,,,,,46,,,,,,space,1.25,space,0.44,0.01,1,0.719,0,0,0,0,1,Meet new people at a party,Play piano on a rainy day at my home,0.01,0.05,8.8,0,,,,,
,,66ada0d8b8ddd62c65d39bfe,6685aa9113c938e83b4f1ea0,670763f6719bd01ddbfce4f9,2024-10-10_01h19.59.419,WTP_SM_Choice,2022.2.1,Win32,60.24096386,,,,,,,,,,,,,,,,,,47,,,,,,,,,,0.02,1,1.2738,0,1,1,1,1,Run at the track at the local community center,Cook a meal for my friends,0.02,0.05,1.1,1,,,,,
,,66ada0d8b8ddd62c65d39bfe,6685aa9113c938e83b4f1ea0,670763f6719bd01ddbfce4f9,2024-10-10_01h19.59.419,WTP_SM_Choice,2022.2.1,Win32,60.24096386,,,,,,,,,,,,,,,,,,48,,,,,,,,,,0.03,1,1.1902,0,2,2,2,1,Swim in the ocean on a hot day,Meet new people at a party,0.03,0.05,4.4,1,,,,,
,,66ada0d8b8ddd62c65d39bfe,6685aa9113c938e83b4f1ea0,670763f6719bd01ddbfce4f9,2024-10-10_01h19.59.419,WTP_SM_Choice,2022.2.1,Win32,60.24096386,,,,,,,,,,,,,,,,,,49,,,,,,,,,,0.04,1,1.961,0,3,3,3,1,Attend a yoga class with my mom,Sleep in late on a sunday,0.04,0.05,3.3,0,,,,,
,,66ada0d8b8ddd62c65d39bfe,6685aa9113c938e83b4f1ea0,670763f6719bd01ddbfce4f9,2024-10-10_01h19.59.419,WTP_SM_Choice,2022.2.1,Win32,60.24096386,,,,,,,,,,,,,,,,,,50,,,,,,,,,,0.05,1,2.6288,0,4,4,4,1,Run at the track at the local community center,Hang out at the park wiht my best friend,0.05,0.05,1.1,1,,,,,
,,66ada0d8b8ddd62c65d39bfe,6685aa9113c938e83b4f1ea0,670763f6719bd01ddbfce4f9,2024-10-10_01h19.59.419,WTP_SM_Choice,2022.2.1,Win32,60.24096386,,,,,,,2,,2,1.1,4.9,,0,49,49,49,1,50,Riley,Rej,Participant_Images/66ada0d8b8ddd62c65d39bfe/66ada0d8b8ddd62c65d39bfe_Images/66ada0d8b8ddd62c65d39bfe_Image_16.jpeg,liked,3.195382774,,,,,,,,,,,,,,,,,,,space,0.9677,,,
,,66ada0d8b8ddd62c65d39bfe,6685aa9113c938e83b4f1ea0,670763f6719bd01ddbfce4f9,2024-10-10_01h19.59.419,WTP_SM_Choice,2022.2.1,Win32,60.24096386,,,space,1.3422,space,3.3381,NAN,,NAN,1.1,4.9,,0,50,50,50,1,51,Charlie,Rej,Participant_Images/66ada0d8b8ddd62c65d39bfe/66ada0d8b8ddd62c65d39bfe_Images/66ada0d8b8ddd62c65d39bfe_Image_13.jpeg,did not like,1.779333479,,,,,,,,,,,,,,,,,,,,,,,
,,66ada0d8b8ddd62c65d39bfe,6685aa9113c938e83b4f1ea0,670763f6719bd01ddbfce4f9,2024-10-10_01h19.59.419,WTP_SM_Choice,2022.2.1,Win32,60.24096386,,,,,space,0.9925,NAN,,NAN,1.1,4.9,,0,51,51,51,1,52,Charlie,Rej,Participant_Images/66ada0d8b8ddd62c65d39bfe/66ada0d8b8ddd62c65d39bfe_Images/66ada0d8b8ddd62c65d39bfe_Image_9.jpeg,did not like,4.312468682,,,,,,,,,,,,,,,,,,,,,,,
,,66ada0d8b8ddd62c65d39bfe,6685aa9113c938e83b4f1ea0,670763f6719bd01ddbfce4f9,2024-10-10_01h19.59.419,WTP_SM_Choice,2022.2.1,Win32,60.24096386,,,,,space,0.905,NAN,,NAN,1.1,4.9,,0,52,52,52,1,53,Charlie,Rej,Participant_Images/66ada0d8b8ddd62c65d39bfe/66ada0d8b8ddd62c65d39bfe_Images/66ada0d8b8ddd62c65d39bfe_Image_2.jpeg,liked,4.940433059,,,,,,,,,,,,,,,,,,,,,,,
,,66ada0d8b8ddd62c65d39bfe,6685aa9113c938e83b4f1ea0,670763f6719bd01ddbfce4f9,2024-10-10_01h19.59.419,WTP_SM_Choice,2022.2.1,Win32,60.24096386,,,,,space,0.6985,NAN,,NAN,1.1,4.9,,0,53,53,53,1,54,Charlie,Rej,Participant_Images/66ada0d8b8ddd62c65d39bfe/66ada0d8b8ddd62c65d39bfe_Images/66ada0d8b8ddd62c65d39bfe_Image_22.jpeg,did not like,2.7105123,,,,,,,,,,,,,,,,,,,,,,,
,,66ada0d8b8ddd62c65d39bfe,6685aa9113c938e83b4f1ea0,670763f6719bd01ddbfce4f9,2024-10-10_01h19.59.419,WTP_SM_Choice,2022.2.1,Win32,60.24096386,,,,,,,,,,,,,,,,,,51,,,,,,space,0.7193,space,0.4816,0.01,1,0.7577,0,0,0,0,1,Swim in the ocean on a hot day,Hang out at the park wiht my best friend,0.01,0.01,1.1,1,,,,,
,,66ada0d8b8ddd62c65d39bfe,6685aa9113c938e83b4f1ea0,670763f6719bd01ddbfce4f9,2024-10-10_01h19.59.419,WTP_SM_Choice,2022.2.1,Win32,60.24096386,,,,,,,,,,,,,,,,,,52,,,,,,,,,,0.01,2,1.1885,0,1,1,1,1,Hang out at the park wiht my best friend,Read a book at the park,0.02,0.01,3.3,0,,,,,
,,66ada0d8b8ddd62c65d39bfe,6685aa9113c938e83b4f1ea0,670763f6719bd01ddbfce4f9,2024-10-10_01h19.59.419,WTP_SM_Choice,2022.2.1,Win32,60.24096386,,,,,,,,,,,,,,,,,,53,,,,,,,,,,0.01,2,1.0993,0,2,2,2,1,Tan at the beach in miami,Meet new people at a party,0.03,0.01,1.1,1,,,,,
,,66ada0d8b8ddd62c65d39bfe,6685aa9113c938e83b4f1ea0,670763f6719bd01ddbfce4f9,2024-10-10_01h19.59.419,WTP_SM_Choice,2022.2.1,Win32,60.24096386,,,,,,,,,,,,,,,,,,54,,,,,,,,,,0.01,2,1.6868,0,3,3,3,1,Attend a rave with my second best friend ,Read a book at the park,0.04,0.01,4.4,0,,,,,
,,66ada0d8b8ddd62c65d39bfe,6685aa9113c938e83b4f1ea0,670763f6719bd01ddbfce4f9,2024-10-10_01h19.59.419,WTP_SM_Choice,2022.2.1,Win32,60.24096386,,,,,,,,,,,,,,,,,,55,,,,,,,,,,0.01,2,1.3042,0,4,4,4,1,Hang out with my dogs in the summer,Cook a meal for my friends,0.05,0.01,1.1,1,,,,,
,,66ada0d8b8ddd62c65d39bfe,6685aa9113c938e83b4f1ea0,670763f6719bd01ddbfce4f9,2024-10-10_01h19.59.419,WTP_SM_Choice,2022.2.1,Win32,60.24096386,,,,,,,NAN,,NAN,1.15,4.85,,0,54,54,54,1,55,Charlie,Rej,Participant_Images/66ada0d8b8ddd62c65d39bfe/66ada0d8b8ddd62c65d39bfe_Images/66ada0d8b8ddd62c65d39bfe_Image_14.jpeg,did not like,3.602308302,,,,,,,,,,,,,,,,,,,,,,,
,,66ada0d8b8ddd62c65d39bfe,6685aa9113c938e83b4f1ea0,670763f6719bd01ddbfce4f9,2024-10-10_01h19.59.419,WTP_SM_Choice,2022.2.1,Win32,60.24096386,,,,,space,1.1341,NAN,,NAN,1.15,4.85,,0,55,55,55,1,56,Charlie,Rej,Participant_Images/66ada0d8b8ddd62c65d39bfe/66ada0d8b8ddd62c65d39bfe_Images/66ada0d8b8ddd62c65d39bfe_Image_7.jpeg,did not like,4.106391878,,,,,,,,,,,,,,,,,,,,,,,
,,66ada0d8b8ddd62c65d39bfe,6685aa9113c938e83b4f1ea0,670763f6719bd01ddbfce4f9,2024-10-10_01h19.59.419,WTP_SM_Choice,2022.2.1,Win32,60.24096386,,,,,space,2.4251,NAN,,NAN,1.15,4.85,,0,56,56,56,1,57,Charlie,Rej,Participant_Images/66ada0d8b8ddd62c65d39bfe/66ada0d8b8ddd62c65d39bfe_Images/66ada0d8b8ddd62c65d39bfe_Image_1.jpeg,did not like,3.799433026,,,,,,,,,,,,,,,,,,,,,,,
,,66ada0d8b8ddd62c65d39bfe,6685aa9113c938e83b4f1ea0,670763f6719bd01ddbfce4f9,2024-10-10_01h19.59.419,WTP_SM_Choice,2022.2.1,Win32,60.24096386,,,,,space,0.6148,NAN,,NAN,1.15,4.85,,0,57,57,57,1,58,Charlie,Rej,Participant_Images/66ada0d8b8ddd62c65d39bfe/66ada0d8b8ddd62c65d39bfe_Images/66ada0d8b8ddd62c65d39bfe_Image_5.jpeg,did not like,5.246980764,,,,,,,,,,,,,,,,,,,,,,,
,,66ada0d8b8ddd62c65d39bfe,6685aa9113c938e83b4f1ea0,670763f6719bd01ddbfce4f9,2024-10-10_01h19.59.419,WTP_SM_Choice,2022.2.1,Win32,60.24096386,,,,,space,0.7045,NAN,,NAN,1.15,4.85,,0,58,58,58,1,59,Charlie,Rej,Participant_Images/66ada0d8b8ddd62c65d39bfe/66ada0d8b8ddd62c65d39bfe_Images/66ada0d8b8ddd62c65d39bfe_Image_19.jpeg,liked,3.30081769,,,,,,,,,,,,,,,,,,,,,,,
,,66ada0d8b8ddd62c65d39bfe,6685aa9113c938e83b4f1ea0,670763f6719bd01ddbfce4f9,2024-10-10_01h19.59.419,WTP_SM_Choice,2022.2.1,Win32,60.24096386,,,,,,,,,,,,,,,,,,56,,,,,,space,2.3803,space,0.4757,0.01,1,2.5086,0,0,0,0,1,Cook a nice meal for myself,Meet new people at a party,0.01,0.02,8.8,1,,,,,
,,66ada0d8b8ddd62c65d39bfe,6685aa9113c938e83b4f1ea0,670763f6719bd01ddbfce4f9,2024-10-10_01h19.59.419,WTP_SM_Choice,2022.2.1,Win32,60.24096386,,,,,,,,,,,,,,,,,,57,,,,,,,,,,0.02,1,2.1774,0,1,1,1,1,Attend a yoga class with my mom,Hang out with my dogs in the summer,0.02,0.02,4.4,0,,,,,
,,66ada0d8b8ddd62c65d39bfe,6685aa9113c938e83b4f1ea0,670763f6719bd01ddbfce4f9,2024-10-10_01h19.59.419,WTP_SM_Choice,2022.2.1,Win32,60.24096386,,,,,,,,,,,,,,,,,,58,,,,,,,,,,0.02,2,1.1447,0,2,2,2,1,Attend a rave with my second best friend ,Sleep in late on a sunday,0.03,0.02,4.4,0,,,,,
,,66ada0d8b8ddd62c65d39bfe,6685aa9113c938e83b4f1ea0,670763f6719bd01ddbfce4f9,2024-10-10_01h19.59.419,WTP_SM_Choice,2022.2.1,Win32,60.24096386,,,,,,,,,,,,,,,,,,59,,,,,,,,,,0.02,2,1.1648,0,3,3,3,1,Sleep in late on a sunday,Play video games with my younger brother,0.04,0.02,4.4,1,,,,,
,,66ada0d8b8ddd62c65d39bfe,6685aa9113c938e83b4f1ea0,670763f6719bd01ddbfce4f9,2024-10-10_01h19.59.419,WTP_SM_Choice,2022.2.1,Win32,60.24096386,,,,,,,,,,,,,,,,,,60,,,,,,,,,,0.02,2,1.046,0,4,4,4,1,Cook a nice meal for myself,Go on a hike with my girlfriend,0.05,0.02,1.1,1,,,,,
,,66ada0d8b8ddd62c65d39bfe,6685aa9113c938e83b4f1ea0,670763f6719bd01ddbfce4f9,2024-10-10_01h19.59.419,WTP_SM_Choice,2022.2.1,Win32,60.24096386,,,,,,,NAN,,NAN,1.24,4.76,,0,59,59,59,1,60,Charlie,Rej,Participant_Images/66ada0d8b8ddd62c65d39bfe/66ada0d8b8ddd62c65d39bfe_Images/66ada0d8b8ddd62c65d39bfe_Image_15.jpeg,did not like,1.661473164,,,,,,,,,,,,,,,,,,,,,,,
,,66ada0d8b8ddd62c65d39bfe,6685aa9113c938e83b4f1ea0,670763f6719bd01ddbfce4f9,2024-10-10_01h19.59.419,WTP_SM_Choice,2022.2.1,Win32,60.24096386,,,,,space,2.4057,NAN,,NAN,1.24,4.76,,0,60,60,60,1,61,Charlie,Rej,Participant_Images/66ada0d8b8ddd62c65d39bfe/66ada0d8b8ddd62c65d39bfe_Images/66ada0d8b8ddd62c65d39bfe_Image_20.jpeg,liked,3.613205605,,,,,,,,,,,,,,,,,,,,,,,
,,66ada0d8b8ddd62c65d39bfe,6685aa9113c938e83b4f1ea0,670763f6719bd01ddbfce4f9,2024-10-10_01h19.59.419,WTP_SM_Choice,2022.2.1,Win32,60.24096386,,,,,space,0.6005,NAN,,NAN,1.24,4.76,,0,61,61,61,1,62,Charlie,Rej,Participant_Images/66ada0d8b8ddd62c65d39bfe/66ada0d8b8ddd62c65d39bfe_Images/66ada0d8b8ddd62c65d39bfe_Image_3.jpeg,did not like,4.988446431,,,,,,,,,,,,,,,,,,,,,,,
,,66ada0d8b8ddd62c65d39bfe,6685aa9113c938e83b4f1ea0,670763f6719bd01ddbfce4f9,2024-10-10_01h19.59.419,WTP_SM_Choice,2022.2.1,Win32,60.24096386,,,,,space,1.9434,NAN,,NAN,1.24,4.76,,0,62,62,62,1,63,Charlie,Rej,Participant_Images/66ada0d8b8ddd62c65d39bfe/66ada0d8b8ddd62c65d39bfe_Images/66ada0d8b8ddd62c65d39bfe_Image_4.jpeg,liked,3.470791822,,,,,,,,,,,,,,,,,,,,,,,
,,66ada0d8b8ddd62c65d39bfe,6685aa9113c938e83b4f1ea0,670763f6719bd01ddbfce4f9,2024-10-10_01h19.59.419,WTP_SM_Choice,2022.2.1,Win32,60.24096386,,,,,space,1.4479,NAN,,NAN,1.24,4.76,,0,63,63,63,1,64,Charlie,Rej,Participant_Images/66ada0d8b8ddd62c65d39bfe/66ada0d8b8ddd62c65d39bfe_Images/66ada0d8b8ddd62c65d39bfe_Image_11.jpeg,did not like,3.820572462,,,,,,,,,,,,,,,,,,,,,,,
,,66ada0d8b8ddd62c65d39bfe,6685aa9113c938e83b4f1ea0,670763f6719bd01ddbfce4f9,2024-10-10_01h19.59.419,WTP_SM_Choice,2022.2.1,Win32,60.24096386,,,,,,,,,,,,,,,,,,61,,,,,,space,1.1958,space,0.4439,0.01,1,0.7201,0,0,0,0,1,play scrabble with my girlfriend,Tan at the beach in miami,0.01,0.03,3.3,0,,,,,
,,66ada0d8b8ddd62c65d39bfe,6685aa9113c938e83b4f1ea0,670763f6719bd01ddbfce4f9,2024-10-10_01h19.59.419,WTP_SM_Choice,2022.2.1,Win32,60.24096386,,,,,,,,,,,,,,,,,,62,,,,,,,,,,0.02,1,1.1004,0,1,1,1,1,Sleep in late on a sunday,Cook a meal for my friends,0.02,0.03,3.3,1,,,,,
,,66ada0d8b8ddd62c65d39bfe,6685aa9113c938e83b4f1ea0,670763f6719bd01ddbfce4f9,2024-10-10_01h19.59.419,WTP_SM_Choice,2022.2.1,Win32,60.24096386,,,,,,,,,,,,,,,,,,63,,,,,,,,,,0.03,1,0.7125,0,2,2,2,1,Fence with my sparing partner,Play piano on a rainy day at my home,0.03,0.03,3.3,0,,,,,
,,66ada0d8b8ddd62c65d39bfe,6685aa9113c938e83b4f1ea0,670763f6719bd01ddbfce4f9,2024-10-10_01h19.59.419,WTP_SM_Choice,2022.2.1,Win32,60.24096386,,,,,,,,,,,,,,,,,,64,,,,,,,,,,0.03,2,1.0839,0,3,3,3,1,Hang out at the park wiht my best friend,Tan at the beach in miami,0.04,0.03,1.1,0,,,,,
,,66ada0d8b8ddd62c65d39bfe,6685aa9113c938e83b4f1ea0,670763f6719bd01ddbfce4f9,2024-10-10_01h19.59.419,WTP_SM_Choice,2022.2.1,Win32,60.24096386,,,,,,,,,,,,,,,,,,65,,,,,,,,,,0.03,2,2.862,0,4,4,4,1,Cook a meal for my friends,Study a new philosphy topic when it rains,0.05,0.03,1.1,0,,,,,
,,66ada0d8b8ddd62c65d39bfe,6685aa9113c938e83b4f1ea0,670763f6719bd01ddbfce4f9,2024-10-10_01h19.59.419,WTP_SM_Choice,2022.2.1,Win32,60.24096386,,,,,,,NAN,,NAN,1.36,4.64,,0,64,64,64,1,65,Charlie,Rej,Participant_Images/66ada0d8b8ddd62c65d39bfe/66ada0d8b8ddd62c65d39bfe_Images/66ada0d8b8ddd62c65d39bfe_Image_16.jpeg,did not like,2.455989137,,,,,,,,,,,,,,,,,,,,,,,
,,66ada0d8b8ddd62c65d39bfe,6685aa9113c938e83b4f1ea0,670763f6719bd01ddbfce4f9,2024-10-10_01h19.59.419,WTP_SM_Choice,2022.2.1,Win32,60.24096386,,,,,space,0.9687,NAN,,NAN,1.36,4.64,,0,65,65,65,1,66,Charlie,Rej,Participant_Images/66ada0d8b8ddd62c65d39bfe/66ada0d8b8ddd62c65d39bfe_Images/66ada0d8b8ddd62c65d39bfe_Image_8.jpeg,did not like,3.79605092,,,,,,,,,,,,,,,,,,,,,,,
,,66ada0d8b8ddd62c65d39bfe,6685aa9113c938e83b4f1ea0,670763f6719bd01ddbfce4f9,2024-10-10_01h19.59.419,WTP_SM_Choice,2022.2.1,Win32,60.24096386,,,,,space,0.7706,NAN,,NAN,1.36,4.64,,0,66,66,66,1,67,Charlie,Rej,Participant_Images/66ada0d8b8ddd62c65d39bfe/66ada0d8b8ddd62c65d39bfe_Images/66ada0d8b8ddd62c65d39bfe_Image_12.jpeg,did not like,3.562416326,,,,,,,,,,,,,,,,,,,,,,,
,,66ada0d8b8ddd62c65d39bfe,6685aa9113c938e83b4f1ea0,670763f6719bd01ddbfce4f9,2024-10-10_01h19.59.419,WTP_SM_Choice,2022.2.1,Win32,60.24096386,,,,,space,0.6713,NAN,,NAN,1.36,4.64,,0,67,67,67,1,68,Charlie,Rej,Participant_Images/66ada0d8b8ddd62c65d39bfe/66ada0d8b8ddd62c65d39bfe_Images/66ada0d8b8ddd62c65d39bfe_Image_21.jpeg,liked,2.843822497,,,,,,,,,,,,,,,,,,,,,,,
,,66ada0d8b8ddd62c65d39bfe,6685aa9113c938e83b4f1ea0,670763f6719bd01ddbfce4f9,2024-10-10_01h19.59.419,WTP_SM_Choice,2022.2.1,Win32,60.24096386,,,,,space,0.6087,NAN,,NAN,1.36,4.64,,0,68,68,68,1,69,Charlie,Rej,Participant_Images/66ada0d8b8ddd62c65d39bfe/66ada0d8b8ddd62c65d39bfe_Images/66ada0d8b8ddd62c65d39bfe_Image_6.jpeg,did not like,3.546495948,,,,,,,,,,,,,,,,,,,,,,,
,,66ada0d8b8ddd62c65d39bfe,6685aa9113c938e83b4f1ea0,670763f6719bd01ddbfce4f9,2024-10-10_01h19.59.419,WTP_SM_Choice,2022.2.1,Win32,60.24096386,,,,,,,,,,,,,,,,,,66,,,,,,space,1.3587,space,0.2934,0.01,1,0.6945,0,0,0,0,1,Meet new people at a party,Sleep in late on a sunday,0.01,0.04,1.1,0,,,,,
,,66ada0d8b8ddd62c65d39bfe,6685aa9113c938e83b4f1ea0,670763f6719bd01ddbfce4f9,2024-10-10_01h19.59.419,WTP_SM_Choice,2022.2.1,Win32,60.24096386,,,,,,,,,,,,,,,,,,67,,,,,,,,,,0.02,1,4.4246,0,1,1,1,1,Cook a meal for my friends,Read a book at the park,0.02,0.04,8.8,0,,,,,
,,66ada0d8b8ddd62c65d39bfe,6685aa9113c938e83b4f1ea0,670763f6719bd01ddbfce4f9,2024-10-10_01h19.59.419,WTP_SM_Choice,2022.2.1,Win32,60.24096386,,,,,,,,,,,,,,,,,,68,,,,,,,,,,0.03,1,1.445,0,2,2,2,1,Go on a hike with my girlfriend,Swim in the ocean on a hot day,0.03,0.04,4.4,0,,,,,
,,66ada0d8b8ddd62c65d39bfe,6685aa9113c938e83b4f1ea0,670763f6719bd01ddbfce4f9,2024-10-10_01h19.59.419,WTP_SM_Choice,2022.2.1,Win32,60.24096386,,,,,,,,,,,,,,,,,,69,,,,,,,,,,0.04,1,2.3093,0,3,3,3,1,Hang out with my dogs in the summer,play scrabble with my girlfriend,0.04,0.04,1.1,1,,,,,
,,66ada0d8b8ddd62c65d39bfe,6685aa9113c938e83b4f1ea0,670763f6719bd01ddbfce4f9,2024-10-10_01h19.59.419,WTP_SM_Choice,2022.2.1,Win32,60.24096386,,,,,,,,,,,,,,,,,,70,,,,,,,,,,0.04,2,3.6344,0,4,4,4,1,Play video games with my younger brother,Read a book at the park,0.05,0.04,1.1,0,,,,,
,,66ada0d8b8ddd62c65d39bfe,6685aa9113c938e83b4f1ea0,670763f6719bd01ddbfce4f9,2024-10-10_01h19.59.419,WTP_SM_Choice,2022.2.1,Win32,60.24096386,,,,,,,NAN,,NAN,1.5,4.5,,0,69,69,69,1,70,Charlie,Rej,Participant_Images/66ada0d8b8ddd62c65d39bfe/66ada0d8b8ddd62c65d39bfe_Images/66ada0d8b8ddd62c65d39bfe_Image_23.jpeg,did not like,1.672012706,,,,,,,,,,,,,,,,,,,,,,,
,,66ada0d8b8ddd62c65d39bfe,6685aa9113c938e83b4f1ea0,670763f6719bd01ddbfce4f9,2024-10-10_01h19.59.419,WTP_SM_Choice,2022.2.1,Win32,60.24096386,,,,,space,1.4511,NAN,,NAN,1.5,4.5,,0,70,70,70,1,71,Charlie,Rej,Participant_Images/66ada0d8b8ddd62c65d39bfe/66ada0d8b8ddd62c65d39bfe_Images/66ada0d8b8ddd62c65d39bfe_Image_10.jpeg,liked,4.942172136,,,,,,,,,,,,,,,,,,,,,,,
,,66ada0d8b8ddd62c65d39bfe,6685aa9113c938e83b4f1ea0,670763f6719bd01ddbfce4f9,2024-10-10_01h19.59.419,WTP_SM_Choice,2022.2.1,Win32,60.24096386,,,,,space,0.6557,NAN,,NAN,1.5,4.5,,0,71,71,71,1,72,Charlie,Rej,Participant_Images/66ada0d8b8ddd62c65d39bfe/66ada0d8b8ddd62c65d39bfe_Images/66ada0d8b8ddd62c65d39bfe_Image_17.jpeg,did not like,2.50187214,,,,,,,,,,,,,,,,,,,,,,,
,,66ada0d8b8ddd62c65d39bfe,6685aa9113c938e83b4f1ea0,670763f6719bd01ddbfce4f9,2024-10-10_01h19.59.419,WTP_SM_Choice,2022.2.1,Win32,60.24096386,,,,,space,0.8498,NAN,,NAN,1.5,4.5,,0,72,72,72,1,73,Charlie,Rej,Participant_Images/66ada0d8b8ddd62c65d39bfe/66ada0d8b8ddd62c65d39bfe_Images/66ada0d8b8ddd62c65d39bfe_Image_25.jpeg,liked,2.071164779,,,,,,,,,,,,,,,,,,,,,,,
,,66ada0d8b8ddd62c65d39bfe,6685aa9113c938e83b4f1ea0,670763f6719bd01ddbfce4f9,2024-10-10_01h19.59.419,WTP_SM_Choice,2022.2.1,Win32,60.24096386,,,,,space,0.6465,NAN,,NAN,1.5,4.5,,0,73,73,73,1,74,Charlie,Rej,Participant_Images/66ada0d8b8ddd62c65d39bfe/66ada0d8b8ddd62c65d39bfe_Images/66ada0d8b8ddd62c65d39bfe_Image_18.jpeg,did not like,5.336503566,,,,,,,,,,,,,,,,,,,,,,,
,,66ada0d8b8ddd62c65d39bfe,6685aa9113c938e83b4f1ea0,670763f6719bd01ddbfce4f9,2024-10-10_01h19.59.419,WTP_SM_Choice,2022.2.1,Win32,60.24096386,,,,,,,,,,,,,,,,,,71,,,,,,space,0.835,space,0.3213,0.01,1,0.754,0,0,0,0,1,Hang out at the park wiht my best friend,Study a new philosphy topic when it rains,0.01,0.05,3.3,0,,,,,
,,66ada0d8b8ddd62c65d39bfe,6685aa9113c938e83b4f1ea0,670763f6719bd01ddbfce4f9,2024-10-10_01h19.59.419,WTP_SM_Choice,2022.2.1,Win32,60.24096386,,,,,,,,,,,,,,,,,,72,,,,,,,,,,0.05,2,0.0362,0,1,1,1,1,Play piano on a rainy day at my home,Attend a yoga class with my mom,0.02,0.05,8.8,1,,,,,
,,66ada0d8b8ddd62c65d39bfe,6685aa9113c938e83b4f1ea0,670763f6719bd01ddbfce4f9,2024-10-10_01h19.59.419,WTP_SM_Choice,2022.2.1,Win32,60.24096386,,,,,,,,,,,,,,,,,,73,,,,,,,,,,0.03,1,1.4085,0,2,2,2,1,Play video games with my younger brother,Tan at the beach in miami,0.03,0.05,3.3,0,,,,,
,,66ada0d8b8ddd62c65d39bfe,6685aa9113c938e83b4f1ea0,670763f6719bd01ddbfce4f9,2024-10-10_01h19.59.419,WTP_SM_Choice,2022.2.1,Win32,60.24096386,,,,,,,,,,,,,,,,,,74,,,,,,,,,,0.04,1,1.3708,0,3,3,3,1,Hang out with my dogs in the summer,Meet new people at a party,0.04,0.05,4.4,1,,,,,
,,66ada0d8b8ddd62c65d39bfe,6685aa9113c938e83b4f1ea0,670763f6719bd01ddbfce4f9,2024-10-10_01h19.59.419,WTP_SM_Choice,2022.2.1,Win32,60.24096386,,,,,,,,,,,,,,,,,,75,,,,,,,,,,0.05,2,1.9449,0,4,4,4,1,Fence with my sparing partner,Sleep in late on a sunday,0.05,0.05,3.3,0,,,,,
,,66ada0d8b8ddd62c65d39bfe,6685aa9113c938e83b4f1ea0,670763f6719bd01ddbfce4f9,2024-10-10_01h19.59.419,WTP_SM_Choice,2022.2.1,Win32,60.24096386,,,,,,,1,,2,1.68,4.32,,0,74,74,74,1,75,Charlie,Rej,Participant_Images/66ada0d8b8ddd62c65d39bfe/66ada0d8b8ddd62c65d39bfe_Images/66ada0d8b8ddd62c65d39bfe_Image_24.jpeg,did not like,2.642157193,,,,,,,,,,,,,,,,,,,space,1.3371,,,
,,66ada0d8b8ddd62c65d39bfe,6685aa9113c938e83b4f1ea0,670763f6719bd01ddbfce4f9,2024-10-10_01h19.59.419,WTP_SM_Choice,2022.2.1,Win32,60.24096386,,,space,1.1015,space,1.2022,NAN,,NAN,1.68,4.32,,0,75,75,75,1,76,Sam,Acc,Participant_Images/66ada0d8b8ddd62c65d39bfe/66ada0d8b8ddd62c65d39bfe_Images/66ada0d8b8ddd62c65d39bfe_Image_22.jpeg,liked,4.456234322,,,,,,,,,,,,,,,,,,,,,,,
,,66ada0d8b8ddd62c65d39bfe,6685aa9113c938e83b4f1ea0,670763f6719bd01ddbfce4f9,2024-10-10_01h19.59.419,WTP_SM_Choice,2022.2.1,Win32,60.24096386,,,,,space,1.0381,NAN,,NAN,1.68,4.32,,0,76,76,76,1,77,Sam,Acc,Participant_Images/66ada0d8b8ddd62c65d39bfe/66ada0d8b8ddd62c65d39bfe_Images/66ada0d8b8ddd62c65d39bfe_Image_1.jpeg,did not like,4.438512181,,,,,,,,,,,,,,,,,,,,,,,
,,66ada0d8b8ddd62c65d39bfe,6685aa9113c938e83b4f1ea0,670763f6719bd01ddbfce4f9,2024-10-10_01h19.59.419,WTP_SM_Choice,2022.2.1,Win32,60.24096386,,,,,space,0.024,NAN,,NAN,1.68,4.32,,0,77,77,77,1,78,Sam,Acc,Participant_Images/66ada0d8b8ddd62c65d39bfe/66ada0d8b8ddd62c65d39bfe_Images/66ada0d8b8ddd62c65d39bfe_Image_9.jpeg,liked,2.682944783,,,,,,,,,,,,,,,,,,,,,,,
,,66ada0d8b8ddd62c65d39bfe,6685aa9113c938e83b4f1ea0,670763f6719bd01ddbfce4f9,2024-10-10_01h19.59.419,WTP_SM_Choice,2022.2.1,Win32,60.24096386,,,,,space,0.4264,NAN,,NAN,1.68,4.32,,0,78,78,78,1,79,Sam,Acc,Participant_Images/66ada0d8b8ddd62c65d39bfe/66ada0d8b8ddd62c65d39bfe_Images/66ada0d8b8ddd62c65d39bfe_Image_21.jpeg,liked,4.51984296,,,,,,,,,,,,,,,,,,,,,,,
,,66ada0d8b8ddd62c65d39bfe,6685aa9113c938e83b4f1ea0,670763f6719bd01ddbfce4f9,2024-10-10_01h19.59.419,WTP_SM_Choice,2022.2.1,Win32,60.24096386,,,,,,,,,,,,,,,,,,76,,,,,,space,0.5073,space,3.0318,0.01,2,2.7137,0,0,0,0,1,Meet new people at a party,Run at the track at the local community center,0.01,0.01,1.1,0,,,,,
,,66ada0d8b8ddd62c65d39bfe,6685aa9113c938e83b4f1ea0,670763f6719bd01ddbfce4f9,2024-10-10_01h19.59.419,WTP_SM_Choice,2022.2.1,Win32,60.24096386,,,,,,,,,,,,,,,,,,77,,,,,,,,,,0.01,2,1.6662,0,1,1,1,1,Study a new philosphy topic when it rains,Meet new people at a party,0.02,0.01,8.8,1,,,,,
,,66ada0d8b8ddd62c65d39bfe,6685aa9113c938e83b4f1ea0,670763f6719bd01ddbfce4f9,2024-10-10_01h19.59.419,WTP_SM_Choice,2022.2.1,Win32,60.24096386,,,,,,,,,,,,,,,,,,78,,,,,,,,,,0.01,2,1.0501,0,2,2,2,1,Attend a rave with my second best friend ,Swim in the ocean on a hot day,0.03,0.01,1.1,0,,,,,
,,66ada0d8b8ddd62c65d39bfe,6685aa9113c938e83b4f1ea0,670763f6719bd01ddbfce4f9,2024-10-10_01h19.59.419,WTP_SM_Choice,2022.2.1,Win32,60.24096386,,,,,,,,,,,,,,,,,,79,,,,,,,,,,0.01,2,7.0541,0,3,3,3,1,Work out a the gym early in the morning,Cook a meal for my friends,0.04,0.01,1.1,1,,,,,
,,66ada0d8b8ddd62c65d39bfe,6685aa9113c938e83b4f1ea0,670763f6719bd01ddbfce4f9,2024-10-10_01h19.59.419,WTP_SM_Choice,2022.2.1,Win32,60.24096386,,,,,,,,,,,,,,,,,,80,,,,,,,,,,0.01,2,3.0004,0,4,4,4,1,Work out a the gym early in the morning,Fence with my sparing partner,0.05,0.01,4.4,1,,,,,
,,66ada0d8b8ddd62c65d39bfe,6685aa9113c938e83b4f1ea0,670763f6719bd01ddbfce4f9,2024-10-10_01h19.59.419,WTP_SM_Choice,2022.2.1,Win32,60.24096386,,,,,,,NAN,,NAN,1.73,4.27,,0,79,79,79,1,80,Sam,Acc,Participant_Images/66ada0d8b8ddd62c65d39bfe/66ada0d8b8ddd62c65d39bfe_Images/66ada0d8b8ddd62c65d39bfe_Image_7.jpeg,liked,3.195382774,,,,,,,,,,,,,,,,,,,,,,,
,,66ada0d8b8ddd62c65d39bfe,6685aa9113c938e83b4f1ea0,670763f6719bd01ddbfce4f9,2024-10-10_01h19.59.419,WTP_SM_Choice,2022.2.1,Win32,60.24096386,,,,,space,0.85,NAN,,NAN,1.73,4.27,,0,80,80,80,1,81,Sam,Acc,Participant_Images/66ada0d8b8ddd62c65d39bfe/66ada0d8b8ddd62c65d39bfe_Images/66ada0d8b8ddd62c65d39bfe_Image_24.jpeg,did not like,1.779333479,,,,,,,,,,,,,,,,,,,,,,,
,,66ada0d8b8ddd62c65d39bfe,6685aa9113c938e83b4f1ea0,670763f6719bd01ddbfce4f9,2024-10-10_01h19.59.419,WTP_SM_Choice,2022.2.1,Win32,60.24096386,,,,,space,0.6094,NAN,,NAN,1.73,4.27,,0,81,81,81,1,82,Sam,Acc,Participant_Images/66ada0d8b8ddd62c65d39bfe/66ada0d8b8ddd62c65d39bfe_Images/66ada0d8b8ddd62c65d39bfe_Image_19.jpeg,liked,4.312468682,,,,,,,,,,,,,,,,,,,,,,,
,,66ada0d8b8ddd62c65d39bfe,6685aa9113c938e83b4f1ea0,670763f6719bd01ddbfce4f9,2024-10-10_01h19.59.419,WTP_SM_Choice,2022.2.1,Win32,60.24096386,,,,,space,0.5114,NAN,,NAN,1.73,4.27,,0,82,82,82,1,83,Sam,Acc,Participant_Images/66ada0d8b8ddd62c65d39bfe/66ada0d8b8ddd62c65d39bfe_Images/66ada0d8b8ddd62c65d39bfe_Image_16.jpeg,did not like,4.940433059,,,,,,,,,,,,,,,,,,,,,,,
,,66ada0d8b8ddd62c65d39bfe,6685aa9113c938e83b4f1ea0,670763f6719bd01ddbfce4f9,2024-10-10_01h19.59.419,WTP_SM_Choice,2022.2.1,Win32,60.24096386,,,,,space,0.5236,NAN,,NAN,1.73,4.27,,0,83,83,83,1,84,Sam,Acc,Participant_Images/66ada0d8b8ddd62c65d39bfe/66ada0d8b8ddd62c65d39bfe_Images/66ada0d8b8ddd62c65d39bfe_Image_3.jpeg,liked,2.7105123,,,,,,,,,,,,,,,,,,,,,,,
,,66ada0d8b8ddd62c65d39bfe,6685aa9113c938e83b4f1ea0,670763f6719bd01ddbfce4f9,2024-10-10_01h19.59.419,WTP_SM_Choice,2022.2.1,Win32,60.24096386,,,,,,,,,,,,,,,,,,81,,,,,,space,0.5128,space,0.3619,0.01,1,0.6436,0,0,0,0,1,play scrabble with my girlfriend,Sleep in late on a sunday,0.01,0.02,3.3,0,,,,,
,,66ada0d8b8ddd62c65d39bfe,6685aa9113c938e83b4f1ea0,670763f6719bd01ddbfce4f9,2024-10-10_01h19.59.419,WTP_SM_Choice,2022.2.1,Win32,60.24096386,,,,,,,,,,,,,,,,,,82,,,,,,,,,,0.02,1,2.1938,0,1,1,1,1,Study a new philosphy topic when it rains,Fence with my sparing partner,0.02,0.02,4.4,1,,,,,
,,66ada0d8b8ddd62c65d39bfe,6685aa9113c938e83b4f1ea0,670763f6719bd01ddbfce4f9,2024-10-10_01h19.59.419,WTP_SM_Choice,2022.2.1,Win32,60.24096386,,,,,,,,,,,,,,,,,,83,,,,,,,,,,0.02,2,1.104,0,2,2,2,1,Run a race with my dad,Cook a nice meal for myself,0.03,0.02,1.1,0,,,,,
,,66ada0d8b8ddd62c65d39bfe,6685aa9113c938e83b4f1ea0,670763f6719bd01ddbfce4f9,2024-10-10_01h19.59.419,WTP_SM_Choice,2022.2.1,Win32,60.24096386,,,,,,,,,,,,,,,,,,84,,,,,,,,,,0.02,2,1.3022,0,3,3,3,1,Work out a the gym early in the morning,Attend a rave with my second best friend ,0.04,0.02,3.3,1,,,,,
,,66ada0d8b8ddd62c65d39bfe,6685aa9113c938e83b4f1ea0,670763f6719bd01ddbfce4f9,2024-10-10_01h19.59.419,WTP_SM_Choice,2022.2.1,Win32,60.24096386,,,,,,,,,,,,,,,,,,85,,,,,,,,,,0.02,2,1.2111,0,4,4,4,1,Hang out with my dogs in the summer,Fence with my sparing partner,0.05,0.02,3.3,1,,,,,
,,66ada0d8b8ddd62c65d39bfe,6685aa9113c938e83b4f1ea0,670763f6719bd01ddbfce4f9,2024-10-10_01h19.59.419,WTP_SM_Choice,2022.2.1,Win32,60.24096386,,,,,,,NAN,,NAN,1.82,4.18,,0,84,84,84,1,85,Sam,Acc,Participant_Images/66ada0d8b8ddd62c65d39bfe/66ada0d8b8ddd62c65d39bfe_Images/66ada0d8b8ddd62c65d39bfe_Image_6.jpeg,did not like,3.602308302,,,,,,,,,,,,,,,,,,,,,,,
,,66ada0d8b8ddd62c65d39bfe,6685aa9113c938e83b4f1ea0,670763f6719bd01ddbfce4f9,2024-10-10_01h19.59.419,WTP_SM_Choice,2022.2.1,Win32,60.24096386,,,,,space,1.0002,NAN,,NAN,1.82,4.18,,0,85,85,85,1,86,Sam,Acc,Participant_Images/66ada0d8b8ddd62c65d39bfe/66ada0d8b8ddd62c65d39bfe_Images/66ada0d8b8ddd62c65d39bfe_Image_20.jpeg,liked,4.106391878,,,,,,,,,,,,,,,,,,,,,,,
,,66ada0d8b8ddd62c65d39bfe,6685aa9113c938e83b4f1ea0,670763f6719bd01ddbfce4f9,2024-10-10_01h19.59.419,WTP_SM_Choice,2022.2.1,Win32,60.24096386,,,,,space,1.1528,NAN,,NAN,1.82,4.18,,0,86,86,86,1,87,Sam,Acc,Participant_Images/66ada0d8b8ddd62c65d39bfe/66ada0d8b8ddd62c65d39bfe_Images/66ada0d8b8ddd62c65d39bfe_Image_14.jpeg,liked,3.799433026,,,,,,,,,,,,,,,,,,,,,,,
,,66ada0d8b8ddd62c65d39bfe,6685aa9113c938e83b4f1ea0,670763f6719bd01ddbfce4f9,2024-10-10_01h19.59.419,WTP_SM_Choice,2022.2.1,Win32,60.24096386,,,,,space,1.5122,NAN,,NAN,1.82,4.18,,0,87,87,87,1,88,Sam,Acc,Participant_Images/66ada0d8b8ddd62c65d39bfe/66ada0d8b8ddd62c65d39bfe_Images/66ada0d8b8ddd62c65d39bfe_Image_5.jpeg,liked,5.246980764,,,,,,,,,,,,,,,,,,,,,,,
,,66ada0d8b8ddd62c65d39bfe,6685aa9113c938e83b4f1ea0,670763f6719bd01ddbfce4f9,2024-10-10_01h19.59.419,WTP_SM_Choice,2022.2.1,Win32,60.24096386,,,,,space,0.5686,NAN,,NAN,1.82,4.18,,0,88,88,88,1,89,Sam,Acc,Participant_Images/66ada0d8b8ddd62c65d39bfe/66ada0d8b8ddd62c65d39bfe_Images/66ada0d8b8ddd62c65d39bfe_Image_2.jpeg,did not like,3.30081769,,,,,,,,,,,,,,,,,,,,,,,
,,66ada0d8b8ddd62c65d39bfe,6685aa9113c938e83b4f1ea0,670763f6719bd01ddbfce4f9,2024-10-10_01h19.59.419,WTP_SM_Choice,2022.2.1,Win32,60.24096386,,,,,,,,,,,,,,,,,,86,,,,,,space,1.2168,space,0.3489,0.01,1,0.5891,0,0,0,0,1,Work out a the gym early in the morning,Play video games with my younger brother,0.01,0.03,1.1,1,,,,,
,,66ada0d8b8ddd62c65d39bfe,6685aa9113c938e83b4f1ea0,670763f6719bd01ddbfce4f9,2024-10-10_01h19.59.419,WTP_SM_Choice,2022.2.1,Win32,60.24096386,,,,,,,,,,,,,,,,,,87,,,,,,,,,,0.02,1,1.5514,0,1,1,1,1,Run at the track at the local community center,Fence with my sparing partner,0.02,0.03,4.4,1,,,,,
,,66ada0d8b8ddd62c65d39bfe,6685aa9113c938e83b4f1ea0,670763f6719bd01ddbfce4f9,2024-10-10_01h19.59.419,WTP_SM_Choice,2022.2.1,Win32,60.24096386,,,,,,,,,,,,,,,,,,88,,,,,,,,,,0.03,2,2.6564,0,2,2,2,1,Attend a yoga class with my mom,Swim in the ocean on a hot day,0.03,0.03,1.1,0,,,,,
,,66ada0d8b8ddd62c65d39bfe,6685aa9113c938e83b4f1ea0,670763f6719bd01ddbfce4f9,2024-10-10_01h19.59.419,WTP_SM_Choice,2022.2.1,Win32,60.24096386,,,,,,,,,,,,,,,,,,89,,,,,,,,,,0.03,2,1.2947,0,3,3,3,1,Run a race with my dad,Run at the track at the local community center,0.04,0.03,3.3,0,,,,,
,,66ada0d8b8ddd62c65d39bfe,6685aa9113c938e83b4f1ea0,670763f6719bd01ddbfce4f9,2024-10-10_01h19.59.419,WTP_SM_Choice,2022.2.1,Win32,60.24096386,,,,,,,,,,,,,,,,,,90,,,,,,,,,,0.03,2,1.0395,0,4,4,4,1,Go on a hike with my girlfriend,Play piano on a rainy day at my home,0.05,0.03,8.8,0,,,,,
,,66ada0d8b8ddd62c65d39bfe,6685aa9113c938e83b4f1ea0,670763f6719bd01ddbfce4f9,2024-10-10_01h19.59.419,WTP_SM_Choice,2022.2.1,Win32,60.24096386,,,,,,,NAN,,NAN,1.94,4.06,,0,89,89,89,1,90,Sam,Acc,Participant_Images/66ada0d8b8ddd62c65d39bfe/66ada0d8b8ddd62c65d39bfe_Images/66ada0d8b8ddd62c65d39bfe_Image_23.jpeg,liked,1.661473164,,,,,,,,,,,,,,,,,,,,,,,
,,66ada0d8b8ddd62c65d39bfe,6685aa9113c938e83b4f1ea0,670763f6719bd01ddbfce4f9,2024-10-10_01h19.59.419,WTP_SM_Choice,2022.2.1,Win32,60.24096386,,,,,space,0.9624,NAN,,NAN,1.94,4.06,,0,90,90,90,1,91,Sam,Acc,Participant_Images/66ada0d8b8ddd62c65d39bfe/66ada0d8b8ddd62c65d39bfe_Images/66ada0d8b8ddd62c65d39bfe_Image_12.jpeg,liked,3.613205605,,,,,,,,,,,,,,,,,,,,,,,
,,66ada0d8b8ddd62c65d39bfe,6685aa9113c938e83b4f1ea0,670763f6719bd01ddbfce4f9,2024-10-10_01h19.59.419,WTP_SM_Choice,2022.2.1,Win32,60.24096386,,,,,space,2.1686,NAN,,NAN,1.94,4.06,,0,91,91,91,1,92,Sam,Acc,Participant_Images/66ada0d8b8ddd62c65d39bfe/66ada0d8b8ddd62c65d39bfe_Images/66ada0d8b8ddd62c65d39bfe_Image_13.jpeg,liked,4.988446431,,,,,,,,,,,,,,,,,,,,,,,
,,66ada0d8b8ddd62c65d39bfe,6685aa9113c938e83b4f1ea0,670763f6719bd01ddbfce4f9,2024-10-10_01h19.59.419,WTP_SM_Choice,2022.2.1,Win32,60.24096386,,,,,space,3.8441,NAN,,NAN,1.94,4.06,,0,92,92,92,1,93,Sam,Acc,Participant_Images/66ada0d8b8ddd62c65d39bfe/66ada0d8b8ddd62c65d39bfe_Images/66ada0d8b8ddd62c65d39bfe_Image_4.jpeg,liked,3.470791822,,,,,,,,,,,,,,,,,,,,,,,
,,66ada0d8b8ddd62c65d39bfe,6685aa9113c938e83b4f1ea0,670763f6719bd01ddbfce4f9,2024-10-10_01h19.59.419,WTP_SM_Choice,2022.2.1,Win32,60.24096386,,,,,space,1.1749,NAN,,NAN,1.94,4.06,,0,93,93,93,1,94,Sam,Acc,Participant_Images/66ada0d8b8ddd62c65d39bfe/66ada0d8b8ddd62c65d39bfe_Images/66ada0d8b8ddd62c65d39bfe_Image_10.jpeg,liked,3.820572462,,,,,,,,,,,,,,,,,,,,,,,
,,66ada0d8b8ddd62c65d39bfe,6685aa9113c938e83b4f1ea0,670763f6719bd01ddbfce4f9,2024-10-10_01h19.59.419,WTP_SM_Choice,2022.2.1,Win32,60.24096386,,,,,,,,,,,,,,,,,,91,,,,,,space,0.6676,space,0.6649,0.01,1,0.823,0,0,0,0,1,Attend a rave with my second best friend ,Study a new philosphy topic when it rains,0.01,0.04,3.3,0,,,,,
,,66ada0d8b8ddd62c65d39bfe,6685aa9113c938e83b4f1ea0,670763f6719bd01ddbfce4f9,2024-10-10_01h19.59.419,WTP_SM_Choice,2022.2.1,Win32,60.24096386,,,,,,,,,,,,,,,,,,92,,,,,,,,,,0.02,1,1.3954,0,1,1,1,1,Cook a nice meal for myself,play scrabble with my girlfriend,0.02,0.04,8.8,1,,,,,
,,66ada0d8b8ddd62c65d39bfe,6685aa9113c938e83b4f1ea0,670763f6719bd01ddbfce4f9,2024-10-10_01h19.59.419,WTP_SM_Choice,2022.2.1,Win32,60.24096386,,,,,,,,,,,,,,,,,,93,,,,,,,,,,0.03,1,1.4554,0,2,2,2,1,Cook a nice meal for myself,Play video games with my younger brother,0.03,0.04,1.1,1,,,,,
,,66ada0d8b8ddd62c65d39bfe,6685aa9113c938e83b4f1ea0,670763f6719bd01ddbfce4f9,2024-10-10_01h19.59.419,WTP_SM_Choice,2022.2.1,Win32,60.24096386,,,,,,,,,,,,,,,,,,94,,,,,,,,,,0.04,1,3.752,0,3,3,3,1,Swim in the ocean on a hot day,play scrabble with my girlfriend,0.04,0.04,4.4,1,,,,,
,,66ada0d8b8ddd62c65d39bfe,6685aa9113c938e83b4f1ea0,670763f6719bd01ddbfce4f9,2024-10-10_01h19.59.419,WTP_SM_Choice,2022.2.1,Win32,60.24096386,,,,,,,,,,,,,,,,,,95,,,,,,,,,,0.04,2,1.4182,0,4,4,4,1,play scrabble with my girlfriend,Read a book at the park,0.05,0.04,4.4,0,,,,,
,,66ada0d8b8ddd62c65d39bfe,6685aa9113c938e83b4f1ea0,670763f6719bd01ddbfce4f9,2024-10-10_01h19.59.419,WTP_SM_Choice,2022.2.1,Win32,60.24096386,,,,,,,NAN,,NAN,2.08,3.92,,0,94,94,94,1,95,Sam,Acc,Participant_Images/66ada0d8b8ddd62c65d39bfe/66ada0d8b8ddd62c65d39bfe_Images/66ada0d8b8ddd62c65d39bfe_Image_11.jpeg,liked,2.455989137,,,,,,,,,,,,,,,,,,,,,,,
,,66ada0d8b8ddd62c65d39bfe,6685aa9113c938e83b4f1ea0,670763f6719bd01ddbfce4f9,2024-10-10_01h19.59.419,WTP_SM_Choice,2022.2.1,Win32,60.24096386,,,,,space,0.7618,NAN,,NAN,2.08,3.92,,0,95,95,95,1,96,Sam,Acc,Participant_Images/66ada0d8b8ddd62c65d39bfe/66ada0d8b8ddd62c65d39bfe_Images/66ada0d8b8ddd62c65d39bfe_Image_15.jpeg,did not like,3.79605092,,,,,,,,,,,,,,,,,,,,,,,
,,66ada0d8b8ddd62c65d39bfe,6685aa9113c938e83b4f1ea0,670763f6719bd01ddbfce4f9,2024-10-10_01h19.59.419,WTP_SM_Choice,2022.2.1,Win32,60.24096386,,,,,space,1.5895,NAN,,NAN,2.08,3.92,,0,96,96,96,1,97,Sam,Acc,Participant_Images/66ada0d8b8ddd62c65d39bfe/66ada0d8b8ddd62c65d39bfe_Images/66ada0d8b8ddd62c65d39bfe_Image_17.jpeg,liked,3.562416326,,,,,,,,,,,,,,,,,,,,,,,
,,66ada0d8b8ddd62c65d39bfe,6685aa9113c938e83b4f1ea0,670763f6719bd01ddbfce4f9,2024-10-10_01h19.59.419,WTP_SM_Choice,2022.2.1,Win32,60.24096386,,,,,space,1.2577,NAN,,NAN,2.08,3.92,,0,97,97,97,1,98,Sam,Acc,Participant_Images/66ada0d8b8ddd62c65d39bfe/66ada0d8b8ddd62c65d39bfe_Images/66ada0d8b8ddd62c65d39bfe_Image_18.jpeg,liked,2.843822497,,,,,,,,,,,,,,,,,,,,,,,
,,66ada0d8b8ddd62c65d39bfe,6685aa9113c938e83b4f1ea0,670763f6719bd01ddbfce4f9,2024-10-10_01h19.59.419,WTP_SM_Choice,2022.2.1,Win32,60.24096386,,,,,space,1.9887,NAN,,NAN,2.08,3.92,,0,98,98,98,1,99,Sam,Acc,Participant_Images/66ada0d8b8ddd62c65d39bfe/66ada0d8b8ddd62c65d39bfe_Images/66ada0d8b8ddd62c65d39bfe_Image_8.jpeg,did not like,3.546495948,,,,,,,,,,,,,,,,,,,,,,,
,,66ada0d8b8ddd62c65d39bfe,6685aa9113c938e83b4f1ea0,670763f6719bd01ddbfce4f9,2024-10-10_01h19.59.419,WTP_SM_Choice,2022.2.1,Win32,60.24096386,,,,,,,,,,,,,,,,,,96,,,,,,space,4.5274,space,0.7326,0.01,1,0.5955,0,0,0,0,1,Tan at the beach in miami,Run a race with my dad,0.01,0.05,3.3,1,,,,,
,,66ada0d8b8ddd62c65d39bfe,6685aa9113c938e83b4f1ea0,670763f6719bd01ddbfce4f9,2024-10-10_01h19.59.419,WTP_SM_Choice,2022.2.1,Win32,60.24096386,,,,,,,,,,,,,,,,,,97,,,,,,,,,,0.02,1,0.8954,0,1,1,1,1,Hang out at the park wiht my best friend,Sleep in late on a sunday,0.02,0.05,1.1,0,,,,,
,,66ada0d8b8ddd62c65d39bfe,6685aa9113c938e83b4f1ea0,670763f6719bd01ddbfce4f9,2024-10-10_01h19.59.419,WTP_SM_Choice,2022.2.1,Win32,60.24096386,,,,,,,,,,,,,,,,,,98,,,,,,,,,,0.03,1,0.9525,0,2,2,2,1,Tan at the beach in miami,Cook a meal for my friends,0.03,0.05,1.1,1,,,,,
,,66ada0d8b8ddd62c65d39bfe,6685aa9113c938e83b4f1ea0,670763f6719bd01ddbfce4f9,2024-10-10_01h19.59.419,WTP_SM_Choice,2022.2.1,Win32,60.24096386,,,,,,,,,,,,,,,,,,99,,,,,,,,,,0.04,1,1.142,0,3,3,3,1,Cook a meal for my friends,Cook a nice meal for myself,0.04,0.05,3.3,0,,,,,
,,66ada0d8b8ddd62c65d39bfe,6685aa9113c938e83b4f1ea0,670763f6719bd01ddbfce4f9,2024-10-10_01h19.59.419,WTP_SM_Choice,2022.2.1,Win32,60.24096386,,,,,,,,,,,,,,,,,,100,,,,,,,,,,0.05,1,0.8138,0,4,4,4,1,Read a book at the park,Meet new people at a party,0.05,0.05,4.4,1,,,,,
,,66ada0d8b8ddd62c65d39bfe,6685aa9113c938e83b4f1ea0,670763f6719bd01ddbfce4f9,2024-10-10_01h19.59.419,WTP_SM_Choice,2022.2.1,Win32,60.24096386,,,,,,,5,,9,2.23,3.77,,0,99,99,99,1,100,Sam,Acc,Participant_Images/66ada0d8b8ddd62c65d39bfe/66ada0d8b8ddd62c65d39bfe_Images/66ada0d8b8ddd62c65d39bfe_Image_25.jpeg,liked,1.672012706,,,,,,,,,,,,,,,,,,,space,1.01,,,
,,66ada0d8b8ddd62c65d39bfe,6685aa9113c938e83b4f1ea0,670763f6719bd01ddbfce4f9,2024-10-10_01h19.59.419,WTP_SM_Choice,2022.2.1,Win32,60.24096386,,,,,,,,,,,,,,,,,,,,,,,,,,,,,,,,,,,,,,,,,,,,,space,3.071
