endwelcomescreen_keys.keys,endwelcomescreen_keys.rt,participant,STUDY_ID,SESSION_ID,date,expName,psychopyVersion,OS,frameRate,endinstructionscreen_keys.keys,endinstructionscreen_keys.rt,endpartnermatch_keys.keys,endpartnermatch_keys.rt,sharenextphoto_key.keys,sharenextphoto_key.rt,salience_rating,key_resp.keys,stress_level,subtract_bonus,TOTAL_TASK_BONUS,stresslevel_keypress.keys,entiretaskloop.thisRepN,entiretaskloop.thisTrialN,entiretaskloop.thisN,entiretaskloop.thisIndex,entiretaskloop.ran,TrialNumber,Partner,Condition,Photos,Feedback,FeedbackWait,WTP_ins_keys1.keys,WTP_ins_keys1.rt,WTP_ins_keys2.keys,WTP_ins_keys2.rt,decision_price,responses.keys,responses.rt,WTPTaskLoop.thisRepN,WTPTaskLoop.thisTrialN,WTPTaskLoop.thisN,WTPTaskLoop.thisIndex,WTPTaskLoop.ran,right,left,leftmoney,rightmoney,WTP_ITI,social_left,Resume_keys.keys,Resume_keys.rt,end_screen_keys.keys,end_screen_keys.rt
space,6.6097,66b92d3b18295c1e6c125b85,6685aa9113c938e83b4f1ea0,672c3370ab61b13da6f0ad01,2024-11-06_21h27.20.129,WTP_SM_Choice,2022.2.1,Win32,59.88023952,,,,,,,,,,,,,,,,,,,,,,,,,,,,,,,,,,,,,,,,,,,,,
,,66b92d3b18295c1e6c125b85,6685aa9113c938e83b4f1ea0,672c3370ab61b13da6f0ad01,2024-11-06_21h27.20.129,WTP_SM_Choice,2022.2.1,Win32,59.88023952,space,8.8789,,,,,,,,,,,,,,,,,,,,,,,,,,,,,,,,,,,,,,,,,,,
,,66b92d3b18295c1e6c125b85,6685aa9113c938e83b4f1ea0,672c3370ab61b13da6f0ad01,2024-11-06_21h27.20.129,WTP_SM_Choice,2022.2.1,Win32,59.88023952,,,space,2.9186,space,1.8036,NAN,,NAN,0,6,,0,0,0,0,1,1,Riley,Acc,Participant_Images/66b92d3b18295c1e6c125b85/66b92d3b18295c1e6c125b85_Images/66b92d3b18295c1e6c125b85_Image_2.jpeg,liked,3.613205605,,,,,,,,,,,,,,,,,,,,,,
,,66b92d3b18295c1e6c125b85,6685aa9113c938e83b4f1ea0,672c3370ab61b13da6f0ad01,2024-11-06_21h27.20.129,WTP_SM_Choice,2022.2.1,Win32,59.88023952,,,,,space,5.2204,NAN,,NAN,0,6,,0,1,1,1,1,2,Riley,Acc,Participant_Images/66b92d3b18295c1e6c125b85/66b92d3b18295c1e6c125b85_Images/66b92d3b18295c1e6c125b85_Image_21.jpeg,liked,4.988446431,,,,,,,,,,,,,,,,,,,,,,
,,66b92d3b18295c1e6c125b85,6685aa9113c938e83b4f1ea0,672c3370ab61b13da6f0ad01,2024-11-06_21h27.20.129,WTP_SM_Choice,2022.2.1,Win32,59.88023952,,,,,space,1.6209,NAN,,NAN,0,6,,0,2,2,2,1,3,Riley,Acc,Participant_Images/66b92d3b18295c1e6c125b85/66b92d3b18295c1e6c125b85_Images/66b92d3b18295c1e6c125b85_Image_25.jpeg,did not like,3.470791822,,,,,,,,,,,,,,,,,,,,,,
,,66b92d3b18295c1e6c125b85,6685aa9113c938e83b4f1ea0,672c3370ab61b13da6f0ad01,2024-11-06_21h27.20.129,WTP_SM_Choice,2022.2.1,Win32,59.88023952,,,,,space,2.2132,NAN,,NAN,0,6,,0,3,3,3,1,4,Riley,Acc,Participant_Images/66b92d3b18295c1e6c125b85/66b92d3b18295c1e6c125b85_Images/66b92d3b18295c1e6c125b85_Image_13.jpeg,liked,3.820572462,,,,,,,,,,,,,,,,,,,,,,
,,66b92d3b18295c1e6c125b85,6685aa9113c938e83b4f1ea0,672c3370ab61b13da6f0ad01,2024-11-06_21h27.20.129,WTP_SM_Choice,2022.2.1,Win32,59.88023952,,,,,,,,,,,,,,,,,,1,,,,,,space,13.9784,space,6.041,0.01,1,6.5119,0,0,0,0,1,Learn new recipes with my parents in cooking classes,Take care of my flowers and vegetables in my backyard,0.01,0.01,4.4,0,,,,
,,66b92d3b18295c1e6c125b85,6685aa9113c938e83b4f1ea0,672c3370ab61b13da6f0ad01,2024-11-06_21h27.20.129,WTP_SM_Choice,2022.2.1,Win32,59.88023952,,,,,,,,,,,,,,,,,,2,,,,,,,,,,0.02,1,8.3887,0,1,1,1,1,Walk on a local nature trail in the cool autumn morning,Help at the animal shelter with my friends on Saturday mornings,0.02,0.01,8.8,1,,,,
,,66b92d3b18295c1e6c125b85,6685aa9113c938e83b4f1ea0,672c3370ab61b13da6f0ad01,2024-11-06_21h27.20.129,WTP_SM_Choice,2022.2.1,Win32,59.88023952,,,,,,,,,,,,,,,,,,3,,,,,,,,,,0.03,1,7.7192,0,2,2,2,1,Go to concerts with my best friend to see our favorite bands,Walk on a local nature trail in the cool autumn morning,0.03,0.01,3.3,0,,,,
,,66b92d3b18295c1e6c125b85,6685aa9113c938e83b4f1ea0,672c3370ab61b13da6f0ad01,2024-11-06_21h27.20.129,WTP_SM_Choice,2022.2.1,Win32,59.88023952,,,,,,,,,,,,,,,,,,4,,,,,,,,,,0.04,1,3.3274,0,3,3,3,1,Learn new recipes with my parents in cooking classes,Cook new recipes in my kitchen while listening to a podcast,0.04,0.01,1.1,0,,,,
,,66b92d3b18295c1e6c125b85,6685aa9113c938e83b4f1ea0,672c3370ab61b13da6f0ad01,2024-11-06_21h27.20.129,WTP_SM_Choice,2022.2.1,Win32,59.88023952,,,,,,,,,,,,,,,,,,5,,,,,,,,,,0.05,1,4.9463,0,4,4,4,1,Visit museums with my classmates on our art history trips,Write in my journal at the beach while listening to the waves,0.05,0.01,1.1,0,,,,
,,66b92d3b18295c1e6c125b85,6685aa9113c938e83b4f1ea0,672c3370ab61b13da6f0ad01,2024-11-06_21h27.20.129,WTP_SM_Choice,2022.2.1,Win32,59.88023952,,,,,,,NAN,,NAN,0.15,5.85,,0,4,4,4,1,5,Riley,Acc,Participant_Images/66b92d3b18295c1e6c125b85/66b92d3b18295c1e6c125b85_Images/66b92d3b18295c1e6c125b85_Image_16.jpeg,liked,2.455989137,,,,,,,,,,,,,,,,,,,,,,
,,66b92d3b18295c1e6c125b85,6685aa9113c938e83b4f1ea0,672c3370ab61b13da6f0ad01,2024-11-06_21h27.20.129,WTP_SM_Choice,2022.2.1,Win32,59.88023952,,,,,space,1.3368,NAN,,NAN,0.15,5.85,,0,5,5,5,1,6,Riley,Acc,Participant_Images/66b92d3b18295c1e6c125b85/66b92d3b18295c1e6c125b85_Images/66b92d3b18295c1e6c125b85_Image_7.jpeg,did not like,3.79605092,,,,,,,,,,,,,,,,,,,,,,
,,66b92d3b18295c1e6c125b85,6685aa9113c938e83b4f1ea0,672c3370ab61b13da6f0ad01,2024-11-06_21h27.20.129,WTP_SM_Choice,2022.2.1,Win32,59.88023952,,,,,space,1.688,NAN,,NAN,0.15,5.85,,0,6,6,6,1,7,Riley,Acc,Participant_Images/66b92d3b18295c1e6c125b85/66b92d3b18295c1e6c125b85_Images/66b92d3b18295c1e6c125b85_Image_3.jpeg,liked,3.562416326,,,,,,,,,,,,,,,,,,,,,,
,,66b92d3b18295c1e6c125b85,6685aa9113c938e83b4f1ea0,672c3370ab61b13da6f0ad01,2024-11-06_21h27.20.129,WTP_SM_Choice,2022.2.1,Win32,59.88023952,,,,,space,4.8151,NAN,,NAN,0.15,5.85,,0,7,7,7,1,8,Riley,Acc,Participant_Images/66b92d3b18295c1e6c125b85/66b92d3b18295c1e6c125b85_Images/66b92d3b18295c1e6c125b85_Image_17.jpeg,did not like,2.843822497,,,,,,,,,,,,,,,,,,,,,,
,,66b92d3b18295c1e6c125b85,6685aa9113c938e83b4f1ea0,672c3370ab61b13da6f0ad01,2024-11-06_21h27.20.129,WTP_SM_Choice,2022.2.1,Win32,59.88023952,,,,,space,3.9322,NAN,,NAN,0.15,5.85,,0,8,8,8,1,9,Riley,Acc,Participant_Images/66b92d3b18295c1e6c125b85/66b92d3b18295c1e6c125b85_Images/66b92d3b18295c1e6c125b85_Image_23.jpeg,liked,3.546495948,,,,,,,,,,,,,,,,,,,,,,
,,66b92d3b18295c1e6c125b85,6685aa9113c938e83b4f1ea0,672c3370ab61b13da6f0ad01,2024-11-06_21h27.20.129,WTP_SM_Choice,2022.2.1,Win32,59.88023952,,,,,,,,,,,,,,,,,,6,,,,,,space,39.3563,space,6.4635,0.01,1,5.2276,0,0,0,0,1,Draw pictures at a quiet park bench during sunset,Visit museums with my classmates on our art history trips,0.01,0.02,3.3,1,,,,
,,66b92d3b18295c1e6c125b85,6685aa9113c938e83b4f1ea0,672c3370ab61b13da6f0ad01,2024-11-06_21h27.20.129,WTP_SM_Choice,2022.2.1,Win32,59.88023952,,,,,,,,,,,,,,,,,,7,,,,,,,,,,0.02,2,7.2666,0,1,1,1,1,Help at the animal shelter with my friends on Saturday mornings,Write in my journal at the beach while listening to the waves,0.02,0.02,1.1,0,,,,
,,66b92d3b18295c1e6c125b85,6685aa9113c938e83b4f1ea0,672c3370ab61b13da6f0ad01,2024-11-06_21h27.20.129,WTP_SM_Choice,2022.2.1,Win32,59.88023952,,,,,,,,,,,,,,,,,,8,,,,,,,,,,0.03,1,4.2621,0,2,2,2,1,Go hiking with friends on sunny weekends to explore new trails,Cook new recipes in my kitchen while listening to a podcast,0.03,0.02,1.1,0,,,,
,,66b92d3b18295c1e6c125b85,6685aa9113c938e83b4f1ea0,672c3370ab61b13da6f0ad01,2024-11-06_21h27.20.129,WTP_SM_Choice,2022.2.1,Win32,59.88023952,,,,,,,,,,,,,,,,,,9,,,,,,,,,,0.04,1,2.2979,0,3,3,3,1,Read fantasy books in a cozy corner of my living room,Go hiking with friends on sunny weekends to explore new trails,0.04,0.02,4.4,1,,,,
,,66b92d3b18295c1e6c125b85,6685aa9113c938e83b4f1ea0,672c3370ab61b13da6f0ad01,2024-11-06_21h27.20.129,WTP_SM_Choice,2022.2.1,Win32,59.88023952,,,,,,,,,,,,,,,,,,10,,,,,,,,,,0.05,1,3.906,0,4,4,4,1,Go hiking with friends on sunny weekends to explore new trails,Solve puzzles on a rainy afternoon while drinking hot cocoa,0.05,0.02,1.1,0,,,,
,,66b92d3b18295c1e6c125b85,6685aa9113c938e83b4f1ea0,672c3370ab61b13da6f0ad01,2024-11-06_21h27.20.129,WTP_SM_Choice,2022.2.1,Win32,59.88023952,,,,,,,NAN,,NAN,0.3,5.7,,0,9,9,9,1,10,Riley,Acc,Participant_Images/66b92d3b18295c1e6c125b85/66b92d3b18295c1e6c125b85_Images/66b92d3b18295c1e6c125b85_Image_12.jpeg,liked,1.672012706,,,,,,,,,,,,,,,,,,,,,,
,,66b92d3b18295c1e6c125b85,6685aa9113c938e83b4f1ea0,672c3370ab61b13da6f0ad01,2024-11-06_21h27.20.129,WTP_SM_Choice,2022.2.1,Win32,59.88023952,,,,,space,3.4007,NAN,,NAN,0.3,5.7,,0,10,10,10,1,11,Riley,Acc,Participant_Images/66b92d3b18295c1e6c125b85/66b92d3b18295c1e6c125b85_Images/66b92d3b18295c1e6c125b85_Image_15.jpeg,liked,4.942172136,,,,,,,,,,,,,,,,,,,,,,
,,66b92d3b18295c1e6c125b85,6685aa9113c938e83b4f1ea0,672c3370ab61b13da6f0ad01,2024-11-06_21h27.20.129,WTP_SM_Choice,2022.2.1,Win32,59.88023952,,,,,space,4.8735,NAN,,NAN,0.3,5.7,,0,11,11,11,1,12,Riley,Acc,Participant_Images/66b92d3b18295c1e6c125b85/66b92d3b18295c1e6c125b85_Images/66b92d3b18295c1e6c125b85_Image_20.jpeg,liked,2.50187214,,,,,,,,,,,,,,,,,,,,,,
,,66b92d3b18295c1e6c125b85,6685aa9113c938e83b4f1ea0,672c3370ab61b13da6f0ad01,2024-11-06_21h27.20.129,WTP_SM_Choice,2022.2.1,Win32,59.88023952,,,,,space,1.2732,NAN,,NAN,0.3,5.7,,0,12,12,12,1,13,Riley,Acc,Participant_Images/66b92d3b18295c1e6c125b85/66b92d3b18295c1e6c125b85_Images/66b92d3b18295c1e6c125b85_Image_6.jpeg,liked,2.071164779,,,,,,,,,,,,,,,,,,,,,,
,,66b92d3b18295c1e6c125b85,6685aa9113c938e83b4f1ea0,672c3370ab61b13da6f0ad01,2024-11-06_21h27.20.129,WTP_SM_Choice,2022.2.1,Win32,59.88023952,,,,,space,1.0669,NAN,,NAN,0.3,5.7,,0,13,13,13,1,14,Riley,Acc,Participant_Images/66b92d3b18295c1e6c125b85/66b92d3b18295c1e6c125b85_Images/66b92d3b18295c1e6c125b85_Image_1.jpeg,liked,5.336503566,,,,,,,,,,,,,,,,,,,,,,
,,66b92d3b18295c1e6c125b85,6685aa9113c938e83b4f1ea0,672c3370ab61b13da6f0ad01,2024-11-06_21h27.20.129,WTP_SM_Choice,2022.2.1,Win32,59.88023952,,,,,,,,,,,,,,,,,,11,,,,,,space,1.6005,space,1.8138,0.01,1,2.7782,0,0,0,0,1,Walk on a local nature trail in the cool autumn morning,Have BBQs in the backyard with neighbors in the summer evenings,0.01,0.03,3.3,1,,,,
,,66b92d3b18295c1e6c125b85,6685aa9113c938e83b4f1ea0,672c3370ab61b13da6f0ad01,2024-11-06_21h27.20.129,WTP_SM_Choice,2022.2.1,Win32,59.88023952,,,,,,,,,,,,,,,,,,12,,,,,,,,,,0.02,1,2.4439,0,1,1,1,1,Draw pictures at a quiet park bench during sunset,Go hiking with friends on sunny weekends to explore new trails,0.02,0.03,4.4,1,,,,
,,66b92d3b18295c1e6c125b85,6685aa9113c938e83b4f1ea0,672c3370ab61b13da6f0ad01,2024-11-06_21h27.20.129,WTP_SM_Choice,2022.2.1,Win32,59.88023952,,,,,,,,,,,,,,,,,,13,,,,,,,,,,0.03,2,4.0471,0,2,2,2,1,Take care of my flowers and vegetables in my backyard,Go to concerts with my best friend to see our favorite bands,0.03,0.03,1.1,1,,,,
,,66b92d3b18295c1e6c125b85,6685aa9113c938e83b4f1ea0,672c3370ab61b13da6f0ad01,2024-11-06_21h27.20.129,WTP_SM_Choice,2022.2.1,Win32,59.88023952,,,,,,,,,,,,,,,,,,14,,,,,,,,,,0.04,1,5.1712,0,3,3,3,1,Take care of my flowers and vegetables in my backyard,Go hiking with friends on sunny weekends to explore new trails,0.04,0.03,3.3,1,,,,
,,66b92d3b18295c1e6c125b85,6685aa9113c938e83b4f1ea0,672c3370ab61b13da6f0ad01,2024-11-06_21h27.20.129,WTP_SM_Choice,2022.2.1,Win32,59.88023952,,,,,,,,,,,,,,,,,,15,,,,,,,,,,0.05,1,3.1657,0,4,4,4,1,Draw pictures at a quiet park bench during sunset,Go to concerts with my best friend to see our favorite bands,0.05,0.03,4.4,1,,,,
,,66b92d3b18295c1e6c125b85,6685aa9113c938e83b4f1ea0,672c3370ab61b13da6f0ad01,2024-11-06_21h27.20.129,WTP_SM_Choice,2022.2.1,Win32,59.88023952,,,,,,,NAN,,NAN,0.45,5.55,,0,14,14,14,1,15,Riley,Acc,Participant_Images/66b92d3b18295c1e6c125b85/66b92d3b18295c1e6c125b85_Images/66b92d3b18295c1e6c125b85_Image_19.jpeg,liked,2.642157193,,,,,,,,,,,,,,,,,,,,,,
,,66b92d3b18295c1e6c125b85,6685aa9113c938e83b4f1ea0,672c3370ab61b13da6f0ad01,2024-11-06_21h27.20.129,WTP_SM_Choice,2022.2.1,Win32,59.88023952,,,,,space,7.985,NAN,,NAN,0.45,5.55,,0,15,15,15,1,16,Riley,Acc,Participant_Images/66b92d3b18295c1e6c125b85/66b92d3b18295c1e6c125b85_Images/66b92d3b18295c1e6c125b85_Image_4.jpeg,liked,4.456234322,,,,,,,,,,,,,,,,,,,,,,
,,66b92d3b18295c1e6c125b85,6685aa9113c938e83b4f1ea0,672c3370ab61b13da6f0ad01,2024-11-06_21h27.20.129,WTP_SM_Choice,2022.2.1,Win32,59.88023952,,,,,space,0.8477,NAN,,NAN,0.45,5.55,,0,16,16,16,1,17,Riley,Acc,Participant_Images/66b92d3b18295c1e6c125b85/66b92d3b18295c1e6c125b85_Images/66b92d3b18295c1e6c125b85_Image_9.jpeg,did not like,4.438512181,,,,,,,,,,,,,,,,,,,,,,
,,66b92d3b18295c1e6c125b85,6685aa9113c938e83b4f1ea0,672c3370ab61b13da6f0ad01,2024-11-06_21h27.20.129,WTP_SM_Choice,2022.2.1,Win32,59.88023952,,,,,space,1.4865,NAN,,NAN,0.45,5.55,,0,17,17,17,1,18,Riley,Acc,Participant_Images/66b92d3b18295c1e6c125b85/66b92d3b18295c1e6c125b85_Images/66b92d3b18295c1e6c125b85_Image_22.jpeg,liked,2.682944783,,,,,,,,,,,,,,,,,,,,,,
,,66b92d3b18295c1e6c125b85,6685aa9113c938e83b4f1ea0,672c3370ab61b13da6f0ad01,2024-11-06_21h27.20.129,WTP_SM_Choice,2022.2.1,Win32,59.88023952,,,,,space,0.8462,NAN,,NAN,0.45,5.55,,0,18,18,18,1,19,Riley,Acc,Participant_Images/66b92d3b18295c1e6c125b85/66b92d3b18295c1e6c125b85_Images/66b92d3b18295c1e6c125b85_Image_18.jpeg,did not like,4.51984296,,,,,,,,,,,,,,,,,,,,,,
,,66b92d3b18295c1e6c125b85,6685aa9113c938e83b4f1ea0,672c3370ab61b13da6f0ad01,2024-11-06_21h27.20.129,WTP_SM_Choice,2022.2.1,Win32,59.88023952,,,,,,,,,,,,,,,,,,16,,,,,,space,1.7179,space,1.1687,0.01,1,4.394,0,0,0,0,1,Play board games with my family on cozy Saturday nights,Write in my journal at the beach while listening to the waves,0.01,0.04,1.1,0,,,,
,,66b92d3b18295c1e6c125b85,6685aa9113c938e83b4f1ea0,672c3370ab61b13da6f0ad01,2024-11-06_21h27.20.129,WTP_SM_Choice,2022.2.1,Win32,59.88023952,,,,,,,,,,,,,,,,,,17,,,,,,,,,,0.02,1,2.4196,0,1,1,1,1,Write poems in my favorite cafe with a warm cup of tea,Have movie nights with my friends sharing popcorn and watching films,0.02,0.04,8.8,1,,,,
,,66b92d3b18295c1e6c125b85,6685aa9113c938e83b4f1ea0,672c3370ab61b13da6f0ad01,2024-11-06_21h27.20.129,WTP_SM_Choice,2022.2.1,Win32,59.88023952,,,,,,,,,,,,,,,,,,18,,,,,,,,,,0.03,1,1.8396,0,2,2,2,1,Look at stars in my backyard with a blanket and coffee,Have BBQs in the backyard with neighbors in the summer evenings,0.03,0.04,3.3,1,,,,
,,66b92d3b18295c1e6c125b85,6685aa9113c938e83b4f1ea0,672c3370ab61b13da6f0ad01,2024-11-06_21h27.20.129,WTP_SM_Choice,2022.2.1,Win32,59.88023952,,,,,,,,,,,,,,,,,,19,,,,,,,,,,0.04,1,4.3377,0,3,3,3,1,Look at stars in my backyard with a blanket and coffee,Have movie nights with my friends sharing popcorn and watching films,0.04,0.04,3.3,1,,,,
,,66b92d3b18295c1e6c125b85,6685aa9113c938e83b4f1ea0,672c3370ab61b13da6f0ad01,2024-11-06_21h27.20.129,WTP_SM_Choice,2022.2.1,Win32,59.88023952,,,,,,,,,,,,,,,,,,20,,,,,,,,,,0.04,2,2.9713,0,4,4,4,1,Write poems in my favorite cafe with a warm cup of tea,Go to concerts with my best friend to see our favorite bands,0.05,0.04,1.1,1,,,,
,,66b92d3b18295c1e6c125b85,6685aa9113c938e83b4f1ea0,672c3370ab61b13da6f0ad01,2024-11-06_21h27.20.129,WTP_SM_Choice,2022.2.1,Win32,59.88023952,,,,,,,NAN,,NAN,0.59,5.41,,0,19,19,19,1,20,Riley,Acc,Participant_Images/66b92d3b18295c1e6c125b85/66b92d3b18295c1e6c125b85_Images/66b92d3b18295c1e6c125b85_Image_24.jpeg,did not like,3.195382774,,,,,,,,,,,,,,,,,,,,,,
,,66b92d3b18295c1e6c125b85,6685aa9113c938e83b4f1ea0,672c3370ab61b13da6f0ad01,2024-11-06_21h27.20.129,WTP_SM_Choice,2022.2.1,Win32,59.88023952,,,,,space,0.8395,NAN,,NAN,0.59,5.41,,0,20,20,20,1,21,Riley,Acc,Participant_Images/66b92d3b18295c1e6c125b85/66b92d3b18295c1e6c125b85_Images/66b92d3b18295c1e6c125b85_Image_11.jpeg,liked,1.779333479,,,,,,,,,,,,,,,,,,,,,,
,,66b92d3b18295c1e6c125b85,6685aa9113c938e83b4f1ea0,672c3370ab61b13da6f0ad01,2024-11-06_21h27.20.129,WTP_SM_Choice,2022.2.1,Win32,59.88023952,,,,,space,1.5991,NAN,,NAN,0.59,5.41,,0,21,21,21,1,22,Riley,Acc,Participant_Images/66b92d3b18295c1e6c125b85/66b92d3b18295c1e6c125b85_Images/66b92d3b18295c1e6c125b85_Image_8.jpeg,liked,4.312468682,,,,,,,,,,,,,,,,,,,,,,
,,66b92d3b18295c1e6c125b85,6685aa9113c938e83b4f1ea0,672c3370ab61b13da6f0ad01,2024-11-06_21h27.20.129,WTP_SM_Choice,2022.2.1,Win32,59.88023952,,,,,space,0.7524,NAN,,NAN,0.59,5.41,,0,22,22,22,1,23,Riley,Acc,Participant_Images/66b92d3b18295c1e6c125b85/66b92d3b18295c1e6c125b85_Images/66b92d3b18295c1e6c125b85_Image_5.jpeg,did not like,4.940433059,,,,,,,,,,,,,,,,,,,,,,
,,66b92d3b18295c1e6c125b85,6685aa9113c938e83b4f1ea0,672c3370ab61b13da6f0ad01,2024-11-06_21h27.20.129,WTP_SM_Choice,2022.2.1,Win32,59.88023952,,,,,space,0.7734,NAN,,NAN,0.59,5.41,,0,23,23,23,1,24,Riley,Acc,Participant_Images/66b92d3b18295c1e6c125b85/66b92d3b18295c1e6c125b85_Images/66b92d3b18295c1e6c125b85_Image_14.jpeg,liked,2.7105123,,,,,,,,,,,,,,,,,,,,,,
,,66b92d3b18295c1e6c125b85,6685aa9113c938e83b4f1ea0,672c3370ab61b13da6f0ad01,2024-11-06_21h27.20.129,WTP_SM_Choice,2022.2.1,Win32,59.88023952,,,,,,,,,,,,,,,,,,21,,,,,,space,3.4017,space,0.8453,0.05,2,4.6607,0,0,0,0,1,Cook dinner together with my partner while listening to music,Take care of my flowers and vegetables in my backyard,0.01,0.05,8.8,0,,,,
,,66b92d3b18295c1e6c125b85,6685aa9113c938e83b4f1ea0,672c3370ab61b13da6f0ad01,2024-11-06_21h27.20.129,WTP_SM_Choice,2022.2.1,Win32,59.88023952,,,,,,,,,,,,,,,,,,22,,,,,,,,,,0.05,2,2.6719,0,1,1,1,1,Go hiking with friends on sunny weekends to explore new trails,Write poems in my favorite cafe with a warm cup of tea,0.02,0.05,4.4,0,,,,
,,66b92d3b18295c1e6c125b85,6685aa9113c938e83b4f1ea0,672c3370ab61b13da6f0ad01,2024-11-06_21h27.20.129,WTP_SM_Choice,2022.2.1,Win32,59.88023952,,,,,,,,,,,,,,,,,,23,,,,,,,,,,0.03,1,2.5914,0,2,2,2,1,Read fantasy books in a cozy corner of my living room,Have movie nights with my friends sharing popcorn and watching films,0.03,0.05,1.1,1,,,,
,,66b92d3b18295c1e6c125b85,6685aa9113c938e83b4f1ea0,672c3370ab61b13da6f0ad01,2024-11-06_21h27.20.129,WTP_SM_Choice,2022.2.1,Win32,59.88023952,,,,,,,,,,,,,,,,,,24,,,,,,,,,,0.05,2,7.3994,0,3,3,3,1,Cook new recipes in my kitchen while listening to a podcast,Take yoga classes with my sister at the local gym,0.04,0.05,4.4,1,,,,
,,66b92d3b18295c1e6c125b85,6685aa9113c938e83b4f1ea0,672c3370ab61b13da6f0ad01,2024-11-06_21h27.20.129,WTP_SM_Choice,2022.2.1,Win32,59.88023952,,,,,,,,,,,,,,,,,,25,,,,,,,,,,0.05,2,5.4027,0,4,4,4,1,Take care of my flowers and vegetables in my backyard,Take yoga classes with my sister at the local gym,0.05,0.05,3.3,1,,,,
,,66b92d3b18295c1e6c125b85,6685aa9113c938e83b4f1ea0,672c3370ab61b13da6f0ad01,2024-11-06_21h27.20.129,WTP_SM_Choice,2022.2.1,Win32,59.88023952,,,,,,,5,,5,0.82,5.18,,0,24,24,24,1,25,Riley,Acc,Participant_Images/66b92d3b18295c1e6c125b85/66b92d3b18295c1e6c125b85_Images/66b92d3b18295c1e6c125b85_Image_10.jpeg,liked,3.602308302,,,,,,,,,,,,,,,,,,,space,1.6085,,
,,66b92d3b18295c1e6c125b85,6685aa9113c938e83b4f1ea0,672c3370ab61b13da6f0ad01,2024-11-06_21h27.20.129,WTP_SM_Choice,2022.2.1,Win32,59.88023952,,,space,2.2659,space,1.2668,NAN,,NAN,0.82,5.18,,0,25,25,25,1,26,Charlie,Rej,Participant_Images/66b92d3b18295c1e6c125b85/66b92d3b18295c1e6c125b85_Images/66b92d3b18295c1e6c125b85_Image_21.jpeg,liked,4.106391878,,,,,,,,,,,,,,,,,,,,,,
,,66b92d3b18295c1e6c125b85,6685aa9113c938e83b4f1ea0,672c3370ab61b13da6f0ad01,2024-11-06_21h27.20.129,WTP_SM_Choice,2022.2.1,Win32,59.88023952,,,,,space,0.9121,NAN,,NAN,0.82,5.18,,0,26,26,26,1,27,Charlie,Rej,Participant_Images/66b92d3b18295c1e6c125b85/66b92d3b18295c1e6c125b85_Images/66b92d3b18295c1e6c125b85_Image_1.jpeg,did not like,3.799433026,,,,,,,,,,,,,,,,,,,,,,
,,66b92d3b18295c1e6c125b85,6685aa9113c938e83b4f1ea0,672c3370ab61b13da6f0ad01,2024-11-06_21h27.20.129,WTP_SM_Choice,2022.2.1,Win32,59.88023952,,,,,space,3.9676,NAN,,NAN,0.82,5.18,,0,27,27,27,1,28,Charlie,Rej,Participant_Images/66b92d3b18295c1e6c125b85/66b92d3b18295c1e6c125b85_Images/66b92d3b18295c1e6c125b85_Image_7.jpeg,liked,5.246980764,,,,,,,,,,,,,,,,,,,,,,
,,66b92d3b18295c1e6c125b85,6685aa9113c938e83b4f1ea0,672c3370ab61b13da6f0ad01,2024-11-06_21h27.20.129,WTP_SM_Choice,2022.2.1,Win32,59.88023952,,,,,space,2.028,NAN,,NAN,0.82,5.18,,0,28,28,28,1,29,Charlie,Rej,Participant_Images/66b92d3b18295c1e6c125b85/66b92d3b18295c1e6c125b85_Images/66b92d3b18295c1e6c125b85_Image_2.jpeg,did not like,3.30081769,,,,,,,,,,,,,,,,,,,,,,
,,66b92d3b18295c1e6c125b85,6685aa9113c938e83b4f1ea0,672c3370ab61b13da6f0ad01,2024-11-06_21h27.20.129,WTP_SM_Choice,2022.2.1,Win32,59.88023952,,,,,,,,,,,,,,,,,,26,,,,,,space,1.0841,space,3.8608,0.01,1,2.6994,0,0,0,0,1,Write in my journal at the beach while listening to the waves,Cook dinner together with my partner while listening to music,0.01,0.01,4.4,1,,,,
,,66b92d3b18295c1e6c125b85,6685aa9113c938e83b4f1ea0,672c3370ab61b13da6f0ad01,2024-11-06_21h27.20.129,WTP_SM_Choice,2022.2.1,Win32,59.88023952,,,,,,,,,,,,,,,,,,27,,,,,,,,,,0.01,2,2.7634,0,1,1,1,1,Play board games with my family on cozy Saturday nights,Take care of my flowers and vegetables in my backyard,0.02,0.01,3.3,0,,,,
,,66b92d3b18295c1e6c125b85,6685aa9113c938e83b4f1ea0,672c3370ab61b13da6f0ad01,2024-11-06_21h27.20.129,WTP_SM_Choice,2022.2.1,Win32,59.88023952,,,,,,,,,,,,,,,,,,28,,,,,,,,,,0.01,2,3.5663,0,2,2,2,1,Help at the animal shelter with my friends on Saturday mornings,Do yoga in my bedroom with soft music playing,0.03,0.01,3.3,0,,,,
,,66b92d3b18295c1e6c125b85,6685aa9113c938e83b4f1ea0,672c3370ab61b13da6f0ad01,2024-11-06_21h27.20.129,WTP_SM_Choice,2022.2.1,Win32,59.88023952,,,,,,,,,,,,,,,,,,29,,,,,,,,,,0.04,1,1.5343,0,3,3,3,1,Take care of my flowers and vegetables in my backyard,Have BBQs in the backyard with neighbors in the summer evenings,0.04,0.01,4.4,1,,,,
,,66b92d3b18295c1e6c125b85,6685aa9113c938e83b4f1ea0,672c3370ab61b13da6f0ad01,2024-11-06_21h27.20.129,WTP_SM_Choice,2022.2.1,Win32,59.88023952,,,,,,,,,,,,,,,,,,30,,,,,,,,,,0.05,1,3.9234,0,4,4,4,1,Go to concerts with my best friend to see our favorite bands,Read fantasy books in a cozy corner of my living room,0.05,0.01,8.8,0,,,,
,,66b92d3b18295c1e6c125b85,6685aa9113c938e83b4f1ea0,672c3370ab61b13da6f0ad01,2024-11-06_21h27.20.129,WTP_SM_Choice,2022.2.1,Win32,59.88023952,,,,,,,NAN,,NAN,0.94,5.06,,0,29,29,29,1,30,Charlie,Rej,Participant_Images/66b92d3b18295c1e6c125b85/66b92d3b18295c1e6c125b85_Images/66b92d3b18295c1e6c125b85_Image_13.jpeg,liked,1.661473164,,,,,,,,,,,,,,,,,,,,,,
,,66b92d3b18295c1e6c125b85,6685aa9113c938e83b4f1ea0,672c3370ab61b13da6f0ad01,2024-11-06_21h27.20.129,WTP_SM_Choice,2022.2.1,Win32,59.88023952,,,,,space,0.7614,NAN,,NAN,0.94,5.06,,0,30,30,30,1,31,Charlie,Rej,Participant_Images/66b92d3b18295c1e6c125b85/66b92d3b18295c1e6c125b85_Images/66b92d3b18295c1e6c125b85_Image_22.jpeg,did not like,3.613205605,,,,,,,,,,,,,,,,,,,,,,
,,66b92d3b18295c1e6c125b85,6685aa9113c938e83b4f1ea0,672c3370ab61b13da6f0ad01,2024-11-06_21h27.20.129,WTP_SM_Choice,2022.2.1,Win32,59.88023952,,,,,space,1.0503,NAN,,NAN,0.94,5.06,,0,31,31,31,1,32,Charlie,Rej,Participant_Images/66b92d3b18295c1e6c125b85/66b92d3b18295c1e6c125b85_Images/66b92d3b18295c1e6c125b85_Image_18.jpeg,did not like,4.988446431,,,,,,,,,,,,,,,,,,,,,,
,,66b92d3b18295c1e6c125b85,6685aa9113c938e83b4f1ea0,672c3370ab61b13da6f0ad01,2024-11-06_21h27.20.129,WTP_SM_Choice,2022.2.1,Win32,59.88023952,,,,,space,0.9238,NAN,,NAN,0.94,5.06,,0,32,32,32,1,33,Charlie,Rej,Participant_Images/66b92d3b18295c1e6c125b85/66b92d3b18295c1e6c125b85_Images/66b92d3b18295c1e6c125b85_Image_12.jpeg,did not like,3.470791822,,,,,,,,,,,,,,,,,,,,,,
,,66b92d3b18295c1e6c125b85,6685aa9113c938e83b4f1ea0,672c3370ab61b13da6f0ad01,2024-11-06_21h27.20.129,WTP_SM_Choice,2022.2.1,Win32,59.88023952,,,,,space,5.4069,NAN,,NAN,0.94,5.06,,0,33,33,33,1,34,Charlie,Rej,Participant_Images/66b92d3b18295c1e6c125b85/66b92d3b18295c1e6c125b85_Images/66b92d3b18295c1e6c125b85_Image_4.jpeg,liked,3.820572462,,,,,,,,,,,,,,,,,,,,,,
,,66b92d3b18295c1e6c125b85,6685aa9113c938e83b4f1ea0,672c3370ab61b13da6f0ad01,2024-11-06_21h27.20.129,WTP_SM_Choice,2022.2.1,Win32,59.88023952,,,,,,,,,,,,,,,,,,31,,,,,,space,1.2481,space,0.7863,0.02,2,2.3976,0,0,0,0,1,Play board games with my family on cozy Saturday nights,Draw pictures at a quiet park bench during sunset,0.01,0.02,8.8,0,,,,
,,66b92d3b18295c1e6c125b85,6685aa9113c938e83b4f1ea0,672c3370ab61b13da6f0ad01,2024-11-06_21h27.20.129,WTP_SM_Choice,2022.2.1,Win32,59.88023952,,,,,,,,,,,,,,,,,,32,,,,,,,,,,0.02,1,2.091,0,1,1,1,1,Visit museums with my classmates on our art history trips,Walk on a local nature trail in the cool autumn morning,0.02,0.02,1.1,0,,,,
,,66b92d3b18295c1e6c125b85,6685aa9113c938e83b4f1ea0,672c3370ab61b13da6f0ad01,2024-11-06_21h27.20.129,WTP_SM_Choice,2022.2.1,Win32,59.88023952,,,,,,,,,,,,,,,,,,33,,,,,,,,,,0.03,1,1.7336,0,2,2,2,1,Cook dinner together with my partner while listening to music,Read fantasy books in a cozy corner of my living room,0.03,0.02,4.4,0,,,,
,,66b92d3b18295c1e6c125b85,6685aa9113c938e83b4f1ea0,672c3370ab61b13da6f0ad01,2024-11-06_21h27.20.129,WTP_SM_Choice,2022.2.1,Win32,59.88023952,,,,,,,,,,,,,,,,,,34,,,,,,,,,,0.02,2,1.286,0,3,3,3,1,Read fantasy books in a cozy corner of my living room,Learn new recipes with my parents in cooking classes,0.04,0.02,3.3,1,,,,
,,66b92d3b18295c1e6c125b85,6685aa9113c938e83b4f1ea0,672c3370ab61b13da6f0ad01,2024-11-06_21h27.20.129,WTP_SM_Choice,2022.2.1,Win32,59.88023952,,,,,,,,,,,,,,,,,,35,,,,,,,,,,0.05,1,0.9746,0,4,4,4,1,Play board games with my family on cozy Saturday nights,Read fantasy books in a cozy corner of my living room,0.05,0.02,1.1,0,,,,
,,66b92d3b18295c1e6c125b85,6685aa9113c938e83b4f1ea0,672c3370ab61b13da6f0ad01,2024-11-06_21h27.20.129,WTP_SM_Choice,2022.2.1,Win32,59.88023952,,,,,,,NAN,,NAN,1.08,4.92,,0,34,34,34,1,35,Charlie,Rej,Participant_Images/66b92d3b18295c1e6c125b85/66b92d3b18295c1e6c125b85_Images/66b92d3b18295c1e6c125b85_Image_15.jpeg,did not like,2.455989137,,,,,,,,,,,,,,,,,,,,,,
,,66b92d3b18295c1e6c125b85,6685aa9113c938e83b4f1ea0,672c3370ab61b13da6f0ad01,2024-11-06_21h27.20.129,WTP_SM_Choice,2022.2.1,Win32,59.88023952,,,,,space,0.4687,NAN,,NAN,1.08,4.92,,0,35,35,35,1,36,Charlie,Rej,Participant_Images/66b92d3b18295c1e6c125b85/66b92d3b18295c1e6c125b85_Images/66b92d3b18295c1e6c125b85_Image_19.jpeg,liked,3.79605092,,,,,,,,,,,,,,,,,,,,,,
,,66b92d3b18295c1e6c125b85,6685aa9113c938e83b4f1ea0,672c3370ab61b13da6f0ad01,2024-11-06_21h27.20.129,WTP_SM_Choice,2022.2.1,Win32,59.88023952,,,,,space,1.5586,NAN,,NAN,1.08,4.92,,0,36,36,36,1,37,Charlie,Rej,Participant_Images/66b92d3b18295c1e6c125b85/66b92d3b18295c1e6c125b85_Images/66b92d3b18295c1e6c125b85_Image_16.jpeg,did not like,3.562416326,,,,,,,,,,,,,,,,,,,,,,
,,66b92d3b18295c1e6c125b85,6685aa9113c938e83b4f1ea0,672c3370ab61b13da6f0ad01,2024-11-06_21h27.20.129,WTP_SM_Choice,2022.2.1,Win32,59.88023952,,,,,space,2.0284,NAN,,NAN,1.08,4.92,,0,37,37,37,1,38,Charlie,Rej,Participant_Images/66b92d3b18295c1e6c125b85/66b92d3b18295c1e6c125b85_Images/66b92d3b18295c1e6c125b85_Image_11.jpeg,did not like,2.843822497,,,,,,,,,,,,,,,,,,,,,,
,,66b92d3b18295c1e6c125b85,6685aa9113c938e83b4f1ea0,672c3370ab61b13da6f0ad01,2024-11-06_21h27.20.129,WTP_SM_Choice,2022.2.1,Win32,59.88023952,,,,,space,1.9647,NAN,,NAN,1.08,4.92,,0,38,38,38,1,39,Charlie,Rej,Participant_Images/66b92d3b18295c1e6c125b85/66b92d3b18295c1e6c125b85_Images/66b92d3b18295c1e6c125b85_Image_10.jpeg,did not like,3.546495948,,,,,,,,,,,,,,,,,,,,,,
,,66b92d3b18295c1e6c125b85,6685aa9113c938e83b4f1ea0,672c3370ab61b13da6f0ad01,2024-11-06_21h27.20.129,WTP_SM_Choice,2022.2.1,Win32,59.88023952,,,,,,,,,,,,,,,,,,36,,,,,,space,3.3328,space,0.8393,0.03,2,1.301,0,0,0,0,1,Draw pictures at a quiet park bench during sunset,Take yoga classes with my sister at the local gym,0.01,0.03,3.3,1,,,,
,,66b92d3b18295c1e6c125b85,6685aa9113c938e83b4f1ea0,672c3370ab61b13da6f0ad01,2024-11-06_21h27.20.129,WTP_SM_Choice,2022.2.1,Win32,59.88023952,,,,,,,,,,,,,,,,,,37,,,,,,,,,,0.03,2,3.9047,0,1,1,1,1,Go hiking with friends on sunny weekends to explore new trails,Write in my journal at the beach while listening to the waves,0.02,0.03,1.1,0,,,,
,,66b92d3b18295c1e6c125b85,6685aa9113c938e83b4f1ea0,672c3370ab61b13da6f0ad01,2024-11-06_21h27.20.129,WTP_SM_Choice,2022.2.1,Win32,59.88023952,,,,,,,,,,,,,,,,,,38,,,,,,,,,,0.03,1,1.4449,0,2,2,2,1,Walk on a local nature trail in the cool autumn morning,Go hiking with friends on sunny weekends to explore new trails,0.03,0.03,1.1,1,,,,
,,66b92d3b18295c1e6c125b85,6685aa9113c938e83b4f1ea0,672c3370ab61b13da6f0ad01,2024-11-06_21h27.20.129,WTP_SM_Choice,2022.2.1,Win32,59.88023952,,,,,,,,,,,,,,,,,,39,,,,,,,,,,0.04,1,2.0094,0,3,3,3,1,Take yoga classes with my sister at the local gym,Read fantasy books in a cozy corner of my living room,0.04,0.03,3.3,0,,,,
,,66b92d3b18295c1e6c125b85,6685aa9113c938e83b4f1ea0,672c3370ab61b13da6f0ad01,2024-11-06_21h27.20.129,WTP_SM_Choice,2022.2.1,Win32,59.88023952,,,,,,,,,,,,,,,,,,40,,,,,,,,,,0.05,1,2.9418,0,4,4,4,1,Go to concerts with my best friend to see our favorite bands,Write in my journal at the beach while listening to the waves,0.05,0.03,4.4,0,,,,
,,66b92d3b18295c1e6c125b85,6685aa9113c938e83b4f1ea0,672c3370ab61b13da6f0ad01,2024-11-06_21h27.20.129,WTP_SM_Choice,2022.2.1,Win32,59.88023952,,,,,,,NAN,,NAN,1.26,4.74,,0,39,39,39,1,40,Charlie,Rej,Participant_Images/66b92d3b18295c1e6c125b85/66b92d3b18295c1e6c125b85_Images/66b92d3b18295c1e6c125b85_Image_8.jpeg,did not like,1.672012706,,,,,,,,,,,,,,,,,,,,,,
,,66b92d3b18295c1e6c125b85,6685aa9113c938e83b4f1ea0,672c3370ab61b13da6f0ad01,2024-11-06_21h27.20.129,WTP_SM_Choice,2022.2.1,Win32,59.88023952,,,,,space,0.9515,NAN,,NAN,1.26,4.74,,0,40,40,40,1,41,Charlie,Rej,Participant_Images/66b92d3b18295c1e6c125b85/66b92d3b18295c1e6c125b85_Images/66b92d3b18295c1e6c125b85_Image_24.jpeg,did not like,4.942172136,,,,,,,,,,,,,,,,,,,,,,
,,66b92d3b18295c1e6c125b85,6685aa9113c938e83b4f1ea0,672c3370ab61b13da6f0ad01,2024-11-06_21h27.20.129,WTP_SM_Choice,2022.2.1,Win32,59.88023952,,,,,space,3.2362,NAN,,NAN,1.26,4.74,,0,41,41,41,1,42,Charlie,Rej,Participant_Images/66b92d3b18295c1e6c125b85/66b92d3b18295c1e6c125b85_Images/66b92d3b18295c1e6c125b85_Image_14.jpeg,did not like,2.50187214,,,,,,,,,,,,,,,,,,,,,,
,,66b92d3b18295c1e6c125b85,6685aa9113c938e83b4f1ea0,672c3370ab61b13da6f0ad01,2024-11-06_21h27.20.129,WTP_SM_Choice,2022.2.1,Win32,59.88023952,,,,,space,0.9534,NAN,,NAN,1.26,4.74,,0,42,42,42,1,43,Charlie,Rej,Participant_Images/66b92d3b18295c1e6c125b85/66b92d3b18295c1e6c125b85_Images/66b92d3b18295c1e6c125b85_Image_6.jpeg,did not like,2.071164779,,,,,,,,,,,,,,,,,,,,,,
,,66b92d3b18295c1e6c125b85,6685aa9113c938e83b4f1ea0,672c3370ab61b13da6f0ad01,2024-11-06_21h27.20.129,WTP_SM_Choice,2022.2.1,Win32,59.88023952,,,,,space,1.7006,NAN,,NAN,1.26,4.74,,0,43,43,43,1,44,Charlie,Rej,Participant_Images/66b92d3b18295c1e6c125b85/66b92d3b18295c1e6c125b85_Images/66b92d3b18295c1e6c125b85_Image_3.jpeg,did not like,5.336503566,,,,,,,,,,,,,,,,,,,,,,
,,66b92d3b18295c1e6c125b85,6685aa9113c938e83b4f1ea0,672c3370ab61b13da6f0ad01,2024-11-06_21h27.20.129,WTP_SM_Choice,2022.2.1,Win32,59.88023952,,,,,,,,,,,,,,,,,,41,,,,,,space,1.9025,space,0.7836,0.04,2,1.8513,0,0,0,0,1,Walk on a local nature trail in the cool autumn morning,Learn new recipes with my parents in cooking classes,0.01,0.04,1.1,1,,,,
,,66b92d3b18295c1e6c125b85,6685aa9113c938e83b4f1ea0,672c3370ab61b13da6f0ad01,2024-11-06_21h27.20.129,WTP_SM_Choice,2022.2.1,Win32,59.88023952,,,,,,,,,,,,,,,,,,42,,,,,,,,,,0.02,1,2.9189,0,1,1,1,1,Look at stars in my backyard with a blanket and coffee,Go hiking with friends on sunny weekends to explore new trails,0.02,0.04,3.3,1,,,,
,,66b92d3b18295c1e6c125b85,6685aa9113c938e83b4f1ea0,672c3370ab61b13da6f0ad01,2024-11-06_21h27.20.129,WTP_SM_Choice,2022.2.1,Win32,59.88023952,,,,,,,,,,,,,,,,,,43,,,,,,,,,,0.04,2,2.0396,0,2,2,2,1,Cook dinner together with my partner while listening to music,Draw pictures at a quiet park bench during sunset,0.03,0.04,1.1,0,,,,
,,66b92d3b18295c1e6c125b85,6685aa9113c938e83b4f1ea0,672c3370ab61b13da6f0ad01,2024-11-06_21h27.20.129,WTP_SM_Choice,2022.2.1,Win32,59.88023952,,,,,,,,,,,,,,,,,,44,,,,,,,,,,0.04,1,2.0817,0,3,3,3,1,Do yoga in my bedroom with soft music playing,Go hiking with friends on sunny weekends to explore new trails,0.04,0.04,1.1,1,,,,
,,66b92d3b18295c1e6c125b85,6685aa9113c938e83b4f1ea0,672c3370ab61b13da6f0ad01,2024-11-06_21h27.20.129,WTP_SM_Choice,2022.2.1,Win32,59.88023952,,,,,,,,,,,,,,,,,,45,,,,,,,,,,,,,0,4,4,4,1,Help at the animal shelter with my friends on Saturday mornings,Cook new recipes in my kitchen while listening to a podcast,0.05,0.04,4.4,0,,,,
,,66b92d3b18295c1e6c125b85,6685aa9113c938e83b4f1ea0,672c3370ab61b13da6f0ad01,2024-11-06_21h27.20.129,WTP_SM_Choice,2022.2.1,Win32,59.88023952,,,,,,,NAN,,NAN,1.4,4.6,,0,44,44,44,1,45,Charlie,Rej,Participant_Images/66b92d3b18295c1e6c125b85/66b92d3b18295c1e6c125b85_Images/66b92d3b18295c1e6c125b85_Image_25.jpeg,liked,2.642157193,,,,,,,,,,,,,,,,,,,,,,
,,66b92d3b18295c1e6c125b85,6685aa9113c938e83b4f1ea0,672c3370ab61b13da6f0ad01,2024-11-06_21h27.20.129,WTP_SM_Choice,2022.2.1,Win32,59.88023952,,,,,space,7.6234,NAN,,NAN,1.4,4.6,,0,45,45,45,1,46,Charlie,Rej,Participant_Images/66b92d3b18295c1e6c125b85/66b92d3b18295c1e6c125b85_Images/66b92d3b18295c1e6c125b85_Image_9.jpeg,did not like,4.456234322,,,,,,,,,,,,,,,,,,,,,,
,,66b92d3b18295c1e6c125b85,6685aa9113c938e83b4f1ea0,672c3370ab61b13da6f0ad01,2024-11-06_21h27.20.129,WTP_SM_Choice,2022.2.1,Win32,59.88023952,,,,,space,0.796,NAN,,NAN,1.4,4.6,,0,46,46,46,1,47,Charlie,Rej,Participant_Images/66b92d3b18295c1e6c125b85/66b92d3b18295c1e6c125b85_Images/66b92d3b18295c1e6c125b85_Image_20.jpeg,liked,4.438512181,,,,,,,,,,,,,,,,,,,,,,
,,66b92d3b18295c1e6c125b85,6685aa9113c938e83b4f1ea0,672c3370ab61b13da6f0ad01,2024-11-06_21h27.20.129,WTP_SM_Choice,2022.2.1,Win32,59.88023952,,,,,space,1.7525,NAN,,NAN,1.4,4.6,,0,47,47,47,1,48,Charlie,Rej,Participant_Images/66b92d3b18295c1e6c125b85/66b92d3b18295c1e6c125b85_Images/66b92d3b18295c1e6c125b85_Image_5.jpeg,did not like,2.682944783,,,,,,,,,,,,,,,,,,,,,,
,,66b92d3b18295c1e6c125b85,6685aa9113c938e83b4f1ea0,672c3370ab61b13da6f0ad01,2024-11-06_21h27.20.129,WTP_SM_Choice,2022.2.1,Win32,59.88023952,,,,,space,4.507,NAN,,NAN,1.4,4.6,,0,48,48,48,1,49,Charlie,Rej,Participant_Images/66b92d3b18295c1e6c125b85/66b92d3b18295c1e6c125b85_Images/66b92d3b18295c1e6c125b85_Image_23.jpeg,did not like,4.51984296,,,,,,,,,,,,,,,,,,,,,,
,,66b92d3b18295c1e6c125b85,6685aa9113c938e83b4f1ea0,672c3370ab61b13da6f0ad01,2024-11-06_21h27.20.129,WTP_SM_Choice,2022.2.1,Win32,59.88023952,,,,,,,,,,,,,,,,,,46,,,,,,space,5.206,space,0.8717,0.01,1,1.9298,0,0,0,0,1,Take yoga classes with my sister at the local gym,Write poems in my favorite cafe with a warm cup of tea,0.01,0.05,8.8,0,,,,
,,66b92d3b18295c1e6c125b85,6685aa9113c938e83b4f1ea0,672c3370ab61b13da6f0ad01,2024-11-06_21h27.20.129,WTP_SM_Choice,2022.2.1,Win32,59.88023952,,,,,,,,,,,,,,,,,,47,,,,,,,,,,0.05,2,1.5796,0,1,1,1,1,Solve puzzles on a rainy afternoon while drinking hot cocoa,Play board games with my family on cozy Saturday nights,0.02,0.05,1.1,1,,,,
,,66b92d3b18295c1e6c125b85,6685aa9113c938e83b4f1ea0,672c3370ab61b13da6f0ad01,2024-11-06_21h27.20.129,WTP_SM_Choice,2022.2.1,Win32,59.88023952,,,,,,,,,,,,,,,,,,48,,,,,,,,,,0.03,1,4.7483,0,2,2,2,1,Read fantasy books in a cozy corner of my living room,Visit museums with my classmates on our art history trips,0.03,0.05,4.4,1,,,,
,,66b92d3b18295c1e6c125b85,6685aa9113c938e83b4f1ea0,672c3370ab61b13da6f0ad01,2024-11-06_21h27.20.129,WTP_SM_Choice,2022.2.1,Win32,59.88023952,,,,,,,,,,,,,,,,,,49,,,,,,,,,,0.05,2,1.6402,0,3,3,3,1,Visit museums with my classmates on our art history trips,Write poems in my favorite cafe with a warm cup of tea,0.04,0.05,3.3,0,,,,
,,66b92d3b18295c1e6c125b85,6685aa9113c938e83b4f1ea0,672c3370ab61b13da6f0ad01,2024-11-06_21h27.20.129,WTP_SM_Choice,2022.2.1,Win32,59.88023952,,,,,,,,,,,,,,,,,,50,,,,,,,,,,0.05,1,1.8325,0,4,4,4,1,Walk on a local nature trail in the cool autumn morning,Play board games with my family on cozy Saturday nights,0.05,0.05,1.1,1,,,,
,,66b92d3b18295c1e6c125b85,6685aa9113c938e83b4f1ea0,672c3370ab61b13da6f0ad01,2024-11-06_21h27.20.129,WTP_SM_Choice,2022.2.1,Win32,59.88023952,,,,,,,5,,5,1.59,4.41,,0,49,49,49,1,50,Charlie,Rej,Participant_Images/66b92d3b18295c1e6c125b85/66b92d3b18295c1e6c125b85_Images/66b92d3b18295c1e6c125b85_Image_17.jpeg,did not like,3.195382774,,,,,,,,,,,,,,,,,,,space,3.3524,,
,,66b92d3b18295c1e6c125b85,6685aa9113c938e83b4f1ea0,672c3370ab61b13da6f0ad01,2024-11-06_21h27.20.129,WTP_SM_Choice,2022.2.1,Win32,59.88023952,,,space,3.2116,space,6.4216,NAN,,NAN,1.59,4.41,,0,50,50,50,1,51,Sam,Rej,Participant_Images/66b92d3b18295c1e6c125b85/66b92d3b18295c1e6c125b85_Images/66b92d3b18295c1e6c125b85_Image_20.jpeg,did not like,1.779333479,,,,,,,,,,,,,,,,,,,,,,
,,66b92d3b18295c1e6c125b85,6685aa9113c938e83b4f1ea0,672c3370ab61b13da6f0ad01,2024-11-06_21h27.20.129,WTP_SM_Choice,2022.2.1,Win32,59.88023952,,,,,space,6.2301,NAN,,NAN,1.59,4.41,,0,51,51,51,1,52,Sam,Rej,Participant_Images/66b92d3b18295c1e6c125b85/66b92d3b18295c1e6c125b85_Images/66b92d3b18295c1e6c125b85_Image_17.jpeg,did not like,4.312468682,,,,,,,,,,,,,,,,,,,,,,
,,66b92d3b18295c1e6c125b85,6685aa9113c938e83b4f1ea0,672c3370ab61b13da6f0ad01,2024-11-06_21h27.20.129,WTP_SM_Choice,2022.2.1,Win32,59.88023952,,,,,space,6.3426,NAN,,NAN,1.59,4.41,,0,52,52,52,1,53,Sam,Rej,Participant_Images/66b92d3b18295c1e6c125b85/66b92d3b18295c1e6c125b85_Images/66b92d3b18295c1e6c125b85_Image_18.jpeg,liked,4.940433059,,,,,,,,,,,,,,,,,,,,,,
,,66b92d3b18295c1e6c125b85,6685aa9113c938e83b4f1ea0,672c3370ab61b13da6f0ad01,2024-11-06_21h27.20.129,WTP_SM_Choice,2022.2.1,Win32,59.88023952,,,,,space,1.1485,NAN,,NAN,1.59,4.41,,0,53,53,53,1,54,Sam,Rej,Participant_Images/66b92d3b18295c1e6c125b85/66b92d3b18295c1e6c125b85_Images/66b92d3b18295c1e6c125b85_Image_7.jpeg,did not like,2.7105123,,,,,,,,,,,,,,,,,,,,,,
,,66b92d3b18295c1e6c125b85,6685aa9113c938e83b4f1ea0,672c3370ab61b13da6f0ad01,2024-11-06_21h27.20.129,WTP_SM_Choice,2022.2.1,Win32,59.88023952,,,,,,,,,,,,,,,,,,51,,,,,,space,1.0049,space,0.7668,0.01,2,2.5889,0,0,0,0,1,Have movie nights with my friends sharing popcorn and watching films,Walk on a local nature trail in the cool autumn morning,0.01,0.01,1.1,0,,,,
,,66b92d3b18295c1e6c125b85,6685aa9113c938e83b4f1ea0,672c3370ab61b13da6f0ad01,2024-11-06_21h27.20.129,WTP_SM_Choice,2022.2.1,Win32,59.88023952,,,,,,,,,,,,,,,,,,52,,,,,,,,,,0.02,1,1.8343,0,1,1,1,1,Visit museums with my classmates on our art history trips,Cook new recipes in my kitchen while listening to a podcast,0.02,0.01,3.3,0,,,,
,,66b92d3b18295c1e6c125b85,6685aa9113c938e83b4f1ea0,672c3370ab61b13da6f0ad01,2024-11-06_21h27.20.129,WTP_SM_Choice,2022.2.1,Win32,59.88023952,,,,,,,,,,,,,,,,,,53,,,,,,,,,,0.01,2,1.5915,0,2,2,2,1,Solve puzzles on a rainy afternoon while drinking hot cocoa,Help at the animal shelter with my friends on Saturday mornings,0.03,0.01,1.1,1,,,,
,,66b92d3b18295c1e6c125b85,6685aa9113c938e83b4f1ea0,672c3370ab61b13da6f0ad01,2024-11-06_21h27.20.129,WTP_SM_Choice,2022.2.1,Win32,59.88023952,,,,,,,,,,,,,,,,,,54,,,,,,,,,,0.04,1,2.2674,0,3,3,3,1,Visit museums with my classmates on our art history trips,Take care of my flowers and vegetables in my backyard,0.04,0.01,4.4,0,,,,
,,66b92d3b18295c1e6c125b85,6685aa9113c938e83b4f1ea0,672c3370ab61b13da6f0ad01,2024-11-06_21h27.20.129,WTP_SM_Choice,2022.2.1,Win32,59.88023952,,,,,,,,,,,,,,,,,,55,,,,,,,,,,0.05,1,2.6512,0,4,4,4,1,Read fantasy books in a cozy corner of my living room,Have BBQs in the backyard with neighbors in the summer evenings,0.05,0.01,1.1,1,,,,
,,66b92d3b18295c1e6c125b85,6685aa9113c938e83b4f1ea0,672c3370ab61b13da6f0ad01,2024-11-06_21h27.20.129,WTP_SM_Choice,2022.2.1,Win32,59.88023952,,,,,,,NAN,,NAN,1.72,4.28,,0,54,54,54,1,55,Sam,Rej,Participant_Images/66b92d3b18295c1e6c125b85/66b92d3b18295c1e6c125b85_Images/66b92d3b18295c1e6c125b85_Image_15.jpeg,did not like,3.602308302,,,,,,,,,,,,,,,,,,,,,,
,,66b92d3b18295c1e6c125b85,6685aa9113c938e83b4f1ea0,672c3370ab61b13da6f0ad01,2024-11-06_21h27.20.129,WTP_SM_Choice,2022.2.1,Win32,59.88023952,,,,,space,0.8254,NAN,,NAN,1.72,4.28,,0,55,55,55,1,56,Sam,Rej,Participant_Images/66b92d3b18295c1e6c125b85/66b92d3b18295c1e6c125b85_Images/66b92d3b18295c1e6c125b85_Image_22.jpeg,did not like,4.106391878,,,,,,,,,,,,,,,,,,,,,,
,,66b92d3b18295c1e6c125b85,6685aa9113c938e83b4f1ea0,672c3370ab61b13da6f0ad01,2024-11-06_21h27.20.129,WTP_SM_Choice,2022.2.1,Win32,59.88023952,,,,,space,2.7133,NAN,,NAN,1.72,4.28,,0,56,56,56,1,57,Sam,Rej,Participant_Images/66b92d3b18295c1e6c125b85/66b92d3b18295c1e6c125b85_Images/66b92d3b18295c1e6c125b85_Image_4.jpeg,did not like,3.799433026,,,,,,,,,,,,,,,,,,,,,,
,,66b92d3b18295c1e6c125b85,6685aa9113c938e83b4f1ea0,672c3370ab61b13da6f0ad01,2024-11-06_21h27.20.129,WTP_SM_Choice,2022.2.1,Win32,59.88023952,,,,,space,0.6477,NAN,,NAN,1.72,4.28,,0,57,57,57,1,58,Sam,Rej,Participant_Images/66b92d3b18295c1e6c125b85/66b92d3b18295c1e6c125b85_Images/66b92d3b18295c1e6c125b85_Image_11.jpeg,liked,5.246980764,,,,,,,,,,,,,,,,,,,,,,
,,66b92d3b18295c1e6c125b85,6685aa9113c938e83b4f1ea0,672c3370ab61b13da6f0ad01,2024-11-06_21h27.20.129,WTP_SM_Choice,2022.2.1,Win32,59.88023952,,,,,space,0.6464,NAN,,NAN,1.72,4.28,,0,58,58,58,1,59,Sam,Rej,Participant_Images/66b92d3b18295c1e6c125b85/66b92d3b18295c1e6c125b85_Images/66b92d3b18295c1e6c125b85_Image_24.jpeg,liked,3.30081769,,,,,,,,,,,,,,,,,,,,,,
,,66b92d3b18295c1e6c125b85,6685aa9113c938e83b4f1ea0,672c3370ab61b13da6f0ad01,2024-11-06_21h27.20.129,WTP_SM_Choice,2022.2.1,Win32,59.88023952,,,,,,,,,,,,,,,,,,56,,,,,,space,0.9364,space,0.7232,0.01,1,1.5279,0,0,0,0,1,Write poems in my favorite cafe with a warm cup of tea,Play board games with my family on cozy Saturday nights,0.01,0.02,8.8,1,,,,
,,66b92d3b18295c1e6c125b85,6685aa9113c938e83b4f1ea0,672c3370ab61b13da6f0ad01,2024-11-06_21h27.20.129,WTP_SM_Choice,2022.2.1,Win32,59.88023952,,,,,,,,,,,,,,,,,,57,,,,,,,,,,0.02,1,1.3665,0,1,1,1,1,Do yoga in my bedroom with soft music playing,Have movie nights with my friends sharing popcorn and watching films,0.02,0.02,4.4,1,,,,
,,66b92d3b18295c1e6c125b85,6685aa9113c938e83b4f1ea0,672c3370ab61b13da6f0ad01,2024-11-06_21h27.20.129,WTP_SM_Choice,2022.2.1,Win32,59.88023952,,,,,,,,,,,,,,,,,,58,,,,,,,,,,0.02,2,1.3624,0,2,2,2,1,Write in my journal at the beach while listening to the waves,Take yoga classes with my sister at the local gym,0.03,0.02,4.4,1,,,,
,,66b92d3b18295c1e6c125b85,6685aa9113c938e83b4f1ea0,672c3370ab61b13da6f0ad01,2024-11-06_21h27.20.129,WTP_SM_Choice,2022.2.1,Win32,59.88023952,,,,,,,,,,,,,,,,,,59,,,,,,,,,,0.02,2,1.3575,0,3,3,3,1,Have BBQs in the backyard with neighbors in the summer evenings,Do yoga in my bedroom with soft music playing,0.04,0.02,4.4,0,,,,
,,66b92d3b18295c1e6c125b85,6685aa9113c938e83b4f1ea0,672c3370ab61b13da6f0ad01,2024-11-06_21h27.20.129,WTP_SM_Choice,2022.2.1,Win32,59.88023952,,,,,,,,,,,,,,,,,,60,,,,,,,,,,0.02,2,1.7735,0,4,4,4,1,Learn new recipes with my parents in cooking classes,Write poems in my favorite cafe with a warm cup of tea,0.05,0.02,1.1,0,,,,
,,66b92d3b18295c1e6c125b85,6685aa9113c938e83b4f1ea0,672c3370ab61b13da6f0ad01,2024-11-06_21h27.20.129,WTP_SM_Choice,2022.2.1,Win32,59.88023952,,,,,,,NAN,,NAN,1.81,4.19,,0,59,59,59,1,60,Sam,Rej,Participant_Images/66b92d3b18295c1e6c125b85/66b92d3b18295c1e6c125b85_Images/66b92d3b18295c1e6c125b85_Image_8.jpeg,did not like,1.661473164,,,,,,,,,,,,,,,,,,,,,,
,,66b92d3b18295c1e6c125b85,6685aa9113c938e83b4f1ea0,672c3370ab61b13da6f0ad01,2024-11-06_21h27.20.129,WTP_SM_Choice,2022.2.1,Win32,59.88023952,,,,,space,4.2844,NAN,,NAN,1.81,4.19,,0,60,60,60,1,61,Sam,Rej,Participant_Images/66b92d3b18295c1e6c125b85/66b92d3b18295c1e6c125b85_Images/66b92d3b18295c1e6c125b85_Image_10.jpeg,did not like,3.613205605,,,,,,,,,,,,,,,,,,,,,,
,,66b92d3b18295c1e6c125b85,6685aa9113c938e83b4f1ea0,672c3370ab61b13da6f0ad01,2024-11-06_21h27.20.129,WTP_SM_Choice,2022.2.1,Win32,59.88023952,,,,,space,10.1855,NAN,,NAN,1.81,4.19,,0,61,61,61,1,62,Sam,Rej,Participant_Images/66b92d3b18295c1e6c125b85/66b92d3b18295c1e6c125b85_Images/66b92d3b18295c1e6c125b85_Image_3.jpeg,did not like,4.988446431,,,,,,,,,,,,,,,,,,,,,,
,,66b92d3b18295c1e6c125b85,6685aa9113c938e83b4f1ea0,672c3370ab61b13da6f0ad01,2024-11-06_21h27.20.129,WTP_SM_Choice,2022.2.1,Win32,59.88023952,,,,,space,1.1294,NAN,,NAN,1.81,4.19,,0,62,62,62,1,63,Sam,Rej,Participant_Images/66b92d3b18295c1e6c125b85/66b92d3b18295c1e6c125b85_Images/66b92d3b18295c1e6c125b85_Image_23.jpeg,liked,3.470791822,,,,,,,,,,,,,,,,,,,,,,
,,66b92d3b18295c1e6c125b85,6685aa9113c938e83b4f1ea0,672c3370ab61b13da6f0ad01,2024-11-06_21h27.20.129,WTP_SM_Choice,2022.2.1,Win32,59.88023952,,,,,space,0.8129,NAN,,NAN,1.81,4.19,,0,63,63,63,1,64,Sam,Rej,Participant_Images/66b92d3b18295c1e6c125b85/66b92d3b18295c1e6c125b85_Images/66b92d3b18295c1e6c125b85_Image_19.jpeg,did not like,3.820572462,,,,,,,,,,,,,,,,,,,,,,
,,66b92d3b18295c1e6c125b85,6685aa9113c938e83b4f1ea0,672c3370ab61b13da6f0ad01,2024-11-06_21h27.20.129,WTP_SM_Choice,2022.2.1,Win32,59.88023952,,,,,,,,,,,,,,,,,,61,,,,,,space,5.0695,space,0.6723,0.01,1,1.983,0,0,0,0,1,Cook new recipes in my kitchen while listening to a podcast,Play board games with my family on cozy Saturday nights,0.01,0.03,3.3,1,,,,
,,66b92d3b18295c1e6c125b85,6685aa9113c938e83b4f1ea0,672c3370ab61b13da6f0ad01,2024-11-06_21h27.20.129,WTP_SM_Choice,2022.2.1,Win32,59.88023952,,,,,,,,,,,,,,,,,,62,,,,,,,,,,0.03,2,1.4355,0,1,1,1,1,Have BBQs in the backyard with neighbors in the summer evenings,Write in my journal at the beach while listening to the waves,0.02,0.03,3.3,0,,,,
,,66b92d3b18295c1e6c125b85,6685aa9113c938e83b4f1ea0,672c3370ab61b13da6f0ad01,2024-11-06_21h27.20.129,WTP_SM_Choice,2022.2.1,Win32,59.88023952,,,,,,,,,,,,,,,,,,63,,,,,,,,,,0.03,1,2.3081,0,2,2,2,1,Write poems in my favorite cafe with a warm cup of tea,Cook dinner together with my partner while listening to music,0.03,0.03,3.3,1,,,,
,,66b92d3b18295c1e6c125b85,6685aa9113c938e83b4f1ea0,672c3370ab61b13da6f0ad01,2024-11-06_21h27.20.129,WTP_SM_Choice,2022.2.1,Win32,59.88023952,,,,,,,,,,,,,,,,,,64,,,,,,,,,,0.03,2,1.4471,0,3,3,3,1,Have BBQs in the backyard with neighbors in the summer evenings,Draw pictures at a quiet park bench during sunset,0.04,0.03,1.1,0,,,,
,,66b92d3b18295c1e6c125b85,6685aa9113c938e83b4f1ea0,672c3370ab61b13da6f0ad01,2024-11-06_21h27.20.129,WTP_SM_Choice,2022.2.1,Win32,59.88023952,,,,,,,,,,,,,,,,,,65,,,,,,,,,,0.05,1,1.8707,0,4,4,4,1,Cook new recipes in my kitchen while listening to a podcast,Have BBQs in the backyard with neighbors in the summer evenings,0.05,0.03,1.1,1,,,,
,,66b92d3b18295c1e6c125b85,6685aa9113c938e83b4f1ea0,672c3370ab61b13da6f0ad01,2024-11-06_21h27.20.129,WTP_SM_Choice,2022.2.1,Win32,59.88023952,,,,,,,NAN,,NAN,1.96,4.04,,0,64,64,64,1,65,Sam,Rej,Participant_Images/66b92d3b18295c1e6c125b85/66b92d3b18295c1e6c125b85_Images/66b92d3b18295c1e6c125b85_Image_12.jpeg,did not like,2.455989137,,,,,,,,,,,,,,,,,,,,,,
,,66b92d3b18295c1e6c125b85,6685aa9113c938e83b4f1ea0,672c3370ab61b13da6f0ad01,2024-11-06_21h27.20.129,WTP_SM_Choice,2022.2.1,Win32,59.88023952,,,,,space,0.688,NAN,,NAN,1.96,4.04,,0,65,65,65,1,66,Sam,Rej,Participant_Images/66b92d3b18295c1e6c125b85/66b92d3b18295c1e6c125b85_Images/66b92d3b18295c1e6c125b85_Image_25.jpeg,liked,3.79605092,,,,,,,,,,,,,,,,,,,,,,
,,66b92d3b18295c1e6c125b85,6685aa9113c938e83b4f1ea0,672c3370ab61b13da6f0ad01,2024-11-06_21h27.20.129,WTP_SM_Choice,2022.2.1,Win32,59.88023952,,,,,space,0.6589,NAN,,NAN,1.96,4.04,,0,66,66,66,1,67,Sam,Rej,Participant_Images/66b92d3b18295c1e6c125b85/66b92d3b18295c1e6c125b85_Images/66b92d3b18295c1e6c125b85_Image_9.jpeg,did not like,3.562416326,,,,,,,,,,,,,,,,,,,,,,
,,66b92d3b18295c1e6c125b85,6685aa9113c938e83b4f1ea0,672c3370ab61b13da6f0ad01,2024-11-06_21h27.20.129,WTP_SM_Choice,2022.2.1,Win32,59.88023952,,,,,space,5.0043,NAN,,NAN,1.96,4.04,,0,67,67,67,1,68,Sam,Rej,Participant_Images/66b92d3b18295c1e6c125b85/66b92d3b18295c1e6c125b85_Images/66b92d3b18295c1e6c125b85_Image_5.jpeg,did not like,2.843822497,,,,,,,,,,,,,,,,,,,,,,
,,66b92d3b18295c1e6c125b85,6685aa9113c938e83b4f1ea0,672c3370ab61b13da6f0ad01,2024-11-06_21h27.20.129,WTP_SM_Choice,2022.2.1,Win32,59.88023952,,,,,space,1.3844,NAN,,NAN,1.96,4.04,,0,68,68,68,1,69,Sam,Rej,Participant_Images/66b92d3b18295c1e6c125b85/66b92d3b18295c1e6c125b85_Images/66b92d3b18295c1e6c125b85_Image_2.jpeg,did not like,3.546495948,,,,,,,,,,,,,,,,,,,,,,
,,66b92d3b18295c1e6c125b85,6685aa9113c938e83b4f1ea0,672c3370ab61b13da6f0ad01,2024-11-06_21h27.20.129,WTP_SM_Choice,2022.2.1,Win32,59.88023952,,,,,,,,,,,,,,,,,,66,,,,,,space,0.8006,space,0.403,0.01,1,1.603,0,0,0,0,1,Visit museums with my classmates on our art history trips,Solve puzzles on a rainy afternoon while drinking hot cocoa,0.01,0.04,1.1,0,,,,
,,66b92d3b18295c1e6c125b85,6685aa9113c938e83b4f1ea0,672c3370ab61b13da6f0ad01,2024-11-06_21h27.20.129,WTP_SM_Choice,2022.2.1,Win32,59.88023952,,,,,,,,,,,,,,,,,,67,,,,,,,,,,0.02,1,2.3553,0,1,1,1,1,Visit museums with my classmates on our art history trips,Look at stars in my backyard with a blanket and coffee,0.02,0.04,8.8,0,,,,
,,66b92d3b18295c1e6c125b85,6685aa9113c938e83b4f1ea0,672c3370ab61b13da6f0ad01,2024-11-06_21h27.20.129,WTP_SM_Choice,2022.2.1,Win32,59.88023952,,,,,,,,,,,,,,,,,,68,,,,,,,,,,0.04,2,1.1702,0,2,2,2,1,Take yoga classes with my sister at the local gym,Do yoga in my bedroom with soft music playing,0.03,0.04,4.4,0,,,,
,,66b92d3b18295c1e6c125b85,6685aa9113c938e83b4f1ea0,672c3370ab61b13da6f0ad01,2024-11-06_21h27.20.129,WTP_SM_Choice,2022.2.1,Win32,59.88023952,,,,,,,,,,,,,,,,,,69,,,,,,,,,,0.04,2,1.7328,0,3,3,3,1,Learn new recipes with my parents in cooking classes,Draw pictures at a quiet park bench during sunset,0.04,0.04,1.1,0,,,,
,,66b92d3b18295c1e6c125b85,6685aa9113c938e83b4f1ea0,672c3370ab61b13da6f0ad01,2024-11-06_21h27.20.129,WTP_SM_Choice,2022.2.1,Win32,59.88023952,,,,,,,,,,,,,,,,,,70,,,,,,,,,,0.04,2,2.965,0,4,4,4,1,Cook dinner together with my partner while listening to music,Do yoga in my bedroom with soft music playing,0.05,0.04,1.1,0,,,,
,,66b92d3b18295c1e6c125b85,6685aa9113c938e83b4f1ea0,672c3370ab61b13da6f0ad01,2024-11-06_21h27.20.129,WTP_SM_Choice,2022.2.1,Win32,59.88023952,,,,,,,NAN,,NAN,2.11,3.89,,0,69,69,69,1,70,Sam,Rej,Participant_Images/66b92d3b18295c1e6c125b85/66b92d3b18295c1e6c125b85_Images/66b92d3b18295c1e6c125b85_Image_21.jpeg,liked,1.672012706,,,,,,,,,,,,,,,,,,,,,,
,,66b92d3b18295c1e6c125b85,6685aa9113c938e83b4f1ea0,672c3370ab61b13da6f0ad01,2024-11-06_21h27.20.129,WTP_SM_Choice,2022.2.1,Win32,59.88023952,,,,,space,0.6715,NAN,,NAN,2.11,3.89,,0,70,70,70,1,71,Sam,Rej,Participant_Images/66b92d3b18295c1e6c125b85/66b92d3b18295c1e6c125b85_Images/66b92d3b18295c1e6c125b85_Image_16.jpeg,did not like,4.942172136,,,,,,,,,,,,,,,,,,,,,,
,,66b92d3b18295c1e6c125b85,6685aa9113c938e83b4f1ea0,672c3370ab61b13da6f0ad01,2024-11-06_21h27.20.129,WTP_SM_Choice,2022.2.1,Win32,59.88023952,,,,,space,0.7466,NAN,,NAN,2.11,3.89,,0,71,71,71,1,72,Sam,Rej,Participant_Images/66b92d3b18295c1e6c125b85/66b92d3b18295c1e6c125b85_Images/66b92d3b18295c1e6c125b85_Image_14.jpeg,did not like,2.50187214,,,,,,,,,,,,,,,,,,,,,,
,,66b92d3b18295c1e6c125b85,6685aa9113c938e83b4f1ea0,672c3370ab61b13da6f0ad01,2024-11-06_21h27.20.129,WTP_SM_Choice,2022.2.1,Win32,59.88023952,,,,,space,1.1048,NAN,,NAN,2.11,3.89,,0,72,72,72,1,73,Sam,Rej,Participant_Images/66b92d3b18295c1e6c125b85/66b92d3b18295c1e6c125b85_Images/66b92d3b18295c1e6c125b85_Image_13.jpeg,liked,2.071164779,,,,,,,,,,,,,,,,,,,,,,
,,66b92d3b18295c1e6c125b85,6685aa9113c938e83b4f1ea0,672c3370ab61b13da6f0ad01,2024-11-06_21h27.20.129,WTP_SM_Choice,2022.2.1,Win32,59.88023952,,,,,space,0.8699,NAN,,NAN,2.11,3.89,,0,73,73,73,1,74,Sam,Rej,Participant_Images/66b92d3b18295c1e6c125b85/66b92d3b18295c1e6c125b85_Images/66b92d3b18295c1e6c125b85_Image_6.jpeg,did not like,5.336503566,,,,,,,,,,,,,,,,,,,,,,
,,66b92d3b18295c1e6c125b85,6685aa9113c938e83b4f1ea0,672c3370ab61b13da6f0ad01,2024-11-06_21h27.20.129,WTP_SM_Choice,2022.2.1,Win32,59.88023952,,,,,,,,,,,,,,,,,,71,,,,,,space,0.7843,space,0.3842,0.05,2,2.126,0,0,0,0,1,Look at stars in my backyard with a blanket and coffee,Help at the animal shelter with my friends on Saturday mornings,0.01,0.05,3.3,1,,,,
,,66b92d3b18295c1e6c125b85,6685aa9113c938e83b4f1ea0,672c3370ab61b13da6f0ad01,2024-11-06_21h27.20.129,WTP_SM_Choice,2022.2.1,Win32,59.88023952,,,,,,,,,,,,,,,,,,72,,,,,,,,,,0.05,2,1.7437,0,1,1,1,1,Look at stars in my backyard with a blanket and coffee,Go to concerts with my best friend to see our favorite bands,0.02,0.05,8.8,1,,,,
,,66b92d3b18295c1e6c125b85,6685aa9113c938e83b4f1ea0,672c3370ab61b13da6f0ad01,2024-11-06_21h27.20.129,WTP_SM_Choice,2022.2.1,Win32,59.88023952,,,,,,,,,,,,,,,,,,73,,,,,,,,,,0.05,2,1.5092,0,2,2,2,1,Learn new recipes with my parents in cooking classes,Do yoga in my bedroom with soft music playing,0.03,0.05,3.3,0,,,,
,,66b92d3b18295c1e6c125b85,6685aa9113c938e83b4f1ea0,672c3370ab61b13da6f0ad01,2024-11-06_21h27.20.129,WTP_SM_Choice,2022.2.1,Win32,59.88023952,,,,,,,,,,,,,,,,,,74,,,,,,,,,,0.04,1,1.3231,0,3,3,3,1,Have BBQs in the backyard with neighbors in the summer evenings,Solve puzzles on a rainy afternoon while drinking hot cocoa,0.04,0.05,4.4,0,,,,
,,66b92d3b18295c1e6c125b85,6685aa9113c938e83b4f1ea0,672c3370ab61b13da6f0ad01,2024-11-06_21h27.20.129,WTP_SM_Choice,2022.2.1,Win32,59.88023952,,,,,,,,,,,,,,,,,,75,,,,,,,,,,0.05,1,1.7522,0,4,4,4,1,Write poems in my favorite cafe with a warm cup of tea,Have BBQs in the backyard with neighbors in the summer evenings,0.05,0.05,3.3,1,,,,
,,66b92d3b18295c1e6c125b85,6685aa9113c938e83b4f1ea0,672c3370ab61b13da6f0ad01,2024-11-06_21h27.20.129,WTP_SM_Choice,2022.2.1,Win32,59.88023952,,,,,,,5,,5,2.35,3.65,,0,74,74,74,1,75,Sam,Rej,Participant_Images/66b92d3b18295c1e6c125b85/66b92d3b18295c1e6c125b85_Images/66b92d3b18295c1e6c125b85_Image_1.jpeg,did not like,2.642157193,,,,,,,,,,,,,,,,,,,space,1.5046,,
,,66b92d3b18295c1e6c125b85,6685aa9113c938e83b4f1ea0,672c3370ab61b13da6f0ad01,2024-11-06_21h27.20.129,WTP_SM_Choice,2022.2.1,Win32,59.88023952,,,space,2.4382,space,1.126,NAN,,NAN,2.35,3.65,,0,75,75,75,1,76,Alex,Acc,Participant_Images/66b92d3b18295c1e6c125b85/66b92d3b18295c1e6c125b85_Images/66b92d3b18295c1e6c125b85_Image_17.jpeg,did not like,4.456234322,,,,,,,,,,,,,,,,,,,,,,
,,66b92d3b18295c1e6c125b85,6685aa9113c938e83b4f1ea0,672c3370ab61b13da6f0ad01,2024-11-06_21h27.20.129,WTP_SM_Choice,2022.2.1,Win32,59.88023952,,,,,space,0.9344,NAN,,NAN,2.35,3.65,,0,76,76,76,1,77,Alex,Acc,Participant_Images/66b92d3b18295c1e6c125b85/66b92d3b18295c1e6c125b85_Images/66b92d3b18295c1e6c125b85_Image_18.jpeg,did not like,4.438512181,,,,,,,,,,,,,,,,,,,,,,
,,66b92d3b18295c1e6c125b85,6685aa9113c938e83b4f1ea0,672c3370ab61b13da6f0ad01,2024-11-06_21h27.20.129,WTP_SM_Choice,2022.2.1,Win32,59.88023952,,,,,space,0.7384,NAN,,NAN,2.35,3.65,,0,77,77,77,1,78,Alex,Acc,Participant_Images/66b92d3b18295c1e6c125b85/66b92d3b18295c1e6c125b85_Images/66b92d3b18295c1e6c125b85_Image_7.jpeg,liked,2.682944783,,,,,,,,,,,,,,,,,,,,,,
,,66b92d3b18295c1e6c125b85,6685aa9113c938e83b4f1ea0,672c3370ab61b13da6f0ad01,2024-11-06_21h27.20.129,WTP_SM_Choice,2022.2.1,Win32,59.88023952,,,,,space,0.7559,NAN,,NAN,2.35,3.65,,0,78,78,78,1,79,Alex,Acc,Participant_Images/66b92d3b18295c1e6c125b85/66b92d3b18295c1e6c125b85_Images/66b92d3b18295c1e6c125b85_Image_13.jpeg,liked,4.51984296,,,,,,,,,,,,,,,,,,,,,,
,,66b92d3b18295c1e6c125b85,6685aa9113c938e83b4f1ea0,672c3370ab61b13da6f0ad01,2024-11-06_21h27.20.129,WTP_SM_Choice,2022.2.1,Win32,59.88023952,,,,,,,,,,,,,,,,,,76,,,,,,space,0.6467,space,0.3198,0.01,1,2.8856,0,0,0,0,1,Write poems in my favorite cafe with a warm cup of tea,Help at the animal shelter with my friends on Saturday mornings,0.01,0.01,1.1,1,,,,
,,66b92d3b18295c1e6c125b85,6685aa9113c938e83b4f1ea0,672c3370ab61b13da6f0ad01,2024-11-06_21h27.20.129,WTP_SM_Choice,2022.2.1,Win32,59.88023952,,,,,,,,,,,,,,,,,,77,,,,,,,,,,0.02,1,1.1425,0,1,1,1,1,Cook dinner together with my partner while listening to music,Solve puzzles on a rainy afternoon while drinking hot cocoa,0.02,0.01,8.8,0,,,,
,,66b92d3b18295c1e6c125b85,6685aa9113c938e83b4f1ea0,672c3370ab61b13da6f0ad01,2024-11-06_21h27.20.129,WTP_SM_Choice,2022.2.1,Win32,59.88023952,,,,,,,,,,,,,,,,,,78,,,,,,,,,,0.01,2,2.1606,0,2,2,2,1,Take care of my flowers and vegetables in my backyard,Help at the animal shelter with my friends on Saturday mornings,0.03,0.01,1.1,1,,,,
,,66b92d3b18295c1e6c125b85,6685aa9113c938e83b4f1ea0,672c3370ab61b13da6f0ad01,2024-11-06_21h27.20.129,WTP_SM_Choice,2022.2.1,Win32,59.88023952,,,,,,,,,,,,,,,,,,79,,,,,,,,,,0.01,2,1.7512,0,3,3,3,1,Have movie nights with my friends sharing popcorn and watching films,Take care of my flowers and vegetables in my backyard,0.04,0.01,1.1,0,,,,
,,66b92d3b18295c1e6c125b85,6685aa9113c938e83b4f1ea0,672c3370ab61b13da6f0ad01,2024-11-06_21h27.20.129,WTP_SM_Choice,2022.2.1,Win32,59.88023952,,,,,,,,,,,,,,,,,,80,,,,,,,,,,0.01,2,2.3603,0,4,4,4,1,Cook dinner together with my partner while listening to music,Walk on a local nature trail in the cool autumn morning,0.05,0.01,4.4,0,,,,
,,66b92d3b18295c1e6c125b85,6685aa9113c938e83b4f1ea0,672c3370ab61b13da6f0ad01,2024-11-06_21h27.20.129,WTP_SM_Choice,2022.2.1,Win32,59.88023952,,,,,,,NAN,,NAN,2.41,3.59,,0,79,79,79,1,80,Alex,Acc,Participant_Images/66b92d3b18295c1e6c125b85/66b92d3b18295c1e6c125b85_Images/66b92d3b18295c1e6c125b85_Image_15.jpeg,liked,3.195382774,,,,,,,,,,,,,,,,,,,,,,
,,66b92d3b18295c1e6c125b85,6685aa9113c938e83b4f1ea0,672c3370ab61b13da6f0ad01,2024-11-06_21h27.20.129,WTP_SM_Choice,2022.2.1,Win32,59.88023952,,,,,space,2.0206,NAN,,NAN,2.41,3.59,,0,80,80,80,1,81,Alex,Acc,Participant_Images/66b92d3b18295c1e6c125b85/66b92d3b18295c1e6c125b85_Images/66b92d3b18295c1e6c125b85_Image_5.jpeg,did not like,1.779333479,,,,,,,,,,,,,,,,,,,,,,
,,66b92d3b18295c1e6c125b85,6685aa9113c938e83b4f1ea0,672c3370ab61b13da6f0ad01,2024-11-06_21h27.20.129,WTP_SM_Choice,2022.2.1,Win32,59.88023952,,,,,space,0.8015,NAN,,NAN,2.41,3.59,,0,81,81,81,1,82,Alex,Acc,Participant_Images/66b92d3b18295c1e6c125b85/66b92d3b18295c1e6c125b85_Images/66b92d3b18295c1e6c125b85_Image_4.jpeg,liked,4.312468682,,,,,,,,,,,,,,,,,,,,,,
,,66b92d3b18295c1e6c125b85,6685aa9113c938e83b4f1ea0,672c3370ab61b13da6f0ad01,2024-11-06_21h27.20.129,WTP_SM_Choice,2022.2.1,Win32,59.88023952,,,,,space,0.7308,NAN,,NAN,2.41,3.59,,0,82,82,82,1,83,Alex,Acc,Participant_Images/66b92d3b18295c1e6c125b85/66b92d3b18295c1e6c125b85_Images/66b92d3b18295c1e6c125b85_Image_8.jpeg,liked,4.940433059,,,,,,,,,,,,,,,,,,,,,,
,,66b92d3b18295c1e6c125b85,6685aa9113c938e83b4f1ea0,672c3370ab61b13da6f0ad01,2024-11-06_21h27.20.129,WTP_SM_Choice,2022.2.1,Win32,59.88023952,,,,,space,1.0106,NAN,,NAN,2.41,3.59,,0,83,83,83,1,84,Alex,Acc,Participant_Images/66b92d3b18295c1e6c125b85/66b92d3b18295c1e6c125b85_Images/66b92d3b18295c1e6c125b85_Image_1.jpeg,liked,2.7105123,,,,,,,,,,,,,,,,,,,,,,
,,66b92d3b18295c1e6c125b85,6685aa9113c938e83b4f1ea0,672c3370ab61b13da6f0ad01,2024-11-06_21h27.20.129,WTP_SM_Choice,2022.2.1,Win32,59.88023952,,,,,,,,,,,,,,,,,,81,,,,,,space,0.8803,space,0.3996,0.01,1,2.6229,0,0,0,0,1,Draw pictures at a quiet park bench during sunset,Help at the animal shelter with my friends on Saturday mornings,0.01,0.02,3.3,1,,,,
,,66b92d3b18295c1e6c125b85,6685aa9113c938e83b4f1ea0,672c3370ab61b13da6f0ad01,2024-11-06_21h27.20.129,WTP_SM_Choice,2022.2.1,Win32,59.88023952,,,,,,,,,,,,,,,,,,82,,,,,,,,,,0.02,1,1.2568,0,1,1,1,1,Draw pictures at a quiet park bench during sunset,Have movie nights with my friends sharing popcorn and watching films,0.02,0.02,4.4,1,,,,
,,66b92d3b18295c1e6c125b85,6685aa9113c938e83b4f1ea0,672c3370ab61b13da6f0ad01,2024-11-06_21h27.20.129,WTP_SM_Choice,2022.2.1,Win32,59.88023952,,,,,,,,,,,,,,,,,,83,,,,,,,,,,0.03,1,1.7449,0,2,2,2,1,Cook dinner together with my partner while listening to music,Look at stars in my backyard with a blanket and coffee,0.03,0.02,1.1,0,,,,
,,66b92d3b18295c1e6c125b85,6685aa9113c938e83b4f1ea0,672c3370ab61b13da6f0ad01,2024-11-06_21h27.20.129,WTP_SM_Choice,2022.2.1,Win32,59.88023952,,,,,,,,,,,,,,,,,,84,,,,,,,,,,0.02,2,2.0333,0,3,3,3,1,Look at stars in my backyard with a blanket and coffee,Learn new recipes with my parents in cooking classes,0.04,0.02,3.3,1,,,,
,,66b92d3b18295c1e6c125b85,6685aa9113c938e83b4f1ea0,672c3370ab61b13da6f0ad01,2024-11-06_21h27.20.129,WTP_SM_Choice,2022.2.1,Win32,59.88023952,,,,,,,,,,,,,,,,,,85,,,,,,,,,,0.05,1,1.8538,0,4,4,4,1,Go to concerts with my best friend to see our favorite bands,Cook new recipes in my kitchen while listening to a podcast,0.05,0.02,3.3,0,,,,
,,66b92d3b18295c1e6c125b85,6685aa9113c938e83b4f1ea0,672c3370ab61b13da6f0ad01,2024-11-06_21h27.20.129,WTP_SM_Choice,2022.2.1,Win32,59.88023952,,,,,,,NAN,,NAN,2.54,3.46,,0,84,84,84,1,85,Alex,Acc,Participant_Images/66b92d3b18295c1e6c125b85/66b92d3b18295c1e6c125b85_Images/66b92d3b18295c1e6c125b85_Image_20.jpeg,liked,3.602308302,,,,,,,,,,,,,,,,,,,,,,
,,66b92d3b18295c1e6c125b85,6685aa9113c938e83b4f1ea0,672c3370ab61b13da6f0ad01,2024-11-06_21h27.20.129,WTP_SM_Choice,2022.2.1,Win32,59.88023952,,,,,space,1.4825,NAN,,NAN,2.54,3.46,,0,85,85,85,1,86,Alex,Acc,Participant_Images/66b92d3b18295c1e6c125b85/66b92d3b18295c1e6c125b85_Images/66b92d3b18295c1e6c125b85_Image_16.jpeg,liked,4.106391878,,,,,,,,,,,,,,,,,,,,,,
,,66b92d3b18295c1e6c125b85,6685aa9113c938e83b4f1ea0,672c3370ab61b13da6f0ad01,2024-11-06_21h27.20.129,WTP_SM_Choice,2022.2.1,Win32,59.88023952,,,,,space,0.9417,NAN,,NAN,2.54,3.46,,0,86,86,86,1,87,Alex,Acc,Participant_Images/66b92d3b18295c1e6c125b85/66b92d3b18295c1e6c125b85_Images/66b92d3b18295c1e6c125b85_Image_23.jpeg,liked,3.799433026,,,,,,,,,,,,,,,,,,,,,,
,,66b92d3b18295c1e6c125b85,6685aa9113c938e83b4f1ea0,672c3370ab61b13da6f0ad01,2024-11-06_21h27.20.129,WTP_SM_Choice,2022.2.1,Win32,59.88023952,,,,,space,0.7435,NAN,,NAN,2.54,3.46,,0,87,87,87,1,88,Alex,Acc,Participant_Images/66b92d3b18295c1e6c125b85/66b92d3b18295c1e6c125b85_Images/66b92d3b18295c1e6c125b85_Image_24.jpeg,did not like,5.246980764,,,,,,,,,,,,,,,,,,,,,,
,,66b92d3b18295c1e6c125b85,6685aa9113c938e83b4f1ea0,672c3370ab61b13da6f0ad01,2024-11-06_21h27.20.129,WTP_SM_Choice,2022.2.1,Win32,59.88023952,,,,,space,0.7349,NAN,,NAN,2.54,3.46,,0,88,88,88,1,89,Alex,Acc,Participant_Images/66b92d3b18295c1e6c125b85/66b92d3b18295c1e6c125b85_Images/66b92d3b18295c1e6c125b85_Image_25.jpeg,did not like,3.30081769,,,,,,,,,,,,,,,,,,,,,,
,,66b92d3b18295c1e6c125b85,6685aa9113c938e83b4f1ea0,672c3370ab61b13da6f0ad01,2024-11-06_21h27.20.129,WTP_SM_Choice,2022.2.1,Win32,59.88023952,,,,,,,,,,,,,,,,,,86,,,,,,space,0.1788,space,1.0012,0.03,2,2.3139,0,0,0,0,1,Read fantasy books in a cozy corner of my living room,Help at the animal shelter with my friends on Saturday mornings,0.01,0.03,1.1,1,,,,
,,66b92d3b18295c1e6c125b85,6685aa9113c938e83b4f1ea0,672c3370ab61b13da6f0ad01,2024-11-06_21h27.20.129,WTP_SM_Choice,2022.2.1,Win32,59.88023952,,,,,,,,,,,,,,,,,,87,,,,,,,,,,0.02,1,1.2667,0,1,1,1,1,Solve puzzles on a rainy afternoon while drinking hot cocoa,Have movie nights with my friends sharing popcorn and watching films,0.02,0.03,4.4,1,,,,
,,66b92d3b18295c1e6c125b85,6685aa9113c938e83b4f1ea0,672c3370ab61b13da6f0ad01,2024-11-06_21h27.20.129,WTP_SM_Choice,2022.2.1,Win32,59.88023952,,,,,,,,,,,,,,,,,,88,,,,,,,,,,0.03,2,1.3001,0,2,2,2,1,Visit museums with my classmates on our art history trips,Do yoga in my bedroom with soft music playing,0.03,0.03,1.1,0,,,,
,,66b92d3b18295c1e6c125b85,6685aa9113c938e83b4f1ea0,672c3370ab61b13da6f0ad01,2024-11-06_21h27.20.129,WTP_SM_Choice,2022.2.1,Win32,59.88023952,,,,,,,,,,,,,,,,,,89,,,,,,,,,,0.03,2,0.879,0,3,3,3,1,Play board games with my family on cozy Saturday nights,Look at stars in my backyard with a blanket and coffee,0.04,0.03,3.3,0,,,,
,,66b92d3b18295c1e6c125b85,6685aa9113c938e83b4f1ea0,672c3370ab61b13da6f0ad01,2024-11-06_21h27.20.129,WTP_SM_Choice,2022.2.1,Win32,59.88023952,,,,,,,,,,,,,,,,,,90,,,,,,,,,,0.03,2,1.3207,0,4,4,4,1,Go to concerts with my best friend to see our favorite bands,Do yoga in my bedroom with soft music playing,0.05,0.03,8.8,0,,,,
,,66b92d3b18295c1e6c125b85,6685aa9113c938e83b4f1ea0,672c3370ab61b13da6f0ad01,2024-11-06_21h27.20.129,WTP_SM_Choice,2022.2.1,Win32,59.88023952,,,,,,,NAN,,NAN,2.68,3.32,,0,89,89,89,1,90,Alex,Acc,Participant_Images/66b92d3b18295c1e6c125b85/66b92d3b18295c1e6c125b85_Images/66b92d3b18295c1e6c125b85_Image_14.jpeg,liked,1.661473164,,,,,,,,,,,,,,,,,,,,,,
,,66b92d3b18295c1e6c125b85,6685aa9113c938e83b4f1ea0,672c3370ab61b13da6f0ad01,2024-11-06_21h27.20.129,WTP_SM_Choice,2022.2.1,Win32,59.88023952,,,,,space,1.2998,NAN,,NAN,2.68,3.32,,0,90,90,90,1,91,Alex,Acc,Participant_Images/66b92d3b18295c1e6c125b85/66b92d3b18295c1e6c125b85_Images/66b92d3b18295c1e6c125b85_Image_2.jpeg,liked,3.613205605,,,,,,,,,,,,,,,,,,,,,,
,,66b92d3b18295c1e6c125b85,6685aa9113c938e83b4f1ea0,672c3370ab61b13da6f0ad01,2024-11-06_21h27.20.129,WTP_SM_Choice,2022.2.1,Win32,59.88023952,,,,,space,0.6604,NAN,,NAN,2.68,3.32,,0,91,91,91,1,92,Alex,Acc,Participant_Images/66b92d3b18295c1e6c125b85/66b92d3b18295c1e6c125b85_Images/66b92d3b18295c1e6c125b85_Image_21.jpeg,liked,4.988446431,,,,,,,,,,,,,,,,,,,,,,
,,66b92d3b18295c1e6c125b85,6685aa9113c938e83b4f1ea0,672c3370ab61b13da6f0ad01,2024-11-06_21h27.20.129,WTP_SM_Choice,2022.2.1,Win32,59.88023952,,,,,space,0.7289,NAN,,NAN,2.68,3.32,,0,92,92,92,1,93,Alex,Acc,Participant_Images/66b92d3b18295c1e6c125b85/66b92d3b18295c1e6c125b85_Images/66b92d3b18295c1e6c125b85_Image_19.jpeg,liked,3.470791822,,,,,,,,,,,,,,,,,,,,,,
,,66b92d3b18295c1e6c125b85,6685aa9113c938e83b4f1ea0,672c3370ab61b13da6f0ad01,2024-11-06_21h27.20.129,WTP_SM_Choice,2022.2.1,Win32,59.88023952,,,,,space,0.7887,NAN,,NAN,2.68,3.32,,0,93,93,93,1,94,Alex,Acc,Participant_Images/66b92d3b18295c1e6c125b85/66b92d3b18295c1e6c125b85_Images/66b92d3b18295c1e6c125b85_Image_12.jpeg,liked,3.820572462,,,,,,,,,,,,,,,,,,,,,,
,,66b92d3b18295c1e6c125b85,6685aa9113c938e83b4f1ea0,672c3370ab61b13da6f0ad01,2024-11-06_21h27.20.129,WTP_SM_Choice,2022.2.1,Win32,59.88023952,,,,,,,,,,,,,,,,,,91,,,,,,space,0.7727,space,0.2814,0.04,2,1.8454,0,0,0,0,1,Walk on a local nature trail in the cool autumn morning,Take yoga classes with my sister at the local gym,0.01,0.04,3.3,1,,,,
,,66b92d3b18295c1e6c125b85,6685aa9113c938e83b4f1ea0,672c3370ab61b13da6f0ad01,2024-11-06_21h27.20.129,WTP_SM_Choice,2022.2.1,Win32,59.88023952,,,,,,,,,,,,,,,,,,92,,,,,,,,,,0.02,1,1.835,0,1,1,1,1,Cook new recipes in my kitchen while listening to a podcast,Have movie nights with my friends sharing popcorn and watching films,0.02,0.04,8.8,1,,,,
,,66b92d3b18295c1e6c125b85,6685aa9113c938e83b4f1ea0,672c3370ab61b13da6f0ad01,2024-11-06_21h27.20.129,WTP_SM_Choice,2022.2.1,Win32,59.88023952,,,,,,,,,,,,,,,,,,93,,,,,,,,,,,,,0,2,2,2,1,Solve puzzles on a rainy afternoon while drinking hot cocoa,Go to concerts with my best friend to see our favorite bands,0.03,0.04,1.1,1,,,,
,,66b92d3b18295c1e6c125b85,6685aa9113c938e83b4f1ea0,672c3370ab61b13da6f0ad01,2024-11-06_21h27.20.129,WTP_SM_Choice,2022.2.1,Win32,59.88023952,,,,,,,,,,,,,,,,,,94,,,,,,,,,,0.04,1,1.148,0,3,3,3,1,Write in my journal at the beach while listening to the waves,Have movie nights with my friends sharing popcorn and watching films,0.04,0.04,4.4,1,,,,
,,66b92d3b18295c1e6c125b85,6685aa9113c938e83b4f1ea0,672c3370ab61b13da6f0ad01,2024-11-06_21h27.20.129,WTP_SM_Choice,2022.2.1,Win32,59.88023952,,,,,,,,,,,,,,,,,,95,,,,,,,,,,0.04,2,1.6191,0,4,4,4,1,Learn new recipes with my parents in cooking classes,Write in my journal at the beach while listening to the waves,0.05,0.04,4.4,0,,,,
,,66b92d3b18295c1e6c125b85,6685aa9113c938e83b4f1ea0,672c3370ab61b13da6f0ad01,2024-11-06_21h27.20.129,WTP_SM_Choice,2022.2.1,Win32,59.88023952,,,,,,,NAN,,NAN,2.82,3.18,,0,94,94,94,1,95,Alex,Acc,Participant_Images/66b92d3b18295c1e6c125b85/66b92d3b18295c1e6c125b85_Images/66b92d3b18295c1e6c125b85_Image_10.jpeg,liked,2.455989137,,,,,,,,,,,,,,,,,,,,,,
,,66b92d3b18295c1e6c125b85,6685aa9113c938e83b4f1ea0,672c3370ab61b13da6f0ad01,2024-11-06_21h27.20.129,WTP_SM_Choice,2022.2.1,Win32,59.88023952,,,,,space,1.2149,NAN,,NAN,2.82,3.18,,0,95,95,95,1,96,Alex,Acc,Participant_Images/66b92d3b18295c1e6c125b85/66b92d3b18295c1e6c125b85_Images/66b92d3b18295c1e6c125b85_Image_6.jpeg,did not like,3.79605092,,,,,,,,,,,,,,,,,,,,,,
,,66b92d3b18295c1e6c125b85,6685aa9113c938e83b4f1ea0,672c3370ab61b13da6f0ad01,2024-11-06_21h27.20.129,WTP_SM_Choice,2022.2.1,Win32,59.88023952,,,,,space,1.2164,NAN,,NAN,2.82,3.18,,0,96,96,96,1,97,Alex,Acc,Participant_Images/66b92d3b18295c1e6c125b85/66b92d3b18295c1e6c125b85_Images/66b92d3b18295c1e6c125b85_Image_11.jpeg,liked,3.562416326,,,,,,,,,,,,,,,,,,,,,,
,,66b92d3b18295c1e6c125b85,6685aa9113c938e83b4f1ea0,672c3370ab61b13da6f0ad01,2024-11-06_21h27.20.129,WTP_SM_Choice,2022.2.1,Win32,59.88023952,,,,,space,0.7953,NAN,,NAN,2.82,3.18,,0,97,97,97,1,98,Alex,Acc,Participant_Images/66b92d3b18295c1e6c125b85/66b92d3b18295c1e6c125b85_Images/66b92d3b18295c1e6c125b85_Image_3.jpeg,liked,2.843822497,,,,,,,,,,,,,,,,,,,,,,
,,66b92d3b18295c1e6c125b85,6685aa9113c938e83b4f1ea0,672c3370ab61b13da6f0ad01,2024-11-06_21h27.20.129,WTP_SM_Choice,2022.2.1,Win32,59.88023952,,,,,space,0.8197,NAN,,NAN,2.82,3.18,,0,98,98,98,1,99,Alex,Acc,Participant_Images/66b92d3b18295c1e6c125b85/66b92d3b18295c1e6c125b85_Images/66b92d3b18295c1e6c125b85_Image_9.jpeg,liked,3.546495948,,,,,,,,,,,,,,,,,,,,,,
,,66b92d3b18295c1e6c125b85,6685aa9113c938e83b4f1ea0,672c3370ab61b13da6f0ad01,2024-11-06_21h27.20.129,WTP_SM_Choice,2022.2.1,Win32,59.88023952,,,,,,,,,,,,,,,,,,96,,,,,,space,0.8011,space,0.2845,0.05,2,1.7786,0,0,0,0,1,Solve puzzles on a rainy afternoon while drinking hot cocoa,Learn new recipes with my parents in cooking classes,0.01,0.05,3.3,1,,,,
,,66b92d3b18295c1e6c125b85,6685aa9113c938e83b4f1ea0,672c3370ab61b13da6f0ad01,2024-11-06_21h27.20.129,WTP_SM_Choice,2022.2.1,Win32,59.88023952,,,,,,,,,,,,,,,,,,97,,,,,,,,,,0.02,1,0.7985,0,1,1,1,1,Take yoga classes with my sister at the local gym,Solve puzzles on a rainy afternoon while drinking hot cocoa,0.02,0.05,1.1,0,,,,
,,66b92d3b18295c1e6c125b85,6685aa9113c938e83b4f1ea0,672c3370ab61b13da6f0ad01,2024-11-06_21h27.20.129,WTP_SM_Choice,2022.2.1,Win32,59.88023952,,,,,,,,,,,,,,,,,,98,,,,,,,,,,0.05,2,1.6239,0,2,2,2,1,Look at stars in my backyard with a blanket and coffee,Take yoga classes with my sister at the local gym,0.03,0.05,1.1,1,,,,
,,66b92d3b18295c1e6c125b85,6685aa9113c938e83b4f1ea0,672c3370ab61b13da6f0ad01,2024-11-06_21h27.20.129,WTP_SM_Choice,2022.2.1,Win32,59.88023952,,,,,,,,,,,,,,,,,,99,,,,,,,,,,0.05,2,1.3502,0,3,3,3,1,Play board games with my family on cozy Saturday nights,Do yoga in my bedroom with soft music playing,0.04,0.05,3.3,0,,,,
,,66b92d3b18295c1e6c125b85,6685aa9113c938e83b4f1ea0,672c3370ab61b13da6f0ad01,2024-11-06_21h27.20.129,WTP_SM_Choice,2022.2.1,Win32,59.88023952,,,,,,,,,,,,,,,,,,100,,,,,,,,,,0.05,1,2.4005,0,4,4,4,1,Cook dinner together with my partner while listening to music,Cook new recipes in my kitchen while listening to a podcast,0.05,0.05,4.4,0,,,,
,,66b92d3b18295c1e6c125b85,6685aa9113c938e83b4f1ea0,672c3370ab61b13da6f0ad01,2024-11-06_21h27.20.129,WTP_SM_Choice,2022.2.1,Win32,59.88023952,,,,,,,5,,5,3.04,2.96,,0,99,99,99,1,100,Alex,Acc,Participant_Images/66b92d3b18295c1e6c125b85/66b92d3b18295c1e6c125b85_Images/66b92d3b18295c1e6c125b85_Image_22.jpeg,did not like,1.672012706,,,,,,,,,,,,,,,,,,,space,2.6209,,
,,66b92d3b18295c1e6c125b85,6685aa9113c938e83b4f1ea0,672c3370ab61b13da6f0ad01,2024-11-06_21h27.20.129,WTP_SM_Choice,2022.2.1,Win32,59.88023952,,,,,,,,,,,,,,,,,,,,,,,,,,,,,,,,,,,,,,,,,,,,space,3.4044
