endwelcomescreen_keys.keys,endwelcomescreen_keys.rt,participant,STUDY_ID,SESSION_ID,date,expName,psychopyVersion,OS,frameRate,endinstructionscreen_keys.keys,endinstructionscreen_keys.rt,endpartnermatch_keys.keys,endpartnermatch_keys.rt,sharenextphoto_key.keys,sharenextphoto_key.rt,salience_rating,key_resp.keys,stress_level,subtract_bonus,TOTAL_TASK_BONUS,stresslevel_keypress.keys,entiretaskloop.thisRepN,entiretaskloop.thisTrialN,entiretaskloop.thisN,entiretaskloop.thisIndex,entiretaskloop.ran,TrialNumber,Partner,Condition,Photos,Feedback,FeedbackWait,WTP_ins_keys1.keys,WTP_ins_keys1.rt,WTP_ins_keys2.keys,WTP_ins_keys2.rt,decision_price,responses.keys,responses.rt,WTPTaskLoop.thisRepN,WTPTaskLoop.thisTrialN,WTPTaskLoop.thisN,WTPTaskLoop.thisIndex,WTPTaskLoop.ran,right,left,leftmoney,rightmoney,WTP_ITI,social_left,Resume_keys.keys,Resume_keys.rt,end_screen_keys.keys,end_screen_keys.rt
space,10.5714,66ba909954ae8842a7c369a4,6685aa9113c938e83b4f1ea0,66fb989748a60f6626dde607,2024-10-01_08h08.12.992,WTP_SM_Choice,2022.2.1,MacIntel,59.17159763,,,,,,,,,,,,,,,,,,,,,,,,,,,,,,,,,,,,,,,,,,,,,
,,66ba909954ae8842a7c369a4,6685aa9113c938e83b4f1ea0,66fb989748a60f6626dde607,2024-10-01_08h08.12.992,WTP_SM_Choice,2022.2.1,MacIntel,59.17159763,space,101.9516,,,,,,,,,,,,,,,,,,,,,,,,,,,,,,,,,,,,,,,,,,,
,,66ba909954ae8842a7c369a4,6685aa9113c938e83b4f1ea0,66fb989748a60f6626dde607,2024-10-01_08h08.12.992,WTP_SM_Choice,2022.2.1,MacIntel,59.17159763,,,space,3.5018,space,2.38,NAN,,NAN,0,6,,0,0,0,0,1,1,Alex,Rej,Participant_Images/66ba909954ae8842a7c369a4/66ba909954ae8842a7c369a4_Images/66ba909954ae8842a7c369a4_Image_16.jpeg,did not like,3.613205605,,,,,,,,,,,,,,,,,,,,,,
,,66ba909954ae8842a7c369a4,6685aa9113c938e83b4f1ea0,66fb989748a60f6626dde607,2024-10-01_08h08.12.992,WTP_SM_Choice,2022.2.1,MacIntel,59.17159763,,,,,space,1.7524,NAN,,NAN,0,6,,0,1,1,1,1,2,Alex,Rej,Participant_Images/66ba909954ae8842a7c369a4/66ba909954ae8842a7c369a4_Images/66ba909954ae8842a7c369a4_Image_25.jpeg,liked,4.988446431,,,,,,,,,,,,,,,,,,,,,,
,,66ba909954ae8842a7c369a4,6685aa9113c938e83b4f1ea0,66fb989748a60f6626dde607,2024-10-01_08h08.12.992,WTP_SM_Choice,2022.2.1,MacIntel,59.17159763,,,,,space,1.4739,NAN,,NAN,0,6,,0,2,2,2,1,3,Alex,Rej,Participant_Images/66ba909954ae8842a7c369a4/66ba909954ae8842a7c369a4_Images/66ba909954ae8842a7c369a4_Image_1.jpeg,did not like,3.470791822,,,,,,,,,,,,,,,,,,,,,,
,,66ba909954ae8842a7c369a4,6685aa9113c938e83b4f1ea0,66fb989748a60f6626dde607,2024-10-01_08h08.12.992,WTP_SM_Choice,2022.2.1,MacIntel,59.17159763,,,,,space,1.5378,NAN,,NAN,0,6,,0,3,3,3,1,4,Alex,Rej,Participant_Images/66ba909954ae8842a7c369a4/66ba909954ae8842a7c369a4_Images/66ba909954ae8842a7c369a4_Image_15.jpeg,did not like,3.820572462,,,,,,,,,,,,,,,,,,,,,,
,,66ba909954ae8842a7c369a4,6685aa9113c938e83b4f1ea0,66fb989748a60f6626dde607,2024-10-01_08h08.12.992,WTP_SM_Choice,2022.2.1,MacIntel,59.17159763,,,,,,,,,,,,,,,,,,1,,,,,,space,17.5364,space,12.7352,0.01,2,5.6074,0,0,0,0,1,Host a bbq with my family in the backyard on a warm evening,Read a novel in bed on a chilly day under a cozy blanket,0.01,0.01,4.4,0,,,,
,,66ba909954ae8842a7c369a4,6685aa9113c938e83b4f1ea0,66fb989748a60f6626dde607,2024-10-01_08h08.12.992,WTP_SM_Choice,2022.2.1,MacIntel,59.17159763,,,,,,,,,,,,,,,,,,2,,,,,,,,,,0.01,2,5.1004,0,1,1,1,1,Play video games in my room with the window open for fresh air,Get bubble tea and walking around the mall with my best friend on a sunday,0.02,0.01,8.8,1,,,,
,,66ba909954ae8842a7c369a4,6685aa9113c938e83b4f1ea0,66fb989748a60f6626dde607,2024-10-01_08h08.12.992,WTP_SM_Choice,2022.2.1,MacIntel,59.17159763,,,,,,,,,,,,,,,,,,3,,,,,,,,,,0.03,1,4.5437,0,2,2,2,1,Sketch random doodles in my notebook at a quiet caf,Playing basketball with my cousins at the park on a sunny afternoon,0.03,0.01,3.3,1,,,,
,,66ba909954ae8842a7c369a4,6685aa9113c938e83b4f1ea0,66fb989748a60f6626dde607,2024-10-01_08h08.12.992,WTP_SM_Choice,2022.2.1,MacIntel,59.17159763,,,,,,,,,,,,,,,,,,4,,,,,,,,,,0.01,2,3.9316,0,3,3,3,1,Listen to music while journaling in my room with dim lighting,Attend a live concert with my friends in the city,0.04,0.01,1.1,1,,,,
,,66ba909954ae8842a7c369a4,6685aa9113c938e83b4f1ea0,66fb989748a60f6626dde607,2024-10-01_08h08.12.992,WTP_SM_Choice,2022.2.1,MacIntel,59.17159763,,,,,,,,,,,,,,,,,,5,,,,,,,,,,0.01,2,5.6062,0,4,4,4,1,Read a novel in bed on a chilly day under a cozy blanket,Go to the movies with my siblings on a rainy weekend,0.05,0.01,1.1,1,,,,
,,66ba909954ae8842a7c369a4,6685aa9113c938e83b4f1ea0,66fb989748a60f6626dde607,2024-10-01_08h08.12.992,WTP_SM_Choice,2022.2.1,MacIntel,59.17159763,,,,,,,NAN,,NAN,0.07,5.93,,0,4,4,4,1,5,Alex,Rej,Participant_Images/66ba909954ae8842a7c369a4/66ba909954ae8842a7c369a4_Images/66ba909954ae8842a7c369a4_Image_19.jpeg,did not like,2.455989137,,,,,,,,,,,,,,,,,,,,,,
,,66ba909954ae8842a7c369a4,6685aa9113c938e83b4f1ea0,66fb989748a60f6626dde607,2024-10-01_08h08.12.992,WTP_SM_Choice,2022.2.1,MacIntel,59.17159763,,,,,space,1.1651,NAN,,NAN,0.07,5.93,,0,5,5,5,1,6,Alex,Rej,Participant_Images/66ba909954ae8842a7c369a4/66ba909954ae8842a7c369a4_Images/66ba909954ae8842a7c369a4_Image_9.jpeg,did not like,3.79605092,,,,,,,,,,,,,,,,,,,,,,
,,66ba909954ae8842a7c369a4,6685aa9113c938e83b4f1ea0,66fb989748a60f6626dde607,2024-10-01_08h08.12.992,WTP_SM_Choice,2022.2.1,MacIntel,59.17159763,,,,,space,3.5554,NAN,,NAN,0.07,5.93,,0,6,6,6,1,7,Alex,Rej,Participant_Images/66ba909954ae8842a7c369a4/66ba909954ae8842a7c369a4_Images/66ba909954ae8842a7c369a4_Image_12.jpeg,did not like,3.562416326,,,,,,,,,,,,,,,,,,,,,,
,,66ba909954ae8842a7c369a4,6685aa9113c938e83b4f1ea0,66fb989748a60f6626dde607,2024-10-01_08h08.12.992,WTP_SM_Choice,2022.2.1,MacIntel,59.17159763,,,,,space,2.3455,NAN,,NAN,0.07,5.93,,0,7,7,7,1,8,Alex,Rej,Participant_Images/66ba909954ae8842a7c369a4/66ba909954ae8842a7c369a4_Images/66ba909954ae8842a7c369a4_Image_2.jpeg,did not like,2.843822497,,,,,,,,,,,,,,,,,,,,,,
,,66ba909954ae8842a7c369a4,6685aa9113c938e83b4f1ea0,66fb989748a60f6626dde607,2024-10-01_08h08.12.992,WTP_SM_Choice,2022.2.1,MacIntel,59.17159763,,,,,space,5.5645,NAN,,NAN,0.07,5.93,,0,8,8,8,1,9,Alex,Rej,Participant_Images/66ba909954ae8842a7c369a4/66ba909954ae8842a7c369a4_Images/66ba909954ae8842a7c369a4_Image_17.jpeg,liked,3.546495948,,,,,,,,,,,,,,,,,,,,,,
,,66ba909954ae8842a7c369a4,6685aa9113c938e83b4f1ea0,66fb989748a60f6626dde607,2024-10-01_08h08.12.992,WTP_SM_Choice,2022.2.1,MacIntel,59.17159763,,,,,,,,,,,,,,,,,,6,,,,,,space,16.3821,space,3.5442,0.01,1,5.0268,0,0,0,0,1,Read a novel in bed on a chilly day under a cozy blanket,Get bubble tea and walking around the mall with my best friend on a sunday,0.01,0.02,3.3,1,,,,
,,66ba909954ae8842a7c369a4,6685aa9113c938e83b4f1ea0,66fb989748a60f6626dde607,2024-10-01_08h08.12.992,WTP_SM_Choice,2022.2.1,MacIntel,59.17159763,,,,,,,,,,,,,,,,,,7,,,,,,,,,,0.02,2,4.1149,0,1,1,1,1,Go to the beach with my family on a hot summer day,Take a long walk in the park with my headphones on,0.02,0.02,1.1,0,,,,
,,66ba909954ae8842a7c369a4,6685aa9113c938e83b4f1ea0,66fb989748a60f6626dde607,2024-10-01_08h08.12.992,WTP_SM_Choice,2022.2.1,MacIntel,59.17159763,,,,,,,,,,,,,,,,,,8,,,,,,,,,,0.02,2,4.5849,0,2,2,2,1,Organize my closet while playing a chill playlist,Host a bbq with my family in the backyard on a warm evening,0.03,0.02,1.1,1,,,,
,,66ba909954ae8842a7c369a4,6685aa9113c938e83b4f1ea0,66fb989748a60f6626dde607,2024-10-01_08h08.12.992,WTP_SM_Choice,2022.2.1,MacIntel,59.17159763,,,,,,,,,,,,,,,,,,9,,,,,,,,,,0.02,2,4.7321,0,3,3,3,1,Attend a live concert with my friends in the city,Sketch random doodles in my notebook at a quiet caf,0.04,0.02,4.4,0,,,,
,,66ba909954ae8842a7c369a4,6685aa9113c938e83b4f1ea0,66fb989748a60f6626dde607,2024-10-01_08h08.12.992,WTP_SM_Choice,2022.2.1,MacIntel,59.17159763,,,,,,,,,,,,,,,,,,10,,,,,,,,,,0.05,1,5.5328,0,4,4,4,1,Rearrange my room furniture after getting new decor,Have a game night with my close friends at someones house on a saturday,0.05,0.02,1.1,1,,,,
,,66ba909954ae8842a7c369a4,6685aa9113c938e83b4f1ea0,66fb989748a60f6626dde607,2024-10-01_08h08.12.992,WTP_SM_Choice,2022.2.1,MacIntel,59.17159763,,,,,,,NAN,,NAN,0.19,5.81,,0,9,9,9,1,10,Alex,Rej,Participant_Images/66ba909954ae8842a7c369a4/66ba909954ae8842a7c369a4_Images/66ba909954ae8842a7c369a4_Image_21.jpeg,liked,1.672012706,,,,,,,,,,,,,,,,,,,,,,
,,66ba909954ae8842a7c369a4,6685aa9113c938e83b4f1ea0,66fb989748a60f6626dde607,2024-10-01_08h08.12.992,WTP_SM_Choice,2022.2.1,MacIntel,59.17159763,,,,,space,13.1345,NAN,,NAN,0.19,5.81,,0,10,10,10,1,11,Alex,Rej,Participant_Images/66ba909954ae8842a7c369a4/66ba909954ae8842a7c369a4_Images/66ba909954ae8842a7c369a4_Image_22.jpeg,liked,4.942172136,,,,,,,,,,,,,,,,,,,,,,
,,66ba909954ae8842a7c369a4,6685aa9113c938e83b4f1ea0,66fb989748a60f6626dde607,2024-10-01_08h08.12.992,WTP_SM_Choice,2022.2.1,MacIntel,59.17159763,,,,,space,1.4839,NAN,,NAN,0.19,5.81,,0,11,11,11,1,12,Alex,Rej,Participant_Images/66ba909954ae8842a7c369a4/66ba909954ae8842a7c369a4_Images/66ba909954ae8842a7c369a4_Image_7.jpeg,did not like,2.50187214,,,,,,,,,,,,,,,,,,,,,,
,,66ba909954ae8842a7c369a4,6685aa9113c938e83b4f1ea0,66fb989748a60f6626dde607,2024-10-01_08h08.12.992,WTP_SM_Choice,2022.2.1,MacIntel,59.17159763,,,,,space,1.2317,NAN,,NAN,0.19,5.81,,0,12,12,12,1,13,Alex,Rej,Participant_Images/66ba909954ae8842a7c369a4/66ba909954ae8842a7c369a4_Images/66ba909954ae8842a7c369a4_Image_13.jpeg,liked,2.071164779,,,,,,,,,,,,,,,,,,,,,,
,,66ba909954ae8842a7c369a4,6685aa9113c938e83b4f1ea0,66fb989748a60f6626dde607,2024-10-01_08h08.12.992,WTP_SM_Choice,2022.2.1,MacIntel,59.17159763,,,,,space,5.3322,NAN,,NAN,0.19,5.81,,0,13,13,13,1,14,Alex,Rej,Participant_Images/66ba909954ae8842a7c369a4/66ba909954ae8842a7c369a4_Images/66ba909954ae8842a7c369a4_Image_11.jpeg,did not like,5.336503566,,,,,,,,,,,,,,,,,,,,,,
,,66ba909954ae8842a7c369a4,6685aa9113c938e83b4f1ea0,66fb989748a60f6626dde607,2024-10-01_08h08.12.992,WTP_SM_Choice,2022.2.1,MacIntel,59.17159763,,,,,,,,,,,,,,,,,,11,,,,,,space,5.1059,space,3.2624,0.01,1,3.3325,0,0,0,0,1,Rearrange my room furniture after getting new decor,Go to the movies with my siblings on a rainy weekend,0.01,0.03,3.3,1,,,,
,,66ba909954ae8842a7c369a4,6685aa9113c938e83b4f1ea0,66fb989748a60f6626dde607,2024-10-01_08h08.12.992,WTP_SM_Choice,2022.2.1,MacIntel,59.17159763,,,,,,,,,,,,,,,,,,12,,,,,,,,,,0.02,1,5.3354,0,1,1,1,1,Go for a hike with my best friend in the mountains during fall,Play video games in my room with the window open for fresh air,0.02,0.03,4.4,0,,,,
,,66ba909954ae8842a7c369a4,6685aa9113c938e83b4f1ea0,66fb989748a60f6626dde607,2024-10-01_08h08.12.992,WTP_SM_Choice,2022.2.1,MacIntel,59.17159763,,,,,,,,,,,,,,,,,,13,,,,,,,,,,0.03,1,4.8839,0,2,2,2,1,Daydream while watching clouds from my balcony on a breezy evening,Host a bbq with my family in the backyard on a warm evening,0.03,0.03,1.1,1,,,,
,,66ba909954ae8842a7c369a4,6685aa9113c938e83b4f1ea0,66fb989748a60f6626dde607,2024-10-01_08h08.12.992,WTP_SM_Choice,2022.2.1,MacIntel,59.17159763,,,,,,,,,,,,,,,,,,14,,,,,,,,,,0.03,2,5.3827,0,3,3,3,1,Go to the beach with my family on a hot summer day,Listen to music while journaling in my room with dim lighting,0.04,0.03,3.3,0,,,,
,,66ba909954ae8842a7c369a4,6685aa9113c938e83b4f1ea0,66fb989748a60f6626dde607,2024-10-01_08h08.12.992,WTP_SM_Choice,2022.2.1,MacIntel,59.17159763,,,,,,,,,,,,,,,,,,15,,,,,,,,,,0.03,2,3.7504,0,4,4,4,1,Sketch random doodles in my notebook at a quiet caf,Host a bbq with my family in the backyard on a warm evening,0.05,0.03,4.4,1,,,,
,,66ba909954ae8842a7c369a4,6685aa9113c938e83b4f1ea0,66fb989748a60f6626dde607,2024-10-01_08h08.12.992,WTP_SM_Choice,2022.2.1,MacIntel,59.17159763,,,,,,,NAN,,NAN,0.31,5.69,,0,14,14,14,1,15,Alex,Rej,Participant_Images/66ba909954ae8842a7c369a4/66ba909954ae8842a7c369a4_Images/66ba909954ae8842a7c369a4_Image_3.jpeg,did not like,2.642157193,,,,,,,,,,,,,,,,,,,,,,
,,66ba909954ae8842a7c369a4,6685aa9113c938e83b4f1ea0,66fb989748a60f6626dde607,2024-10-01_08h08.12.992,WTP_SM_Choice,2022.2.1,MacIntel,59.17159763,,,,,space,26.565,NAN,,NAN,0.31,5.69,,0,15,15,15,1,16,Alex,Rej,Participant_Images/66ba909954ae8842a7c369a4/66ba909954ae8842a7c369a4_Images/66ba909954ae8842a7c369a4_Image_18.jpeg,did not like,4.456234322,,,,,,,,,,,,,,,,,,,,,,
,,66ba909954ae8842a7c369a4,6685aa9113c938e83b4f1ea0,66fb989748a60f6626dde607,2024-10-01_08h08.12.992,WTP_SM_Choice,2022.2.1,MacIntel,59.17159763,,,,,space,3.1869,NAN,,NAN,0.31,5.69,,0,16,16,16,1,17,Alex,Rej,Participant_Images/66ba909954ae8842a7c369a4/66ba909954ae8842a7c369a4_Images/66ba909954ae8842a7c369a4_Image_6.jpeg,did not like,4.438512181,,,,,,,,,,,,,,,,,,,,,,
,,66ba909954ae8842a7c369a4,6685aa9113c938e83b4f1ea0,66fb989748a60f6626dde607,2024-10-01_08h08.12.992,WTP_SM_Choice,2022.2.1,MacIntel,59.17159763,,,,,space,0.6873,NAN,,NAN,0.31,5.69,,0,17,17,17,1,18,Alex,Rej,Participant_Images/66ba909954ae8842a7c369a4/66ba909954ae8842a7c369a4_Images/66ba909954ae8842a7c369a4_Image_20.jpeg,liked,2.682944783,,,,,,,,,,,,,,,,,,,,,,
,,66ba909954ae8842a7c369a4,6685aa9113c938e83b4f1ea0,66fb989748a60f6626dde607,2024-10-01_08h08.12.992,WTP_SM_Choice,2022.2.1,MacIntel,59.17159763,,,,,space,0.6299,NAN,,NAN,0.31,5.69,,0,18,18,18,1,19,Alex,Rej,Participant_Images/66ba909954ae8842a7c369a4/66ba909954ae8842a7c369a4_Images/66ba909954ae8842a7c369a4_Image_8.jpeg,did not like,4.51984296,,,,,,,,,,,,,,,,,,,,,,
,,66ba909954ae8842a7c369a4,6685aa9113c938e83b4f1ea0,66fb989748a60f6626dde607,2024-10-01_08h08.12.992,WTP_SM_Choice,2022.2.1,MacIntel,59.17159763,,,,,,,,,,,,,,,,,,16,,,,,,space,23.1292,space,3.8153,0.01,1,2.1222,0,0,0,0,1,Have a game night with my close friends at someones house on a saturday,Play video games in my room with the window open for fresh air,0.01,0.04,1.1,0,,,,
,,66ba909954ae8842a7c369a4,6685aa9113c938e83b4f1ea0,66fb989748a60f6626dde607,2024-10-01_08h08.12.992,WTP_SM_Choice,2022.2.1,MacIntel,59.17159763,,,,,,,,,,,,,,,,,,17,,,,,,,,,,0.04,2,7.6528,0,1,1,1,1,Go for a hike with my best friend in the mountains during fall,Watch random youtube documentaries late at night in bed,0.02,0.04,8.8,0,,,,
,,66ba909954ae8842a7c369a4,6685aa9113c938e83b4f1ea0,66fb989748a60f6626dde607,2024-10-01_08h08.12.992,WTP_SM_Choice,2022.2.1,MacIntel,59.17159763,,,,,,,,,,,,,,,,,,18,,,,,,,,,,0.03,1,3.8177,0,2,2,2,1,Listen to music while journaling in my room with dim lighting,Grab pizza with my friends on a friday night after school,0.03,0.04,3.3,1,,,,
,,66ba909954ae8842a7c369a4,6685aa9113c938e83b4f1ea0,66fb989748a60f6626dde607,2024-10-01_08h08.12.992,WTP_SM_Choice,2022.2.1,MacIntel,59.17159763,,,,,,,,,,,,,,,,,,19,,,,,,,,,,0.04,1,5.7841,0,3,3,3,1,Take a long walk in the park with my headphones on,Host a bbq with my family in the backyard on a warm evening,0.04,0.04,3.3,1,,,,
,,66ba909954ae8842a7c369a4,6685aa9113c938e83b4f1ea0,66fb989748a60f6626dde607,2024-10-01_08h08.12.992,WTP_SM_Choice,2022.2.1,MacIntel,59.17159763,,,,,,,,,,,,,,,,,,20,,,,,,,,,,0.04,2,5.3985,0,4,4,4,1,Go to the movies with my siblings on a rainy weekend,Sketch random doodles in my notebook at a quiet caf,0.05,0.04,1.1,0,,,,
,,66ba909954ae8842a7c369a4,6685aa9113c938e83b4f1ea0,66fb989748a60f6626dde607,2024-10-01_08h08.12.992,WTP_SM_Choice,2022.2.1,MacIntel,59.17159763,,,,,,,NAN,,NAN,0.47,5.53,,0,19,19,19,1,20,Alex,Rej,Participant_Images/66ba909954ae8842a7c369a4/66ba909954ae8842a7c369a4_Images/66ba909954ae8842a7c369a4_Image_14.jpeg,did not like,3.195382774,,,,,,,,,,,,,,,,,,,,,,
,,66ba909954ae8842a7c369a4,6685aa9113c938e83b4f1ea0,66fb989748a60f6626dde607,2024-10-01_08h08.12.992,WTP_SM_Choice,2022.2.1,MacIntel,59.17159763,,,,,space,1.4552,NAN,,NAN,0.47,5.53,,0,20,20,20,1,21,Alex,Rej,Participant_Images/66ba909954ae8842a7c369a4/66ba909954ae8842a7c369a4_Images/66ba909954ae8842a7c369a4_Image_5.jpeg,did not like,1.779333479,,,,,,,,,,,,,,,,,,,,,,
,,66ba909954ae8842a7c369a4,6685aa9113c938e83b4f1ea0,66fb989748a60f6626dde607,2024-10-01_08h08.12.992,WTP_SM_Choice,2022.2.1,MacIntel,59.17159763,,,,,space,1.7528,NAN,,NAN,0.47,5.53,,0,21,21,21,1,22,Alex,Rej,Participant_Images/66ba909954ae8842a7c369a4/66ba909954ae8842a7c369a4_Images/66ba909954ae8842a7c369a4_Image_24.jpeg,did not like,4.312468682,,,,,,,,,,,,,,,,,,,,,,
,,66ba909954ae8842a7c369a4,6685aa9113c938e83b4f1ea0,66fb989748a60f6626dde607,2024-10-01_08h08.12.992,WTP_SM_Choice,2022.2.1,MacIntel,59.17159763,,,,,space,0.8335,NAN,,NAN,0.47,5.53,,0,22,22,22,1,23,Alex,Rej,Participant_Images/66ba909954ae8842a7c369a4/66ba909954ae8842a7c369a4_Images/66ba909954ae8842a7c369a4_Image_23.jpeg,liked,4.940433059,,,,,,,,,,,,,,,,,,,,,,
,,66ba909954ae8842a7c369a4,6685aa9113c938e83b4f1ea0,66fb989748a60f6626dde607,2024-10-01_08h08.12.992,WTP_SM_Choice,2022.2.1,MacIntel,59.17159763,,,,,space,1.1799,NAN,,NAN,0.47,5.53,,0,23,23,23,1,24,Alex,Rej,Participant_Images/66ba909954ae8842a7c369a4/66ba909954ae8842a7c369a4_Images/66ba909954ae8842a7c369a4_Image_4.jpeg,did not like,2.7105123,,,,,,,,,,,,,,,,,,,,,,
,,66ba909954ae8842a7c369a4,6685aa9113c938e83b4f1ea0,66fb989748a60f6626dde607,2024-10-01_08h08.12.992,WTP_SM_Choice,2022.2.1,MacIntel,59.17159763,,,,,,,,,,,,,,,,,,21,,,,,,space,11.8134,space,6.9663,0.01,1,2.9459,0,0,0,0,1,Take a long walk in the park with my headphones on,Attend a live concert with my friends in the city,0.01,0.05,8.8,1,,,,
,,66ba909954ae8842a7c369a4,6685aa9113c938e83b4f1ea0,66fb989748a60f6626dde607,2024-10-01_08h08.12.992,WTP_SM_Choice,2022.2.1,MacIntel,59.17159763,,,,,,,,,,,,,,,,,,22,,,,,,,,,,0.02,1,2.5835,0,1,1,1,1,Bake cookies in the kitchen on a sunday afternoon,Grab pizza with my friends on a friday night after school,0.02,0.05,4.4,1,,,,
,,66ba909954ae8842a7c369a4,6685aa9113c938e83b4f1ea0,66fb989748a60f6626dde607,2024-10-01_08h08.12.992,WTP_SM_Choice,2022.2.1,MacIntel,59.17159763,,,,,,,,,,,,,,,,,,23,,,,,,,,,,0.05,2,4.2675,0,2,2,2,1,Play video games in my room with the window open for fresh air,Playing basketball with my cousins at the park on a sunny afternoon,0.03,0.05,1.1,1,,,,
,,66ba909954ae8842a7c369a4,6685aa9113c938e83b4f1ea0,66fb989748a60f6626dde607,2024-10-01_08h08.12.992,WTP_SM_Choice,2022.2.1,MacIntel,59.17159763,,,,,,,,,,,,,,,,,,24,,,,,,,,,,0.05,2,5.6018,0,3,3,3,1,Have a game night with my close friends at someones house on a saturday,Watch random youtube documentaries late at night in bed,0.04,0.05,4.4,0,,,,
,,66ba909954ae8842a7c369a4,6685aa9113c938e83b4f1ea0,66fb989748a60f6626dde607,2024-10-01_08h08.12.992,WTP_SM_Choice,2022.2.1,MacIntel,59.17159763,,,,,,,,,,,,,,,,,,25,,,,,,,,,,0.05,1,5.4005,0,4,4,4,1,Study for finals with my classmates at the library late at night,Daydream while watching clouds from my balcony on a breezy evening,0.05,0.05,3.3,0,,,,
,,66ba909954ae8842a7c369a4,6685aa9113c938e83b4f1ea0,66fb989748a60f6626dde607,2024-10-01_08h08.12.992,WTP_SM_Choice,2022.2.1,MacIntel,59.17159763,,,,,,,2,,7,0.65,5.35,,0,24,24,24,1,25,Alex,Rej,Participant_Images/66ba909954ae8842a7c369a4/66ba909954ae8842a7c369a4_Images/66ba909954ae8842a7c369a4_Image_10.jpeg,did not like,3.602308302,,,,,,,,,,,,,,,,,,,space,1.0275,,
,,66ba909954ae8842a7c369a4,6685aa9113c938e83b4f1ea0,66fb989748a60f6626dde607,2024-10-01_08h08.12.992,WTP_SM_Choice,2022.2.1,MacIntel,59.17159763,,,space,2.2838,space,1.5986,NAN,,NAN,0.65,5.35,,0,25,25,25,1,26,Sam,Rej,Participant_Images/66ba909954ae8842a7c369a4/66ba909954ae8842a7c369a4_Images/66ba909954ae8842a7c369a4_Image_21.jpeg,did not like,4.106391878,,,,,,,,,,,,,,,,,,,,,,
,,66ba909954ae8842a7c369a4,6685aa9113c938e83b4f1ea0,66fb989748a60f6626dde607,2024-10-01_08h08.12.992,WTP_SM_Choice,2022.2.1,MacIntel,59.17159763,,,,,space,2.2932,NAN,,NAN,0.65,5.35,,0,26,26,26,1,27,Sam,Rej,Participant_Images/66ba909954ae8842a7c369a4/66ba909954ae8842a7c369a4_Images/66ba909954ae8842a7c369a4_Image_17.jpeg,did not like,3.799433026,,,,,,,,,,,,,,,,,,,,,,
,,66ba909954ae8842a7c369a4,6685aa9113c938e83b4f1ea0,66fb989748a60f6626dde607,2024-10-01_08h08.12.992,WTP_SM_Choice,2022.2.1,MacIntel,59.17159763,,,,,space,4.8575,NAN,,NAN,0.65,5.35,,0,27,27,27,1,28,Sam,Rej,Participant_Images/66ba909954ae8842a7c369a4/66ba909954ae8842a7c369a4_Images/66ba909954ae8842a7c369a4_Image_22.jpeg,liked,5.246980764,,,,,,,,,,,,,,,,,,,,,,
,,66ba909954ae8842a7c369a4,6685aa9113c938e83b4f1ea0,66fb989748a60f6626dde607,2024-10-01_08h08.12.992,WTP_SM_Choice,2022.2.1,MacIntel,59.17159763,,,,,space,2.4057,NAN,,NAN,0.65,5.35,,0,28,28,28,1,29,Sam,Rej,Participant_Images/66ba909954ae8842a7c369a4/66ba909954ae8842a7c369a4_Images/66ba909954ae8842a7c369a4_Image_8.jpeg,did not like,3.30081769,,,,,,,,,,,,,,,,,,,,,,
,,66ba909954ae8842a7c369a4,6685aa9113c938e83b4f1ea0,66fb989748a60f6626dde607,2024-10-01_08h08.12.992,WTP_SM_Choice,2022.2.1,MacIntel,59.17159763,,,,,,,,,,,,,,,,,,26,,,,,,space,9.2964,space,1.4442,0.01,2,3.2466,0,0,0,0,1,Go to the beach with my family on a hot summer day,Watch random youtube documentaries late at night in bed,0.01,0.01,4.4,0,,,,
,,66ba909954ae8842a7c369a4,6685aa9113c938e83b4f1ea0,66fb989748a60f6626dde607,2024-10-01_08h08.12.992,WTP_SM_Choice,2022.2.1,MacIntel,59.17159763,,,,,,,,,,,,,,,,,,27,,,,,,,,,,0.02,1,2.7352,0,1,1,1,1,Attend a live concert with my friends in the city,Play video games in my room with the window open for fresh air,0.02,0.01,3.3,0,,,,
,,66ba909954ae8842a7c369a4,6685aa9113c938e83b4f1ea0,66fb989748a60f6626dde607,2024-10-01_08h08.12.992,WTP_SM_Choice,2022.2.1,MacIntel,59.17159763,,,,,,,,,,,,,,,,,,28,,,,,,,,,,0.01,2,3.6004,0,2,2,2,1,Watch random youtube documentaries late at night in bed,Go to the movies with my siblings on a rainy weekend,0.03,0.01,3.3,1,,,,
,,66ba909954ae8842a7c369a4,6685aa9113c938e83b4f1ea0,66fb989748a60f6626dde607,2024-10-01_08h08.12.992,WTP_SM_Choice,2022.2.1,MacIntel,59.17159763,,,,,,,,,,,,,,,,,,29,,,,,,,,,,0.01,2,2.7334,0,3,3,3,1,Get bubble tea and walking around the mall with my best friend on a sunday,Daydream while watching clouds from my balcony on a breezy evening,0.04,0.01,4.4,0,,,,
,,66ba909954ae8842a7c369a4,6685aa9113c938e83b4f1ea0,66fb989748a60f6626dde607,2024-10-01_08h08.12.992,WTP_SM_Choice,2022.2.1,MacIntel,59.17159763,,,,,,,,,,,,,,,,,,30,,,,,,,,,,0.01,2,2.5563,0,4,4,4,1,Go to the beach with my family on a hot summer day,Daydream while watching clouds from my balcony on a breezy evening,0.05,0.01,8.8,0,,,,
,,66ba909954ae8842a7c369a4,6685aa9113c938e83b4f1ea0,66fb989748a60f6626dde607,2024-10-01_08h08.12.992,WTP_SM_Choice,2022.2.1,MacIntel,59.17159763,,,,,,,NAN,,NAN,0.71,5.29,,0,29,29,29,1,30,Sam,Rej,Participant_Images/66ba909954ae8842a7c369a4/66ba909954ae8842a7c369a4_Images/66ba909954ae8842a7c369a4_Image_18.jpeg,did not like,1.661473164,,,,,,,,,,,,,,,,,,,,,,
,,66ba909954ae8842a7c369a4,6685aa9113c938e83b4f1ea0,66fb989748a60f6626dde607,2024-10-01_08h08.12.992,WTP_SM_Choice,2022.2.1,MacIntel,59.17159763,,,,,space,1.5137,NAN,,NAN,0.71,5.29,,0,30,30,30,1,31,Sam,Rej,Participant_Images/66ba909954ae8842a7c369a4/66ba909954ae8842a7c369a4_Images/66ba909954ae8842a7c369a4_Image_4.jpeg,did not like,3.613205605,,,,,,,,,,,,,,,,,,,,,,
,,66ba909954ae8842a7c369a4,6685aa9113c938e83b4f1ea0,66fb989748a60f6626dde607,2024-10-01_08h08.12.992,WTP_SM_Choice,2022.2.1,MacIntel,59.17159763,,,,,space,0.7134,NAN,,NAN,0.71,5.29,,0,31,31,31,1,32,Sam,Rej,Participant_Images/66ba909954ae8842a7c369a4/66ba909954ae8842a7c369a4_Images/66ba909954ae8842a7c369a4_Image_2.jpeg,did not like,4.988446431,,,,,,,,,,,,,,,,,,,,,,
,,66ba909954ae8842a7c369a4,6685aa9113c938e83b4f1ea0,66fb989748a60f6626dde607,2024-10-01_08h08.12.992,WTP_SM_Choice,2022.2.1,MacIntel,59.17159763,,,,,space,1.1663,NAN,,NAN,0.71,5.29,,0,32,32,32,1,33,Sam,Rej,Participant_Images/66ba909954ae8842a7c369a4/66ba909954ae8842a7c369a4_Images/66ba909954ae8842a7c369a4_Image_5.jpeg,liked,3.470791822,,,,,,,,,,,,,,,,,,,,,,
,,66ba909954ae8842a7c369a4,6685aa9113c938e83b4f1ea0,66fb989748a60f6626dde607,2024-10-01_08h08.12.992,WTP_SM_Choice,2022.2.1,MacIntel,59.17159763,,,,,space,6.1859,NAN,,NAN,0.71,5.29,,0,33,33,33,1,34,Sam,Rej,Participant_Images/66ba909954ae8842a7c369a4/66ba909954ae8842a7c369a4_Images/66ba909954ae8842a7c369a4_Image_10.jpeg,did not like,3.820572462,,,,,,,,,,,,,,,,,,,,,,
,,66ba909954ae8842a7c369a4,6685aa9113c938e83b4f1ea0,66fb989748a60f6626dde607,2024-10-01_08h08.12.992,WTP_SM_Choice,2022.2.1,MacIntel,59.17159763,,,,,,,,,,,,,,,,,,31,,,,,,space,1.6739,space,1.0001,0.01,1,1.763,0,0,0,0,1,Get bubble tea and walking around the mall with my best friend on a sunday,Sketch random doodles in my notebook at a quiet caf,0.01,0.02,8.8,0,,,,
,,66ba909954ae8842a7c369a4,6685aa9113c938e83b4f1ea0,66fb989748a60f6626dde607,2024-10-01_08h08.12.992,WTP_SM_Choice,2022.2.1,MacIntel,59.17159763,,,,,,,,,,,,,,,,,,32,,,,,,,,,,0.02,1,5.0699,0,1,1,1,1,Go to the movies with my siblings on a rainy weekend,Bake cookies in the kitchen on a sunday afternoon,0.02,0.02,1.1,0,,,,
,,66ba909954ae8842a7c369a4,6685aa9113c938e83b4f1ea0,66fb989748a60f6626dde607,2024-10-01_08h08.12.992,WTP_SM_Choice,2022.2.1,MacIntel,59.17159763,,,,,,,,,,,,,,,,,,33,,,,,,,,,,0.02,2,4.1158,0,2,2,2,1,Have a game night with my close friends at someones house on a saturday,Daydream while watching clouds from my balcony on a breezy evening,0.03,0.02,4.4,0,,,,
,,66ba909954ae8842a7c369a4,6685aa9113c938e83b4f1ea0,66fb989748a60f6626dde607,2024-10-01_08h08.12.992,WTP_SM_Choice,2022.2.1,MacIntel,59.17159763,,,,,,,,,,,,,,,,,,34,,,,,,,,,,0.02,2,2.6358,0,3,3,3,1,Organize my closet while playing a chill playlist,Go to the movies with my siblings on a rainy weekend,0.04,0.02,3.3,1,,,,
,,66ba909954ae8842a7c369a4,6685aa9113c938e83b4f1ea0,66fb989748a60f6626dde607,2024-10-01_08h08.12.992,WTP_SM_Choice,2022.2.1,MacIntel,59.17159763,,,,,,,,,,,,,,,,,,35,,,,,,,,,,0.02,2,5.5704,0,4,4,4,1,Grab pizza with my friends on a friday night after school,Daydream while watching clouds from my balcony on a breezy evening,0.05,0.02,1.1,0,,,,
,,66ba909954ae8842a7c369a4,6685aa9113c938e83b4f1ea0,66fb989748a60f6626dde607,2024-10-01_08h08.12.992,WTP_SM_Choice,2022.2.1,MacIntel,59.17159763,,,,,,,NAN,,NAN,0.8,5.2,,0,34,34,34,1,35,Sam,Rej,Participant_Images/66ba909954ae8842a7c369a4/66ba909954ae8842a7c369a4_Images/66ba909954ae8842a7c369a4_Image_23.jpeg,liked,2.455989137,,,,,,,,,,,,,,,,,,,,,,
,,66ba909954ae8842a7c369a4,6685aa9113c938e83b4f1ea0,66fb989748a60f6626dde607,2024-10-01_08h08.12.992,WTP_SM_Choice,2022.2.1,MacIntel,59.17159763,,,,,space,0.8821,NAN,,NAN,0.8,5.2,,0,35,35,35,1,36,Sam,Rej,Participant_Images/66ba909954ae8842a7c369a4/66ba909954ae8842a7c369a4_Images/66ba909954ae8842a7c369a4_Image_15.jpeg,did not like,3.79605092,,,,,,,,,,,,,,,,,,,,,,
,,66ba909954ae8842a7c369a4,6685aa9113c938e83b4f1ea0,66fb989748a60f6626dde607,2024-10-01_08h08.12.992,WTP_SM_Choice,2022.2.1,MacIntel,59.17159763,,,,,space,0.9829,NAN,,NAN,0.8,5.2,,0,36,36,36,1,37,Sam,Rej,Participant_Images/66ba909954ae8842a7c369a4/66ba909954ae8842a7c369a4_Images/66ba909954ae8842a7c369a4_Image_11.jpeg,liked,3.562416326,,,,,,,,,,,,,,,,,,,,,,
,,66ba909954ae8842a7c369a4,6685aa9113c938e83b4f1ea0,66fb989748a60f6626dde607,2024-10-01_08h08.12.992,WTP_SM_Choice,2022.2.1,MacIntel,59.17159763,,,,,space,0.8991,NAN,,NAN,0.8,5.2,,0,37,37,37,1,38,Sam,Rej,Participant_Images/66ba909954ae8842a7c369a4/66ba909954ae8842a7c369a4_Images/66ba909954ae8842a7c369a4_Image_25.jpeg,liked,2.843822497,,,,,,,,,,,,,,,,,,,,,,
,,66ba909954ae8842a7c369a4,6685aa9113c938e83b4f1ea0,66fb989748a60f6626dde607,2024-10-01_08h08.12.992,WTP_SM_Choice,2022.2.1,MacIntel,59.17159763,,,,,space,1.1188,NAN,,NAN,0.8,5.2,,0,38,38,38,1,39,Sam,Rej,Participant_Images/66ba909954ae8842a7c369a4/66ba909954ae8842a7c369a4_Images/66ba909954ae8842a7c369a4_Image_20.jpeg,did not like,3.546495948,,,,,,,,,,,,,,,,,,,,,,
,,66ba909954ae8842a7c369a4,6685aa9113c938e83b4f1ea0,66fb989748a60f6626dde607,2024-10-01_08h08.12.992,WTP_SM_Choice,2022.2.1,MacIntel,59.17159763,,,,,,,,,,,,,,,,,,36,,,,,,space,1.229,space,23.4449,0.01,1,1.4612,0,0,0,0,1,Watch random youtube documentaries late at night in bed,Get bubble tea and walking around the mall with my best friend on a sunday,0.01,0.03,3.3,1,,,,
,,66ba909954ae8842a7c369a4,6685aa9113c938e83b4f1ea0,66fb989748a60f6626dde607,2024-10-01_08h08.12.992,WTP_SM_Choice,2022.2.1,MacIntel,59.17159763,,,,,,,,,,,,,,,,,,37,,,,,,,,,,0.02,1,1.7364,0,1,1,1,1,Bake cookies in the kitchen on a sunday afternoon,Go to the beach with my family on a hot summer day,0.02,0.03,1.1,1,,,,
,,66ba909954ae8842a7c369a4,6685aa9113c938e83b4f1ea0,66fb989748a60f6626dde607,2024-10-01_08h08.12.992,WTP_SM_Choice,2022.2.1,MacIntel,59.17159763,,,,,,,,,,,,,,,,,,38,,,,,,,,,,,,,0,2,2,2,1,Rearrange my room furniture after getting new decor,Playing basketball with my cousins at the park on a sunny afternoon,0.03,0.03,1.1,1,,,,
,,66ba909954ae8842a7c369a4,6685aa9113c938e83b4f1ea0,66fb989748a60f6626dde607,2024-10-01_08h08.12.992,WTP_SM_Choice,2022.2.1,MacIntel,59.17159763,,,,,,,,,,,,,,,,,,39,,,,,,,,,,0.03,2,2.7491,0,3,3,3,1,Read a novel in bed on a chilly day under a cozy blanket,Study for finals with my classmates at the library late at night,0.04,0.03,3.3,1,,,,
,,66ba909954ae8842a7c369a4,6685aa9113c938e83b4f1ea0,66fb989748a60f6626dde607,2024-10-01_08h08.12.992,WTP_SM_Choice,2022.2.1,MacIntel,59.17159763,,,,,,,,,,,,,,,,,,40,,,,,,,,,,0.03,2,1.3299,0,4,4,4,1,Have a game night with my close friends at someones house on a saturday,Sketch random doodles in my notebook at a quiet caf,0.05,0.03,4.4,0,,,,
,,66ba909954ae8842a7c369a4,6685aa9113c938e83b4f1ea0,66fb989748a60f6626dde607,2024-10-01_08h08.12.992,WTP_SM_Choice,2022.2.1,MacIntel,59.17159763,,,,,,,NAN,,NAN,0.89,5.11,,0,39,39,39,1,40,Sam,Rej,Participant_Images/66ba909954ae8842a7c369a4/66ba909954ae8842a7c369a4_Images/66ba909954ae8842a7c369a4_Image_6.jpeg,did not like,1.672012706,,,,,,,,,,,,,,,,,,,,,,
,,66ba909954ae8842a7c369a4,6685aa9113c938e83b4f1ea0,66fb989748a60f6626dde607,2024-10-01_08h08.12.992,WTP_SM_Choice,2022.2.1,MacIntel,59.17159763,,,,,space,1.6846,NAN,,NAN,0.89,5.11,,0,40,40,40,1,41,Sam,Rej,Participant_Images/66ba909954ae8842a7c369a4/66ba909954ae8842a7c369a4_Images/66ba909954ae8842a7c369a4_Image_19.jpeg,did not like,4.942172136,,,,,,,,,,,,,,,,,,,,,,
,,66ba909954ae8842a7c369a4,6685aa9113c938e83b4f1ea0,66fb989748a60f6626dde607,2024-10-01_08h08.12.992,WTP_SM_Choice,2022.2.1,MacIntel,59.17159763,,,,,space,0.8333,NAN,,NAN,0.89,5.11,,0,41,41,41,1,42,Sam,Rej,Participant_Images/66ba909954ae8842a7c369a4/66ba909954ae8842a7c369a4_Images/66ba909954ae8842a7c369a4_Image_12.jpeg,did not like,2.50187214,,,,,,,,,,,,,,,,,,,,,,
,,66ba909954ae8842a7c369a4,6685aa9113c938e83b4f1ea0,66fb989748a60f6626dde607,2024-10-01_08h08.12.992,WTP_SM_Choice,2022.2.1,MacIntel,59.17159763,,,,,space,4.0391,NAN,,NAN,0.89,5.11,,0,42,42,42,1,43,Sam,Rej,Participant_Images/66ba909954ae8842a7c369a4/66ba909954ae8842a7c369a4_Images/66ba909954ae8842a7c369a4_Image_1.jpeg,did not like,2.071164779,,,,,,,,,,,,,,,,,,,,,,
,,66ba909954ae8842a7c369a4,6685aa9113c938e83b4f1ea0,66fb989748a60f6626dde607,2024-10-01_08h08.12.992,WTP_SM_Choice,2022.2.1,MacIntel,59.17159763,,,,,space,1.1364,NAN,,NAN,0.89,5.11,,0,43,43,43,1,44,Sam,Rej,Participant_Images/66ba909954ae8842a7c369a4/66ba909954ae8842a7c369a4_Images/66ba909954ae8842a7c369a4_Image_24.jpeg,did not like,5.336503566,,,,,,,,,,,,,,,,,,,,,,
,,66ba909954ae8842a7c369a4,6685aa9113c938e83b4f1ea0,66fb989748a60f6626dde607,2024-10-01_08h08.12.992,WTP_SM_Choice,2022.2.1,MacIntel,59.17159763,,,,,,,,,,,,,,,,,,41,,,,,,space,8.528,space,0.7651,0.01,1,1.264,0,0,0,0,1,Have a game night with my close friends at someones house on a saturday,Organize my closet while playing a chill playlist,0.01,0.04,1.1,0,,,,
,,66ba909954ae8842a7c369a4,6685aa9113c938e83b4f1ea0,66fb989748a60f6626dde607,2024-10-01_08h08.12.992,WTP_SM_Choice,2022.2.1,MacIntel,59.17159763,,,,,,,,,,,,,,,,,,42,,,,,,,,,,0.02,1,2.205,0,1,1,1,1,Study for finals with my classmates at the library late at night,Take a long walk in the park with my headphones on,0.02,0.04,3.3,0,,,,
,,66ba909954ae8842a7c369a4,6685aa9113c938e83b4f1ea0,66fb989748a60f6626dde607,2024-10-01_08h08.12.992,WTP_SM_Choice,2022.2.1,MacIntel,59.17159763,,,,,,,,,,,,,,,,,,43,,,,,,,,,,0.03,1,1.7051,0,2,2,2,1,Get bubble tea and walking around the mall with my best friend on a sunday,Rearrange my room furniture after getting new decor,0.03,0.04,1.1,0,,,,
,,66ba909954ae8842a7c369a4,6685aa9113c938e83b4f1ea0,66fb989748a60f6626dde607,2024-10-01_08h08.12.992,WTP_SM_Choice,2022.2.1,MacIntel,59.17159763,,,,,,,,,,,,,,,,,,44,,,,,,,,,,0.04,1,2.505,0,3,3,3,1,Grab pizza with my friends on a friday night after school,Play video games in my room with the window open for fresh air,0.04,0.04,1.1,0,,,,
,,66ba909954ae8842a7c369a4,6685aa9113c938e83b4f1ea0,66fb989748a60f6626dde607,2024-10-01_08h08.12.992,WTP_SM_Choice,2022.2.1,MacIntel,59.17159763,,,,,,,,,,,,,,,,,,45,,,,,,,,,,0.04,2,2.4027,0,4,4,4,1,Rearrange my room furniture after getting new decor,Go to the beach with my family on a hot summer day,0.05,0.04,4.4,1,,,,
,,66ba909954ae8842a7c369a4,6685aa9113c938e83b4f1ea0,66fb989748a60f6626dde607,2024-10-01_08h08.12.992,WTP_SM_Choice,2022.2.1,MacIntel,59.17159763,,,,,,,NAN,,NAN,1.03,4.97,,0,44,44,44,1,45,Sam,Rej,Participant_Images/66ba909954ae8842a7c369a4/66ba909954ae8842a7c369a4_Images/66ba909954ae8842a7c369a4_Image_3.jpeg,did not like,2.642157193,,,,,,,,,,,,,,,,,,,,,,
,,66ba909954ae8842a7c369a4,6685aa9113c938e83b4f1ea0,66fb989748a60f6626dde607,2024-10-01_08h08.12.992,WTP_SM_Choice,2022.2.1,MacIntel,59.17159763,,,,,space,1.3486,NAN,,NAN,1.03,4.97,,0,45,45,45,1,46,Sam,Rej,Participant_Images/66ba909954ae8842a7c369a4/66ba909954ae8842a7c369a4_Images/66ba909954ae8842a7c369a4_Image_14.jpeg,did not like,4.456234322,,,,,,,,,,,,,,,,,,,,,,
,,66ba909954ae8842a7c369a4,6685aa9113c938e83b4f1ea0,66fb989748a60f6626dde607,2024-10-01_08h08.12.992,WTP_SM_Choice,2022.2.1,MacIntel,59.17159763,,,,,space,2.0621,NAN,,NAN,1.03,4.97,,0,46,46,46,1,47,Sam,Rej,Participant_Images/66ba909954ae8842a7c369a4/66ba909954ae8842a7c369a4_Images/66ba909954ae8842a7c369a4_Image_7.jpeg,liked,4.438512181,,,,,,,,,,,,,,,,,,,,,,
,,66ba909954ae8842a7c369a4,6685aa9113c938e83b4f1ea0,66fb989748a60f6626dde607,2024-10-01_08h08.12.992,WTP_SM_Choice,2022.2.1,MacIntel,59.17159763,,,,,space,0.1887,NAN,,NAN,1.03,4.97,,0,47,47,47,1,48,Sam,Rej,Participant_Images/66ba909954ae8842a7c369a4/66ba909954ae8842a7c369a4_Images/66ba909954ae8842a7c369a4_Image_9.jpeg,liked,2.682944783,,,,,,,,,,,,,,,,,,,,,,
,,66ba909954ae8842a7c369a4,6685aa9113c938e83b4f1ea0,66fb989748a60f6626dde607,2024-10-01_08h08.12.992,WTP_SM_Choice,2022.2.1,MacIntel,59.17159763,,,,,space,0.8333,NAN,,NAN,1.03,4.97,,0,48,48,48,1,49,Sam,Rej,Participant_Images/66ba909954ae8842a7c369a4/66ba909954ae8842a7c369a4_Images/66ba909954ae8842a7c369a4_Image_16.jpeg,did not like,4.51984296,,,,,,,,,,,,,,,,,,,,,,
,,66ba909954ae8842a7c369a4,6685aa9113c938e83b4f1ea0,66fb989748a60f6626dde607,2024-10-01_08h08.12.992,WTP_SM_Choice,2022.2.1,MacIntel,59.17159763,,,,,,,,,,,,,,,,,,46,,,,,,space,1.0622,space,0.6493,0.01,1,1.2152,0,0,0,0,1,Playing basketball with my cousins at the park on a sunny afternoon,Bake cookies in the kitchen on a sunday afternoon,0.01,0.05,8.8,0,,,,
,,66ba909954ae8842a7c369a4,6685aa9113c938e83b4f1ea0,66fb989748a60f6626dde607,2024-10-01_08h08.12.992,WTP_SM_Choice,2022.2.1,MacIntel,59.17159763,,,,,,,,,,,,,,,,,,47,,,,,,,,,,0.02,1,1.6052,0,1,1,1,1,Organize my closet while playing a chill playlist,Attend a live concert with my friends in the city,0.02,0.05,1.1,1,,,,
,,66ba909954ae8842a7c369a4,6685aa9113c938e83b4f1ea0,66fb989748a60f6626dde607,2024-10-01_08h08.12.992,WTP_SM_Choice,2022.2.1,MacIntel,59.17159763,,,,,,,,,,,,,,,,,,48,,,,,,,,,,0.03,1,2.1842,0,2,2,2,1,Study for finals with my classmates at the library late at night,Sketch random doodles in my notebook at a quiet caf,0.03,0.05,4.4,0,,,,
,,66ba909954ae8842a7c369a4,6685aa9113c938e83b4f1ea0,66fb989748a60f6626dde607,2024-10-01_08h08.12.992,WTP_SM_Choice,2022.2.1,MacIntel,59.17159763,,,,,,,,,,,,,,,,,,49,,,,,,,,,,0.04,1,1.6048,0,3,3,3,1,Playing basketball with my cousins at the park on a sunny afternoon,Listen to music while journaling in my room with dim lighting,0.04,0.05,3.3,0,,,,
,,66ba909954ae8842a7c369a4,6685aa9113c938e83b4f1ea0,66fb989748a60f6626dde607,2024-10-01_08h08.12.992,WTP_SM_Choice,2022.2.1,MacIntel,59.17159763,,,,,,,,,,,,,,,,,,50,,,,,,,,,,0.05,1,4.1992,0,4,4,4,1,Bake cookies in the kitchen on a sunday afternoon,Go for a hike with my best friend in the mountains during fall,0.05,0.05,1.1,1,,,,
,,66ba909954ae8842a7c369a4,6685aa9113c938e83b4f1ea0,66fb989748a60f6626dde607,2024-10-01_08h08.12.992,WTP_SM_Choice,2022.2.1,MacIntel,59.17159763,,,,,,,2,,8,1.18,4.82,,0,49,49,49,1,50,Sam,Rej,Participant_Images/66ba909954ae8842a7c369a4/66ba909954ae8842a7c369a4_Images/66ba909954ae8842a7c369a4_Image_13.jpeg,did not like,3.195382774,,,,,,,,,,,,,,,,,,,space,1.4993,,
,,66ba909954ae8842a7c369a4,6685aa9113c938e83b4f1ea0,66fb989748a60f6626dde607,2024-10-01_08h08.12.992,WTP_SM_Choice,2022.2.1,MacIntel,59.17159763,,,space,1.8276,space,1.0996,NAN,,NAN,1.18,4.82,,0,50,50,50,1,51,Riley,Acc,Participant_Images/66ba909954ae8842a7c369a4/66ba909954ae8842a7c369a4_Images/66ba909954ae8842a7c369a4_Image_24.jpeg,liked,1.779333479,,,,,,,,,,,,,,,,,,,,,,
,,66ba909954ae8842a7c369a4,6685aa9113c938e83b4f1ea0,66fb989748a60f6626dde607,2024-10-01_08h08.12.992,WTP_SM_Choice,2022.2.1,MacIntel,59.17159763,,,,,space,0.8103,NAN,,NAN,1.18,4.82,,0,51,51,51,1,52,Riley,Acc,Participant_Images/66ba909954ae8842a7c369a4/66ba909954ae8842a7c369a4_Images/66ba909954ae8842a7c369a4_Image_21.jpeg,did not like,4.312468682,,,,,,,,,,,,,,,,,,,,,,
,,66ba909954ae8842a7c369a4,6685aa9113c938e83b4f1ea0,66fb989748a60f6626dde607,2024-10-01_08h08.12.992,WTP_SM_Choice,2022.2.1,MacIntel,59.17159763,,,,,space,1.473,NAN,,NAN,1.18,4.82,,0,52,52,52,1,53,Riley,Acc,Participant_Images/66ba909954ae8842a7c369a4/66ba909954ae8842a7c369a4_Images/66ba909954ae8842a7c369a4_Image_13.jpeg,liked,4.940433059,,,,,,,,,,,,,,,,,,,,,,
,,66ba909954ae8842a7c369a4,6685aa9113c938e83b4f1ea0,66fb989748a60f6626dde607,2024-10-01_08h08.12.992,WTP_SM_Choice,2022.2.1,MacIntel,59.17159763,,,,,space,1.2545,NAN,,NAN,1.18,4.82,,0,53,53,53,1,54,Riley,Acc,Participant_Images/66ba909954ae8842a7c369a4/66ba909954ae8842a7c369a4_Images/66ba909954ae8842a7c369a4_Image_10.jpeg,liked,2.7105123,,,,,,,,,,,,,,,,,,,,,,
,,66ba909954ae8842a7c369a4,6685aa9113c938e83b4f1ea0,66fb989748a60f6626dde607,2024-10-01_08h08.12.992,WTP_SM_Choice,2022.2.1,MacIntel,59.17159763,,,,,,,,,,,,,,,,,,51,,,,,,space,8.4449,space,3.27,0.01,1,2.092,0,0,0,0,1,Listen to music while journaling in my room with dim lighting,Host a bbq with my family in the backyard on a warm evening,0.01,0.01,1.1,1,,,,
,,66ba909954ae8842a7c369a4,6685aa9113c938e83b4f1ea0,66fb989748a60f6626dde607,2024-10-01_08h08.12.992,WTP_SM_Choice,2022.2.1,MacIntel,59.17159763,,,,,,,,,,,,,,,,,,52,,,,,,,,,,0.01,2,2.0195,0,1,1,1,1,Watch random youtube documentaries late at night in bed,Grab pizza with my friends on a friday night after school,0.02,0.01,3.3,1,,,,
,,66ba909954ae8842a7c369a4,6685aa9113c938e83b4f1ea0,66fb989748a60f6626dde607,2024-10-01_08h08.12.992,WTP_SM_Choice,2022.2.1,MacIntel,59.17159763,,,,,,,,,,,,,,,,,,53,,,,,,,,,,0.01,2,1.3116,0,2,2,2,1,Rearrange my room furniture after getting new decor,Go for a hike with my best friend in the mountains during fall,0.03,0.01,1.1,1,,,,
,,66ba909954ae8842a7c369a4,6685aa9113c938e83b4f1ea0,66fb989748a60f6626dde607,2024-10-01_08h08.12.992,WTP_SM_Choice,2022.2.1,MacIntel,59.17159763,,,,,,,,,,,,,,,,,,54,,,,,,,,,,0.01,2,0.9704,0,3,3,3,1,Watch random youtube documentaries late at night in bed,Host a bbq with my family in the backyard on a warm evening,0.04,0.01,4.4,1,,,,
,,66ba909954ae8842a7c369a4,6685aa9113c938e83b4f1ea0,66fb989748a60f6626dde607,2024-10-01_08h08.12.992,WTP_SM_Choice,2022.2.1,MacIntel,59.17159763,,,,,,,,,,,,,,,,,,55,,,,,,,,,,0.01,2,1.0301,0,4,4,4,1,Read a novel in bed on a chilly day under a cozy blanket,Go to the beach with my family on a hot summer day,0.05,0.01,1.1,1,,,,
,,66ba909954ae8842a7c369a4,6685aa9113c938e83b4f1ea0,66fb989748a60f6626dde607,2024-10-01_08h08.12.992,WTP_SM_Choice,2022.2.1,MacIntel,59.17159763,,,,,,,NAN,,NAN,1.23,4.77,,0,54,54,54,1,55,Riley,Acc,Participant_Images/66ba909954ae8842a7c369a4/66ba909954ae8842a7c369a4_Images/66ba909954ae8842a7c369a4_Image_14.jpeg,did not like,3.602308302,,,,,,,,,,,,,,,,,,,,,,
,,66ba909954ae8842a7c369a4,6685aa9113c938e83b4f1ea0,66fb989748a60f6626dde607,2024-10-01_08h08.12.992,WTP_SM_Choice,2022.2.1,MacIntel,59.17159763,,,,,space,4.1496,NAN,,NAN,1.23,4.77,,0,55,55,55,1,56,Riley,Acc,Participant_Images/66ba909954ae8842a7c369a4/66ba909954ae8842a7c369a4_Images/66ba909954ae8842a7c369a4_Image_15.jpeg,liked,4.106391878,,,,,,,,,,,,,,,,,,,,,,
,,66ba909954ae8842a7c369a4,6685aa9113c938e83b4f1ea0,66fb989748a60f6626dde607,2024-10-01_08h08.12.992,WTP_SM_Choice,2022.2.1,MacIntel,59.17159763,,,,,space,2.2333,NAN,,NAN,1.23,4.77,,0,56,56,56,1,57,Riley,Acc,Participant_Images/66ba909954ae8842a7c369a4/66ba909954ae8842a7c369a4_Images/66ba909954ae8842a7c369a4_Image_3.jpeg,liked,3.799433026,,,,,,,,,,,,,,,,,,,,,,
,,66ba909954ae8842a7c369a4,6685aa9113c938e83b4f1ea0,66fb989748a60f6626dde607,2024-10-01_08h08.12.992,WTP_SM_Choice,2022.2.1,MacIntel,59.17159763,,,,,space,1.8673,NAN,,NAN,1.23,4.77,,0,57,57,57,1,58,Riley,Acc,Participant_Images/66ba909954ae8842a7c369a4/66ba909954ae8842a7c369a4_Images/66ba909954ae8842a7c369a4_Image_7.jpeg,liked,5.246980764,,,,,,,,,,,,,,,,,,,,,,
,,66ba909954ae8842a7c369a4,6685aa9113c938e83b4f1ea0,66fb989748a60f6626dde607,2024-10-01_08h08.12.992,WTP_SM_Choice,2022.2.1,MacIntel,59.17159763,,,,,space,3.7537,NAN,,NAN,1.23,4.77,,0,58,58,58,1,59,Riley,Acc,Participant_Images/66ba909954ae8842a7c369a4/66ba909954ae8842a7c369a4_Images/66ba909954ae8842a7c369a4_Image_2.jpeg,liked,3.30081769,,,,,,,,,,,,,,,,,,,,,,
,,66ba909954ae8842a7c369a4,6685aa9113c938e83b4f1ea0,66fb989748a60f6626dde607,2024-10-01_08h08.12.992,WTP_SM_Choice,2022.2.1,MacIntel,59.17159763,,,,,,,,,,,,,,,,,,56,,,,,,space,3.9513,space,0.7337,0.01,1,1.2232,0,0,0,0,1,Go for a hike with my best friend in the mountains during fall,Organize my closet while playing a chill playlist,0.01,0.02,8.8,0,,,,
,,66ba909954ae8842a7c369a4,6685aa9113c938e83b4f1ea0,66fb989748a60f6626dde607,2024-10-01_08h08.12.992,WTP_SM_Choice,2022.2.1,MacIntel,59.17159763,,,,,,,,,,,,,,,,,,57,,,,,,,,,,0.02,1,2.2831,0,1,1,1,1,Get bubble tea and walking around the mall with my best friend on a sunday,Listen to music while journaling in my room with dim lighting,0.02,0.02,4.4,0,,,,
,,66ba909954ae8842a7c369a4,6685aa9113c938e83b4f1ea0,66fb989748a60f6626dde607,2024-10-01_08h08.12.992,WTP_SM_Choice,2022.2.1,MacIntel,59.17159763,,,,,,,,,,,,,,,,,,58,,,,,,,,,,0.02,2,1.8814,0,2,2,2,1,Take a long walk in the park with my headphones on,Have a game night with my close friends at someones house on a saturday,0.03,0.02,4.4,1,,,,
,,66ba909954ae8842a7c369a4,6685aa9113c938e83b4f1ea0,66fb989748a60f6626dde607,2024-10-01_08h08.12.992,WTP_SM_Choice,2022.2.1,MacIntel,59.17159763,,,,,,,,,,,,,,,,,,59,,,,,,,,,,0.02,2,1.5154,0,3,3,3,1,Get bubble tea and walking around the mall with my best friend on a sunday,Organize my closet while playing a chill playlist,0.04,0.02,4.4,0,,,,
,,66ba909954ae8842a7c369a4,6685aa9113c938e83b4f1ea0,66fb989748a60f6626dde607,2024-10-01_08h08.12.992,WTP_SM_Choice,2022.2.1,MacIntel,59.17159763,,,,,,,,,,,,,,,,,,60,,,,,,,,,,0.02,2,1.2884,0,4,4,4,1,Bake cookies in the kitchen on a sunday afternoon,Attend a live concert with my friends in the city,0.05,0.02,1.1,1,,,,
,,66ba909954ae8842a7c369a4,6685aa9113c938e83b4f1ea0,66fb989748a60f6626dde607,2024-10-01_08h08.12.992,WTP_SM_Choice,2022.2.1,MacIntel,59.17159763,,,,,,,NAN,,NAN,1.32,4.68,,0,59,59,59,1,60,Riley,Acc,Participant_Images/66ba909954ae8842a7c369a4/66ba909954ae8842a7c369a4_Images/66ba909954ae8842a7c369a4_Image_18.jpeg,liked,1.661473164,,,,,,,,,,,,,,,,,,,,,,
,,66ba909954ae8842a7c369a4,6685aa9113c938e83b4f1ea0,66fb989748a60f6626dde607,2024-10-01_08h08.12.992,WTP_SM_Choice,2022.2.1,MacIntel,59.17159763,,,,,space,2.4011,NAN,,NAN,1.32,4.68,,0,60,60,60,1,61,Riley,Acc,Participant_Images/66ba909954ae8842a7c369a4/66ba909954ae8842a7c369a4_Images/66ba909954ae8842a7c369a4_Image_16.jpeg,liked,3.613205605,,,,,,,,,,,,,,,,,,,,,,
,,66ba909954ae8842a7c369a4,6685aa9113c938e83b4f1ea0,66fb989748a60f6626dde607,2024-10-01_08h08.12.992,WTP_SM_Choice,2022.2.1,MacIntel,59.17159763,,,,,space,1.1484,NAN,,NAN,1.32,4.68,,0,61,61,61,1,62,Riley,Acc,Participant_Images/66ba909954ae8842a7c369a4/66ba909954ae8842a7c369a4_Images/66ba909954ae8842a7c369a4_Image_1.jpeg,liked,4.988446431,,,,,,,,,,,,,,,,,,,,,,
,,66ba909954ae8842a7c369a4,6685aa9113c938e83b4f1ea0,66fb989748a60f6626dde607,2024-10-01_08h08.12.992,WTP_SM_Choice,2022.2.1,MacIntel,59.17159763,,,,,space,7.3183,NAN,,NAN,1.32,4.68,,0,62,62,62,1,63,Riley,Acc,Participant_Images/66ba909954ae8842a7c369a4/66ba909954ae8842a7c369a4_Images/66ba909954ae8842a7c369a4_Image_12.jpeg,liked,3.470791822,,,,,,,,,,,,,,,,,,,,,,
,,66ba909954ae8842a7c369a4,6685aa9113c938e83b4f1ea0,66fb989748a60f6626dde607,2024-10-01_08h08.12.992,WTP_SM_Choice,2022.2.1,MacIntel,59.17159763,,,,,space,1.3553,NAN,,NAN,1.32,4.68,,0,63,63,63,1,64,Riley,Acc,Participant_Images/66ba909954ae8842a7c369a4/66ba909954ae8842a7c369a4_Images/66ba909954ae8842a7c369a4_Image_22.jpeg,did not like,3.820572462,,,,,,,,,,,,,,,,,,,,,,
,,66ba909954ae8842a7c369a4,6685aa9113c938e83b4f1ea0,66fb989748a60f6626dde607,2024-10-01_08h08.12.992,WTP_SM_Choice,2022.2.1,MacIntel,59.17159763,,,,,,,,,,,,,,,,,,61,,,,,,space,1.3397,space,0.6447,0.01,1,1.5151,0,0,0,0,1,Go to the movies with my siblings on a rainy weekend,Play video games in my room with the window open for fresh air,0.01,0.03,3.3,0,,,,
,,66ba909954ae8842a7c369a4,6685aa9113c938e83b4f1ea0,66fb989748a60f6626dde607,2024-10-01_08h08.12.992,WTP_SM_Choice,2022.2.1,MacIntel,59.17159763,,,,,,,,,,,,,,,,,,62,,,,,,,,,,0.02,1,5.0978,0,1,1,1,1,Play video games in my room with the window open for fresh air,Host a bbq with my family in the backyard on a warm evening,0.02,0.03,3.3,1,,,,
,,66ba909954ae8842a7c369a4,6685aa9113c938e83b4f1ea0,66fb989748a60f6626dde607,2024-10-01_08h08.12.992,WTP_SM_Choice,2022.2.1,MacIntel,59.17159763,,,,,,,,,,,,,,,,,,63,,,,,,,,,,0.03,1,3.0678,0,2,2,2,1,Read a novel in bed on a chilly day under a cozy blanket,Grab pizza with my friends on a friday night after school,0.03,0.03,3.3,1,,,,
,,66ba909954ae8842a7c369a4,6685aa9113c938e83b4f1ea0,66fb989748a60f6626dde607,2024-10-01_08h08.12.992,WTP_SM_Choice,2022.2.1,MacIntel,59.17159763,,,,,,,,,,,,,,,,,,64,,,,,,,,,,,,,0,3,3,3,1,Rearrange my room furniture after getting new decor,Study for finals with my classmates at the library late at night,0.04,0.03,1.1,1,,,,
,,66ba909954ae8842a7c369a4,6685aa9113c938e83b4f1ea0,66fb989748a60f6626dde607,2024-10-01_08h08.12.992,WTP_SM_Choice,2022.2.1,MacIntel,59.17159763,,,,,,,,,,,,,,,,,,65,,,,,,,,,,0.03,2,1.6535,0,4,4,4,1,Attend a live concert with my friends in the city,Watch random youtube documentaries late at night in bed,0.05,0.03,1.1,0,,,,
,,66ba909954ae8842a7c369a4,6685aa9113c938e83b4f1ea0,66fb989748a60f6626dde607,2024-10-01_08h08.12.992,WTP_SM_Choice,2022.2.1,MacIntel,59.17159763,,,,,,,NAN,,NAN,1.41,4.59,,0,64,64,64,1,65,Riley,Acc,Participant_Images/66ba909954ae8842a7c369a4/66ba909954ae8842a7c369a4_Images/66ba909954ae8842a7c369a4_Image_20.jpeg,liked,2.455989137,,,,,,,,,,,,,,,,,,,,,,
,,66ba909954ae8842a7c369a4,6685aa9113c938e83b4f1ea0,66fb989748a60f6626dde607,2024-10-01_08h08.12.992,WTP_SM_Choice,2022.2.1,MacIntel,59.17159763,,,,,space,2.6528,NAN,,NAN,1.41,4.59,,0,65,65,65,1,66,Riley,Acc,Participant_Images/66ba909954ae8842a7c369a4/66ba909954ae8842a7c369a4_Images/66ba909954ae8842a7c369a4_Image_17.jpeg,liked,3.79605092,,,,,,,,,,,,,,,,,,,,,,
,,66ba909954ae8842a7c369a4,6685aa9113c938e83b4f1ea0,66fb989748a60f6626dde607,2024-10-01_08h08.12.992,WTP_SM_Choice,2022.2.1,MacIntel,59.17159763,,,,,space,4.2708,NAN,,NAN,1.41,4.59,,0,66,66,66,1,67,Riley,Acc,Participant_Images/66ba909954ae8842a7c369a4/66ba909954ae8842a7c369a4_Images/66ba909954ae8842a7c369a4_Image_11.jpeg,liked,3.562416326,,,,,,,,,,,,,,,,,,,,,,
,,66ba909954ae8842a7c369a4,6685aa9113c938e83b4f1ea0,66fb989748a60f6626dde607,2024-10-01_08h08.12.992,WTP_SM_Choice,2022.2.1,MacIntel,59.17159763,,,,,space,5.7665,NAN,,NAN,1.41,4.59,,0,67,67,67,1,68,Riley,Acc,Participant_Images/66ba909954ae8842a7c369a4/66ba909954ae8842a7c369a4_Images/66ba909954ae8842a7c369a4_Image_6.jpeg,liked,2.843822497,,,,,,,,,,,,,,,,,,,,,,
,,66ba909954ae8842a7c369a4,6685aa9113c938e83b4f1ea0,66fb989748a60f6626dde607,2024-10-01_08h08.12.992,WTP_SM_Choice,2022.2.1,MacIntel,59.17159763,,,,,space,3.437,NAN,,NAN,1.41,4.59,,0,68,68,68,1,69,Riley,Acc,Participant_Images/66ba909954ae8842a7c369a4/66ba909954ae8842a7c369a4_Images/66ba909954ae8842a7c369a4_Image_23.jpeg,liked,3.546495948,,,,,,,,,,,,,,,,,,,,,,
,,66ba909954ae8842a7c369a4,6685aa9113c938e83b4f1ea0,66fb989748a60f6626dde607,2024-10-01_08h08.12.992,WTP_SM_Choice,2022.2.1,MacIntel,59.17159763,,,,,,,,,,,,,,,,,,66,,,,,,space,4.0802,space,1.1823,0.01,1,1.3585,0,0,0,0,1,Sketch random doodles in my notebook at a quiet caf,Go for a hike with my best friend in the mountains during fall,0.01,0.04,1.1,1,,,,
,,66ba909954ae8842a7c369a4,6685aa9113c938e83b4f1ea0,66fb989748a60f6626dde607,2024-10-01_08h08.12.992,WTP_SM_Choice,2022.2.1,MacIntel,59.17159763,,,,,,,,,,,,,,,,,,67,,,,,,,,,,0.02,1,1.514,0,1,1,1,1,Rearrange my room furniture after getting new decor,Host a bbq with my family in the backyard on a warm evening,0.02,0.04,8.8,1,,,,
,,66ba909954ae8842a7c369a4,6685aa9113c938e83b4f1ea0,66fb989748a60f6626dde607,2024-10-01_08h08.12.992,WTP_SM_Choice,2022.2.1,MacIntel,59.17159763,,,,,,,,,,,,,,,,,,68,,,,,,,,,,0.03,1,2.4178,0,2,2,2,1,Daydream while watching clouds from my balcony on a breezy evening,Playing basketball with my cousins at the park on a sunny afternoon,0.03,0.04,4.4,1,,,,
,,66ba909954ae8842a7c369a4,6685aa9113c938e83b4f1ea0,66fb989748a60f6626dde607,2024-10-01_08h08.12.992,WTP_SM_Choice,2022.2.1,MacIntel,59.17159763,,,,,,,,,,,,,,,,,,69,,,,,,,,,,0.04,1,2.7122,0,3,3,3,1,Host a bbq with my family in the backyard on a warm evening,Bake cookies in the kitchen on a sunday afternoon,0.04,0.04,1.1,0,,,,
,,66ba909954ae8842a7c369a4,6685aa9113c938e83b4f1ea0,66fb989748a60f6626dde607,2024-10-01_08h08.12.992,WTP_SM_Choice,2022.2.1,MacIntel,59.17159763,,,,,,,,,,,,,,,,,,70,,,,,,,,,,0.04,2,2.8457,0,4,4,4,1,Rearrange my room furniture after getting new decor,Attend a live concert with my friends in the city,0.05,0.04,1.1,1,,,,
,,66ba909954ae8842a7c369a4,6685aa9113c938e83b4f1ea0,66fb989748a60f6626dde607,2024-10-01_08h08.12.992,WTP_SM_Choice,2022.2.1,MacIntel,59.17159763,,,,,,,NAN,,NAN,1.55,4.45,,0,69,69,69,1,70,Riley,Acc,Participant_Images/66ba909954ae8842a7c369a4/66ba909954ae8842a7c369a4_Images/66ba909954ae8842a7c369a4_Image_5.jpeg,liked,1.672012706,,,,,,,,,,,,,,,,,,,,,,
,,66ba909954ae8842a7c369a4,6685aa9113c938e83b4f1ea0,66fb989748a60f6626dde607,2024-10-01_08h08.12.992,WTP_SM_Choice,2022.2.1,MacIntel,59.17159763,,,,,space,3.5975,NAN,,NAN,1.55,4.45,,0,70,70,70,1,71,Riley,Acc,Participant_Images/66ba909954ae8842a7c369a4/66ba909954ae8842a7c369a4_Images/66ba909954ae8842a7c369a4_Image_25.jpeg,did not like,4.942172136,,,,,,,,,,,,,,,,,,,,,,
,,66ba909954ae8842a7c369a4,6685aa9113c938e83b4f1ea0,66fb989748a60f6626dde607,2024-10-01_08h08.12.992,WTP_SM_Choice,2022.2.1,MacIntel,59.17159763,,,,,space,1.0689,NAN,,NAN,1.55,4.45,,0,71,71,71,1,72,Riley,Acc,Participant_Images/66ba909954ae8842a7c369a4/66ba909954ae8842a7c369a4_Images/66ba909954ae8842a7c369a4_Image_4.jpeg,did not like,2.50187214,,,,,,,,,,,,,,,,,,,,,,
,,66ba909954ae8842a7c369a4,6685aa9113c938e83b4f1ea0,66fb989748a60f6626dde607,2024-10-01_08h08.12.992,WTP_SM_Choice,2022.2.1,MacIntel,59.17159763,,,,,space,4.0002,NAN,,NAN,1.55,4.45,,0,72,72,72,1,73,Riley,Acc,Participant_Images/66ba909954ae8842a7c369a4/66ba909954ae8842a7c369a4_Images/66ba909954ae8842a7c369a4_Image_19.jpeg,did not like,2.071164779,,,,,,,,,,,,,,,,,,,,,,
,,66ba909954ae8842a7c369a4,6685aa9113c938e83b4f1ea0,66fb989748a60f6626dde607,2024-10-01_08h08.12.992,WTP_SM_Choice,2022.2.1,MacIntel,59.17159763,,,,,space,2.5972,NAN,,NAN,1.55,4.45,,0,73,73,73,1,74,Riley,Acc,Participant_Images/66ba909954ae8842a7c369a4/66ba909954ae8842a7c369a4_Images/66ba909954ae8842a7c369a4_Image_8.jpeg,did not like,5.336503566,,,,,,,,,,,,,,,,,,,,,,
,,66ba909954ae8842a7c369a4,6685aa9113c938e83b4f1ea0,66fb989748a60f6626dde607,2024-10-01_08h08.12.992,WTP_SM_Choice,2022.2.1,MacIntel,59.17159763,,,,,,,,,,,,,,,,,,71,,,,,,space,1.0484,space,0.5434,0.01,1,0.7712,0,0,0,0,1,Listen to music while journaling in my room with dim lighting,Go for a hike with my best friend in the mountains during fall,0.01,0.05,3.3,1,,,,
,,66ba909954ae8842a7c369a4,6685aa9113c938e83b4f1ea0,66fb989748a60f6626dde607,2024-10-01_08h08.12.992,WTP_SM_Choice,2022.2.1,MacIntel,59.17159763,,,,,,,,,,,,,,,,,,72,,,,,,,,,,0.02,1,1.0129,0,1,1,1,1,Grab pizza with my friends on a friday night after school,Take a long walk in the park with my headphones on,0.02,0.05,8.8,0,,,,
,,66ba909954ae8842a7c369a4,6685aa9113c938e83b4f1ea0,66fb989748a60f6626dde607,2024-10-01_08h08.12.992,WTP_SM_Choice,2022.2.1,MacIntel,59.17159763,,,,,,,,,,,,,,,,,,73,,,,,,,,,,0.03,1,1.8569,0,2,2,2,1,Grab pizza with my friends on a friday night after school,Rearrange my room furniture after getting new decor,0.03,0.05,3.3,0,,,,
,,66ba909954ae8842a7c369a4,6685aa9113c938e83b4f1ea0,66fb989748a60f6626dde607,2024-10-01_08h08.12.992,WTP_SM_Choice,2022.2.1,MacIntel,59.17159763,,,,,,,,,,,,,,,,,,74,,,,,,,,,,0.04,1,1.3311,0,3,3,3,1,Bake cookies in the kitchen on a sunday afternoon,Get bubble tea and walking around the mall with my best friend on a sunday,0.04,0.05,4.4,1,,,,
,,66ba909954ae8842a7c369a4,6685aa9113c938e83b4f1ea0,66fb989748a60f6626dde607,2024-10-01_08h08.12.992,WTP_SM_Choice,2022.2.1,MacIntel,59.17159763,,,,,,,,,,,,,,,,,,75,,,,,,,,,,0.05,2,3.1184,0,4,4,4,1,Attend a live concert with my friends in the city,Daydream while watching clouds from my balcony on a breezy evening,0.05,0.05,3.3,0,,,,
,,66ba909954ae8842a7c369a4,6685aa9113c938e83b4f1ea0,66fb989748a60f6626dde607,2024-10-01_08h08.12.992,WTP_SM_Choice,2022.2.1,MacIntel,59.17159763,,,,,,,4,,8,1.7,4.3,,0,74,74,74,1,75,Riley,Acc,Participant_Images/66ba909954ae8842a7c369a4/66ba909954ae8842a7c369a4_Images/66ba909954ae8842a7c369a4_Image_9.jpeg,liked,2.642157193,,,,,,,,,,,,,,,,,,,space,3.329,,
,,66ba909954ae8842a7c369a4,6685aa9113c938e83b4f1ea0,66fb989748a60f6626dde607,2024-10-01_08h08.12.992,WTP_SM_Choice,2022.2.1,MacIntel,59.17159763,,,space,2.405,space,1.4711,NAN,,NAN,1.7,4.3,,0,75,75,75,1,76,Charlie,Acc,Participant_Images/66ba909954ae8842a7c369a4/66ba909954ae8842a7c369a4_Images/66ba909954ae8842a7c369a4_Image_4.jpeg,liked,4.456234322,,,,,,,,,,,,,,,,,,,,,,
,,66ba909954ae8842a7c369a4,6685aa9113c938e83b4f1ea0,66fb989748a60f6626dde607,2024-10-01_08h08.12.992,WTP_SM_Choice,2022.2.1,MacIntel,59.17159763,,,,,space,1.1287,NAN,,NAN,1.7,4.3,,0,76,76,76,1,77,Charlie,Acc,Participant_Images/66ba909954ae8842a7c369a4/66ba909954ae8842a7c369a4_Images/66ba909954ae8842a7c369a4_Image_5.jpeg,liked,4.438512181,,,,,,,,,,,,,,,,,,,,,,
,,66ba909954ae8842a7c369a4,6685aa9113c938e83b4f1ea0,66fb989748a60f6626dde607,2024-10-01_08h08.12.992,WTP_SM_Choice,2022.2.1,MacIntel,59.17159763,,,,,space,11.6009,NAN,,NAN,1.7,4.3,,0,77,77,77,1,78,Charlie,Acc,Participant_Images/66ba909954ae8842a7c369a4/66ba909954ae8842a7c369a4_Images/66ba909954ae8842a7c369a4_Image_1.jpeg,liked,2.682944783,,,,,,,,,,,,,,,,,,,,,,
,,66ba909954ae8842a7c369a4,6685aa9113c938e83b4f1ea0,66fb989748a60f6626dde607,2024-10-01_08h08.12.992,WTP_SM_Choice,2022.2.1,MacIntel,59.17159763,,,,,space,1.7409,NAN,,NAN,1.7,4.3,,0,78,78,78,1,79,Charlie,Acc,Participant_Images/66ba909954ae8842a7c369a4/66ba909954ae8842a7c369a4_Images/66ba909954ae8842a7c369a4_Image_16.jpeg,liked,4.51984296,,,,,,,,,,,,,,,,,,,,,,
,,66ba909954ae8842a7c369a4,6685aa9113c938e83b4f1ea0,66fb989748a60f6626dde607,2024-10-01_08h08.12.992,WTP_SM_Choice,2022.2.1,MacIntel,59.17159763,,,,,,,,,,,,,,,,,,76,,,,,,space,10.9346,space,85.1092,0.01,1,2.6825,0,0,0,0,1,Playing basketball with my cousins at the park on a sunny afternoon,Read a novel in bed on a chilly day under a cozy blanket,0.01,0.01,1.1,0,,,,
,,66ba909954ae8842a7c369a4,6685aa9113c938e83b4f1ea0,66fb989748a60f6626dde607,2024-10-01_08h08.12.992,WTP_SM_Choice,2022.2.1,MacIntel,59.17159763,,,,,,,,,,,,,,,,,,77,,,,,,,,,,0.01,2,1.3328,0,1,1,1,1,Organize my closet while playing a chill playlist,Playing basketball with my cousins at the park on a sunny afternoon,0.02,0.01,8.8,1,,,,
,,66ba909954ae8842a7c369a4,6685aa9113c938e83b4f1ea0,66fb989748a60f6626dde607,2024-10-01_08h08.12.992,WTP_SM_Choice,2022.2.1,MacIntel,59.17159763,,,,,,,,,,,,,,,,,,78,,,,,,,,,,0.01,2,2.1845,0,2,2,2,1,Go for a hike with my best friend in the mountains during fall,Take a long walk in the park with my headphones on,0.03,0.01,1.1,0,,,,
,,66ba909954ae8842a7c369a4,6685aa9113c938e83b4f1ea0,66fb989748a60f6626dde607,2024-10-01_08h08.12.992,WTP_SM_Choice,2022.2.1,MacIntel,59.17159763,,,,,,,,,,,,,,,,,,79,,,,,,,,,,,,,0,3,3,3,1,Go for a hike with my best friend in the mountains during fall,Read a novel in bed on a chilly day under a cozy blanket,0.04,0.01,1.1,0,,,,
,,66ba909954ae8842a7c369a4,6685aa9113c938e83b4f1ea0,66fb989748a60f6626dde607,2024-10-01_08h08.12.992,WTP_SM_Choice,2022.2.1,MacIntel,59.17159763,,,,,,,,,,,,,,,,,,80,,,,,,,,,,0.01,2,8.2463,0,4,4,4,1,Go to the movies with my siblings on a rainy weekend,Listen to music while journaling in my room with dim lighting,0.05,0.01,4.4,0,,,,
,,66ba909954ae8842a7c369a4,6685aa9113c938e83b4f1ea0,66fb989748a60f6626dde607,2024-10-01_08h08.12.992,WTP_SM_Choice,2022.2.1,MacIntel,59.17159763,,,,,,,NAN,,NAN,1.74,4.26,,0,79,79,79,1,80,Charlie,Acc,Participant_Images/66ba909954ae8842a7c369a4/66ba909954ae8842a7c369a4_Images/66ba909954ae8842a7c369a4_Image_8.jpeg,liked,3.195382774,,,,,,,,,,,,,,,,,,,,,,
,,66ba909954ae8842a7c369a4,6685aa9113c938e83b4f1ea0,66fb989748a60f6626dde607,2024-10-01_08h08.12.992,WTP_SM_Choice,2022.2.1,MacIntel,59.17159763,,,,,space,0.9322,NAN,,NAN,1.74,4.26,,0,80,80,80,1,81,Charlie,Acc,Participant_Images/66ba909954ae8842a7c369a4/66ba909954ae8842a7c369a4_Images/66ba909954ae8842a7c369a4_Image_2.jpeg,liked,1.779333479,,,,,,,,,,,,,,,,,,,,,,
,,66ba909954ae8842a7c369a4,6685aa9113c938e83b4f1ea0,66fb989748a60f6626dde607,2024-10-01_08h08.12.992,WTP_SM_Choice,2022.2.1,MacIntel,59.17159763,,,,,space,1.4508,NAN,,NAN,1.74,4.26,,0,81,81,81,1,82,Charlie,Acc,Participant_Images/66ba909954ae8842a7c369a4/66ba909954ae8842a7c369a4_Images/66ba909954ae8842a7c369a4_Image_10.jpeg,did not like,4.312468682,,,,,,,,,,,,,,,,,,,,,,
,,66ba909954ae8842a7c369a4,6685aa9113c938e83b4f1ea0,66fb989748a60f6626dde607,2024-10-01_08h08.12.992,WTP_SM_Choice,2022.2.1,MacIntel,59.17159763,,,,,space,5.732,NAN,,NAN,1.74,4.26,,0,82,82,82,1,83,Charlie,Acc,Participant_Images/66ba909954ae8842a7c369a4/66ba909954ae8842a7c369a4_Images/66ba909954ae8842a7c369a4_Image_23.jpeg,liked,4.940433059,,,,,,,,,,,,,,,,,,,,,,
,,66ba909954ae8842a7c369a4,6685aa9113c938e83b4f1ea0,66fb989748a60f6626dde607,2024-10-01_08h08.12.992,WTP_SM_Choice,2022.2.1,MacIntel,59.17159763,,,,,space,2.4934,NAN,,NAN,1.74,4.26,,0,83,83,83,1,84,Charlie,Acc,Participant_Images/66ba909954ae8842a7c369a4/66ba909954ae8842a7c369a4_Images/66ba909954ae8842a7c369a4_Image_20.jpeg,did not like,2.7105123,,,,,,,,,,,,,,,,,,,,,,
,,66ba909954ae8842a7c369a4,6685aa9113c938e83b4f1ea0,66fb989748a60f6626dde607,2024-10-01_08h08.12.992,WTP_SM_Choice,2022.2.1,MacIntel,59.17159763,,,,,,,,,,,,,,,,,,81,,,,,,space,18.3496,space,7.1664,0.01,1,3.6426,0,0,0,0,1,Grab pizza with my friends on a friday night after school,Organize my closet while playing a chill playlist,0.01,0.02,3.3,0,,,,
,,66ba909954ae8842a7c369a4,6685aa9113c938e83b4f1ea0,66fb989748a60f6626dde607,2024-10-01_08h08.12.992,WTP_SM_Choice,2022.2.1,MacIntel,59.17159763,,,,,,,,,,,,,,,,,,82,,,,,,,,,,0.02,2,4.7163,0,1,1,1,1,Study for finals with my classmates at the library late at night,Bake cookies in the kitchen on a sunday afternoon,0.02,0.02,4.4,0,,,,
,,66ba909954ae8842a7c369a4,6685aa9113c938e83b4f1ea0,66fb989748a60f6626dde607,2024-10-01_08h08.12.992,WTP_SM_Choice,2022.2.1,MacIntel,59.17159763,,,,,,,,,,,,,,,,,,83,,,,,,,,,,0.02,2,2.4053,0,2,2,2,1,Have a game night with my close friends at someones house on a saturday,Listen to music while journaling in my room with dim lighting,0.03,0.02,1.1,0,,,,
,,66ba909954ae8842a7c369a4,6685aa9113c938e83b4f1ea0,66fb989748a60f6626dde607,2024-10-01_08h08.12.992,WTP_SM_Choice,2022.2.1,MacIntel,59.17159763,,,,,,,,,,,,,,,,,,84,,,,,,,,,,0.02,2,1.9396,0,3,3,3,1,Have a game night with my close friends at someones house on a saturday,Read a novel in bed on a chilly day under a cozy blanket,0.04,0.02,3.3,0,,,,
,,66ba909954ae8842a7c369a4,6685aa9113c938e83b4f1ea0,66fb989748a60f6626dde607,2024-10-01_08h08.12.992,WTP_SM_Choice,2022.2.1,MacIntel,59.17159763,,,,,,,,,,,,,,,,,,85,,,,,,,,,,0.02,2,1.5375,0,4,4,4,1,Study for finals with my classmates at the library late at night,Organize my closet while playing a chill playlist,0.05,0.02,3.3,0,,,,
,,66ba909954ae8842a7c369a4,6685aa9113c938e83b4f1ea0,66fb989748a60f6626dde607,2024-10-01_08h08.12.992,WTP_SM_Choice,2022.2.1,MacIntel,59.17159763,,,,,,,NAN,,NAN,1.83,4.17,,0,84,84,84,1,85,Charlie,Acc,Participant_Images/66ba909954ae8842a7c369a4/66ba909954ae8842a7c369a4_Images/66ba909954ae8842a7c369a4_Image_9.jpeg,liked,3.602308302,,,,,,,,,,,,,,,,,,,,,,
,,66ba909954ae8842a7c369a4,6685aa9113c938e83b4f1ea0,66fb989748a60f6626dde607,2024-10-01_08h08.12.992,WTP_SM_Choice,2022.2.1,MacIntel,59.17159763,,,,,space,2.0469,NAN,,NAN,1.83,4.17,,0,85,85,85,1,86,Charlie,Acc,Participant_Images/66ba909954ae8842a7c369a4/66ba909954ae8842a7c369a4_Images/66ba909954ae8842a7c369a4_Image_11.jpeg,did not like,4.106391878,,,,,,,,,,,,,,,,,,,,,,
,,66ba909954ae8842a7c369a4,6685aa9113c938e83b4f1ea0,66fb989748a60f6626dde607,2024-10-01_08h08.12.992,WTP_SM_Choice,2022.2.1,MacIntel,59.17159763,,,,,space,0.9348,NAN,,NAN,1.83,4.17,,0,86,86,86,1,87,Charlie,Acc,Participant_Images/66ba909954ae8842a7c369a4/66ba909954ae8842a7c369a4_Images/66ba909954ae8842a7c369a4_Image_21.jpeg,liked,3.799433026,,,,,,,,,,,,,,,,,,,,,,
,,66ba909954ae8842a7c369a4,6685aa9113c938e83b4f1ea0,66fb989748a60f6626dde607,2024-10-01_08h08.12.992,WTP_SM_Choice,2022.2.1,MacIntel,59.17159763,,,,,space,3.8361,NAN,,NAN,1.83,4.17,,0,87,87,87,1,88,Charlie,Acc,Participant_Images/66ba909954ae8842a7c369a4/66ba909954ae8842a7c369a4_Images/66ba909954ae8842a7c369a4_Image_7.jpeg,did not like,5.246980764,,,,,,,,,,,,,,,,,,,,,,
,,66ba909954ae8842a7c369a4,6685aa9113c938e83b4f1ea0,66fb989748a60f6626dde607,2024-10-01_08h08.12.992,WTP_SM_Choice,2022.2.1,MacIntel,59.17159763,,,,,space,0.5654,NAN,,NAN,1.83,4.17,,0,88,88,88,1,89,Charlie,Acc,Participant_Images/66ba909954ae8842a7c369a4/66ba909954ae8842a7c369a4_Images/66ba909954ae8842a7c369a4_Image_6.jpeg,liked,3.30081769,,,,,,,,,,,,,,,,,,,,,,
,,66ba909954ae8842a7c369a4,6685aa9113c938e83b4f1ea0,66fb989748a60f6626dde607,2024-10-01_08h08.12.992,WTP_SM_Choice,2022.2.1,MacIntel,59.17159763,,,,,,,,,,,,,,,,,,86,,,,,,space,0.7806,space,0.5646,0.01,1,0.9766,0,0,0,0,1,Playing basketball with my cousins at the park on a sunny afternoon,Take a long walk in the park with my headphones on,0.01,0.03,1.1,0,,,,
,,66ba909954ae8842a7c369a4,6685aa9113c938e83b4f1ea0,66fb989748a60f6626dde607,2024-10-01_08h08.12.992,WTP_SM_Choice,2022.2.1,MacIntel,59.17159763,,,,,,,,,,,,,,,,,,87,,,,,,,,,,0.02,1,3.7326,0,1,1,1,1,Sketch random doodles in my notebook at a quiet caf,Grab pizza with my friends on a friday night after school,0.02,0.03,4.4,1,,,,
,,66ba909954ae8842a7c369a4,6685aa9113c938e83b4f1ea0,66fb989748a60f6626dde607,2024-10-01_08h08.12.992,WTP_SM_Choice,2022.2.1,MacIntel,59.17159763,,,,,,,,,,,,,,,,,,88,,,,,,,,,,0.03,1,1.2494,0,2,2,2,1,Get bubble tea and walking around the mall with my best friend on a sunday,Take a long walk in the park with my headphones on,0.03,0.03,1.1,0,,,,
,,66ba909954ae8842a7c369a4,6685aa9113c938e83b4f1ea0,66fb989748a60f6626dde607,2024-10-01_08h08.12.992,WTP_SM_Choice,2022.2.1,MacIntel,59.17159763,,,,,,,,,,,,,,,,,,89,,,,,,,,,,0.03,2,1.1514,0,3,3,3,1,Watch random youtube documentaries late at night in bed,Playing basketball with my cousins at the park on a sunny afternoon,0.04,0.03,3.3,1,,,,
,,66ba909954ae8842a7c369a4,6685aa9113c938e83b4f1ea0,66fb989748a60f6626dde607,2024-10-01_08h08.12.992,WTP_SM_Choice,2022.2.1,MacIntel,59.17159763,,,,,,,,,,,,,,,,,,90,,,,,,,,,,0.03,2,1.0297,0,4,4,4,1,Read a novel in bed on a chilly day under a cozy blanket,Attend a live concert with my friends in the city,0.05,0.03,8.8,1,,,,
,,66ba909954ae8842a7c369a4,6685aa9113c938e83b4f1ea0,66fb989748a60f6626dde607,2024-10-01_08h08.12.992,WTP_SM_Choice,2022.2.1,MacIntel,59.17159763,,,,,,,NAN,,NAN,1.95,4.05,,0,89,89,89,1,90,Charlie,Acc,Participant_Images/66ba909954ae8842a7c369a4/66ba909954ae8842a7c369a4_Images/66ba909954ae8842a7c369a4_Image_12.jpeg,liked,1.661473164,,,,,,,,,,,,,,,,,,,,,,
,,66ba909954ae8842a7c369a4,6685aa9113c938e83b4f1ea0,66fb989748a60f6626dde607,2024-10-01_08h08.12.992,WTP_SM_Choice,2022.2.1,MacIntel,59.17159763,,,,,space,0.6331,NAN,,NAN,1.95,4.05,,0,90,90,90,1,91,Charlie,Acc,Participant_Images/66ba909954ae8842a7c369a4/66ba909954ae8842a7c369a4_Images/66ba909954ae8842a7c369a4_Image_19.jpeg,did not like,3.613205605,,,,,,,,,,,,,,,,,,,,,,
,,66ba909954ae8842a7c369a4,6685aa9113c938e83b4f1ea0,66fb989748a60f6626dde607,2024-10-01_08h08.12.992,WTP_SM_Choice,2022.2.1,MacIntel,59.17159763,,,,,space,1.1533,NAN,,NAN,1.95,4.05,,0,91,91,91,1,92,Charlie,Acc,Participant_Images/66ba909954ae8842a7c369a4/66ba909954ae8842a7c369a4_Images/66ba909954ae8842a7c369a4_Image_15.jpeg,liked,4.988446431,,,,,,,,,,,,,,,,,,,,,,
,,66ba909954ae8842a7c369a4,6685aa9113c938e83b4f1ea0,66fb989748a60f6626dde607,2024-10-01_08h08.12.992,WTP_SM_Choice,2022.2.1,MacIntel,59.17159763,,,,,space,0.8661,NAN,,NAN,1.95,4.05,,0,92,92,92,1,93,Charlie,Acc,Participant_Images/66ba909954ae8842a7c369a4/66ba909954ae8842a7c369a4_Images/66ba909954ae8842a7c369a4_Image_25.jpeg,liked,3.470791822,,,,,,,,,,,,,,,,,,,,,,
,,66ba909954ae8842a7c369a4,6685aa9113c938e83b4f1ea0,66fb989748a60f6626dde607,2024-10-01_08h08.12.992,WTP_SM_Choice,2022.2.1,MacIntel,59.17159763,,,,,space,3.2014,NAN,,NAN,1.95,4.05,,0,93,93,93,1,94,Charlie,Acc,Participant_Images/66ba909954ae8842a7c369a4/66ba909954ae8842a7c369a4_Images/66ba909954ae8842a7c369a4_Image_14.jpeg,did not like,3.820572462,,,,,,,,,,,,,,,,,,,,,,
,,66ba909954ae8842a7c369a4,6685aa9113c938e83b4f1ea0,66fb989748a60f6626dde607,2024-10-01_08h08.12.992,WTP_SM_Choice,2022.2.1,MacIntel,59.17159763,,,,,,,,,,,,,,,,,,91,,,,,,space,0.8732,space,0.5962,0.01,1,0.7468,0,0,0,0,1,Go to the beach with my family on a hot summer day,Organize my closet while playing a chill playlist,0.01,0.04,3.3,0,,,,
,,66ba909954ae8842a7c369a4,6685aa9113c938e83b4f1ea0,66fb989748a60f6626dde607,2024-10-01_08h08.12.992,WTP_SM_Choice,2022.2.1,MacIntel,59.17159763,,,,,,,,,,,,,,,,,,92,,,,,,,,,,0.04,2,1.2013,0,1,1,1,1,Bake cookies in the kitchen on a sunday afternoon,Have a game night with my close friends at someones house on a saturday,0.02,0.04,8.8,1,,,,
,,66ba909954ae8842a7c369a4,6685aa9113c938e83b4f1ea0,66fb989748a60f6626dde607,2024-10-01_08h08.12.992,WTP_SM_Choice,2022.2.1,MacIntel,59.17159763,,,,,,,,,,,,,,,,,,93,,,,,,,,,,0.03,1,0.836,0,2,2,2,1,Study for finals with my classmates at the library late at night,Listen to music while journaling in my room with dim lighting,0.03,0.04,1.1,0,,,,
,,66ba909954ae8842a7c369a4,6685aa9113c938e83b4f1ea0,66fb989748a60f6626dde607,2024-10-01_08h08.12.992,WTP_SM_Choice,2022.2.1,MacIntel,59.17159763,,,,,,,,,,,,,,,,,,94,,,,,,,,,,0.04,2,1.7538,0,3,3,3,1,Play video games in my room with the window open for fresh air,Go to the beach with my family on a hot summer day,0.04,0.04,4.4,1,,,,
,,66ba909954ae8842a7c369a4,6685aa9113c938e83b4f1ea0,66fb989748a60f6626dde607,2024-10-01_08h08.12.992,WTP_SM_Choice,2022.2.1,MacIntel,59.17159763,,,,,,,,,,,,,,,,,,95,,,,,,,,,,0.04,2,3.0691,0,4,4,4,1,Watch random youtube documentaries late at night in bed,Study for finals with my classmates at the library late at night,0.05,0.04,4.4,1,,,,
,,66ba909954ae8842a7c369a4,6685aa9113c938e83b4f1ea0,66fb989748a60f6626dde607,2024-10-01_08h08.12.992,WTP_SM_Choice,2022.2.1,MacIntel,59.17159763,,,,,,,NAN,,NAN,2.11,3.89,,0,94,94,94,1,95,Charlie,Acc,Participant_Images/66ba909954ae8842a7c369a4/66ba909954ae8842a7c369a4_Images/66ba909954ae8842a7c369a4_Image_17.jpeg,liked,2.455989137,,,,,,,,,,,,,,,,,,,,,,
,,66ba909954ae8842a7c369a4,6685aa9113c938e83b4f1ea0,66fb989748a60f6626dde607,2024-10-01_08h08.12.992,WTP_SM_Choice,2022.2.1,MacIntel,59.17159763,,,,,space,1.3835,NAN,,NAN,2.11,3.89,,0,95,95,95,1,96,Charlie,Acc,Participant_Images/66ba909954ae8842a7c369a4/66ba909954ae8842a7c369a4_Images/66ba909954ae8842a7c369a4_Image_13.jpeg,liked,3.79605092,,,,,,,,,,,,,,,,,,,,,,
,,66ba909954ae8842a7c369a4,6685aa9113c938e83b4f1ea0,66fb989748a60f6626dde607,2024-10-01_08h08.12.992,WTP_SM_Choice,2022.2.1,MacIntel,59.17159763,,,,,space,0.6734,NAN,,NAN,2.11,3.89,,0,96,96,96,1,97,Charlie,Acc,Participant_Images/66ba909954ae8842a7c369a4/66ba909954ae8842a7c369a4_Images/66ba909954ae8842a7c369a4_Image_3.jpeg,liked,3.562416326,,,,,,,,,,,,,,,,,,,,,,
,,66ba909954ae8842a7c369a4,6685aa9113c938e83b4f1ea0,66fb989748a60f6626dde607,2024-10-01_08h08.12.992,WTP_SM_Choice,2022.2.1,MacIntel,59.17159763,,,,,space,2.6198,NAN,,NAN,2.11,3.89,,0,97,97,97,1,98,Charlie,Acc,Participant_Images/66ba909954ae8842a7c369a4/66ba909954ae8842a7c369a4_Images/66ba909954ae8842a7c369a4_Image_22.jpeg,liked,2.843822497,,,,,,,,,,,,,,,,,,,,,,
,,66ba909954ae8842a7c369a4,6685aa9113c938e83b4f1ea0,66fb989748a60f6626dde607,2024-10-01_08h08.12.992,WTP_SM_Choice,2022.2.1,MacIntel,59.17159763,,,,,space,0.9175,NAN,,NAN,2.11,3.89,,0,98,98,98,1,99,Charlie,Acc,Participant_Images/66ba909954ae8842a7c369a4/66ba909954ae8842a7c369a4_Images/66ba909954ae8842a7c369a4_Image_24.jpeg,liked,3.546495948,,,,,,,,,,,,,,,,,,,,,,
,,66ba909954ae8842a7c369a4,6685aa9113c938e83b4f1ea0,66fb989748a60f6626dde607,2024-10-01_08h08.12.992,WTP_SM_Choice,2022.2.1,MacIntel,59.17159763,,,,,,,,,,,,,,,,,,96,,,,,,space,1.0254,space,0.7998,0.01,1,0.9806,0,0,0,0,1,Daydream while watching clouds from my balcony on a breezy evening,Go to the movies with my siblings on a rainy weekend,0.01,0.05,3.3,1,,,,
,,66ba909954ae8842a7c369a4,6685aa9113c938e83b4f1ea0,66fb989748a60f6626dde607,2024-10-01_08h08.12.992,WTP_SM_Choice,2022.2.1,MacIntel,59.17159763,,,,,,,,,,,,,,,,,,97,,,,,,,,,,0.02,1,1.3054,0,1,1,1,1,Daydream while watching clouds from my balcony on a breezy evening,Go for a hike with my best friend in the mountains during fall,0.02,0.05,1.1,1,,,,
,,66ba909954ae8842a7c369a4,6685aa9113c938e83b4f1ea0,66fb989748a60f6626dde607,2024-10-01_08h08.12.992,WTP_SM_Choice,2022.2.1,MacIntel,59.17159763,,,,,,,,,,,,,,,,,,98,,,,,,,,,,0.03,1,1.6143,0,2,2,2,1,Go to the movies with my siblings on a rainy weekend,Take a long walk in the park with my headphones on,0.03,0.05,1.1,0,,,,
,,66ba909954ae8842a7c369a4,6685aa9113c938e83b4f1ea0,66fb989748a60f6626dde607,2024-10-01_08h08.12.992,WTP_SM_Choice,2022.2.1,MacIntel,59.17159763,,,,,,,,,,,,,,,,,,99,,,,,,,,,,0.04,1,2.7339,0,3,3,3,1,Sketch random doodles in my notebook at a quiet caf,Go to the beach with my family on a hot summer day,0.04,0.05,3.3,1,,,,
,,66ba909954ae8842a7c369a4,6685aa9113c938e83b4f1ea0,66fb989748a60f6626dde607,2024-10-01_08h08.12.992,WTP_SM_Choice,2022.2.1,MacIntel,59.17159763,,,,,,,,,,,,,,,,,,100,,,,,,,,,,0.05,1,2.3854,0,4,4,4,1,Study for finals with my classmates at the library late at night,Play video games in my room with the window open for fresh air,0.05,0.05,4.4,0,,,,
,,66ba909954ae8842a7c369a4,6685aa9113c938e83b4f1ea0,66fb989748a60f6626dde607,2024-10-01_08h08.12.992,WTP_SM_Choice,2022.2.1,MacIntel,59.17159763,,,,,,,3,,8,2.26,3.74,,0,99,99,99,1,100,Charlie,Acc,Participant_Images/66ba909954ae8842a7c369a4/66ba909954ae8842a7c369a4_Images/66ba909954ae8842a7c369a4_Image_18.jpeg,did not like,1.672012706,,,,,,,,,,,,,,,,,,,space,2.968,,
,,66ba909954ae8842a7c369a4,6685aa9113c938e83b4f1ea0,66fb989748a60f6626dde607,2024-10-01_08h08.12.992,WTP_SM_Choice,2022.2.1,MacIntel,59.17159763,,,,,,,,,,,,,,,,,,,,,,,,,,,,,,,,,,,,,,,,,,,,space,3.8447
