endwelcomescreen_keys.keys,endwelcomescreen_keys.rt,participant,STUDY_ID,SESSION_ID,date,expName,psychopyVersion,OS,frameRate,endinstructionscreen_keys.keys,endinstructionscreen_keys.rt,endpartnermatch_keys.keys,endpartnermatch_keys.rt,sharenextphoto_key.keys,sharenextphoto_key.rt,salience_rating,key_resp.keys,stress_level,subtract_bonus,TOTAL_TASK_BONUS,stresslevel_keypress.keys,entiretaskloop.thisRepN,entiretaskloop.thisTrialN,entiretaskloop.thisN,entiretaskloop.thisIndex,entiretaskloop.ran,TrialNumber,Partner,Condition,Photos,Feedback,FeedbackWait,WTP_ins_keys1.keys,WTP_ins_keys1.rt,WTP_ins_keys2.keys,WTP_ins_keys2.rt,decision_price,responses.keys,responses.rt,WTPTaskLoop.thisRepN,WTPTaskLoop.thisTrialN,WTPTaskLoop.thisN,WTPTaskLoop.thisIndex,WTPTaskLoop.ran,right,left,leftmoney,rightmoney,WTP_ITI,social_left,Resume_keys.keys,Resume_keys.rt,key_resp.rt,end_screen_keys.keys,end_screen_keys.rt
space,3.313,66c0df311f98d7c9661669d9,6685aa9113c938e83b4f1ea0,67002a0b081d933e26530c4b,2024-10-04_11h47.40.293,WTP_SM_Choice,2022.2.1,MacIntel,62.5,,,,,,,,,,,,,,,,,,,,,,,,,,,,,,,,,,,,,,,,,,,,,,
,,66c0df311f98d7c9661669d9,6685aa9113c938e83b4f1ea0,67002a0b081d933e26530c4b,2024-10-04_11h47.40.293,WTP_SM_Choice,2022.2.1,MacIntel,62.5,space,7.139,,,,,,,,,,,,,,,,,,,,,,,,,,,,,,,,,,,,,,,,,,,,
,,66c0df311f98d7c9661669d9,6685aa9113c938e83b4f1ea0,67002a0b081d933e26530c4b,2024-10-04_11h47.40.293,WTP_SM_Choice,2022.2.1,MacIntel,62.5,,,space,2.813,space,3.93,NAN,,NAN,0,6,,0,0,0,0,1,1,Riley,Rej,Participant_Images/66c0df311f98d7c9661669d9/66c0df311f98d7c9661669d9_Images/66c0df311f98d7c9661669d9_Image_5.jpeg,did not like,3.613205605,,,,,,,,,,,,,,,,,,,,,,,
,,66c0df311f98d7c9661669d9,6685aa9113c938e83b4f1ea0,67002a0b081d933e26530c4b,2024-10-04_11h47.40.293,WTP_SM_Choice,2022.2.1,MacIntel,62.5,,,,,space,1.135,NAN,,NAN,0,6,,0,1,1,1,1,2,Riley,Rej,Participant_Images/66c0df311f98d7c9661669d9/66c0df311f98d7c9661669d9_Images/66c0df311f98d7c9661669d9_Image_20.jpeg,did not like,4.988446431,,,,,,,,,,,,,,,,,,,,,,,
,,66c0df311f98d7c9661669d9,6685aa9113c938e83b4f1ea0,67002a0b081d933e26530c4b,2024-10-04_11h47.40.293,WTP_SM_Choice,2022.2.1,MacIntel,62.5,,,,,space,1.834,NAN,,NAN,0,6,,0,2,2,2,1,3,Riley,Rej,Participant_Images/66c0df311f98d7c9661669d9/66c0df311f98d7c9661669d9_Images/66c0df311f98d7c9661669d9_Image_3.jpeg,liked,3.470791822,,,,,,,,,,,,,,,,,,,,,,,
,,66c0df311f98d7c9661669d9,6685aa9113c938e83b4f1ea0,67002a0b081d933e26530c4b,2024-10-04_11h47.40.293,WTP_SM_Choice,2022.2.1,MacIntel,62.5,,,,,space,0.72,NAN,,NAN,0,6,,0,3,3,3,1,4,Riley,Rej,Participant_Images/66c0df311f98d7c9661669d9/66c0df311f98d7c9661669d9_Images/66c0df311f98d7c9661669d9_Image_9.jpeg,did not like,3.820572462,,,,,,,,,,,,,,,,,,,,,,,
,,66c0df311f98d7c9661669d9,6685aa9113c938e83b4f1ea0,67002a0b081d933e26530c4b,2024-10-04_11h47.40.293,WTP_SM_Choice,2022.2.1,MacIntel,62.5,,,,,,,,,,,,,,,,,,1,,,,,,space,19.837,space,1.309,0.01,1,5.032,0,0,0,0,1,In my house decorating for halloween,Go to spirit halloween on fridays with my partner,0.01,0.01,4.4,1,,,,,
,,66c0df311f98d7c9661669d9,6685aa9113c938e83b4f1ea0,67002a0b081d933e26530c4b,2024-10-04_11h47.40.293,WTP_SM_Choice,2022.2.1,MacIntel,62.5,,,,,,,,,,,,,,,,,,2,,,,,,,,,,0.02,1,2.239,0,1,1,1,1,Work on building miniature houses at my desk,Visit haunted corn mazes in october for halloween with friends,0.02,0.01,8.8,1,,,,,
,,66c0df311f98d7c9661669d9,6685aa9113c938e83b4f1ea0,67002a0b081d933e26530c4b,2024-10-04_11h47.40.293,WTP_SM_Choice,2022.2.1,MacIntel,62.5,,,,,,,,,,,,,,,,,,3,,,,,,,,,,0.03,1,3.316,0,2,2,2,1,Skype friends weekly for dungeons and dragons,In my house decorating for halloween,0.03,0.01,3.3,0,,,,,
,,66c0df311f98d7c9661669d9,6685aa9113c938e83b4f1ea0,67002a0b081d933e26530c4b,2024-10-04_11h47.40.293,WTP_SM_Choice,2022.2.1,MacIntel,62.5,,,,,,,,,,,,,,,,,,4,,,,,,,,,,0.04,1,1.877,0,3,3,3,1,Go to spirit halloween on fridays with my partner,Go for a walk outside my house and seeing the nature outside,0.04,0.01,1.1,0,,,,,
,,66c0df311f98d7c9661669d9,6685aa9113c938e83b4f1ea0,67002a0b081d933e26530c4b,2024-10-04_11h47.40.293,WTP_SM_Choice,2022.2.1,MacIntel,62.5,,,,,,,,,,,,,,,,,,5,,,,,,,,,,0.05,1,1.679,0,4,4,4,1,Spend time at home with my cats,Skype friends weekly for dungeons and dragons,0.05,0.01,1.1,1,,,,,
,,66c0df311f98d7c9661669d9,6685aa9113c938e83b4f1ea0,67002a0b081d933e26530c4b,2024-10-04_11h47.40.293,WTP_SM_Choice,2022.2.1,MacIntel,62.5,,,,,,,NAN,,NAN,0.15,5.85,,0,4,4,4,1,5,Riley,Rej,Participant_Images/66c0df311f98d7c9661669d9/66c0df311f98d7c9661669d9_Images/66c0df311f98d7c9661669d9_Image_1.jpeg,did not like,2.455989137,,,,,,,,,,,,,,,,,,,,,,,
,,66c0df311f98d7c9661669d9,6685aa9113c938e83b4f1ea0,67002a0b081d933e26530c4b,2024-10-04_11h47.40.293,WTP_SM_Choice,2022.2.1,MacIntel,62.5,,,,,space,1.003,NAN,,NAN,0.15,5.85,,0,5,5,5,1,6,Riley,Rej,Participant_Images/66c0df311f98d7c9661669d9/66c0df311f98d7c9661669d9_Images/66c0df311f98d7c9661669d9_Image_2.jpeg,liked,3.79605092,,,,,,,,,,,,,,,,,,,,,,,
,,66c0df311f98d7c9661669d9,6685aa9113c938e83b4f1ea0,67002a0b081d933e26530c4b,2024-10-04_11h47.40.293,WTP_SM_Choice,2022.2.1,MacIntel,62.5,,,,,space,1.069,NAN,,NAN,0.15,5.85,,0,6,6,6,1,7,Riley,Rej,Participant_Images/66c0df311f98d7c9661669d9/66c0df311f98d7c9661669d9_Images/66c0df311f98d7c9661669d9_Image_23.jpeg,did not like,3.562416326,,,,,,,,,,,,,,,,,,,,,,,
,,66c0df311f98d7c9661669d9,6685aa9113c938e83b4f1ea0,67002a0b081d933e26530c4b,2024-10-04_11h47.40.293,WTP_SM_Choice,2022.2.1,MacIntel,62.5,,,,,space,2.954,NAN,,NAN,0.15,5.85,,0,7,7,7,1,8,Riley,Rej,Participant_Images/66c0df311f98d7c9661669d9/66c0df311f98d7c9661669d9_Images/66c0df311f98d7c9661669d9_Image_21.jpeg,did not like,2.843822497,,,,,,,,,,,,,,,,,,,,,,,
,,66c0df311f98d7c9661669d9,6685aa9113c938e83b4f1ea0,67002a0b081d933e26530c4b,2024-10-04_11h47.40.293,WTP_SM_Choice,2022.2.1,MacIntel,62.5,,,,,space,1.219,NAN,,NAN,0.15,5.85,,0,8,8,8,1,9,Riley,Rej,Participant_Images/66c0df311f98d7c9661669d9/66c0df311f98d7c9661669d9_Images/66c0df311f98d7c9661669d9_Image_6.jpeg,did not like,3.546495948,,,,,,,,,,,,,,,,,,,,,,,
,,66c0df311f98d7c9661669d9,6685aa9113c938e83b4f1ea0,67002a0b081d933e26530c4b,2024-10-04_11h47.40.293,WTP_SM_Choice,2022.2.1,MacIntel,62.5,,,,,,,,,,,,,,,,,,6,,,,,,space,9.315,space,5.467,0.01,1,2.208,0,0,0,0,1,Watch horror movies in my living room with a candle lit,Visit scenic areas on the weekends with my family,0.01,0.02,3.3,1,,,,,
,,66c0df311f98d7c9661669d9,6685aa9113c938e83b4f1ea0,67002a0b081d933e26530c4b,2024-10-04_11h47.40.293,WTP_SM_Choice,2022.2.1,MacIntel,62.5,,,,,,,,,,,,,,,,,,7,,,,,,,,,,0.02,1,1.733,0,1,1,1,1,Grab dinner with my parents on saturday,Spend time at home with my cats,0.02,0.02,1.1,0,,,,,
,,66c0df311f98d7c9661669d9,6685aa9113c938e83b4f1ea0,67002a0b081d933e26530c4b,2024-10-04_11h47.40.293,WTP_SM_Choice,2022.2.1,MacIntel,62.5,,,,,,,,,,,,,,,,,,8,,,,,,,,,,0.02,2,1.611,0,2,2,2,1,Sit at my desk with a warm coffee to drink,Visit scenic areas on the weekends with my family,0.03,0.02,1.1,1,,,,,
,,66c0df311f98d7c9661669d9,6685aa9113c938e83b4f1ea0,67002a0b081d933e26530c4b,2024-10-04_11h47.40.293,WTP_SM_Choice,2022.2.1,MacIntel,62.5,,,,,,,,,,,,,,,,,,9,,,,,,,,,,0.02,2,1.361,0,3,3,3,1,Spend time at home with my cats,Visit scenic areas on the weekends with my family,0.04,0.02,4.4,1,,,,,
,,66c0df311f98d7c9661669d9,6685aa9113c938e83b4f1ea0,67002a0b081d933e26530c4b,2024-10-04_11h47.40.293,WTP_SM_Choice,2022.2.1,MacIntel,62.5,,,,,,,,,,,,,,,,,,10,,,,,,,,,,0.02,2,1.713,0,4,4,4,1,Visit haunted corn mazes in october for halloween with friends,Go for a walk outside my house and seeing the nature outside,0.05,0.02,1.1,0,,,,,
,,66c0df311f98d7c9661669d9,6685aa9113c938e83b4f1ea0,67002a0b081d933e26530c4b,2024-10-04_11h47.40.293,WTP_SM_Choice,2022.2.1,MacIntel,62.5,,,,,,,NAN,,NAN,0.24,5.76,,0,9,9,9,1,10,Riley,Rej,Participant_Images/66c0df311f98d7c9661669d9/66c0df311f98d7c9661669d9_Images/66c0df311f98d7c9661669d9_Image_12.jpeg,did not like,1.672012706,,,,,,,,,,,,,,,,,,,,,,,
,,66c0df311f98d7c9661669d9,6685aa9113c938e83b4f1ea0,67002a0b081d933e26530c4b,2024-10-04_11h47.40.293,WTP_SM_Choice,2022.2.1,MacIntel,62.5,,,,,space,0.889,NAN,,NAN,0.24,5.76,,0,10,10,10,1,11,Riley,Rej,Participant_Images/66c0df311f98d7c9661669d9/66c0df311f98d7c9661669d9_Images/66c0df311f98d7c9661669d9_Image_10.jpeg,liked,4.942172136,,,,,,,,,,,,,,,,,,,,,,,
,,66c0df311f98d7c9661669d9,6685aa9113c938e83b4f1ea0,67002a0b081d933e26530c4b,2024-10-04_11h47.40.293,WTP_SM_Choice,2022.2.1,MacIntel,62.5,,,,,space,1.202,NAN,,NAN,0.24,5.76,,0,11,11,11,1,12,Riley,Rej,Participant_Images/66c0df311f98d7c9661669d9/66c0df311f98d7c9661669d9_Images/66c0df311f98d7c9661669d9_Image_24.jpeg,did not like,2.50187214,,,,,,,,,,,,,,,,,,,,,,,
,,66c0df311f98d7c9661669d9,6685aa9113c938e83b4f1ea0,67002a0b081d933e26530c4b,2024-10-04_11h47.40.293,WTP_SM_Choice,2022.2.1,MacIntel,62.5,,,,,space,8.202,NAN,,NAN,0.24,5.76,,0,12,12,12,1,13,Riley,Rej,Participant_Images/66c0df311f98d7c9661669d9/66c0df311f98d7c9661669d9_Images/66c0df311f98d7c9661669d9_Image_14.jpeg,liked,2.071164779,,,,,,,,,,,,,,,,,,,,,,,
,,66c0df311f98d7c9661669d9,6685aa9113c938e83b4f1ea0,67002a0b081d933e26530c4b,2024-10-04_11h47.40.293,WTP_SM_Choice,2022.2.1,MacIntel,62.5,,,,,space,1.2,NAN,,NAN,0.24,5.76,,0,13,13,13,1,14,Riley,Rej,Participant_Images/66c0df311f98d7c9661669d9/66c0df311f98d7c9661669d9_Images/66c0df311f98d7c9661669d9_Image_25.jpeg,liked,5.336503566,,,,,,,,,,,,,,,,,,,,,,,
,,66c0df311f98d7c9661669d9,6685aa9113c938e83b4f1ea0,67002a0b081d933e26530c4b,2024-10-04_11h47.40.293,WTP_SM_Choice,2022.2.1,MacIntel,62.5,,,,,,,,,,,,,,,,,,11,,,,,,space,2.101,space,0.752,0.01,1,2.431,0,0,0,0,1,Go on a weekend run for groceries,Watch reality dating shows on weekends with my partner,0.01,0.03,3.3,1,,,,,
,,66c0df311f98d7c9661669d9,6685aa9113c938e83b4f1ea0,67002a0b081d933e26530c4b,2024-10-04_11h47.40.293,WTP_SM_Choice,2022.2.1,MacIntel,62.5,,,,,,,,,,,,,,,,,,12,,,,,,,,,,0.02,1,1.847,0,1,1,1,1,Collect leaves outside and posting about it on instagram,Get coffee at the local coffee shop during work breaks with friends,0.02,0.03,4.4,1,,,,,
,,66c0df311f98d7c9661669d9,6685aa9113c938e83b4f1ea0,67002a0b081d933e26530c4b,2024-10-04_11h47.40.293,WTP_SM_Choice,2022.2.1,MacIntel,62.5,,,,,,,,,,,,,,,,,,13,,,,,,,,,,0.03,1,1.912,0,2,2,2,1,Collect leaves outside and posting about it on instagram,Visit haunted corn mazes in october for halloween with friends,0.03,0.03,1.1,1,,,,,
,,66c0df311f98d7c9661669d9,6685aa9113c938e83b4f1ea0,67002a0b081d933e26530c4b,2024-10-04_11h47.40.293,WTP_SM_Choice,2022.2.1,MacIntel,62.5,,,,,,,,,,,,,,,,,,14,,,,,,,,,,0.03,2,1.868,0,3,3,3,1,Do latch hook at home on my bed,Visit haunted corn mazes in october for halloween with friends,0.04,0.03,3.3,1,,,,,
,,66c0df311f98d7c9661669d9,6685aa9113c938e83b4f1ea0,67002a0b081d933e26530c4b,2024-10-04_11h47.40.293,WTP_SM_Choice,2022.2.1,MacIntel,62.5,,,,,,,,,,,,,,,,,,15,,,,,,,,,,0.03,2,1.305,0,4,4,4,1,Watch reality dating shows on weekends with my partner,Do latch hook at home on my bed,0.05,0.03,4.4,0,,,,,
,,66c0df311f98d7c9661669d9,6685aa9113c938e83b4f1ea0,67002a0b081d933e26530c4b,2024-10-04_11h47.40.293,WTP_SM_Choice,2022.2.1,MacIntel,62.5,,,,,,,NAN,,NAN,0.36,5.64,,0,14,14,14,1,15,Riley,Rej,Participant_Images/66c0df311f98d7c9661669d9/66c0df311f98d7c9661669d9_Images/66c0df311f98d7c9661669d9_Image_22.jpeg,did not like,2.642157193,,,,,,,,,,,,,,,,,,,,,,,
,,66c0df311f98d7c9661669d9,6685aa9113c938e83b4f1ea0,67002a0b081d933e26530c4b,2024-10-04_11h47.40.293,WTP_SM_Choice,2022.2.1,MacIntel,62.5,,,,,space,7.42,NAN,,NAN,0.36,5.64,,0,15,15,15,1,16,Riley,Rej,Participant_Images/66c0df311f98d7c9661669d9/66c0df311f98d7c9661669d9_Images/66c0df311f98d7c9661669d9_Image_16.jpeg,did not like,4.456234322,,,,,,,,,,,,,,,,,,,,,,,
,,66c0df311f98d7c9661669d9,6685aa9113c938e83b4f1ea0,67002a0b081d933e26530c4b,2024-10-04_11h47.40.293,WTP_SM_Choice,2022.2.1,MacIntel,62.5,,,,,space,5.535,NAN,,NAN,0.36,5.64,,0,16,16,16,1,17,Riley,Rej,Participant_Images/66c0df311f98d7c9661669d9/66c0df311f98d7c9661669d9_Images/66c0df311f98d7c9661669d9_Image_4.jpeg,did not like,4.438512181,,,,,,,,,,,,,,,,,,,,,,,
,,66c0df311f98d7c9661669d9,6685aa9113c938e83b4f1ea0,67002a0b081d933e26530c4b,2024-10-04_11h47.40.293,WTP_SM_Choice,2022.2.1,MacIntel,62.5,,,,,space,4.753,NAN,,NAN,0.36,5.64,,0,17,17,17,1,18,Riley,Rej,Participant_Images/66c0df311f98d7c9661669d9/66c0df311f98d7c9661669d9_Images/66c0df311f98d7c9661669d9_Image_19.jpeg,did not like,2.682944783,,,,,,,,,,,,,,,,,,,,,,,
,,66c0df311f98d7c9661669d9,6685aa9113c938e83b4f1ea0,67002a0b081d933e26530c4b,2024-10-04_11h47.40.293,WTP_SM_Choice,2022.2.1,MacIntel,62.5,,,,,space,1.434,NAN,,NAN,0.36,5.64,,0,18,18,18,1,19,Riley,Rej,Participant_Images/66c0df311f98d7c9661669d9/66c0df311f98d7c9661669d9_Images/66c0df311f98d7c9661669d9_Image_7.jpeg,did not like,4.51984296,,,,,,,,,,,,,,,,,,,,,,,
,,66c0df311f98d7c9661669d9,6685aa9113c938e83b4f1ea0,67002a0b081d933e26530c4b,2024-10-04_11h47.40.293,WTP_SM_Choice,2022.2.1,MacIntel,62.5,,,,,,,,,,,,,,,,,,16,,,,,,space,2.098,space,3.073,0.04,2,5.202,0,0,0,0,1,Go to spirit halloween on fridays with my partner,Go on a weekend run for groceries,0.01,0.04,1.1,0,,,,,
,,66c0df311f98d7c9661669d9,6685aa9113c938e83b4f1ea0,67002a0b081d933e26530c4b,2024-10-04_11h47.40.293,WTP_SM_Choice,2022.2.1,MacIntel,62.5,,,,,,,,,,,,,,,,,,17,,,,,,,,,,0.02,1,1.803,0,1,1,1,1,Go to grab lunch with friends on friday,Do latch hook at home on my bed,0.02,0.04,8.8,0,,,,,
,,66c0df311f98d7c9661669d9,6685aa9113c938e83b4f1ea0,67002a0b081d933e26530c4b,2024-10-04_11h47.40.293,WTP_SM_Choice,2022.2.1,MacIntel,62.5,,,,,,,,,,,,,,,,,,18,,,,,,,,,,0.03,1,1.208,0,2,2,2,1,In my house decorating for halloween,Visit haunted corn mazes in october for halloween with friends,0.03,0.04,3.3,1,,,,,
,,66c0df311f98d7c9661669d9,6685aa9113c938e83b4f1ea0,67002a0b081d933e26530c4b,2024-10-04_11h47.40.293,WTP_SM_Choice,2022.2.1,MacIntel,62.5,,,,,,,,,,,,,,,,,,19,,,,,,,,,,0.04,1,1.681,0,3,3,3,1,Collect leaves outside and posting about it on instagram,Go to spirit halloween on fridays with my partner,0.04,0.04,3.3,1,,,,,
,,66c0df311f98d7c9661669d9,6685aa9113c938e83b4f1ea0,67002a0b081d933e26530c4b,2024-10-04_11h47.40.293,WTP_SM_Choice,2022.2.1,MacIntel,62.5,,,,,,,,,,,,,,,,,,20,,,,,,,,,,0.04,2,1.559,0,4,4,4,1,Sit at my desk with a warm coffee to drink,Go to grab lunch with friends on friday,0.05,0.04,1.1,1,,,,,
,,66c0df311f98d7c9661669d9,6685aa9113c938e83b4f1ea0,67002a0b081d933e26530c4b,2024-10-04_11h47.40.293,WTP_SM_Choice,2022.2.1,MacIntel,62.5,,,,,,,NAN,,NAN,0.53,5.47,,0,19,19,19,1,20,Riley,Rej,Participant_Images/66c0df311f98d7c9661669d9/66c0df311f98d7c9661669d9_Images/66c0df311f98d7c9661669d9_Image_8.jpeg,did not like,3.195382774,,,,,,,,,,,,,,,,,,,,,,,
,,66c0df311f98d7c9661669d9,6685aa9113c938e83b4f1ea0,67002a0b081d933e26530c4b,2024-10-04_11h47.40.293,WTP_SM_Choice,2022.2.1,MacIntel,62.5,,,,,space,4.208,NAN,,NAN,0.53,5.47,,0,20,20,20,1,21,Riley,Rej,Participant_Images/66c0df311f98d7c9661669d9/66c0df311f98d7c9661669d9_Images/66c0df311f98d7c9661669d9_Image_11.jpeg,liked,1.779333479,,,,,,,,,,,,,,,,,,,,,,,
,,66c0df311f98d7c9661669d9,6685aa9113c938e83b4f1ea0,67002a0b081d933e26530c4b,2024-10-04_11h47.40.293,WTP_SM_Choice,2022.2.1,MacIntel,62.5,,,,,space,4.719,NAN,,NAN,0.53,5.47,,0,21,21,21,1,22,Riley,Rej,Participant_Images/66c0df311f98d7c9661669d9/66c0df311f98d7c9661669d9_Images/66c0df311f98d7c9661669d9_Image_18.jpeg,did not like,4.312468682,,,,,,,,,,,,,,,,,,,,,,,
,,66c0df311f98d7c9661669d9,6685aa9113c938e83b4f1ea0,67002a0b081d933e26530c4b,2024-10-04_11h47.40.293,WTP_SM_Choice,2022.2.1,MacIntel,62.5,,,,,space,4.386,NAN,,NAN,0.53,5.47,,0,22,22,22,1,23,Riley,Rej,Participant_Images/66c0df311f98d7c9661669d9/66c0df311f98d7c9661669d9_Images/66c0df311f98d7c9661669d9_Image_13.jpeg,liked,4.940433059,,,,,,,,,,,,,,,,,,,,,,,
,,66c0df311f98d7c9661669d9,6685aa9113c938e83b4f1ea0,67002a0b081d933e26530c4b,2024-10-04_11h47.40.293,WTP_SM_Choice,2022.2.1,MacIntel,62.5,,,,,space,1.523,NAN,,NAN,0.53,5.47,,0,23,23,23,1,24,Riley,Rej,Participant_Images/66c0df311f98d7c9661669d9/66c0df311f98d7c9661669d9_Images/66c0df311f98d7c9661669d9_Image_17.jpeg,did not like,2.7105123,,,,,,,,,,,,,,,,,,,,,,,
,,66c0df311f98d7c9661669d9,6685aa9113c938e83b4f1ea0,67002a0b081d933e26530c4b,2024-10-04_11h47.40.293,WTP_SM_Choice,2022.2.1,MacIntel,62.5,,,,,,,,,,,,,,,,,,21,,,,,,space,117.863,space,23.753,0.01,1,1.394,0,0,0,0,1,Collect leaves outside and posting about it on instagram,Spend evenings with friends playing video games,0.01,0.05,8.8,1,,,,,
,,66c0df311f98d7c9661669d9,6685aa9113c938e83b4f1ea0,67002a0b081d933e26530c4b,2024-10-04_11h47.40.293,WTP_SM_Choice,2022.2.1,MacIntel,62.5,,,,,,,,,,,,,,,,,,22,,,,,,,,,,,,,0,1,1,1,1,Sit at my desk with a warm coffee to drink,Get coffee at the local coffee shop during work breaks with friends,0.02,0.05,4.4,1,,,,,
,,66c0df311f98d7c9661669d9,6685aa9113c938e83b4f1ea0,67002a0b081d933e26530c4b,2024-10-04_11h47.40.293,WTP_SM_Choice,2022.2.1,MacIntel,62.5,,,,,,,,,,,,,,,,,,23,,,,,,,,,,0.03,1,3.184,0,2,2,2,1,Get coffee at the local coffee shop during work breaks with friends,Work on building miniature houses at my desk,0.03,0.05,1.1,0,,,,,
,,66c0df311f98d7c9661669d9,6685aa9113c938e83b4f1ea0,67002a0b081d933e26530c4b,2024-10-04_11h47.40.293,WTP_SM_Choice,2022.2.1,MacIntel,62.5,,,,,,,,,,,,,,,,,,24,,,,,,,,,,0.04,1,4.137,0,3,3,3,1,In my house decorating for halloween,Go to conventions with friends on special occasions,0.04,0.05,4.4,1,,,,,
,,66c0df311f98d7c9661669d9,6685aa9113c938e83b4f1ea0,67002a0b081d933e26530c4b,2024-10-04_11h47.40.293,WTP_SM_Choice,2022.2.1,MacIntel,62.5,,,,,,,,,,,,,,,,,,25,,,,,,,,,,0.05,1,9,0,4,4,4,1,Go to conventions with friends on special occasions,Go for a walk outside my house and seeing the nature outside,0.05,0.05,3.3,0,,,,,
,,66c0df311f98d7c9661669d9,6685aa9113c938e83b4f1ea0,67002a0b081d933e26530c4b,2024-10-04_11h47.40.293,WTP_SM_Choice,2022.2.1,MacIntel,62.5,,,,,,,2,,3,0.66,5.34,,0,24,24,24,1,25,Riley,Rej,Participant_Images/66c0df311f98d7c9661669d9/66c0df311f98d7c9661669d9_Images/66c0df311f98d7c9661669d9_Image_15.jpeg,did not like,3.602308302,,,,,,,,,,,,,,,,,,,space,1.77,,,
,,66c0df311f98d7c9661669d9,6685aa9113c938e83b4f1ea0,67002a0b081d933e26530c4b,2024-10-04_11h47.40.293,WTP_SM_Choice,2022.2.1,MacIntel,62.5,,,space,3.607,space,14.186,NAN,,NAN,0.66,5.34,,0,25,25,25,1,26,Alex,Acc,Participant_Images/66c0df311f98d7c9661669d9/66c0df311f98d7c9661669d9_Images/66c0df311f98d7c9661669d9_Image_5.jpeg,liked,4.106391878,,,,,,,,,,,,,,,,,,,,,,,
,,66c0df311f98d7c9661669d9,6685aa9113c938e83b4f1ea0,67002a0b081d933e26530c4b,2024-10-04_11h47.40.293,WTP_SM_Choice,2022.2.1,MacIntel,62.5,,,,,space,9.572,NAN,,NAN,0.66,5.34,,0,26,26,26,1,27,Alex,Acc,Participant_Images/66c0df311f98d7c9661669d9/66c0df311f98d7c9661669d9_Images/66c0df311f98d7c9661669d9_Image_14.jpeg,liked,3.799433026,,,,,,,,,,,,,,,,,,,,,,,
,,66c0df311f98d7c9661669d9,6685aa9113c938e83b4f1ea0,67002a0b081d933e26530c4b,2024-10-04_11h47.40.293,WTP_SM_Choice,2022.2.1,MacIntel,62.5,,,,,space,0.556,NAN,,NAN,0.66,5.34,,0,27,27,27,1,28,Alex,Acc,Participant_Images/66c0df311f98d7c9661669d9/66c0df311f98d7c9661669d9_Images/66c0df311f98d7c9661669d9_Image_21.jpeg,liked,5.246980764,,,,,,,,,,,,,,,,,,,,,,,
,,66c0df311f98d7c9661669d9,6685aa9113c938e83b4f1ea0,67002a0b081d933e26530c4b,2024-10-04_11h47.40.293,WTP_SM_Choice,2022.2.1,MacIntel,62.5,,,,,space,9.601,NAN,,NAN,0.66,5.34,,0,28,28,28,1,29,Alex,Acc,Participant_Images/66c0df311f98d7c9661669d9/66c0df311f98d7c9661669d9_Images/66c0df311f98d7c9661669d9_Image_7.jpeg,did not like,3.30081769,,,,,,,,,,,,,,,,,,,,,,,
,,66c0df311f98d7c9661669d9,6685aa9113c938e83b4f1ea0,67002a0b081d933e26530c4b,2024-10-04_11h47.40.293,WTP_SM_Choice,2022.2.1,MacIntel,62.5,,,,,,,,,,,,,,,,,,26,,,,,,space,18.586,space,1.875,0.01,2,2.344,0,0,0,0,1,Visit scenic areas on the weekends with my family,Go on a weekend run for groceries,0.01,0.01,4.4,0,,,,,
,,66c0df311f98d7c9661669d9,6685aa9113c938e83b4f1ea0,67002a0b081d933e26530c4b,2024-10-04_11h47.40.293,WTP_SM_Choice,2022.2.1,MacIntel,62.5,,,,,,,,,,,,,,,,,,27,,,,,,,,,,0.02,1,6.25,0,1,1,1,1,Spend time at home with my cats,Visit haunted corn mazes in october for halloween with friends,0.02,0.01,3.3,1,,,,,
,,66c0df311f98d7c9661669d9,6685aa9113c938e83b4f1ea0,67002a0b081d933e26530c4b,2024-10-04_11h47.40.293,WTP_SM_Choice,2022.2.1,MacIntel,62.5,,,,,,,,,,,,,,,,,,28,,,,,,,,,,0.01,2,3.134,0,2,2,2,1,In my house decorating for halloween,Get coffee at the local coffee shop during work breaks with friends,0.03,0.01,3.3,1,,,,,
,,66c0df311f98d7c9661669d9,6685aa9113c938e83b4f1ea0,67002a0b081d933e26530c4b,2024-10-04_11h47.40.293,WTP_SM_Choice,2022.2.1,MacIntel,62.5,,,,,,,,,,,,,,,,,,29,,,,,,,,,,0.01,2,6.125,0,3,3,3,1,Get coffee at the local coffee shop during work breaks with friends,Curl up with a nice book under a warm blanket,0.04,0.01,4.4,0,,,,,
,,66c0df311f98d7c9661669d9,6685aa9113c938e83b4f1ea0,67002a0b081d933e26530c4b,2024-10-04_11h47.40.293,WTP_SM_Choice,2022.2.1,MacIntel,62.5,,,,,,,,,,,,,,,,,,30,,,,,,,,,,0.01,2,5.302,0,4,4,4,1,Sit at my desk with a warm coffee to drink,Go to conventions with friends on special occasions,0.05,0.01,8.8,1,,,,,
,,66c0df311f98d7c9661669d9,6685aa9113c938e83b4f1ea0,67002a0b081d933e26530c4b,2024-10-04_11h47.40.293,WTP_SM_Choice,2022.2.1,MacIntel,62.5,,,,,,,NAN,,NAN,0.72,5.28,,0,29,29,29,1,30,Alex,Acc,Participant_Images/66c0df311f98d7c9661669d9/66c0df311f98d7c9661669d9_Images/66c0df311f98d7c9661669d9_Image_2.jpeg,liked,1.661473164,,,,,,,,,,,,,,,,,,,,,,,
,,66c0df311f98d7c9661669d9,6685aa9113c938e83b4f1ea0,67002a0b081d933e26530c4b,2024-10-04_11h47.40.293,WTP_SM_Choice,2022.2.1,MacIntel,62.5,,,,,space,7.553,NAN,,NAN,0.72,5.28,,0,30,30,30,1,31,Alex,Acc,Participant_Images/66c0df311f98d7c9661669d9/66c0df311f98d7c9661669d9_Images/66c0df311f98d7c9661669d9_Image_23.jpeg,liked,3.613205605,,,,,,,,,,,,,,,,,,,,,,,
,,66c0df311f98d7c9661669d9,6685aa9113c938e83b4f1ea0,67002a0b081d933e26530c4b,2024-10-04_11h47.40.293,WTP_SM_Choice,2022.2.1,MacIntel,62.5,,,,,space,6.121,NAN,,NAN,0.72,5.28,,0,31,31,31,1,32,Alex,Acc,Participant_Images/66c0df311f98d7c9661669d9/66c0df311f98d7c9661669d9_Images/66c0df311f98d7c9661669d9_Image_15.jpeg,liked,4.988446431,,,,,,,,,,,,,,,,,,,,,,,
,,66c0df311f98d7c9661669d9,6685aa9113c938e83b4f1ea0,67002a0b081d933e26530c4b,2024-10-04_11h47.40.293,WTP_SM_Choice,2022.2.1,MacIntel,62.5,,,,,space,8.322,NAN,,NAN,0.72,5.28,,0,32,32,32,1,33,Alex,Acc,Participant_Images/66c0df311f98d7c9661669d9/66c0df311f98d7c9661669d9_Images/66c0df311f98d7c9661669d9_Image_6.jpeg,did not like,3.470791822,,,,,,,,,,,,,,,,,,,,,,,
,,66c0df311f98d7c9661669d9,6685aa9113c938e83b4f1ea0,67002a0b081d933e26530c4b,2024-10-04_11h47.40.293,WTP_SM_Choice,2022.2.1,MacIntel,62.5,,,,,space,10.421,NAN,,NAN,0.72,5.28,,0,33,33,33,1,34,Alex,Acc,Participant_Images/66c0df311f98d7c9661669d9/66c0df311f98d7c9661669d9_Images/66c0df311f98d7c9661669d9_Image_20.jpeg,liked,3.820572462,,,,,,,,,,,,,,,,,,,,,,,
,,66c0df311f98d7c9661669d9,6685aa9113c938e83b4f1ea0,67002a0b081d933e26530c4b,2024-10-04_11h47.40.293,WTP_SM_Choice,2022.2.1,MacIntel,62.5,,,,,,,,,,,,,,,,,,31,,,,,,space,2.699,space,18.993,0.01,1,1.297,0,0,0,0,1,Go to conventions with friends on special occasions,Watch horror movies in my living room with a candle lit,0.01,0.02,8.8,0,,,,,
,,66c0df311f98d7c9661669d9,6685aa9113c938e83b4f1ea0,67002a0b081d933e26530c4b,2024-10-04_11h47.40.293,WTP_SM_Choice,2022.2.1,MacIntel,62.5,,,,,,,,,,,,,,,,,,32,,,,,,,,,,0.02,1,2.106,0,1,1,1,1,Collect leaves outside and posting about it on instagram,Go to conventions with friends on special occasions,0.02,0.02,1.1,1,,,,,
,,66c0df311f98d7c9661669d9,6685aa9113c938e83b4f1ea0,67002a0b081d933e26530c4b,2024-10-04_11h47.40.293,WTP_SM_Choice,2022.2.1,MacIntel,62.5,,,,,,,,,,,,,,,,,,33,,,,,,,,,,0.02,2,3.234,0,2,2,2,1,Visit scenic areas on the weekends with my family,Work on building miniature houses at my desk,0.03,0.02,4.4,0,,,,,
,,66c0df311f98d7c9661669d9,6685aa9113c938e83b4f1ea0,67002a0b081d933e26530c4b,2024-10-04_11h47.40.293,WTP_SM_Choice,2022.2.1,MacIntel,62.5,,,,,,,,,,,,,,,,,,34,,,,,,,,,,0.02,2,5.039,0,3,3,3,1,Curl up with a nice book under a warm blanket,Grab dinner with my parents on saturday,0.04,0.02,3.3,1,,,,,
,,66c0df311f98d7c9661669d9,6685aa9113c938e83b4f1ea0,67002a0b081d933e26530c4b,2024-10-04_11h47.40.293,WTP_SM_Choice,2022.2.1,MacIntel,62.5,,,,,,,,,,,,,,,,,,35,,,,,,,,,,0.02,2,5.373,0,4,4,4,1,Watch reality dating shows on weekends with my partner,Go for a walk outside my house and seeing the nature outside,0.05,0.02,1.1,0,,,,,
,,66c0df311f98d7c9661669d9,6685aa9113c938e83b4f1ea0,67002a0b081d933e26530c4b,2024-10-04_11h47.40.293,WTP_SM_Choice,2022.2.1,MacIntel,62.5,,,,,,,NAN,,NAN,0.81,5.19,,0,34,34,34,1,35,Alex,Acc,Participant_Images/66c0df311f98d7c9661669d9/66c0df311f98d7c9661669d9_Images/66c0df311f98d7c9661669d9_Image_10.jpeg,liked,2.455989137,,,,,,,,,,,,,,,,,,,,,,,
,,66c0df311f98d7c9661669d9,6685aa9113c938e83b4f1ea0,67002a0b081d933e26530c4b,2024-10-04_11h47.40.293,WTP_SM_Choice,2022.2.1,MacIntel,62.5,,,,,space,1.793,NAN,,NAN,0.81,5.19,,0,35,35,35,1,36,Alex,Acc,Participant_Images/66c0df311f98d7c9661669d9/66c0df311f98d7c9661669d9_Images/66c0df311f98d7c9661669d9_Image_11.jpeg,liked,3.79605092,,,,,,,,,,,,,,,,,,,,,,,
,,66c0df311f98d7c9661669d9,6685aa9113c938e83b4f1ea0,67002a0b081d933e26530c4b,2024-10-04_11h47.40.293,WTP_SM_Choice,2022.2.1,MacIntel,62.5,,,,,space,20.558,NAN,,NAN,0.81,5.19,,0,36,36,36,1,37,Alex,Acc,Participant_Images/66c0df311f98d7c9661669d9/66c0df311f98d7c9661669d9_Images/66c0df311f98d7c9661669d9_Image_9.jpeg,liked,3.562416326,,,,,,,,,,,,,,,,,,,,,,,
,,66c0df311f98d7c9661669d9,6685aa9113c938e83b4f1ea0,67002a0b081d933e26530c4b,2024-10-04_11h47.40.293,WTP_SM_Choice,2022.2.1,MacIntel,62.5,,,,,space,9.804,NAN,,NAN,0.81,5.19,,0,37,37,37,1,38,Alex,Acc,Participant_Images/66c0df311f98d7c9661669d9/66c0df311f98d7c9661669d9_Images/66c0df311f98d7c9661669d9_Image_24.jpeg,did not like,2.843822497,,,,,,,,,,,,,,,,,,,,,,,
,,66c0df311f98d7c9661669d9,6685aa9113c938e83b4f1ea0,67002a0b081d933e26530c4b,2024-10-04_11h47.40.293,WTP_SM_Choice,2022.2.1,MacIntel,62.5,,,,,space,9.038,NAN,,NAN,0.81,5.19,,0,38,38,38,1,39,Alex,Acc,Participant_Images/66c0df311f98d7c9661669d9/66c0df311f98d7c9661669d9_Images/66c0df311f98d7c9661669d9_Image_13.jpeg,liked,3.546495948,,,,,,,,,,,,,,,,,,,,,,,
,,66c0df311f98d7c9661669d9,6685aa9113c938e83b4f1ea0,67002a0b081d933e26530c4b,2024-10-04_11h47.40.293,WTP_SM_Choice,2022.2.1,MacIntel,62.5,,,,,,,,,,,,,,,,,,36,,,,,,space,28.591,space,0.55,0.01,1,1.241,0,0,0,0,1,Watch horror movies in my living room with a candle lit,Grab dinner with my parents on saturday,0.01,0.03,3.3,1,,,,,
,,66c0df311f98d7c9661669d9,6685aa9113c938e83b4f1ea0,67002a0b081d933e26530c4b,2024-10-04_11h47.40.293,WTP_SM_Choice,2022.2.1,MacIntel,62.5,,,,,,,,,,,,,,,,,,37,,,,,,,,,,0.02,1,1.502,0,1,1,1,1,Skype friends weekly for dungeons and dragons,Do latch hook at home on my bed,0.02,0.03,1.1,0,,,,,
,,66c0df311f98d7c9661669d9,6685aa9113c938e83b4f1ea0,67002a0b081d933e26530c4b,2024-10-04_11h47.40.293,WTP_SM_Choice,2022.2.1,MacIntel,62.5,,,,,,,,,,,,,,,,,,38,,,,,,,,,,0.03,1,1.505,0,2,2,2,1,Visit haunted corn mazes in october for halloween with friends,Go on a weekend run for groceries,0.03,0.03,1.1,0,,,,,
,,66c0df311f98d7c9661669d9,6685aa9113c938e83b4f1ea0,67002a0b081d933e26530c4b,2024-10-04_11h47.40.293,WTP_SM_Choice,2022.2.1,MacIntel,62.5,,,,,,,,,,,,,,,,,,39,,,,,,,,,,0.03,2,2.644,0,3,3,3,1,In my house decorating for halloween,Go to grab lunch with friends on friday,0.04,0.03,3.3,1,,,,,
,,66c0df311f98d7c9661669d9,6685aa9113c938e83b4f1ea0,67002a0b081d933e26530c4b,2024-10-04_11h47.40.293,WTP_SM_Choice,2022.2.1,MacIntel,62.5,,,,,,,,,,,,,,,,,,40,,,,,,,,,,0.03,2,3.014,0,4,4,4,1,Go to conventions with friends on special occasions,Curl up with a nice book under a warm blanket,0.05,0.03,4.4,0,,,,,
,,66c0df311f98d7c9661669d9,6685aa9113c938e83b4f1ea0,67002a0b081d933e26530c4b,2024-10-04_11h47.40.293,WTP_SM_Choice,2022.2.1,MacIntel,62.5,,,,,,,NAN,,NAN,0.93,5.07,,0,39,39,39,1,40,Alex,Acc,Participant_Images/66c0df311f98d7c9661669d9/66c0df311f98d7c9661669d9_Images/66c0df311f98d7c9661669d9_Image_18.jpeg,did not like,1.672012706,,,,,,,,,,,,,,,,,,,,,,,
,,66c0df311f98d7c9661669d9,6685aa9113c938e83b4f1ea0,67002a0b081d933e26530c4b,2024-10-04_11h47.40.293,WTP_SM_Choice,2022.2.1,MacIntel,62.5,,,,,space,6.337,NAN,,NAN,0.93,5.07,,0,40,40,40,1,41,Alex,Acc,Participant_Images/66c0df311f98d7c9661669d9/66c0df311f98d7c9661669d9_Images/66c0df311f98d7c9661669d9_Image_25.jpeg,liked,4.942172136,,,,,,,,,,,,,,,,,,,,,,,
,,66c0df311f98d7c9661669d9,6685aa9113c938e83b4f1ea0,67002a0b081d933e26530c4b,2024-10-04_11h47.40.293,WTP_SM_Choice,2022.2.1,MacIntel,62.5,,,,,space,17.336,NAN,,NAN,0.93,5.07,,0,41,41,41,1,42,Alex,Acc,Participant_Images/66c0df311f98d7c9661669d9/66c0df311f98d7c9661669d9_Images/66c0df311f98d7c9661669d9_Image_1.jpeg,liked,2.50187214,,,,,,,,,,,,,,,,,,,,,,,
,,66c0df311f98d7c9661669d9,6685aa9113c938e83b4f1ea0,67002a0b081d933e26530c4b,2024-10-04_11h47.40.293,WTP_SM_Choice,2022.2.1,MacIntel,62.5,,,,,space,3.904,NAN,,NAN,0.93,5.07,,0,42,42,42,1,43,Alex,Acc,Participant_Images/66c0df311f98d7c9661669d9/66c0df311f98d7c9661669d9_Images/66c0df311f98d7c9661669d9_Image_3.jpeg,liked,2.071164779,,,,,,,,,,,,,,,,,,,,,,,
,,66c0df311f98d7c9661669d9,6685aa9113c938e83b4f1ea0,67002a0b081d933e26530c4b,2024-10-04_11h47.40.293,WTP_SM_Choice,2022.2.1,MacIntel,62.5,,,,,space,10.991,NAN,,NAN,0.93,5.07,,0,43,43,43,1,44,Alex,Acc,Participant_Images/66c0df311f98d7c9661669d9/66c0df311f98d7c9661669d9_Images/66c0df311f98d7c9661669d9_Image_8.jpeg,liked,5.336503566,,,,,,,,,,,,,,,,,,,,,,,
,,66c0df311f98d7c9661669d9,6685aa9113c938e83b4f1ea0,67002a0b081d933e26530c4b,2024-10-04_11h47.40.293,WTP_SM_Choice,2022.2.1,MacIntel,62.5,,,,,,,,,,,,,,,,,,41,,,,,,space,1.841,space,1.679,0.01,1,3.191,0,0,0,0,1,Go to spirit halloween on fridays with my partner,Sit at my desk with a warm coffee to drink,0.01,0.04,1.1,0,,,,,
,,66c0df311f98d7c9661669d9,6685aa9113c938e83b4f1ea0,67002a0b081d933e26530c4b,2024-10-04_11h47.40.293,WTP_SM_Choice,2022.2.1,MacIntel,62.5,,,,,,,,,,,,,,,,,,42,,,,,,,,,,0.02,1,6.256,0,1,1,1,1,Grab dinner with my parents on saturday,In my house decorating for halloween,0.02,0.04,3.3,0,,,,,
,,66c0df311f98d7c9661669d9,6685aa9113c938e83b4f1ea0,67002a0b081d933e26530c4b,2024-10-04_11h47.40.293,WTP_SM_Choice,2022.2.1,MacIntel,62.5,,,,,,,,,,,,,,,,,,43,,,,,,,,,,0.03,1,6.503,0,2,2,2,1,Go to conventions with friends on special occasions,Spend time at home with my cats,0.03,0.04,1.1,0,,,,,
,,66c0df311f98d7c9661669d9,6685aa9113c938e83b4f1ea0,67002a0b081d933e26530c4b,2024-10-04_11h47.40.293,WTP_SM_Choice,2022.2.1,MacIntel,62.5,,,,,,,,,,,,,,,,,,44,,,,,,,,,,,,,0,3,3,3,1,Skype friends weekly for dungeons and dragons,Collect leaves outside and posting about it on instagram,0.04,0.04,1.1,0,,,,,
,,66c0df311f98d7c9661669d9,6685aa9113c938e83b4f1ea0,67002a0b081d933e26530c4b,2024-10-04_11h47.40.293,WTP_SM_Choice,2022.2.1,MacIntel,62.5,,,,,,,,,,,,,,,,,,45,,,,,,,,,,,,,0,4,4,4,1,Curl up with a nice book under a warm blanket,Spend evenings with friends playing video games,0.05,0.04,4.4,1,,,,,
,,66c0df311f98d7c9661669d9,6685aa9113c938e83b4f1ea0,67002a0b081d933e26530c4b,2024-10-04_11h47.40.293,WTP_SM_Choice,2022.2.1,MacIntel,62.5,,,,,,,NAN,,NAN,0.99,5.01,,0,44,44,44,1,45,Alex,Acc,Participant_Images/66c0df311f98d7c9661669d9/66c0df311f98d7c9661669d9_Images/66c0df311f98d7c9661669d9_Image_22.jpeg,did not like,2.642157193,,,,,,,,,,,,,,,,,,,,,,,
,,66c0df311f98d7c9661669d9,6685aa9113c938e83b4f1ea0,67002a0b081d933e26530c4b,2024-10-04_11h47.40.293,WTP_SM_Choice,2022.2.1,MacIntel,62.5,,,,,space,8.035,NAN,,NAN,0.99,5.01,,0,45,45,45,1,46,Alex,Acc,Participant_Images/66c0df311f98d7c9661669d9/66c0df311f98d7c9661669d9_Images/66c0df311f98d7c9661669d9_Image_17.jpeg,liked,4.456234322,,,,,,,,,,,,,,,,,,,,,,,
,,66c0df311f98d7c9661669d9,6685aa9113c938e83b4f1ea0,67002a0b081d933e26530c4b,2024-10-04_11h47.40.293,WTP_SM_Choice,2022.2.1,MacIntel,62.5,,,,,space,0.671,NAN,,NAN,0.99,5.01,,0,46,46,46,1,47,Alex,Acc,Participant_Images/66c0df311f98d7c9661669d9/66c0df311f98d7c9661669d9_Images/66c0df311f98d7c9661669d9_Image_12.jpeg,liked,4.438512181,,,,,,,,,,,,,,,,,,,,,,,
,,66c0df311f98d7c9661669d9,6685aa9113c938e83b4f1ea0,67002a0b081d933e26530c4b,2024-10-04_11h47.40.293,WTP_SM_Choice,2022.2.1,MacIntel,62.5,,,,,space,56.739,NAN,,NAN,0.99,5.01,,0,47,47,47,1,48,Alex,Acc,Participant_Images/66c0df311f98d7c9661669d9/66c0df311f98d7c9661669d9_Images/66c0df311f98d7c9661669d9_Image_4.jpeg,did not like,2.682944783,,,,,,,,,,,,,,,,,,,,,,,
,,66c0df311f98d7c9661669d9,6685aa9113c938e83b4f1ea0,67002a0b081d933e26530c4b,2024-10-04_11h47.40.293,WTP_SM_Choice,2022.2.1,MacIntel,62.5,,,,,space,1.109,NAN,,NAN,0.99,5.01,,0,48,48,48,1,49,Alex,Acc,Participant_Images/66c0df311f98d7c9661669d9/66c0df311f98d7c9661669d9_Images/66c0df311f98d7c9661669d9_Image_16.jpeg,liked,4.51984296,,,,,,,,,,,,,,,,,,,,,,,
,,66c0df311f98d7c9661669d9,6685aa9113c938e83b4f1ea0,67002a0b081d933e26530c4b,2024-10-04_11h47.40.293,WTP_SM_Choice,2022.2.1,MacIntel,62.5,,,,,,,,,,,,,,,,,,46,,,,,,space,1.193,space,0.556,0.01,1,0.888,0,0,0,0,1,Do latch hook at home on my bed,Visit scenic areas on the weekends with my family,0.01,0.05,8.8,1,,,,,
,,66c0df311f98d7c9661669d9,6685aa9113c938e83b4f1ea0,67002a0b081d933e26530c4b,2024-10-04_11h47.40.293,WTP_SM_Choice,2022.2.1,MacIntel,62.5,,,,,,,,,,,,,,,,,,47,,,,,,,,,,0.05,2,3.004,0,1,1,1,1,Curl up with a nice book under a warm blanket,Skype friends weekly for dungeons and dragons,0.02,0.05,1.1,1,,,,,
,,66c0df311f98d7c9661669d9,6685aa9113c938e83b4f1ea0,67002a0b081d933e26530c4b,2024-10-04_11h47.40.293,WTP_SM_Choice,2022.2.1,MacIntel,62.5,,,,,,,,,,,,,,,,,,48,,,,,,,,,,0.03,1,2.355,0,2,2,2,1,Watch horror movies in my living room with a candle lit,Watch reality dating shows on weekends with my partner,0.03,0.05,4.4,1,,,,,
,,66c0df311f98d7c9661669d9,6685aa9113c938e83b4f1ea0,67002a0b081d933e26530c4b,2024-10-04_11h47.40.293,WTP_SM_Choice,2022.2.1,MacIntel,62.5,,,,,,,,,,,,,,,,,,49,,,,,,,,,,0.04,1,1.374,0,3,3,3,1,Spend time at home with my cats,Get coffee at the local coffee shop during work breaks with friends,0.04,0.05,3.3,1,,,,,
,,66c0df311f98d7c9661669d9,6685aa9113c938e83b4f1ea0,67002a0b081d933e26530c4b,2024-10-04_11h47.40.293,WTP_SM_Choice,2022.2.1,MacIntel,62.5,,,,,,,,,,,,,,,,,,50,,,,,,,,,,0.05,1,2.557,0,4,4,4,1,Curl up with a nice book under a warm blanket,Go to spirit halloween on fridays with my partner,0.05,0.05,1.1,1,,,,,
,,66c0df311f98d7c9661669d9,6685aa9113c938e83b4f1ea0,67002a0b081d933e26530c4b,2024-10-04_11h47.40.293,WTP_SM_Choice,2022.2.1,MacIntel,62.5,,,,,,,4,,3,1.17,4.83,,0,49,49,49,1,50,Alex,Acc,Participant_Images/66c0df311f98d7c9661669d9/66c0df311f98d7c9661669d9_Images/66c0df311f98d7c9661669d9_Image_19.jpeg,did not like,3.195382774,,,,,,,,,,,,,,,,,,,space,0.674,,,
,,66c0df311f98d7c9661669d9,6685aa9113c938e83b4f1ea0,67002a0b081d933e26530c4b,2024-10-04_11h47.40.293,WTP_SM_Choice,2022.2.1,MacIntel,62.5,,,space,9.766,space,86.227,NAN,,NAN,1.17,4.83,,0,50,50,50,1,51,Sam,Rej,Participant_Images/66c0df311f98d7c9661669d9/66c0df311f98d7c9661669d9_Images/66c0df311f98d7c9661669d9_Image_3.jpeg,did not like,1.779333479,,,,,,,,,,,,,,,,,,,,,,,
,,66c0df311f98d7c9661669d9,6685aa9113c938e83b4f1ea0,67002a0b081d933e26530c4b,2024-10-04_11h47.40.293,WTP_SM_Choice,2022.2.1,MacIntel,62.5,,,,,space,113.876,NAN,,NAN,1.17,4.83,,0,51,51,51,1,52,Sam,Rej,Participant_Images/66c0df311f98d7c9661669d9/66c0df311f98d7c9661669d9_Images/66c0df311f98d7c9661669d9_Image_5.jpeg,did not like,4.312468682,,,,,,,,,,,,,,,,,,,,,,,
,,66c0df311f98d7c9661669d9,6685aa9113c938e83b4f1ea0,67002a0b081d933e26530c4b,2024-10-04_11h47.40.293,WTP_SM_Choice,2022.2.1,MacIntel,62.5,,,,,space,13.002,NAN,,NAN,1.17,4.83,,0,52,52,52,1,53,Sam,Rej,Participant_Images/66c0df311f98d7c9661669d9/66c0df311f98d7c9661669d9_Images/66c0df311f98d7c9661669d9_Image_16.jpeg,liked,4.940433059,,,,,,,,,,,,,,,,,,,,,,,
,,66c0df311f98d7c9661669d9,6685aa9113c938e83b4f1ea0,67002a0b081d933e26530c4b,2024-10-04_11h47.40.293,WTP_SM_Choice,2022.2.1,MacIntel,62.5,,,,,space,1.523,NAN,,NAN,1.17,4.83,,0,53,53,53,1,54,Sam,Rej,Participant_Images/66c0df311f98d7c9661669d9/66c0df311f98d7c9661669d9_Images/66c0df311f98d7c9661669d9_Image_11.jpeg,did not like,2.7105123,,,,,,,,,,,,,,,,,,,,,,,
,,66c0df311f98d7c9661669d9,6685aa9113c938e83b4f1ea0,67002a0b081d933e26530c4b,2024-10-04_11h47.40.293,WTP_SM_Choice,2022.2.1,MacIntel,62.5,,,,,,,,,,,,,,,,,,51,,,,,,space,1.784,space,2.305,0.01,1,1.623,0,0,0,0,1,Do latch hook at home on my bed,Grab dinner with my parents on saturday,0.01,0.01,1.1,1,,,,,
,,66c0df311f98d7c9661669d9,6685aa9113c938e83b4f1ea0,67002a0b081d933e26530c4b,2024-10-04_11h47.40.293,WTP_SM_Choice,2022.2.1,MacIntel,62.5,,,,,,,,,,,,,,,,,,52,,,,,,,,,,0.02,1,1.787,0,1,1,1,1,Go to conventions with friends on special occasions,Work on building miniature houses at my desk,0.02,0.01,3.3,0,,,,,
,,66c0df311f98d7c9661669d9,6685aa9113c938e83b4f1ea0,67002a0b081d933e26530c4b,2024-10-04_11h47.40.293,WTP_SM_Choice,2022.2.1,MacIntel,62.5,,,,,,,,,,,,,,,,,,53,,,,,,,,,,0.03,1,1.623,0,2,2,2,1,Visit scenic areas on the weekends with my family,Curl up with a nice book under a warm blanket,0.03,0.01,1.1,0,,,,,
,,66c0df311f98d7c9661669d9,6685aa9113c938e83b4f1ea0,67002a0b081d933e26530c4b,2024-10-04_11h47.40.293,WTP_SM_Choice,2022.2.1,MacIntel,62.5,,,,,,,,,,,,,,,,,,54,,,,,,,,,,0.01,2,2.817,0,3,3,3,1,Watch reality dating shows on weekends with my partner,Sit at my desk with a warm coffee to drink,0.04,0.01,4.4,0,,,,,
,,66c0df311f98d7c9661669d9,6685aa9113c938e83b4f1ea0,67002a0b081d933e26530c4b,2024-10-04_11h47.40.293,WTP_SM_Choice,2022.2.1,MacIntel,62.5,,,,,,,,,,,,,,,,,,55,,,,,,,,,,0.01,2,1.311,0,4,4,4,1,Work on building miniature houses at my desk,Grab dinner with my parents on saturday,0.05,0.01,1.1,1,,,,,
,,66c0df311f98d7c9661669d9,6685aa9113c938e83b4f1ea0,67002a0b081d933e26530c4b,2024-10-04_11h47.40.293,WTP_SM_Choice,2022.2.1,MacIntel,62.5,,,,,,,NAN,,NAN,1.25,4.75,,0,54,54,54,1,55,Sam,Rej,Participant_Images/66c0df311f98d7c9661669d9/66c0df311f98d7c9661669d9_Images/66c0df311f98d7c9661669d9_Image_21.jpeg,did not like,3.602308302,,,,,,,,,,,,,,,,,,,,,,,
,,66c0df311f98d7c9661669d9,6685aa9113c938e83b4f1ea0,67002a0b081d933e26530c4b,2024-10-04_11h47.40.293,WTP_SM_Choice,2022.2.1,MacIntel,62.5,,,,,space,3.923,NAN,,NAN,1.25,4.75,,0,55,55,55,1,56,Sam,Rej,Participant_Images/66c0df311f98d7c9661669d9/66c0df311f98d7c9661669d9_Images/66c0df311f98d7c9661669d9_Image_2.jpeg,did not like,4.106391878,,,,,,,,,,,,,,,,,,,,,,,
,,66c0df311f98d7c9661669d9,6685aa9113c938e83b4f1ea0,67002a0b081d933e26530c4b,2024-10-04_11h47.40.293,WTP_SM_Choice,2022.2.1,MacIntel,62.5,,,,,space,0.76,NAN,,NAN,1.25,4.75,,0,56,56,56,1,57,Sam,Rej,Participant_Images/66c0df311f98d7c9661669d9/66c0df311f98d7c9661669d9_Images/66c0df311f98d7c9661669d9_Image_20.jpeg,did not like,3.799433026,,,,,,,,,,,,,,,,,,,,,,,
,,66c0df311f98d7c9661669d9,6685aa9113c938e83b4f1ea0,67002a0b081d933e26530c4b,2024-10-04_11h47.40.293,WTP_SM_Choice,2022.2.1,MacIntel,62.5,,,,,space,0.669,NAN,,NAN,1.25,4.75,,0,57,57,57,1,58,Sam,Rej,Participant_Images/66c0df311f98d7c9661669d9/66c0df311f98d7c9661669d9_Images/66c0df311f98d7c9661669d9_Image_19.jpeg,did not like,5.246980764,,,,,,,,,,,,,,,,,,,,,,,
,,66c0df311f98d7c9661669d9,6685aa9113c938e83b4f1ea0,67002a0b081d933e26530c4b,2024-10-04_11h47.40.293,WTP_SM_Choice,2022.2.1,MacIntel,62.5,,,,,space,0.785,NAN,,NAN,1.25,4.75,,0,58,58,58,1,59,Sam,Rej,Participant_Images/66c0df311f98d7c9661669d9/66c0df311f98d7c9661669d9_Images/66c0df311f98d7c9661669d9_Image_13.jpeg,liked,3.30081769,,,,,,,,,,,,,,,,,,,,,,,
,,66c0df311f98d7c9661669d9,6685aa9113c938e83b4f1ea0,67002a0b081d933e26530c4b,2024-10-04_11h47.40.293,WTP_SM_Choice,2022.2.1,MacIntel,62.5,,,,,,,,,,,,,,,,,,56,,,,,,space,8.587,space,5.719,0.02,2,6.983,0,0,0,0,1,Watch horror movies in my living room with a candle lit,Go to spirit halloween on fridays with my partner,0.01,0.02,8.8,1,,,,,
,,66c0df311f98d7c9661669d9,6685aa9113c938e83b4f1ea0,67002a0b081d933e26530c4b,2024-10-04_11h47.40.293,WTP_SM_Choice,2022.2.1,MacIntel,62.5,,,,,,,,,,,,,,,,,,57,,,,,,,,,,0.02,2,3.506,0,1,1,1,1,Go to conventions with friends on special occasions,Do latch hook at home on my bed,0.02,0.02,4.4,0,,,,,
,,66c0df311f98d7c9661669d9,6685aa9113c938e83b4f1ea0,67002a0b081d933e26530c4b,2024-10-04_11h47.40.293,WTP_SM_Choice,2022.2.1,MacIntel,62.5,,,,,,,,,,,,,,,,,,58,,,,,,,,,,0.03,1,2.02,0,2,2,2,1,Go to grab lunch with friends on friday,Curl up with a nice book under a warm blanket,0.03,0.02,4.4,0,,,,,
,,66c0df311f98d7c9661669d9,6685aa9113c938e83b4f1ea0,67002a0b081d933e26530c4b,2024-10-04_11h47.40.293,WTP_SM_Choice,2022.2.1,MacIntel,62.5,,,,,,,,,,,,,,,,,,59,,,,,,,,,,0.02,2,1.505,0,3,3,3,1,Visit haunted corn mazes in october for halloween with friends,Watch horror movies in my living room with a candle lit,0.04,0.02,4.4,0,,,,,
,,66c0df311f98d7c9661669d9,6685aa9113c938e83b4f1ea0,67002a0b081d933e26530c4b,2024-10-04_11h47.40.293,WTP_SM_Choice,2022.2.1,MacIntel,62.5,,,,,,,,,,,,,,,,,,60,,,,,,,,,,0.02,2,3.088,0,4,4,4,1,Visit haunted corn mazes in october for halloween with friends,Curl up with a nice book under a warm blanket,0.05,0.02,1.1,0,,,,,
,,66c0df311f98d7c9661669d9,6685aa9113c938e83b4f1ea0,67002a0b081d933e26530c4b,2024-10-04_11h47.40.293,WTP_SM_Choice,2022.2.1,MacIntel,62.5,,,,,,,NAN,,NAN,1.36,4.64,,0,59,59,59,1,60,Sam,Rej,Participant_Images/66c0df311f98d7c9661669d9/66c0df311f98d7c9661669d9_Images/66c0df311f98d7c9661669d9_Image_15.jpeg,did not like,1.661473164,,,,,,,,,,,,,,,,,,,,,,,
,,66c0df311f98d7c9661669d9,6685aa9113c938e83b4f1ea0,67002a0b081d933e26530c4b,2024-10-04_11h47.40.293,WTP_SM_Choice,2022.2.1,MacIntel,62.5,,,,,space,0.641,NAN,,NAN,1.36,4.64,,0,60,60,60,1,61,Sam,Rej,Participant_Images/66c0df311f98d7c9661669d9/66c0df311f98d7c9661669d9_Images/66c0df311f98d7c9661669d9_Image_25.jpeg,did not like,3.613205605,,,,,,,,,,,,,,,,,,,,,,,
,,66c0df311f98d7c9661669d9,6685aa9113c938e83b4f1ea0,67002a0b081d933e26530c4b,2024-10-04_11h47.40.293,WTP_SM_Choice,2022.2.1,MacIntel,62.5,,,,,space,1.667,NAN,,NAN,1.36,4.64,,0,61,61,61,1,62,Sam,Rej,Participant_Images/66c0df311f98d7c9661669d9/66c0df311f98d7c9661669d9_Images/66c0df311f98d7c9661669d9_Image_1.jpeg,did not like,4.988446431,,,,,,,,,,,,,,,,,,,,,,,
,,66c0df311f98d7c9661669d9,6685aa9113c938e83b4f1ea0,67002a0b081d933e26530c4b,2024-10-04_11h47.40.293,WTP_SM_Choice,2022.2.1,MacIntel,62.5,,,,,space,6.121,NAN,,NAN,1.36,4.64,,0,62,62,62,1,63,Sam,Rej,Participant_Images/66c0df311f98d7c9661669d9/66c0df311f98d7c9661669d9_Images/66c0df311f98d7c9661669d9_Image_24.jpeg,did not like,3.470791822,,,,,,,,,,,,,,,,,,,,,,,
,,66c0df311f98d7c9661669d9,6685aa9113c938e83b4f1ea0,67002a0b081d933e26530c4b,2024-10-04_11h47.40.293,WTP_SM_Choice,2022.2.1,MacIntel,62.5,,,,,space,1.658,NAN,,NAN,1.36,4.64,,0,63,63,63,1,64,Sam,Rej,Participant_Images/66c0df311f98d7c9661669d9/66c0df311f98d7c9661669d9_Images/66c0df311f98d7c9661669d9_Image_12.jpeg,did not like,3.820572462,,,,,,,,,,,,,,,,,,,,,,,
,,66c0df311f98d7c9661669d9,6685aa9113c938e83b4f1ea0,67002a0b081d933e26530c4b,2024-10-04_11h47.40.293,WTP_SM_Choice,2022.2.1,MacIntel,62.5,,,,,,,,,,,,,,,,,,61,,,,,,space,1.078,space,37.234,0.01,1,1.347,0,0,0,0,1,Watch reality dating shows on weekends with my partner,Curl up with a nice book under a warm blanket,0.01,0.03,3.3,0,,,,,
,,66c0df311f98d7c9661669d9,6685aa9113c938e83b4f1ea0,67002a0b081d933e26530c4b,2024-10-04_11h47.40.293,WTP_SM_Choice,2022.2.1,MacIntel,62.5,,,,,,,,,,,,,,,,,,62,,,,,,,,,,0.02,1,1.349,0,1,1,1,1,Do latch hook at home on my bed,Go to spirit halloween on fridays with my partner,0.02,0.03,3.3,1,,,,,
,,66c0df311f98d7c9661669d9,6685aa9113c938e83b4f1ea0,67002a0b081d933e26530c4b,2024-10-04_11h47.40.293,WTP_SM_Choice,2022.2.1,MacIntel,62.5,,,,,,,,,,,,,,,,,,63,,,,,,,,,,0.03,1,2.054,0,2,2,2,1,Get coffee at the local coffee shop during work breaks with friends,Watch horror movies in my living room with a candle lit,0.03,0.03,3.3,0,,,,,
,,66c0df311f98d7c9661669d9,6685aa9113c938e83b4f1ea0,67002a0b081d933e26530c4b,2024-10-04_11h47.40.293,WTP_SM_Choice,2022.2.1,MacIntel,62.5,,,,,,,,,,,,,,,,,,64,,,,,,,,,,0.03,2,2.671,0,3,3,3,1,Go to grab lunch with friends on friday,Go for a walk outside my house and seeing the nature outside,0.04,0.03,1.1,0,,,,,
,,66c0df311f98d7c9661669d9,6685aa9113c938e83b4f1ea0,67002a0b081d933e26530c4b,2024-10-04_11h47.40.293,WTP_SM_Choice,2022.2.1,MacIntel,62.5,,,,,,,,,,,,,,,,,,65,,,,,,,,,,0.05,1,2.291,0,4,4,4,1,Go to grab lunch with friends on friday,Work on building miniature houses at my desk,0.05,0.03,1.1,0,,,,,
,,66c0df311f98d7c9661669d9,6685aa9113c938e83b4f1ea0,67002a0b081d933e26530c4b,2024-10-04_11h47.40.293,WTP_SM_Choice,2022.2.1,MacIntel,62.5,,,,,,,NAN,,NAN,1.5,4.5,,0,64,64,64,1,65,Sam,Rej,Participant_Images/66c0df311f98d7c9661669d9/66c0df311f98d7c9661669d9_Images/66c0df311f98d7c9661669d9_Image_14.jpeg,liked,2.455989137,,,,,,,,,,,,,,,,,,,,,,,
,,66c0df311f98d7c9661669d9,6685aa9113c938e83b4f1ea0,67002a0b081d933e26530c4b,2024-10-04_11h47.40.293,WTP_SM_Choice,2022.2.1,MacIntel,62.5,,,,,space,1.083,NAN,,NAN,1.5,4.5,,0,65,65,65,1,66,Sam,Rej,Participant_Images/66c0df311f98d7c9661669d9/66c0df311f98d7c9661669d9_Images/66c0df311f98d7c9661669d9_Image_7.jpeg,liked,3.79605092,,,,,,,,,,,,,,,,,,,,,,,
,,66c0df311f98d7c9661669d9,6685aa9113c938e83b4f1ea0,67002a0b081d933e26530c4b,2024-10-04_11h47.40.293,WTP_SM_Choice,2022.2.1,MacIntel,62.5,,,,,space,2.787,NAN,,NAN,1.5,4.5,,0,66,66,66,1,67,Sam,Rej,Participant_Images/66c0df311f98d7c9661669d9/66c0df311f98d7c9661669d9_Images/66c0df311f98d7c9661669d9_Image_4.jpeg,did not like,3.562416326,,,,,,,,,,,,,,,,,,,,,,,
,,66c0df311f98d7c9661669d9,6685aa9113c938e83b4f1ea0,67002a0b081d933e26530c4b,2024-10-04_11h47.40.293,WTP_SM_Choice,2022.2.1,MacIntel,62.5,,,,,space,0.601,NAN,,NAN,1.5,4.5,,0,67,67,67,1,68,Sam,Rej,Participant_Images/66c0df311f98d7c9661669d9/66c0df311f98d7c9661669d9_Images/66c0df311f98d7c9661669d9_Image_17.jpeg,did not like,2.843822497,,,,,,,,,,,,,,,,,,,,,,,
,,66c0df311f98d7c9661669d9,6685aa9113c938e83b4f1ea0,67002a0b081d933e26530c4b,2024-10-04_11h47.40.293,WTP_SM_Choice,2022.2.1,MacIntel,62.5,,,,,space,0.707,NAN,,NAN,1.5,4.5,,0,68,68,68,1,69,Sam,Rej,Participant_Images/66c0df311f98d7c9661669d9/66c0df311f98d7c9661669d9_Images/66c0df311f98d7c9661669d9_Image_9.jpeg,did not like,3.546495948,,,,,,,,,,,,,,,,,,,,,,,
,,66c0df311f98d7c9661669d9,6685aa9113c938e83b4f1ea0,67002a0b081d933e26530c4b,2024-10-04_11h47.40.293,WTP_SM_Choice,2022.2.1,MacIntel,62.5,,,,,,,,,,,,,,,,,,66,,,,,,space,17.567,space,67.705,0.01,1,1.233,0,0,0,0,1,Go on a weekend run for groceries,Get coffee at the local coffee shop during work breaks with friends,0.01,0.04,1.1,1,,,,,
,,66c0df311f98d7c9661669d9,6685aa9113c938e83b4f1ea0,67002a0b081d933e26530c4b,2024-10-04_11h47.40.293,WTP_SM_Choice,2022.2.1,MacIntel,62.5,,,,,,,,,,,,,,,,,,67,,,,,,,,,,,,,0,1,1,1,1,Do latch hook at home on my bed,Spend evenings with friends playing video games,0.02,0.04,8.8,1,,,,,
,,66c0df311f98d7c9661669d9,6685aa9113c938e83b4f1ea0,67002a0b081d933e26530c4b,2024-10-04_11h47.40.293,WTP_SM_Choice,2022.2.1,MacIntel,62.5,,,,,,,,,,,,,,,,,,68,,,,,,,,,,0.03,1,5.445,0,2,2,2,1,Watch reality dating shows on weekends with my partner,In my house decorating for halloween,0.03,0.04,4.4,0,,,,,
,,66c0df311f98d7c9661669d9,6685aa9113c938e83b4f1ea0,67002a0b081d933e26530c4b,2024-10-04_11h47.40.293,WTP_SM_Choice,2022.2.1,MacIntel,62.5,,,,,,,,,,,,,,,,,,69,,,,,,,,,,0.04,1,5.001,0,3,3,3,1,Sit at my desk with a warm coffee to drink,Skype friends weekly for dungeons and dragons,0.04,0.04,1.1,1,,,,,
,,66c0df311f98d7c9661669d9,6685aa9113c938e83b4f1ea0,67002a0b081d933e26530c4b,2024-10-04_11h47.40.293,WTP_SM_Choice,2022.2.1,MacIntel,62.5,,,,,,,,,,,,,,,,,,70,,,,,,,,,,0.04,2,2.217,0,4,4,4,1,Go to grab lunch with friends on friday,Spend time at home with my cats,0.05,0.04,1.1,0,,,,,
,,66c0df311f98d7c9661669d9,6685aa9113c938e83b4f1ea0,67002a0b081d933e26530c4b,2024-10-04_11h47.40.293,WTP_SM_Choice,2022.2.1,MacIntel,62.5,,,,,,,NAN,,NAN,1.62,4.38,,0,69,69,69,1,70,Sam,Rej,Participant_Images/66c0df311f98d7c9661669d9/66c0df311f98d7c9661669d9_Images/66c0df311f98d7c9661669d9_Image_6.jpeg,did not like,1.672012706,,,,,,,,,,,,,,,,,,,,,,,
,,66c0df311f98d7c9661669d9,6685aa9113c938e83b4f1ea0,67002a0b081d933e26530c4b,2024-10-04_11h47.40.293,WTP_SM_Choice,2022.2.1,MacIntel,62.5,,,,,space,110.235,NAN,,NAN,1.62,4.38,,0,70,70,70,1,71,Sam,Rej,Participant_Images/66c0df311f98d7c9661669d9/66c0df311f98d7c9661669d9_Images/66c0df311f98d7c9661669d9_Image_8.jpeg,liked,4.942172136,,,,,,,,,,,,,,,,,,,,,,,
,,66c0df311f98d7c9661669d9,6685aa9113c938e83b4f1ea0,67002a0b081d933e26530c4b,2024-10-04_11h47.40.293,WTP_SM_Choice,2022.2.1,MacIntel,62.5,,,,,space,4.938,NAN,,NAN,1.62,4.38,,0,71,71,71,1,72,Sam,Rej,Participant_Images/66c0df311f98d7c9661669d9/66c0df311f98d7c9661669d9_Images/66c0df311f98d7c9661669d9_Image_22.jpeg,liked,2.50187214,,,,,,,,,,,,,,,,,,,,,,,
,,66c0df311f98d7c9661669d9,6685aa9113c938e83b4f1ea0,67002a0b081d933e26530c4b,2024-10-04_11h47.40.293,WTP_SM_Choice,2022.2.1,MacIntel,62.5,,,,,space,21.17,NAN,,NAN,1.62,4.38,,0,72,72,72,1,73,Sam,Rej,Participant_Images/66c0df311f98d7c9661669d9/66c0df311f98d7c9661669d9_Images/66c0df311f98d7c9661669d9_Image_18.jpeg,did not like,2.071164779,,,,,,,,,,,,,,,,,,,,,,,
,,66c0df311f98d7c9661669d9,6685aa9113c938e83b4f1ea0,67002a0b081d933e26530c4b,2024-10-04_11h47.40.293,WTP_SM_Choice,2022.2.1,MacIntel,62.5,,,,,space,1.717,NAN,,NAN,1.62,4.38,,0,73,73,73,1,74,Sam,Rej,Participant_Images/66c0df311f98d7c9661669d9/66c0df311f98d7c9661669d9_Images/66c0df311f98d7c9661669d9_Image_10.jpeg,did not like,5.336503566,,,,,,,,,,,,,,,,,,,,,,,
,,66c0df311f98d7c9661669d9,6685aa9113c938e83b4f1ea0,67002a0b081d933e26530c4b,2024-10-04_11h47.40.293,WTP_SM_Choice,2022.2.1,MacIntel,62.5,,,,,,,,,,,,,,,,,,71,,,,,,space,5.833,space,15.329,0.05,2,1.995,0,0,0,0,1,Spend evenings with friends playing video games,Go on a weekend run for groceries,0.01,0.05,3.3,0,,,,,
,,66c0df311f98d7c9661669d9,6685aa9113c938e83b4f1ea0,67002a0b081d933e26530c4b,2024-10-04_11h47.40.293,WTP_SM_Choice,2022.2.1,MacIntel,62.5,,,,,,,,,,,,,,,,,,72,,,,,,,,,,0.02,1,1.433,0,1,1,1,1,Grab dinner with my parents on saturday,Collect leaves outside and posting about it on instagram,0.02,0.05,8.8,0,,,,,
,,66c0df311f98d7c9661669d9,6685aa9113c938e83b4f1ea0,67002a0b081d933e26530c4b,2024-10-04_11h47.40.293,WTP_SM_Choice,2022.2.1,MacIntel,62.5,,,,,,,,,,,,,,,,,,73,,,,,,,,,,0.05,2,2.336,0,2,2,2,1,Go for a walk outside my house and seeing the nature outside,Grab dinner with my parents on saturday,0.03,0.05,3.3,1,,,,,
,,66c0df311f98d7c9661669d9,6685aa9113c938e83b4f1ea0,67002a0b081d933e26530c4b,2024-10-04_11h47.40.293,WTP_SM_Choice,2022.2.1,MacIntel,62.5,,,,,,,,,,,,,,,,,,74,,,,,,,,,,0.05,2,5.469,0,3,3,3,1,Go to spirit halloween on fridays with my partner,Work on building miniature houses at my desk,0.04,0.05,4.4,0,,,,,
,,66c0df311f98d7c9661669d9,6685aa9113c938e83b4f1ea0,67002a0b081d933e26530c4b,2024-10-04_11h47.40.293,WTP_SM_Choice,2022.2.1,MacIntel,62.5,,,,,,,,,,,,,,,,,,75,,,,,,,,,,0.05,2,3.046,0,4,4,4,1,Skype friends weekly for dungeons and dragons,Watch horror movies in my living room with a candle lit,0.05,0.05,3.3,0,,,,,
,,66c0df311f98d7c9661669d9,6685aa9113c938e83b4f1ea0,67002a0b081d933e26530c4b,2024-10-04_11h47.40.293,WTP_SM_Choice,2022.2.1,MacIntel,62.5,,,,,,,3,,3,1.84,4.16,,0,74,74,74,1,75,Sam,Rej,Participant_Images/66c0df311f98d7c9661669d9/66c0df311f98d7c9661669d9_Images/66c0df311f98d7c9661669d9_Image_23.jpeg,liked,2.642157193,,,,,,,,,,,,,,,,,,,space,0.949,,,
,,66c0df311f98d7c9661669d9,6685aa9113c938e83b4f1ea0,67002a0b081d933e26530c4b,2024-10-04_11h47.40.293,WTP_SM_Choice,2022.2.1,MacIntel,62.5,,,space,1.175,space,8.077,NAN,,NAN,1.84,4.16,,0,75,75,75,1,76,Charlie,Acc,Participant_Images/66c0df311f98d7c9661669d9/66c0df311f98d7c9661669d9_Images/66c0df311f98d7c9661669d9_Image_12.jpeg,liked,4.456234322,,,,,,,,,,,,,,,,,,,,,,,
,,66c0df311f98d7c9661669d9,6685aa9113c938e83b4f1ea0,67002a0b081d933e26530c4b,2024-10-04_11h47.40.293,WTP_SM_Choice,2022.2.1,MacIntel,62.5,,,,,space,5.491,NAN,,NAN,1.84,4.16,,0,76,76,76,1,77,Charlie,Acc,Participant_Images/66c0df311f98d7c9661669d9/66c0df311f98d7c9661669d9_Images/66c0df311f98d7c9661669d9_Image_21.jpeg,did not like,4.438512181,,,,,,,,,,,,,,,,,,,,,,,
,,66c0df311f98d7c9661669d9,6685aa9113c938e83b4f1ea0,67002a0b081d933e26530c4b,2024-10-04_11h47.40.293,WTP_SM_Choice,2022.2.1,MacIntel,62.5,,,,,space,4.779,NAN,,NAN,1.84,4.16,,0,77,77,77,1,78,Charlie,Acc,Participant_Images/66c0df311f98d7c9661669d9/66c0df311f98d7c9661669d9_Images/66c0df311f98d7c9661669d9_Image_13.jpeg,liked,2.682944783,,,,,,,,,,,,,,,,,,,,,,,
,,66c0df311f98d7c9661669d9,6685aa9113c938e83b4f1ea0,67002a0b081d933e26530c4b,2024-10-04_11h47.40.293,WTP_SM_Choice,2022.2.1,MacIntel,62.5,,,,,space,63.933,NAN,,NAN,1.84,4.16,,0,78,78,78,1,79,Charlie,Acc,Participant_Images/66c0df311f98d7c9661669d9/66c0df311f98d7c9661669d9_Images/66c0df311f98d7c9661669d9_Image_8.jpeg,did not like,4.51984296,,,,,,,,,,,,,,,,,,,,,,,
,,66c0df311f98d7c9661669d9,6685aa9113c938e83b4f1ea0,67002a0b081d933e26530c4b,2024-10-04_11h47.40.293,WTP_SM_Choice,2022.2.1,MacIntel,62.5,,,,,,,,,,,,,,,,,,76,,,,,,space,45.651,space,28.864,0.01,1,2.264,0,0,0,0,1,Spend evenings with friends playing video games,Work on building miniature houses at my desk,0.01,0.01,1.1,0,,,,,
,,66c0df311f98d7c9661669d9,6685aa9113c938e83b4f1ea0,67002a0b081d933e26530c4b,2024-10-04_11h47.40.293,WTP_SM_Choice,2022.2.1,MacIntel,62.5,,,,,,,,,,,,,,,,,,77,,,,,,,,,,0.01,2,1.12,0,1,1,1,1,Go for a walk outside my house and seeing the nature outside,Visit scenic areas on the weekends with my family,0.02,0.01,8.8,1,,,,,
,,66c0df311f98d7c9661669d9,6685aa9113c938e83b4f1ea0,67002a0b081d933e26530c4b,2024-10-04_11h47.40.293,WTP_SM_Choice,2022.2.1,MacIntel,62.5,,,,,,,,,,,,,,,,,,78,,,,,,,,,,0.03,1,6.593,0,2,2,2,1,Sit at my desk with a warm coffee to drink,Spend evenings with friends playing video games,0.03,0.01,1.1,1,,,,,
,,66c0df311f98d7c9661669d9,6685aa9113c938e83b4f1ea0,67002a0b081d933e26530c4b,2024-10-04_11h47.40.293,WTP_SM_Choice,2022.2.1,MacIntel,62.5,,,,,,,,,,,,,,,,,,79,,,,,,,,,,0.01,2,5.672,0,3,3,3,1,Go to grab lunch with friends on friday,Watch horror movies in my living room with a candle lit,0.04,0.01,1.1,0,,,,,
,,66c0df311f98d7c9661669d9,6685aa9113c938e83b4f1ea0,67002a0b081d933e26530c4b,2024-10-04_11h47.40.293,WTP_SM_Choice,2022.2.1,MacIntel,62.5,,,,,,,,,,,,,,,,,,80,,,,,,,,,,0.01,2,1.135,0,4,4,4,1,Go for a walk outside my house and seeing the nature outside,Spend evenings with friends playing video games,0.05,0.01,4.4,1,,,,,
,,66c0df311f98d7c9661669d9,6685aa9113c938e83b4f1ea0,67002a0b081d933e26530c4b,2024-10-04_11h47.40.293,WTP_SM_Choice,2022.2.1,MacIntel,62.5,,,,,,,NAN,,NAN,1.91,4.09,,0,79,79,79,1,80,Charlie,Acc,Participant_Images/66c0df311f98d7c9661669d9/66c0df311f98d7c9661669d9_Images/66c0df311f98d7c9661669d9_Image_23.jpeg,liked,3.195382774,,,,,,,,,,,,,,,,,,,,,,,
,,66c0df311f98d7c9661669d9,6685aa9113c938e83b4f1ea0,67002a0b081d933e26530c4b,2024-10-04_11h47.40.293,WTP_SM_Choice,2022.2.1,MacIntel,62.5,,,,,space,0.784,NAN,,NAN,1.91,4.09,,0,80,80,80,1,81,Charlie,Acc,Participant_Images/66c0df311f98d7c9661669d9/66c0df311f98d7c9661669d9_Images/66c0df311f98d7c9661669d9_Image_7.jpeg,liked,1.779333479,,,,,,,,,,,,,,,,,,,,,,,
,,66c0df311f98d7c9661669d9,6685aa9113c938e83b4f1ea0,67002a0b081d933e26530c4b,2024-10-04_11h47.40.293,WTP_SM_Choice,2022.2.1,MacIntel,62.5,,,,,space,1.034,NAN,,NAN,1.91,4.09,,0,81,81,81,1,82,Charlie,Acc,Participant_Images/66c0df311f98d7c9661669d9/66c0df311f98d7c9661669d9_Images/66c0df311f98d7c9661669d9_Image_11.jpeg,liked,4.312468682,,,,,,,,,,,,,,,,,,,,,,,
,,66c0df311f98d7c9661669d9,6685aa9113c938e83b4f1ea0,67002a0b081d933e26530c4b,2024-10-04_11h47.40.293,WTP_SM_Choice,2022.2.1,MacIntel,62.5,,,,,space,14.535,NAN,,NAN,1.91,4.09,,0,82,82,82,1,83,Charlie,Acc,Participant_Images/66c0df311f98d7c9661669d9/66c0df311f98d7c9661669d9_Images/66c0df311f98d7c9661669d9_Image_1.jpeg,liked,4.940433059,,,,,,,,,,,,,,,,,,,,,,,
,,66c0df311f98d7c9661669d9,6685aa9113c938e83b4f1ea0,67002a0b081d933e26530c4b,2024-10-04_11h47.40.293,WTP_SM_Choice,2022.2.1,MacIntel,62.5,,,,,space,30.187,NAN,,NAN,1.91,4.09,,0,83,83,83,1,84,Charlie,Acc,Participant_Images/66c0df311f98d7c9661669d9/66c0df311f98d7c9661669d9_Images/66c0df311f98d7c9661669d9_Image_25.jpeg,did not like,2.7105123,,,,,,,,,,,,,,,,,,,,,,,
,,66c0df311f98d7c9661669d9,6685aa9113c938e83b4f1ea0,67002a0b081d933e26530c4b,2024-10-04_11h47.40.293,WTP_SM_Choice,2022.2.1,MacIntel,62.5,,,,,,,,,,,,,,,,,,81,,,,,,space,1.416,space,0.633,0.01,1,1.342,0,0,0,0,1,Work on building miniature houses at my desk,Watch reality dating shows on weekends with my partner,0.01,0.02,3.3,1,,,,,
,,66c0df311f98d7c9661669d9,6685aa9113c938e83b4f1ea0,67002a0b081d933e26530c4b,2024-10-04_11h47.40.293,WTP_SM_Choice,2022.2.1,MacIntel,62.5,,,,,,,,,,,,,,,,,,82,,,,,,,,,,,,,0,1,1,1,1,Sit at my desk with a warm coffee to drink,Grab dinner with my parents on saturday,0.02,0.02,4.4,1,,,,,
,,66c0df311f98d7c9661669d9,6685aa9113c938e83b4f1ea0,67002a0b081d933e26530c4b,2024-10-04_11h47.40.293,WTP_SM_Choice,2022.2.1,MacIntel,62.5,,,,,,,,,,,,,,,,,,83,,,,,,,,,,0.02,2,2.08,0,2,2,2,1,Visit scenic areas on the weekends with my family,In my house decorating for halloween,0.03,0.02,1.1,0,,,,,
,,66c0df311f98d7c9661669d9,6685aa9113c938e83b4f1ea0,67002a0b081d933e26530c4b,2024-10-04_11h47.40.293,WTP_SM_Choice,2022.2.1,MacIntel,62.5,,,,,,,,,,,,,,,,,,84,,,,,,,,,,0.02,2,1.668,0,3,3,3,1,Go on a weekend run for groceries,Grab dinner with my parents on saturday,0.04,0.02,3.3,1,,,,,
,,66c0df311f98d7c9661669d9,6685aa9113c938e83b4f1ea0,67002a0b081d933e26530c4b,2024-10-04_11h47.40.293,WTP_SM_Choice,2022.2.1,MacIntel,62.5,,,,,,,,,,,,,,,,,,85,,,,,,,,,,0.02,2,2.082,0,4,4,4,1,Collect leaves outside and posting about it on instagram,Visit scenic areas on the weekends with my family,0.05,0.02,3.3,1,,,,,
,,66c0df311f98d7c9661669d9,6685aa9113c938e83b4f1ea0,67002a0b081d933e26530c4b,2024-10-04_11h47.40.293,WTP_SM_Choice,2022.2.1,MacIntel,62.5,,,,,,,NAN,,NAN,1.98,4.02,,0,84,84,84,1,85,Charlie,Acc,Participant_Images/66c0df311f98d7c9661669d9/66c0df311f98d7c9661669d9_Images/66c0df311f98d7c9661669d9_Image_24.jpeg,liked,3.602308302,,,,,,,,,,,,,,,,,,,,,,,
,,66c0df311f98d7c9661669d9,6685aa9113c938e83b4f1ea0,67002a0b081d933e26530c4b,2024-10-04_11h47.40.293,WTP_SM_Choice,2022.2.1,MacIntel,62.5,,,,,space,1.836,NAN,,NAN,1.98,4.02,,0,85,85,85,1,86,Charlie,Acc,Participant_Images/66c0df311f98d7c9661669d9/66c0df311f98d7c9661669d9_Images/66c0df311f98d7c9661669d9_Image_3.jpeg,did not like,4.106391878,,,,,,,,,,,,,,,,,,,,,,,
,,66c0df311f98d7c9661669d9,6685aa9113c938e83b4f1ea0,67002a0b081d933e26530c4b,2024-10-04_11h47.40.293,WTP_SM_Choice,2022.2.1,MacIntel,62.5,,,,,space,85.128,NAN,,NAN,1.98,4.02,,0,86,86,86,1,87,Charlie,Acc,Participant_Images/66c0df311f98d7c9661669d9/66c0df311f98d7c9661669d9_Images/66c0df311f98d7c9661669d9_Image_18.jpeg,liked,3.799433026,,,,,,,,,,,,,,,,,,,,,,,
,,66c0df311f98d7c9661669d9,6685aa9113c938e83b4f1ea0,67002a0b081d933e26530c4b,2024-10-04_11h47.40.293,WTP_SM_Choice,2022.2.1,MacIntel,62.5,,,,,space,18.311,NAN,,NAN,1.98,4.02,,0,87,87,87,1,88,Charlie,Acc,Participant_Images/66c0df311f98d7c9661669d9/66c0df311f98d7c9661669d9_Images/66c0df311f98d7c9661669d9_Image_9.jpeg,liked,5.246980764,,,,,,,,,,,,,,,,,,,,,,,
,,66c0df311f98d7c9661669d9,6685aa9113c938e83b4f1ea0,67002a0b081d933e26530c4b,2024-10-04_11h47.40.293,WTP_SM_Choice,2022.2.1,MacIntel,62.5,,,,,space,0.695,NAN,,NAN,1.98,4.02,,0,88,88,88,1,89,Charlie,Acc,Participant_Images/66c0df311f98d7c9661669d9/66c0df311f98d7c9661669d9_Images/66c0df311f98d7c9661669d9_Image_2.jpeg,liked,3.30081769,,,,,,,,,,,,,,,,,,,,,,,
,,66c0df311f98d7c9661669d9,6685aa9113c938e83b4f1ea0,67002a0b081d933e26530c4b,2024-10-04_11h47.40.293,WTP_SM_Choice,2022.2.1,MacIntel,62.5,,,,,,,,,,,,,,,,,,86,,,,,,space,0.617,space,0.838,0.01,1,1.398,0,0,0,0,1,Watch reality dating shows on weekends with my partner,Spend time at home with my cats,0.01,0.03,1.1,0,,,,,
,,66c0df311f98d7c9661669d9,6685aa9113c938e83b4f1ea0,67002a0b081d933e26530c4b,2024-10-04_11h47.40.293,WTP_SM_Choice,2022.2.1,MacIntel,62.5,,,,,,,,,,,,,,,,,,87,,,,,,,,,,0.02,1,3.423,0,1,1,1,1,Go for a walk outside my house and seeing the nature outside,Skype friends weekly for dungeons and dragons,0.02,0.03,4.4,1,,,,,
,,66c0df311f98d7c9661669d9,6685aa9113c938e83b4f1ea0,67002a0b081d933e26530c4b,2024-10-04_11h47.40.293,WTP_SM_Choice,2022.2.1,MacIntel,62.5,,,,,,,,,,,,,,,,,,88,,,,,,,,,,0.03,2,3.256,0,2,2,2,1,Get coffee at the local coffee shop during work breaks with friends,Go for a walk outside my house and seeing the nature outside,0.03,0.03,1.1,0,,,,,
,,66c0df311f98d7c9661669d9,6685aa9113c938e83b4f1ea0,67002a0b081d933e26530c4b,2024-10-04_11h47.40.293,WTP_SM_Choice,2022.2.1,MacIntel,62.5,,,,,,,,,,,,,,,,,,89,,,,,,,,,,0.03,2,2.888,0,3,3,3,1,Watch reality dating shows on weekends with my partner,Collect leaves outside and posting about it on instagram,0.04,0.03,3.3,0,,,,,
,,66c0df311f98d7c9661669d9,6685aa9113c938e83b4f1ea0,67002a0b081d933e26530c4b,2024-10-04_11h47.40.293,WTP_SM_Choice,2022.2.1,MacIntel,62.5,,,,,,,,,,,,,,,,,,90,,,,,,,,,,0.05,1,4.301,0,4,4,4,1,Go on a weekend run for groceries,Go to conventions with friends on special occasions,0.05,0.03,8.8,1,,,,,
,,66c0df311f98d7c9661669d9,6685aa9113c938e83b4f1ea0,67002a0b081d933e26530c4b,2024-10-04_11h47.40.293,WTP_SM_Choice,2022.2.1,MacIntel,62.5,,,,,,,NAN,,NAN,2.12,3.88,,0,89,89,89,1,90,Charlie,Acc,Participant_Images/66c0df311f98d7c9661669d9/66c0df311f98d7c9661669d9_Images/66c0df311f98d7c9661669d9_Image_10.jpeg,liked,1.661473164,,,,,,,,,,,,,,,,,,,,,,,
,,66c0df311f98d7c9661669d9,6685aa9113c938e83b4f1ea0,67002a0b081d933e26530c4b,2024-10-04_11h47.40.293,WTP_SM_Choice,2022.2.1,MacIntel,62.5,,,,,space,8.935,NAN,,NAN,2.12,3.88,,0,90,90,90,1,91,Charlie,Acc,Participant_Images/66c0df311f98d7c9661669d9/66c0df311f98d7c9661669d9_Images/66c0df311f98d7c9661669d9_Image_16.jpeg,liked,3.613205605,,,,,,,,,,,,,,,,,,,,,,,
,,66c0df311f98d7c9661669d9,6685aa9113c938e83b4f1ea0,67002a0b081d933e26530c4b,2024-10-04_11h47.40.293,WTP_SM_Choice,2022.2.1,MacIntel,62.5,,,,,space,8.954,NAN,,NAN,2.12,3.88,,0,91,91,91,1,92,Charlie,Acc,Participant_Images/66c0df311f98d7c9661669d9/66c0df311f98d7c9661669d9_Images/66c0df311f98d7c9661669d9_Image_20.jpeg,liked,4.988446431,,,,,,,,,,,,,,,,,,,,,,,
,,66c0df311f98d7c9661669d9,6685aa9113c938e83b4f1ea0,67002a0b081d933e26530c4b,2024-10-04_11h47.40.293,WTP_SM_Choice,2022.2.1,MacIntel,62.5,,,,,space,28.889,NAN,,NAN,2.12,3.88,,0,92,92,92,1,93,Charlie,Acc,Participant_Images/66c0df311f98d7c9661669d9/66c0df311f98d7c9661669d9_Images/66c0df311f98d7c9661669d9_Image_22.jpeg,did not like,3.470791822,,,,,,,,,,,,,,,,,,,,,,,
,,66c0df311f98d7c9661669d9,6685aa9113c938e83b4f1ea0,67002a0b081d933e26530c4b,2024-10-04_11h47.40.293,WTP_SM_Choice,2022.2.1,MacIntel,62.5,,,,,space,61.338,NAN,,NAN,2.12,3.88,,0,93,93,93,1,94,Charlie,Acc,Participant_Images/66c0df311f98d7c9661669d9/66c0df311f98d7c9661669d9_Images/66c0df311f98d7c9661669d9_Image_6.jpeg,liked,3.820572462,,,,,,,,,,,,,,,,,,,,,,,
,,66c0df311f98d7c9661669d9,6685aa9113c938e83b4f1ea0,67002a0b081d933e26530c4b,2024-10-04_11h47.40.293,WTP_SM_Choice,2022.2.1,MacIntel,62.5,,,,,,,,,,,,,,,,,,91,,,,,,space,49.237,space,0.436,0.01,1,1.274,0,0,0,0,1,Sit at my desk with a warm coffee to drink,Visit haunted corn mazes in october for halloween with friends,0.01,0.04,3.3,1,,,,,
,,66c0df311f98d7c9661669d9,6685aa9113c938e83b4f1ea0,67002a0b081d933e26530c4b,2024-10-04_11h47.40.293,WTP_SM_Choice,2022.2.1,MacIntel,62.5,,,,,,,,,,,,,,,,,,92,,,,,,,,,,0.02,1,6.302,0,1,1,1,1,Spend evenings with friends playing video games,Watch horror movies in my living room with a candle lit,0.02,0.04,8.8,0,,,,,
,,66c0df311f98d7c9661669d9,6685aa9113c938e83b4f1ea0,67002a0b081d933e26530c4b,2024-10-04_11h47.40.293,WTP_SM_Choice,2022.2.1,MacIntel,62.5,,,,,,,,,,,,,,,,,,93,,,,,,,,,,,,,0,2,2,2,1,Go to grab lunch with friends on friday,Collect leaves outside and posting about it on instagram,0.03,0.04,1.1,0,,,,,
,,66c0df311f98d7c9661669d9,6685aa9113c938e83b4f1ea0,67002a0b081d933e26530c4b,2024-10-04_11h47.40.293,WTP_SM_Choice,2022.2.1,MacIntel,62.5,,,,,,,,,,,,,,,,,,94,,,,,,,,,,0.04,1,0.124,0,3,3,3,1,Go to grab lunch with friends on friday,Go on a weekend run for groceries,0.04,0.04,4.4,0,,,,,
,,66c0df311f98d7c9661669d9,6685aa9113c938e83b4f1ea0,67002a0b081d933e26530c4b,2024-10-04_11h47.40.293,WTP_SM_Choice,2022.2.1,MacIntel,62.5,,,,,,,,,,,,,,,,,,95,,,,,,,,,,0.05,1,5.667,0,4,4,4,1,Go to spirit halloween on fridays with my partner,Spend time at home with my cats,0.05,0.04,4.4,0,,,,,
,,66c0df311f98d7c9661669d9,6685aa9113c938e83b4f1ea0,67002a0b081d933e26530c4b,2024-10-04_11h47.40.293,WTP_SM_Choice,2022.2.1,MacIntel,62.5,,,,,,,NAN,,NAN,2.24,3.76,,0,94,94,94,1,95,Charlie,Acc,Participant_Images/66c0df311f98d7c9661669d9/66c0df311f98d7c9661669d9_Images/66c0df311f98d7c9661669d9_Image_17.jpeg,liked,2.455989137,,,,,,,,,,,,,,,,,,,,,,,
,,66c0df311f98d7c9661669d9,6685aa9113c938e83b4f1ea0,67002a0b081d933e26530c4b,2024-10-04_11h47.40.293,WTP_SM_Choice,2022.2.1,MacIntel,62.5,,,,,space,2.21,NAN,,NAN,2.24,3.76,,0,95,95,95,1,96,Charlie,Acc,Participant_Images/66c0df311f98d7c9661669d9/66c0df311f98d7c9661669d9_Images/66c0df311f98d7c9661669d9_Image_19.jpeg,liked,3.79605092,,,,,,,,,,,,,,,,,,,,,,,
,,66c0df311f98d7c9661669d9,6685aa9113c938e83b4f1ea0,67002a0b081d933e26530c4b,2024-10-04_11h47.40.293,WTP_SM_Choice,2022.2.1,MacIntel,62.5,,,,,space,31.237,NAN,,NAN,2.24,3.76,,0,96,96,96,1,97,Charlie,Acc,Participant_Images/66c0df311f98d7c9661669d9/66c0df311f98d7c9661669d9_Images/66c0df311f98d7c9661669d9_Image_14.jpeg,did not like,3.562416326,,,,,,,,,,,,,,,,,,,,,,,
,,66c0df311f98d7c9661669d9,6685aa9113c938e83b4f1ea0,67002a0b081d933e26530c4b,2024-10-04_11h47.40.293,WTP_SM_Choice,2022.2.1,MacIntel,62.5,,,,,space,22.329,NAN,,NAN,2.24,3.76,,0,97,97,97,1,98,Charlie,Acc,Participant_Images/66c0df311f98d7c9661669d9/66c0df311f98d7c9661669d9_Images/66c0df311f98d7c9661669d9_Image_15.jpeg,liked,2.843822497,,,,,,,,,,,,,,,,,,,,,,,
,,66c0df311f98d7c9661669d9,6685aa9113c938e83b4f1ea0,67002a0b081d933e26530c4b,2024-10-04_11h47.40.293,WTP_SM_Choice,2022.2.1,MacIntel,62.5,,,,,space,216.724,NAN,,NAN,2.24,3.76,,0,98,98,98,1,99,Charlie,Acc,Participant_Images/66c0df311f98d7c9661669d9/66c0df311f98d7c9661669d9_Images/66c0df311f98d7c9661669d9_Image_4.jpeg,liked,3.546495948,,,,,,,,,,,,,,,,,,,,,,,
,,66c0df311f98d7c9661669d9,6685aa9113c938e83b4f1ea0,67002a0b081d933e26530c4b,2024-10-04_11h47.40.293,WTP_SM_Choice,2022.2.1,MacIntel,62.5,,,,,,,,,,,,,,,,,,96,,,,,,space,15.05,space,0.448,0.01,1,1.131,0,0,0,0,1,Get coffee at the local coffee shop during work breaks with friends,Do latch hook at home on my bed,0.01,0.05,3.3,0,,,,,
,,66c0df311f98d7c9661669d9,6685aa9113c938e83b4f1ea0,67002a0b081d933e26530c4b,2024-10-04_11h47.40.293,WTP_SM_Choice,2022.2.1,MacIntel,62.5,,,,,,,,,,,,,,,,,,97,,,,,,,,,,,,,0,1,1,1,1,Skype friends weekly for dungeons and dragons,Go on a weekend run for groceries,0.02,0.05,1.1,0,,,,,
,,66c0df311f98d7c9661669d9,6685aa9113c938e83b4f1ea0,67002a0b081d933e26530c4b,2024-10-04_11h47.40.293,WTP_SM_Choice,2022.2.1,MacIntel,62.5,,,,,,,,,,,,,,,,,,98,,,,,,,,,,,,,0,2,2,2,1,Spend time at home with my cats,Spend evenings with friends playing video games,0.03,0.05,1.1,1,,,,,
,,66c0df311f98d7c9661669d9,6685aa9113c938e83b4f1ea0,67002a0b081d933e26530c4b,2024-10-04_11h47.40.293,WTP_SM_Choice,2022.2.1,MacIntel,62.5,,,,,,,,,,,,,,,,,,99,,,,,,,,,,,,,0,3,3,3,1,Work on building miniature houses at my desk,Skype friends weekly for dungeons and dragons,0.04,0.05,3.3,1,,,,,
,,66c0df311f98d7c9661669d9,6685aa9113c938e83b4f1ea0,67002a0b081d933e26530c4b,2024-10-04_11h47.40.293,WTP_SM_Choice,2022.2.1,MacIntel,62.5,,,,,,,,,,,,,,,,,,100,,,,,,,,,,0.05,1,2.205,0,4,4,4,1,In my house decorating for halloween,Spend evenings with friends playing video games,0.05,0.05,4.4,1,,,,,
,,66c0df311f98d7c9661669d9,6685aa9113c938e83b4f1ea0,67002a0b081d933e26530c4b,2024-10-04_11h47.40.293,WTP_SM_Choice,2022.2.1,MacIntel,62.5,,,,,,,4,space,3,2.3,3.7,,0,99,99,99,1,100,Charlie,Acc,Participant_Images/66c0df311f98d7c9661669d9/66c0df311f98d7c9661669d9_Images/66c0df311f98d7c9661669d9_Image_5.jpeg,did not like,1.672012706,,,,,,,,,,,,,,,,,,,space,2.219,4.645,,
,,66c0df311f98d7c9661669d9,6685aa9113c938e83b4f1ea0,67002a0b081d933e26530c4b,2024-10-04_11h47.40.293,WTP_SM_Choice,2022.2.1,MacIntel,62.5,,,,,,,,,,,,,,,,,,,,,,,,,,,,,,,,,,,,,,,,,,,,,space,0.521
