endwelcomescreen_keys.keys,endwelcomescreen_keys.rt,participant,STUDY_ID,SESSION_ID,date,expName,psychopyVersion,OS,frameRate,endinstructionscreen_keys.keys,endinstructionscreen_keys.rt,endpartnermatch_keys.keys,endpartnermatch_keys.rt,sharenextphoto_key.keys,sharenextphoto_key.rt,salience_rating,key_resp.keys,stress_level,subtract_bonus,TOTAL_TASK_BONUS,stresslevel_keypress.keys,entiretaskloop.thisRepN,entiretaskloop.thisTrialN,entiretaskloop.thisN,entiretaskloop.thisIndex,entiretaskloop.ran,TrialNumber,Partner,Condition,Photos,Feedback,FeedbackWait,WTP_ins_keys1.keys,WTP_ins_keys1.rt,WTP_ins_keys2.keys,WTP_ins_keys2.rt,decision_price,responses.keys,responses.rt,WTPTaskLoop.thisRepN,WTPTaskLoop.thisTrialN,WTPTaskLoop.thisN,WTPTaskLoop.thisIndex,WTPTaskLoop.ran,right,left,leftmoney,rightmoney,WTP_ITI,social_left,Resume_keys.keys,Resume_keys.rt,end_screen_keys.keys,end_screen_keys.rt
space,9.9422,66c95504723c57c900715764,6685aa9113c938e83b4f1ea0,67111c134b5a15bf22ed0d38,2024-10-17_10h16.29.908,WTP_SM_Choice,2022.2.1,Win32,144.9275362,,,,,,,,,,,,,,,,,,,,,,,,,,,,,,,,,,,,,,,,,,,,,
,,66c95504723c57c900715764,6685aa9113c938e83b4f1ea0,67111c134b5a15bf22ed0d38,2024-10-17_10h16.29.908,WTP_SM_Choice,2022.2.1,Win32,144.9275362,space,13.0505,,,,,,,,,,,,,,,,,,,,,,,,,,,,,,,,,,,,,,,,,,,
,,66c95504723c57c900715764,6685aa9113c938e83b4f1ea0,67111c134b5a15bf22ed0d38,2024-10-17_10h16.29.908,WTP_SM_Choice,2022.2.1,Win32,144.9275362,,,space,3.1125,space,1.3198,NAN,,NAN,0,6,,0,0,0,0,1,1,Riley,Acc,Participant_Images/66c95504723c57c900715764/66c95504723c57c900715764_Images/66c95504723c57c900715764_Image_13.jpeg,liked,3.613205605,,,,,,,,,,,,,,,,,,,,,,
,,66c95504723c57c900715764,6685aa9113c938e83b4f1ea0,67111c134b5a15bf22ed0d38,2024-10-17_10h16.29.908,WTP_SM_Choice,2022.2.1,Win32,144.9275362,,,,,space,0.7297,NAN,,NAN,0,6,,0,1,1,1,1,2,Riley,Acc,Participant_Images/66c95504723c57c900715764/66c95504723c57c900715764_Images/66c95504723c57c900715764_Image_3.jpeg,liked,4.988446431,,,,,,,,,,,,,,,,,,,,,,
,,66c95504723c57c900715764,6685aa9113c938e83b4f1ea0,67111c134b5a15bf22ed0d38,2024-10-17_10h16.29.908,WTP_SM_Choice,2022.2.1,Win32,144.9275362,,,,,space,0.8877,NAN,,NAN,0,6,,0,2,2,2,1,3,Riley,Acc,Participant_Images/66c95504723c57c900715764/66c95504723c57c900715764_Images/66c95504723c57c900715764_Image_4.jpeg,liked,3.470791822,,,,,,,,,,,,,,,,,,,,,,
,,66c95504723c57c900715764,6685aa9113c938e83b4f1ea0,67111c134b5a15bf22ed0d38,2024-10-17_10h16.29.908,WTP_SM_Choice,2022.2.1,Win32,144.9275362,,,,,space,2.0926,NAN,,NAN,0,6,,0,3,3,3,1,4,Riley,Acc,Participant_Images/66c95504723c57c900715764/66c95504723c57c900715764_Images/66c95504723c57c900715764_Image_23.jpeg,liked,3.820572462,,,,,,,,,,,,,,,,,,,,,,
,,66c95504723c57c900715764,6685aa9113c938e83b4f1ea0,67111c134b5a15bf22ed0d38,2024-10-17_10h16.29.908,WTP_SM_Choice,2022.2.1,Win32,144.9275362,,,,,,,,,,,,,,,,,,1,,,,,,space,17.1916,space,8.5037,0.01,2,3.2357,0,0,0,0,1,Listen to ironmouse songs and covers,Go hiking with family,0.01,0.01,4.4,1,,,,
,,66c95504723c57c900715764,6685aa9113c938e83b4f1ea0,67111c134b5a15bf22ed0d38,2024-10-17_10h16.29.908,WTP_SM_Choice,2022.2.1,Win32,144.9275362,,,,,,,,,,,,,,,,,,2,,,,,,,,,,0.01,2,3.4987,0,1,1,1,1,Watch anime,Go hiking with family,0.02,0.01,8.8,1,,,,
,,66c95504723c57c900715764,6685aa9113c938e83b4f1ea0,67111c134b5a15bf22ed0d38,2024-10-17_10h16.29.908,WTP_SM_Choice,2022.2.1,Win32,144.9275362,,,,,,,,,,,,,,,,,,3,,,,,,,,,,0.03,1,5.6262,0,2,2,2,1,celebrate occasions with family,Make coffee,0.03,0.01,3.3,0,,,,
,,66c95504723c57c900715764,6685aa9113c938e83b4f1ea0,67111c134b5a15bf22ed0d38,2024-10-17_10h16.29.908,WTP_SM_Choice,2022.2.1,Win32,144.9275362,,,,,,,,,,,,,,,,,,4,,,,,,,,,,0.01,2,2.8536,0,3,3,3,1,Watch YouTube videos,Go to the library with my sister,0.04,0.01,1.1,1,,,,
,,66c95504723c57c900715764,6685aa9113c938e83b4f1ea0,67111c134b5a15bf22ed0d38,2024-10-17_10h16.29.908,WTP_SM_Choice,2022.2.1,Win32,144.9275362,,,,,,,,,,,,,,,,,,5,,,,,,,,,,0.01,2,2.3671,0,4,4,4,1,Watch Football with family,Relax in a hammock,0.05,0.01,1.1,0,,,,
,,66c95504723c57c900715764,6685aa9113c938e83b4f1ea0,67111c134b5a15bf22ed0d38,2024-10-17_10h16.29.908,WTP_SM_Choice,2022.2.1,Win32,144.9275362,,,,,,,NAN,,NAN,0.07,5.93,,0,4,4,4,1,5,Riley,Acc,Participant_Images/66c95504723c57c900715764/66c95504723c57c900715764_Images/66c95504723c57c900715764_Image_7.jpeg,liked,2.455989137,,,,,,,,,,,,,,,,,,,,,,
,,66c95504723c57c900715764,6685aa9113c938e83b4f1ea0,67111c134b5a15bf22ed0d38,2024-10-17_10h16.29.908,WTP_SM_Choice,2022.2.1,Win32,144.9275362,,,,,space,1.4686,NAN,,NAN,0.07,5.93,,0,5,5,5,1,6,Riley,Acc,Participant_Images/66c95504723c57c900715764/66c95504723c57c900715764_Images/66c95504723c57c900715764_Image_17.jpeg,did not like,3.79605092,,,,,,,,,,,,,,,,,,,,,,
,,66c95504723c57c900715764,6685aa9113c938e83b4f1ea0,67111c134b5a15bf22ed0d38,2024-10-17_10h16.29.908,WTP_SM_Choice,2022.2.1,Win32,144.9275362,,,,,space,0.8898,NAN,,NAN,0.07,5.93,,0,6,6,6,1,7,Riley,Acc,Participant_Images/66c95504723c57c900715764/66c95504723c57c900715764_Images/66c95504723c57c900715764_Image_19.jpeg,liked,3.562416326,,,,,,,,,,,,,,,,,,,,,,
,,66c95504723c57c900715764,6685aa9113c938e83b4f1ea0,67111c134b5a15bf22ed0d38,2024-10-17_10h16.29.908,WTP_SM_Choice,2022.2.1,Win32,144.9275362,,,,,space,1.2329,NAN,,NAN,0.07,5.93,,0,7,7,7,1,8,Riley,Acc,Participant_Images/66c95504723c57c900715764/66c95504723c57c900715764_Images/66c95504723c57c900715764_Image_16.jpeg,liked,2.843822497,,,,,,,,,,,,,,,,,,,,,,
,,66c95504723c57c900715764,6685aa9113c938e83b4f1ea0,67111c134b5a15bf22ed0d38,2024-10-17_10h16.29.908,WTP_SM_Choice,2022.2.1,Win32,144.9275362,,,,,space,0.8108,NAN,,NAN,0.07,5.93,,0,8,8,8,1,9,Riley,Acc,Participant_Images/66c95504723c57c900715764/66c95504723c57c900715764_Images/66c95504723c57c900715764_Image_6.jpeg,did not like,3.546495948,,,,,,,,,,,,,,,,,,,,,,
,,66c95504723c57c900715764,6685aa9113c938e83b4f1ea0,67111c134b5a15bf22ed0d38,2024-10-17_10h16.29.908,WTP_SM_Choice,2022.2.1,Win32,144.9275362,,,,,,,,,,,,,,,,,,6,,,,,,space,6.5069,space,3.6584,0.01,1,2.2816,0,0,0,0,1,Watch YouTube videos,Play video games with friends and family,0.01,0.02,3.3,1,,,,
,,66c95504723c57c900715764,6685aa9113c938e83b4f1ea0,67111c134b5a15bf22ed0d38,2024-10-17_10h16.29.908,WTP_SM_Choice,2022.2.1,Win32,144.9275362,,,,,,,,,,,,,,,,,,7,,,,,,,,,,0.02,1,2.7178,0,1,1,1,1,Bake something,Go to the library with my sister,0.02,0.02,1.1,1,,,,
,,66c95504723c57c900715764,6685aa9113c938e83b4f1ea0,67111c134b5a15bf22ed0d38,2024-10-17_10h16.29.908,WTP_SM_Choice,2022.2.1,Win32,144.9275362,,,,,,,,,,,,,,,,,,8,,,,,,,,,,0.02,2,4.8252,0,2,2,2,1,Go to the library with my sister,Read a book on the beach,0.03,0.02,1.1,0,,,,
,,66c95504723c57c900715764,6685aa9113c938e83b4f1ea0,67111c134b5a15bf22ed0d38,2024-10-17_10h16.29.908,WTP_SM_Choice,2022.2.1,Win32,144.9275362,,,,,,,,,,,,,,,,,,9,,,,,,,,,,0.02,2,2.3396,0,3,3,3,1,Make coffee,Go on a walk with my family,0.04,0.02,4.4,1,,,,
,,66c95504723c57c900715764,6685aa9113c938e83b4f1ea0,67111c134b5a15bf22ed0d38,2024-10-17_10h16.29.908,WTP_SM_Choice,2022.2.1,Win32,144.9275362,,,,,,,,,,,,,,,,,,10,,,,,,,,,,0.02,2,6.4871,0,4,4,4,1,Relax in a hammock,Play video games with friends and family,0.05,0.02,1.1,1,,,,
,,66c95504723c57c900715764,6685aa9113c938e83b4f1ea0,67111c134b5a15bf22ed0d38,2024-10-17_10h16.29.908,WTP_SM_Choice,2022.2.1,Win32,144.9275362,,,,,,,NAN,,NAN,0.16,5.84,,0,9,9,9,1,10,Riley,Acc,Participant_Images/66c95504723c57c900715764/66c95504723c57c900715764_Images/66c95504723c57c900715764_Image_20.jpeg,liked,1.672012706,,,,,,,,,,,,,,,,,,,,,,
,,66c95504723c57c900715764,6685aa9113c938e83b4f1ea0,67111c134b5a15bf22ed0d38,2024-10-17_10h16.29.908,WTP_SM_Choice,2022.2.1,Win32,144.9275362,,,,,space,1.4868,NAN,,NAN,0.16,5.84,,0,10,10,10,1,11,Riley,Acc,Participant_Images/66c95504723c57c900715764/66c95504723c57c900715764_Images/66c95504723c57c900715764_Image_1.jpeg,liked,4.942172136,,,,,,,,,,,,,,,,,,,,,,
,,66c95504723c57c900715764,6685aa9113c938e83b4f1ea0,67111c134b5a15bf22ed0d38,2024-10-17_10h16.29.908,WTP_SM_Choice,2022.2.1,Win32,144.9275362,,,,,space,1.3899,NAN,,NAN,0.16,5.84,,0,11,11,11,1,12,Riley,Acc,Participant_Images/66c95504723c57c900715764/66c95504723c57c900715764_Images/66c95504723c57c900715764_Image_21.jpeg,did not like,2.50187214,,,,,,,,,,,,,,,,,,,,,,
,,66c95504723c57c900715764,6685aa9113c938e83b4f1ea0,67111c134b5a15bf22ed0d38,2024-10-17_10h16.29.908,WTP_SM_Choice,2022.2.1,Win32,144.9275362,,,,,space,0.5662,NAN,,NAN,0.16,5.84,,0,12,12,12,1,13,Riley,Acc,Participant_Images/66c95504723c57c900715764/66c95504723c57c900715764_Images/66c95504723c57c900715764_Image_14.jpeg,liked,2.071164779,,,,,,,,,,,,,,,,,,,,,,
,,66c95504723c57c900715764,6685aa9113c938e83b4f1ea0,67111c134b5a15bf22ed0d38,2024-10-17_10h16.29.908,WTP_SM_Choice,2022.2.1,Win32,144.9275362,,,,,space,2.1456,NAN,,NAN,0.16,5.84,,0,13,13,13,1,14,Riley,Acc,Participant_Images/66c95504723c57c900715764/66c95504723c57c900715764_Images/66c95504723c57c900715764_Image_10.jpeg,liked,5.336503566,,,,,,,,,,,,,,,,,,,,,,
,,66c95504723c57c900715764,6685aa9113c938e83b4f1ea0,67111c134b5a15bf22ed0d38,2024-10-17_10h16.29.908,WTP_SM_Choice,2022.2.1,Win32,144.9275362,,,,,,,,,,,,,,,,,,11,,,,,,space,1.6109,space,0.682,0.03,2,3.5853,0,0,0,0,1,Watch league of legends esports,See a movie with friends,0.01,0.03,3.3,1,,,,
,,66c95504723c57c900715764,6685aa9113c938e83b4f1ea0,67111c134b5a15bf22ed0d38,2024-10-17_10h16.29.908,WTP_SM_Choice,2022.2.1,Win32,144.9275362,,,,,,,,,,,,,,,,,,12,,,,,,,,,,0.02,1,2.0525,0,1,1,1,1,Watch YouTube videos,Try a new restaurant with family,0.02,0.03,4.4,1,,,,
,,66c95504723c57c900715764,6685aa9113c938e83b4f1ea0,67111c134b5a15bf22ed0d38,2024-10-17_10h16.29.908,WTP_SM_Choice,2022.2.1,Win32,144.9275362,,,,,,,,,,,,,,,,,,13,,,,,,,,,,0.03,2,2.7615,0,2,2,2,1,Go on a walk with my family,Bake something,0.03,0.03,1.1,0,,,,
,,66c95504723c57c900715764,6685aa9113c938e83b4f1ea0,67111c134b5a15bf22ed0d38,2024-10-17_10h16.29.908,WTP_SM_Choice,2022.2.1,Win32,144.9275362,,,,,,,,,,,,,,,,,,14,,,,,,,,,,0.03,2,3.6944,0,3,3,3,1,See a movie with friends,Watch YouTube videos,0.04,0.03,3.3,0,,,,
,,66c95504723c57c900715764,6685aa9113c938e83b4f1ea0,67111c134b5a15bf22ed0d38,2024-10-17_10h16.29.908,WTP_SM_Choice,2022.2.1,Win32,144.9275362,,,,,,,,,,,,,,,,,,15,,,,,,,,,,0.03,2,1.5194,0,4,4,4,1,Watch league of legends esports,Watch awards shows with family,0.05,0.03,4.4,1,,,,
,,66c95504723c57c900715764,6685aa9113c938e83b4f1ea0,67111c134b5a15bf22ed0d38,2024-10-17_10h16.29.908,WTP_SM_Choice,2022.2.1,Win32,144.9275362,,,,,,,NAN,,NAN,0.3,5.7,,0,14,14,14,1,15,Riley,Acc,Participant_Images/66c95504723c57c900715764/66c95504723c57c900715764_Images/66c95504723c57c900715764_Image_9.jpeg,did not like,2.642157193,,,,,,,,,,,,,,,,,,,,,,
,,66c95504723c57c900715764,6685aa9113c938e83b4f1ea0,67111c134b5a15bf22ed0d38,2024-10-17_10h16.29.908,WTP_SM_Choice,2022.2.1,Win32,144.9275362,,,,,space,0.8403,NAN,,NAN,0.3,5.7,,0,15,15,15,1,16,Riley,Acc,Participant_Images/66c95504723c57c900715764/66c95504723c57c900715764_Images/66c95504723c57c900715764_Image_24.jpeg,liked,4.456234322,,,,,,,,,,,,,,,,,,,,,,
,,66c95504723c57c900715764,6685aa9113c938e83b4f1ea0,67111c134b5a15bf22ed0d38,2024-10-17_10h16.29.908,WTP_SM_Choice,2022.2.1,Win32,144.9275362,,,,,space,0.7364,NAN,,NAN,0.3,5.7,,0,16,16,16,1,17,Riley,Acc,Participant_Images/66c95504723c57c900715764/66c95504723c57c900715764_Images/66c95504723c57c900715764_Image_25.jpeg,liked,4.438512181,,,,,,,,,,,,,,,,,,,,,,
,,66c95504723c57c900715764,6685aa9113c938e83b4f1ea0,67111c134b5a15bf22ed0d38,2024-10-17_10h16.29.908,WTP_SM_Choice,2022.2.1,Win32,144.9275362,,,,,space,1.0563,NAN,,NAN,0.3,5.7,,0,17,17,17,1,18,Riley,Acc,Participant_Images/66c95504723c57c900715764/66c95504723c57c900715764_Images/66c95504723c57c900715764_Image_5.jpeg,liked,2.682944783,,,,,,,,,,,,,,,,,,,,,,
,,66c95504723c57c900715764,6685aa9113c938e83b4f1ea0,67111c134b5a15bf22ed0d38,2024-10-17_10h16.29.908,WTP_SM_Choice,2022.2.1,Win32,144.9275362,,,,,space,0.5796,NAN,,NAN,0.3,5.7,,0,18,18,18,1,19,Riley,Acc,Participant_Images/66c95504723c57c900715764/66c95504723c57c900715764_Images/66c95504723c57c900715764_Image_8.jpeg,liked,4.51984296,,,,,,,,,,,,,,,,,,,,,,
,,66c95504723c57c900715764,6685aa9113c938e83b4f1ea0,67111c134b5a15bf22ed0d38,2024-10-17_10h16.29.908,WTP_SM_Choice,2022.2.1,Win32,144.9275362,,,,,,,,,,,,,,,,,,16,,,,,,space,0.833,space,0.8163,0.01,1,1.3684,0,0,0,0,1,Watch anime,See a movie with friends,0.01,0.04,1.1,1,,,,
,,66c95504723c57c900715764,6685aa9113c938e83b4f1ea0,67111c134b5a15bf22ed0d38,2024-10-17_10h16.29.908,WTP_SM_Choice,2022.2.1,Win32,144.9275362,,,,,,,,,,,,,,,,,,17,,,,,,,,,,0.02,1,1.194,0,1,1,1,1,Watch awards shows with family,Watch YouTube videos,0.02,0.04,8.8,0,,,,
,,66c95504723c57c900715764,6685aa9113c938e83b4f1ea0,67111c134b5a15bf22ed0d38,2024-10-17_10h16.29.908,WTP_SM_Choice,2022.2.1,Win32,144.9275362,,,,,,,,,,,,,,,,,,18,,,,,,,,,,0.03,1,2.3631,0,2,2,2,1,Take a bubble bath,See a movie with friends,0.03,0.04,3.3,1,,,,
,,66c95504723c57c900715764,6685aa9113c938e83b4f1ea0,67111c134b5a15bf22ed0d38,2024-10-17_10h16.29.908,WTP_SM_Choice,2022.2.1,Win32,144.9275362,,,,,,,,,,,,,,,,,,19,,,,,,,,,,0.04,1,2.9711,0,3,3,3,1,Relax in a hammock,Go hiking with family,0.04,0.04,3.3,1,,,,
,,66c95504723c57c900715764,6685aa9113c938e83b4f1ea0,67111c134b5a15bf22ed0d38,2024-10-17_10h16.29.908,WTP_SM_Choice,2022.2.1,Win32,144.9275362,,,,,,,,,,,,,,,,,,20,,,,,,,,,,0.05,1,3.7372,0,4,4,4,1,celebrate occasions with family,Play video games,0.05,0.04,1.1,0,,,,
,,66c95504723c57c900715764,6685aa9113c938e83b4f1ea0,67111c134b5a15bf22ed0d38,2024-10-17_10h16.29.908,WTP_SM_Choice,2022.2.1,Win32,144.9275362,,,,,,,NAN,,NAN,0.45,5.55,,0,19,19,19,1,20,Riley,Acc,Participant_Images/66c95504723c57c900715764/66c95504723c57c900715764_Images/66c95504723c57c900715764_Image_18.jpeg,liked,3.195382774,,,,,,,,,,,,,,,,,,,,,,
,,66c95504723c57c900715764,6685aa9113c938e83b4f1ea0,67111c134b5a15bf22ed0d38,2024-10-17_10h16.29.908,WTP_SM_Choice,2022.2.1,Win32,144.9275362,,,,,space,0.7712,NAN,,NAN,0.45,5.55,,0,20,20,20,1,21,Riley,Acc,Participant_Images/66c95504723c57c900715764/66c95504723c57c900715764_Images/66c95504723c57c900715764_Image_22.jpeg,did not like,1.779333479,,,,,,,,,,,,,,,,,,,,,,
,,66c95504723c57c900715764,6685aa9113c938e83b4f1ea0,67111c134b5a15bf22ed0d38,2024-10-17_10h16.29.908,WTP_SM_Choice,2022.2.1,Win32,144.9275362,,,,,space,1.1407,NAN,,NAN,0.45,5.55,,0,21,21,21,1,22,Riley,Acc,Participant_Images/66c95504723c57c900715764/66c95504723c57c900715764_Images/66c95504723c57c900715764_Image_2.jpeg,did not like,4.312468682,,,,,,,,,,,,,,,,,,,,,,
,,66c95504723c57c900715764,6685aa9113c938e83b4f1ea0,67111c134b5a15bf22ed0d38,2024-10-17_10h16.29.908,WTP_SM_Choice,2022.2.1,Win32,144.9275362,,,,,space,0.729,NAN,,NAN,0.45,5.55,,0,22,22,22,1,23,Riley,Acc,Participant_Images/66c95504723c57c900715764/66c95504723c57c900715764_Images/66c95504723c57c900715764_Image_11.jpeg,liked,4.940433059,,,,,,,,,,,,,,,,,,,,,,
,,66c95504723c57c900715764,6685aa9113c938e83b4f1ea0,67111c134b5a15bf22ed0d38,2024-10-17_10h16.29.908,WTP_SM_Choice,2022.2.1,Win32,144.9275362,,,,,space,0.9736,NAN,,NAN,0.45,5.55,,0,23,23,23,1,24,Riley,Acc,Participant_Images/66c95504723c57c900715764/66c95504723c57c900715764_Images/66c95504723c57c900715764_Image_12.jpeg,did not like,2.7105123,,,,,,,,,,,,,,,,,,,,,,
,,66c95504723c57c900715764,6685aa9113c938e83b4f1ea0,67111c134b5a15bf22ed0d38,2024-10-17_10h16.29.908,WTP_SM_Choice,2022.2.1,Win32,144.9275362,,,,,,,,,,,,,,,,,,21,,,,,,space,0.6665,space,0.8307,0.01,1,1.4372,0,0,0,0,1,Make coffee,Play video games with friends and family,0.01,0.05,8.8,1,,,,
,,66c95504723c57c900715764,6685aa9113c938e83b4f1ea0,67111c134b5a15bf22ed0d38,2024-10-17_10h16.29.908,WTP_SM_Choice,2022.2.1,Win32,144.9275362,,,,,,,,,,,,,,,,,,22,,,,,,,,,,0.02,1,2.225,0,1,1,1,1,Bake something,celebrate occasions with family,0.02,0.05,4.4,1,,,,
,,66c95504723c57c900715764,6685aa9113c938e83b4f1ea0,67111c134b5a15bf22ed0d38,2024-10-17_10h16.29.908,WTP_SM_Choice,2022.2.1,Win32,144.9275362,,,,,,,,,,,,,,,,,,23,,,,,,,,,,0.03,1,1.9536,0,2,2,2,1,Watch anime,Try a new restaurant with family,0.03,0.05,1.1,1,,,,
,,66c95504723c57c900715764,6685aa9113c938e83b4f1ea0,67111c134b5a15bf22ed0d38,2024-10-17_10h16.29.908,WTP_SM_Choice,2022.2.1,Win32,144.9275362,,,,,,,,,,,,,,,,,,24,,,,,,,,,,0.04,1,6.2099,0,3,3,3,1,Watch anime,Play video games with friends and family,0.04,0.05,4.4,1,,,,
,,66c95504723c57c900715764,6685aa9113c938e83b4f1ea0,67111c134b5a15bf22ed0d38,2024-10-17_10h16.29.908,WTP_SM_Choice,2022.2.1,Win32,144.9275362,,,,,,,,,,,,,,,,,,25,,,,,,,,,,0.05,2,4.1634,0,4,4,4,1,Go hiking with family,Watch YouTube videos,0.05,0.05,3.3,0,,,,
,,66c95504723c57c900715764,6685aa9113c938e83b4f1ea0,67111c134b5a15bf22ed0d38,2024-10-17_10h16.29.908,WTP_SM_Choice,2022.2.1,Win32,144.9275362,,,,,,,3,,3,0.6,5.4,,0,24,24,24,1,25,Riley,Acc,Participant_Images/66c95504723c57c900715764/66c95504723c57c900715764_Images/66c95504723c57c900715764_Image_15.jpeg,liked,3.602308302,,,,,,,,,,,,,,,,,,,space,1.3053,,
,,66c95504723c57c900715764,6685aa9113c938e83b4f1ea0,67111c134b5a15bf22ed0d38,2024-10-17_10h16.29.908,WTP_SM_Choice,2022.2.1,Win32,144.9275362,,,space,2.6745,space,1.0915,NAN,,NAN,0.6,5.4,,0,25,25,25,1,26,Sam,Rej,Participant_Images/66c95504723c57c900715764/66c95504723c57c900715764_Images/66c95504723c57c900715764_Image_2.jpeg,liked,4.106391878,,,,,,,,,,,,,,,,,,,,,,
,,66c95504723c57c900715764,6685aa9113c938e83b4f1ea0,67111c134b5a15bf22ed0d38,2024-10-17_10h16.29.908,WTP_SM_Choice,2022.2.1,Win32,144.9275362,,,,,space,7.1688,NAN,,NAN,0.6,5.4,,0,26,26,26,1,27,Sam,Rej,Participant_Images/66c95504723c57c900715764/66c95504723c57c900715764_Images/66c95504723c57c900715764_Image_1.jpeg,did not like,3.799433026,,,,,,,,,,,,,,,,,,,,,,
,,66c95504723c57c900715764,6685aa9113c938e83b4f1ea0,67111c134b5a15bf22ed0d38,2024-10-17_10h16.29.908,WTP_SM_Choice,2022.2.1,Win32,144.9275362,,,,,space,3.3863,NAN,,NAN,0.6,5.4,,0,27,27,27,1,28,Sam,Rej,Participant_Images/66c95504723c57c900715764/66c95504723c57c900715764_Images/66c95504723c57c900715764_Image_16.jpeg,did not like,5.246980764,,,,,,,,,,,,,,,,,,,,,,
,,66c95504723c57c900715764,6685aa9113c938e83b4f1ea0,67111c134b5a15bf22ed0d38,2024-10-17_10h16.29.908,WTP_SM_Choice,2022.2.1,Win32,144.9275362,,,,,space,4.0838,NAN,,NAN,0.6,5.4,,0,28,28,28,1,29,Sam,Rej,Participant_Images/66c95504723c57c900715764/66c95504723c57c900715764_Images/66c95504723c57c900715764_Image_17.jpeg,did not like,3.30081769,,,,,,,,,,,,,,,,,,,,,,
,,66c95504723c57c900715764,6685aa9113c938e83b4f1ea0,67111c134b5a15bf22ed0d38,2024-10-17_10h16.29.908,WTP_SM_Choice,2022.2.1,Win32,144.9275362,,,,,,,,,,,,,,,,,,26,,,,,,space,2.0852,space,0.8749,0.01,2,2.1511,0,0,0,0,1,Go to afternoon tea with family,Watch anime,0.01,0.01,4.4,0,,,,
,,66c95504723c57c900715764,6685aa9113c938e83b4f1ea0,67111c134b5a15bf22ed0d38,2024-10-17_10h16.29.908,WTP_SM_Choice,2022.2.1,Win32,144.9275362,,,,,,,,,,,,,,,,,,27,,,,,,,,,,0.01,2,1.7673,0,1,1,1,1,Take a bubble bath,Go to the library with my sister,0.02,0.01,3.3,1,,,,
,,66c95504723c57c900715764,6685aa9113c938e83b4f1ea0,67111c134b5a15bf22ed0d38,2024-10-17_10h16.29.908,WTP_SM_Choice,2022.2.1,Win32,144.9275362,,,,,,,,,,,,,,,,,,28,,,,,,,,,,0.01,2,1.8129,0,2,2,2,1,See a movie with friends,Relax in a hammock,0.03,0.01,3.3,0,,,,
,,66c95504723c57c900715764,6685aa9113c938e83b4f1ea0,67111c134b5a15bf22ed0d38,2024-10-17_10h16.29.908,WTP_SM_Choice,2022.2.1,Win32,144.9275362,,,,,,,,,,,,,,,,,,29,,,,,,,,,,0.01,2,1.2498,0,3,3,3,1,Read a book on the beach,Go to afternoon tea with family,0.04,0.01,4.4,1,,,,
,,66c95504723c57c900715764,6685aa9113c938e83b4f1ea0,67111c134b5a15bf22ed0d38,2024-10-17_10h16.29.908,WTP_SM_Choice,2022.2.1,Win32,144.9275362,,,,,,,,,,,,,,,,,,30,,,,,,,,,,0.01,2,1.7748,0,4,4,4,1,Watch awards shows with family,Play video games,0.05,0.01,8.8,0,,,,
,,66c95504723c57c900715764,6685aa9113c938e83b4f1ea0,67111c134b5a15bf22ed0d38,2024-10-17_10h16.29.908,WTP_SM_Choice,2022.2.1,Win32,144.9275362,,,,,,,NAN,,NAN,0.65,5.35,,0,29,29,29,1,30,Sam,Rej,Participant_Images/66c95504723c57c900715764/66c95504723c57c900715764_Images/66c95504723c57c900715764_Image_24.jpeg,did not like,1.661473164,,,,,,,,,,,,,,,,,,,,,,
,,66c95504723c57c900715764,6685aa9113c938e83b4f1ea0,67111c134b5a15bf22ed0d38,2024-10-17_10h16.29.908,WTP_SM_Choice,2022.2.1,Win32,144.9275362,,,,,space,0.8082,NAN,,NAN,0.65,5.35,,0,30,30,30,1,31,Sam,Rej,Participant_Images/66c95504723c57c900715764/66c95504723c57c900715764_Images/66c95504723c57c900715764_Image_25.jpeg,liked,3.613205605,,,,,,,,,,,,,,,,,,,,,,
,,66c95504723c57c900715764,6685aa9113c938e83b4f1ea0,67111c134b5a15bf22ed0d38,2024-10-17_10h16.29.908,WTP_SM_Choice,2022.2.1,Win32,144.9275362,,,,,space,4.6376,NAN,,NAN,0.65,5.35,,0,31,31,31,1,32,Sam,Rej,Participant_Images/66c95504723c57c900715764/66c95504723c57c900715764_Images/66c95504723c57c900715764_Image_5.jpeg,did not like,4.988446431,,,,,,,,,,,,,,,,,,,,,,
,,66c95504723c57c900715764,6685aa9113c938e83b4f1ea0,67111c134b5a15bf22ed0d38,2024-10-17_10h16.29.908,WTP_SM_Choice,2022.2.1,Win32,144.9275362,,,,,space,0.4934,NAN,,NAN,0.65,5.35,,0,32,32,32,1,33,Sam,Rej,Participant_Images/66c95504723c57c900715764/66c95504723c57c900715764_Images/66c95504723c57c900715764_Image_11.jpeg,did not like,3.470791822,,,,,,,,,,,,,,,,,,,,,,
,,66c95504723c57c900715764,6685aa9113c938e83b4f1ea0,67111c134b5a15bf22ed0d38,2024-10-17_10h16.29.908,WTP_SM_Choice,2022.2.1,Win32,144.9275362,,,,,space,0.6601,NAN,,NAN,0.65,5.35,,0,33,33,33,1,34,Sam,Rej,Participant_Images/66c95504723c57c900715764/66c95504723c57c900715764_Images/66c95504723c57c900715764_Image_13.jpeg,did not like,3.820572462,,,,,,,,,,,,,,,,,,,,,,
,,66c95504723c57c900715764,6685aa9113c938e83b4f1ea0,67111c134b5a15bf22ed0d38,2024-10-17_10h16.29.908,WTP_SM_Choice,2022.2.1,Win32,144.9275362,,,,,,,,,,,,,,,,,,31,,,,,,space,1.1109,space,2.6387,0.01,1,1.5033,0,0,0,0,1,Take a bubble bath,Go hiking with family,0.01,0.02,8.8,1,,,,
,,66c95504723c57c900715764,6685aa9113c938e83b4f1ea0,67111c134b5a15bf22ed0d38,2024-10-17_10h16.29.908,WTP_SM_Choice,2022.2.1,Win32,144.9275362,,,,,,,,,,,,,,,,,,32,,,,,,,,,,0.02,2,1.9946,0,1,1,1,1,Watch league of legends esports,Go hiking with family,0.02,0.02,1.1,1,,,,
,,66c95504723c57c900715764,6685aa9113c938e83b4f1ea0,67111c134b5a15bf22ed0d38,2024-10-17_10h16.29.908,WTP_SM_Choice,2022.2.1,Win32,144.9275362,,,,,,,,,,,,,,,,,,33,,,,,,,,,,0.02,2,1.3283,0,2,2,2,1,Bake something,Go hiking with family,0.03,0.02,4.4,1,,,,
,,66c95504723c57c900715764,6685aa9113c938e83b4f1ea0,67111c134b5a15bf22ed0d38,2024-10-17_10h16.29.908,WTP_SM_Choice,2022.2.1,Win32,144.9275362,,,,,,,,,,,,,,,,,,34,,,,,,,,,,0.02,2,1.6669,0,3,3,3,1,Relax in a hammock,celebrate occasions with family,0.04,0.02,3.3,1,,,,
,,66c95504723c57c900715764,6685aa9113c938e83b4f1ea0,67111c134b5a15bf22ed0d38,2024-10-17_10h16.29.908,WTP_SM_Choice,2022.2.1,Win32,144.9275362,,,,,,,,,,,,,,,,,,35,,,,,,,,,,0.02,2,1.6662,0,4,4,4,1,Listen to ironmouse songs and covers,Go to afternoon tea with family,0.05,0.02,1.1,1,,,,
,,66c95504723c57c900715764,6685aa9113c938e83b4f1ea0,67111c134b5a15bf22ed0d38,2024-10-17_10h16.29.908,WTP_SM_Choice,2022.2.1,Win32,144.9275362,,,,,,,NAN,,NAN,0.74,5.26,,0,34,34,34,1,35,Sam,Rej,Participant_Images/66c95504723c57c900715764/66c95504723c57c900715764_Images/66c95504723c57c900715764_Image_12.jpeg,did not like,2.455989137,,,,,,,,,,,,,,,,,,,,,,
,,66c95504723c57c900715764,6685aa9113c938e83b4f1ea0,67111c134b5a15bf22ed0d38,2024-10-17_10h16.29.908,WTP_SM_Choice,2022.2.1,Win32,144.9275362,,,,,space,1.9847,NAN,,NAN,0.74,5.26,,0,35,35,35,1,36,Sam,Rej,Participant_Images/66c95504723c57c900715764/66c95504723c57c900715764_Images/66c95504723c57c900715764_Image_22.jpeg,liked,3.79605092,,,,,,,,,,,,,,,,,,,,,,
,,66c95504723c57c900715764,6685aa9113c938e83b4f1ea0,67111c134b5a15bf22ed0d38,2024-10-17_10h16.29.908,WTP_SM_Choice,2022.2.1,Win32,144.9275362,,,,,space,0.9566,NAN,,NAN,0.74,5.26,,0,36,36,36,1,37,Sam,Rej,Participant_Images/66c95504723c57c900715764/66c95504723c57c900715764_Images/66c95504723c57c900715764_Image_18.jpeg,did not like,3.562416326,,,,,,,,,,,,,,,,,,,,,,
,,66c95504723c57c900715764,6685aa9113c938e83b4f1ea0,67111c134b5a15bf22ed0d38,2024-10-17_10h16.29.908,WTP_SM_Choice,2022.2.1,Win32,144.9275362,,,,,space,8.7095,NAN,,NAN,0.74,5.26,,0,37,37,37,1,38,Sam,Rej,Participant_Images/66c95504723c57c900715764/66c95504723c57c900715764_Images/66c95504723c57c900715764_Image_6.jpeg,liked,2.843822497,,,,,,,,,,,,,,,,,,,,,,
,,66c95504723c57c900715764,6685aa9113c938e83b4f1ea0,67111c134b5a15bf22ed0d38,2024-10-17_10h16.29.908,WTP_SM_Choice,2022.2.1,Win32,144.9275362,,,,,space,1.0638,NAN,,NAN,0.74,5.26,,0,38,38,38,1,39,Sam,Rej,Participant_Images/66c95504723c57c900715764/66c95504723c57c900715764_Images/66c95504723c57c900715764_Image_21.jpeg,liked,3.546495948,,,,,,,,,,,,,,,,,,,,,,
,,66c95504723c57c900715764,6685aa9113c938e83b4f1ea0,67111c134b5a15bf22ed0d38,2024-10-17_10h16.29.908,WTP_SM_Choice,2022.2.1,Win32,144.9275362,,,,,,,,,,,,,,,,,,36,,,,,,space,1.1116,space,0.7292,0.01,1,1.2821,0,0,0,0,1,celebrate occasions with family,Watch anime,0.01,0.03,3.3,0,,,,
,,66c95504723c57c900715764,6685aa9113c938e83b4f1ea0,67111c134b5a15bf22ed0d38,2024-10-17_10h16.29.908,WTP_SM_Choice,2022.2.1,Win32,144.9275362,,,,,,,,,,,,,,,,,,37,,,,,,,,,,0.02,1,1.2433,0,1,1,1,1,Try a new restaurant with family,Read a book on the beach,0.02,0.03,1.1,0,,,,
,,66c95504723c57c900715764,6685aa9113c938e83b4f1ea0,67111c134b5a15bf22ed0d38,2024-10-17_10h16.29.908,WTP_SM_Choice,2022.2.1,Win32,144.9275362,,,,,,,,,,,,,,,,,,38,,,,,,,,,,0.03,1,1.8823,0,2,2,2,1,Watch Football with family,Listen to ironmouse songs and covers,0.03,0.03,1.1,0,,,,
,,66c95504723c57c900715764,6685aa9113c938e83b4f1ea0,67111c134b5a15bf22ed0d38,2024-10-17_10h16.29.908,WTP_SM_Choice,2022.2.1,Win32,144.9275362,,,,,,,,,,,,,,,,,,39,,,,,,,,,,0.03,2,1.6126,0,3,3,3,1,See a movie with friends,Make coffee,0.04,0.03,3.3,0,,,,
,,66c95504723c57c900715764,6685aa9113c938e83b4f1ea0,67111c134b5a15bf22ed0d38,2024-10-17_10h16.29.908,WTP_SM_Choice,2022.2.1,Win32,144.9275362,,,,,,,,,,,,,,,,,,40,,,,,,,,,,0.03,2,6.0641,0,4,4,4,1,Go hiking with family,Make coffee,0.05,0.03,4.4,0,,,,
,,66c95504723c57c900715764,6685aa9113c938e83b4f1ea0,67111c134b5a15bf22ed0d38,2024-10-17_10h16.29.908,WTP_SM_Choice,2022.2.1,Win32,144.9275362,,,,,,,NAN,,NAN,0.86,5.14,,0,39,39,39,1,40,Sam,Rej,Participant_Images/66c95504723c57c900715764/66c95504723c57c900715764_Images/66c95504723c57c900715764_Image_9.jpeg,did not like,1.672012706,,,,,,,,,,,,,,,,,,,,,,
,,66c95504723c57c900715764,6685aa9113c938e83b4f1ea0,67111c134b5a15bf22ed0d38,2024-10-17_10h16.29.908,WTP_SM_Choice,2022.2.1,Win32,144.9275362,,,,,space,1.1875,NAN,,NAN,0.86,5.14,,0,40,40,40,1,41,Sam,Rej,Participant_Images/66c95504723c57c900715764/66c95504723c57c900715764_Images/66c95504723c57c900715764_Image_23.jpeg,liked,4.942172136,,,,,,,,,,,,,,,,,,,,,,
,,66c95504723c57c900715764,6685aa9113c938e83b4f1ea0,67111c134b5a15bf22ed0d38,2024-10-17_10h16.29.908,WTP_SM_Choice,2022.2.1,Win32,144.9275362,,,,,space,0.5986,NAN,,NAN,0.86,5.14,,0,41,41,41,1,42,Sam,Rej,Participant_Images/66c95504723c57c900715764/66c95504723c57c900715764_Images/66c95504723c57c900715764_Image_8.jpeg,did not like,2.50187214,,,,,,,,,,,,,,,,,,,,,,
,,66c95504723c57c900715764,6685aa9113c938e83b4f1ea0,67111c134b5a15bf22ed0d38,2024-10-17_10h16.29.908,WTP_SM_Choice,2022.2.1,Win32,144.9275362,,,,,space,1.4422,NAN,,NAN,0.86,5.14,,0,42,42,42,1,43,Sam,Rej,Participant_Images/66c95504723c57c900715764/66c95504723c57c900715764_Images/66c95504723c57c900715764_Image_3.jpeg,did not like,2.071164779,,,,,,,,,,,,,,,,,,,,,,
,,66c95504723c57c900715764,6685aa9113c938e83b4f1ea0,67111c134b5a15bf22ed0d38,2024-10-17_10h16.29.908,WTP_SM_Choice,2022.2.1,Win32,144.9275362,,,,,space,2.1651,NAN,,NAN,0.86,5.14,,0,43,43,43,1,44,Sam,Rej,Participant_Images/66c95504723c57c900715764/66c95504723c57c900715764_Images/66c95504723c57c900715764_Image_7.jpeg,did not like,5.336503566,,,,,,,,,,,,,,,,,,,,,,
,,66c95504723c57c900715764,6685aa9113c938e83b4f1ea0,67111c134b5a15bf22ed0d38,2024-10-17_10h16.29.908,WTP_SM_Choice,2022.2.1,Win32,144.9275362,,,,,,,,,,,,,,,,,,41,,,,,,space,1.2496,space,0.424,0.01,1,1.0595,0,0,0,0,1,Play video games with friends and family,Listen to ironmouse songs and covers,0.01,0.04,1.1,0,,,,
,,66c95504723c57c900715764,6685aa9113c938e83b4f1ea0,67111c134b5a15bf22ed0d38,2024-10-17_10h16.29.908,WTP_SM_Choice,2022.2.1,Win32,144.9275362,,,,,,,,,,,,,,,,,,42,,,,,,,,,,0.02,1,1.1081,0,1,1,1,1,celebrate occasions with family,Listen to ironmouse songs and covers,0.02,0.04,3.3,0,,,,
,,66c95504723c57c900715764,6685aa9113c938e83b4f1ea0,67111c134b5a15bf22ed0d38,2024-10-17_10h16.29.908,WTP_SM_Choice,2022.2.1,Win32,144.9275362,,,,,,,,,,,,,,,,,,43,,,,,,,,,,0.03,1,1.2336,0,2,2,2,1,Read a book on the beach,Watch Football with family,0.03,0.04,1.1,1,,,,
,,66c95504723c57c900715764,6685aa9113c938e83b4f1ea0,67111c134b5a15bf22ed0d38,2024-10-17_10h16.29.908,WTP_SM_Choice,2022.2.1,Win32,144.9275362,,,,,,,,,,,,,,,,,,44,,,,,,,,,,0.04,1,2.3243,0,3,3,3,1,Bake something,Go to afternoon tea with family,0.04,0.04,1.1,1,,,,
,,66c95504723c57c900715764,6685aa9113c938e83b4f1ea0,67111c134b5a15bf22ed0d38,2024-10-17_10h16.29.908,WTP_SM_Choice,2022.2.1,Win32,144.9275362,,,,,,,,,,,,,,,,,,45,,,,,,,,,,0.04,2,1.6424,0,4,4,4,1,Play video games with friends and family,Watch league of legends esports,0.05,0.04,4.4,0,,,,
,,66c95504723c57c900715764,6685aa9113c938e83b4f1ea0,67111c134b5a15bf22ed0d38,2024-10-17_10h16.29.908,WTP_SM_Choice,2022.2.1,Win32,144.9275362,,,,,,,NAN,,NAN,1,5,,0,44,44,44,1,45,Sam,Rej,Participant_Images/66c95504723c57c900715764/66c95504723c57c900715764_Images/66c95504723c57c900715764_Image_14.jpeg,did not like,2.642157193,,,,,,,,,,,,,,,,,,,,,,
,,66c95504723c57c900715764,6685aa9113c938e83b4f1ea0,67111c134b5a15bf22ed0d38,2024-10-17_10h16.29.908,WTP_SM_Choice,2022.2.1,Win32,144.9275362,,,,,space,1.0321,NAN,,NAN,1,5,,0,45,45,45,1,46,Sam,Rej,Participant_Images/66c95504723c57c900715764/66c95504723c57c900715764_Images/66c95504723c57c900715764_Image_15.jpeg,did not like,4.456234322,,,,,,,,,,,,,,,,,,,,,,
,,66c95504723c57c900715764,6685aa9113c938e83b4f1ea0,67111c134b5a15bf22ed0d38,2024-10-17_10h16.29.908,WTP_SM_Choice,2022.2.1,Win32,144.9275362,,,,,space,0.8485,NAN,,NAN,1,5,,0,46,46,46,1,47,Sam,Rej,Participant_Images/66c95504723c57c900715764/66c95504723c57c900715764_Images/66c95504723c57c900715764_Image_20.jpeg,liked,4.438512181,,,,,,,,,,,,,,,,,,,,,,
,,66c95504723c57c900715764,6685aa9113c938e83b4f1ea0,67111c134b5a15bf22ed0d38,2024-10-17_10h16.29.908,WTP_SM_Choice,2022.2.1,Win32,144.9275362,,,,,space,2.679,NAN,,NAN,1,5,,0,47,47,47,1,48,Sam,Rej,Participant_Images/66c95504723c57c900715764/66c95504723c57c900715764_Images/66c95504723c57c900715764_Image_19.jpeg,did not like,2.682944783,,,,,,,,,,,,,,,,,,,,,,
,,66c95504723c57c900715764,6685aa9113c938e83b4f1ea0,67111c134b5a15bf22ed0d38,2024-10-17_10h16.29.908,WTP_SM_Choice,2022.2.1,Win32,144.9275362,,,,,space,1.0789,NAN,,NAN,1,5,,0,48,48,48,1,49,Sam,Rej,Participant_Images/66c95504723c57c900715764/66c95504723c57c900715764_Images/66c95504723c57c900715764_Image_10.jpeg,did not like,4.51984296,,,,,,,,,,,,,,,,,,,,,,
,,66c95504723c57c900715764,6685aa9113c938e83b4f1ea0,67111c134b5a15bf22ed0d38,2024-10-17_10h16.29.908,WTP_SM_Choice,2022.2.1,Win32,144.9275362,,,,,,,,,,,,,,,,,,46,,,,,,space,0.8345,space,0.5977,0.01,1,1.2085,0,0,0,0,1,Try a new restaurant with family,Relax in a hammock,0.01,0.05,8.8,0,,,,
,,66c95504723c57c900715764,6685aa9113c938e83b4f1ea0,67111c134b5a15bf22ed0d38,2024-10-17_10h16.29.908,WTP_SM_Choice,2022.2.1,Win32,144.9275362,,,,,,,,,,,,,,,,,,47,,,,,,,,,,0.02,1,1.4945,0,1,1,1,1,Take a bubble bath,Watch awards shows with family,0.02,0.05,1.1,1,,,,
,,66c95504723c57c900715764,6685aa9113c938e83b4f1ea0,67111c134b5a15bf22ed0d38,2024-10-17_10h16.29.908,WTP_SM_Choice,2022.2.1,Win32,144.9275362,,,,,,,,,,,,,,,,,,48,,,,,,,,,,0.03,1,1.2999,0,2,2,2,1,Go to afternoon tea with family,Watch YouTube videos,0.03,0.05,4.4,0,,,,
,,66c95504723c57c900715764,6685aa9113c938e83b4f1ea0,67111c134b5a15bf22ed0d38,2024-10-17_10h16.29.908,WTP_SM_Choice,2022.2.1,Win32,144.9275362,,,,,,,,,,,,,,,,,,49,,,,,,,,,,0.04,1,3.2424,0,3,3,3,1,Play video games,Try a new restaurant with family,0.04,0.05,3.3,1,,,,
,,66c95504723c57c900715764,6685aa9113c938e83b4f1ea0,67111c134b5a15bf22ed0d38,2024-10-17_10h16.29.908,WTP_SM_Choice,2022.2.1,Win32,144.9275362,,,,,,,,,,,,,,,,,,50,,,,,,,,,,0.05,2,2.6673,0,4,4,4,1,Watch YouTube videos,Go on a walk with my family,0.05,0.05,1.1,1,,,,
,,66c95504723c57c900715764,6685aa9113c938e83b4f1ea0,67111c134b5a15bf22ed0d38,2024-10-17_10h16.29.908,WTP_SM_Choice,2022.2.1,Win32,144.9275362,,,,,,,1,,3,1.15,4.85,,0,49,49,49,1,50,Sam,Rej,Participant_Images/66c95504723c57c900715764/66c95504723c57c900715764_Images/66c95504723c57c900715764_Image_4.jpeg,did not like,3.195382774,,,,,,,,,,,,,,,,,,,space,1.6457,,
,,66c95504723c57c900715764,6685aa9113c938e83b4f1ea0,67111c134b5a15bf22ed0d38,2024-10-17_10h16.29.908,WTP_SM_Choice,2022.2.1,Win32,144.9275362,,,space,1.3646,space,4.8303,NAN,,NAN,1.15,4.85,,0,50,50,50,1,51,Alex,Acc,Participant_Images/66c95504723c57c900715764/66c95504723c57c900715764_Images/66c95504723c57c900715764_Image_24.jpeg,liked,1.779333479,,,,,,,,,,,,,,,,,,,,,,
,,66c95504723c57c900715764,6685aa9113c938e83b4f1ea0,67111c134b5a15bf22ed0d38,2024-10-17_10h16.29.908,WTP_SM_Choice,2022.2.1,Win32,144.9275362,,,,,space,1.8057,NAN,,NAN,1.15,4.85,,0,51,51,51,1,52,Alex,Acc,Participant_Images/66c95504723c57c900715764/66c95504723c57c900715764_Images/66c95504723c57c900715764_Image_14.jpeg,liked,4.312468682,,,,,,,,,,,,,,,,,,,,,,
,,66c95504723c57c900715764,6685aa9113c938e83b4f1ea0,67111c134b5a15bf22ed0d38,2024-10-17_10h16.29.908,WTP_SM_Choice,2022.2.1,Win32,144.9275362,,,,,space,1.2168,NAN,,NAN,1.15,4.85,,0,52,52,52,1,53,Alex,Acc,Participant_Images/66c95504723c57c900715764/66c95504723c57c900715764_Images/66c95504723c57c900715764_Image_18.jpeg,liked,4.940433059,,,,,,,,,,,,,,,,,,,,,,
,,66c95504723c57c900715764,6685aa9113c938e83b4f1ea0,67111c134b5a15bf22ed0d38,2024-10-17_10h16.29.908,WTP_SM_Choice,2022.2.1,Win32,144.9275362,,,,,space,0.6345,NAN,,NAN,1.15,4.85,,0,53,53,53,1,54,Alex,Acc,Participant_Images/66c95504723c57c900715764/66c95504723c57c900715764_Images/66c95504723c57c900715764_Image_6.jpeg,did not like,2.7105123,,,,,,,,,,,,,,,,,,,,,,
,,66c95504723c57c900715764,6685aa9113c938e83b4f1ea0,67111c134b5a15bf22ed0d38,2024-10-17_10h16.29.908,WTP_SM_Choice,2022.2.1,Win32,144.9275362,,,,,,,,,,,,,,,,,,51,,,,,,space,1.3957,space,0.4934,0.01,2,1.0743,0,0,0,0,1,Play video games,Play video games with friends and family,0.01,0.01,1.1,1,,,,
,,66c95504723c57c900715764,6685aa9113c938e83b4f1ea0,67111c134b5a15bf22ed0d38,2024-10-17_10h16.29.908,WTP_SM_Choice,2022.2.1,Win32,144.9275362,,,,,,,,,,,,,,,,,,52,,,,,,,,,,0.01,2,1.2327,0,1,1,1,1,Go to afternoon tea with family,Take a bubble bath,0.02,0.01,3.3,0,,,,
,,66c95504723c57c900715764,6685aa9113c938e83b4f1ea0,67111c134b5a15bf22ed0d38,2024-10-17_10h16.29.908,WTP_SM_Choice,2022.2.1,Win32,144.9275362,,,,,,,,,,,,,,,,,,53,,,,,,,,,,0.01,2,1.2133,0,2,2,2,1,Play video games with friends and family,Read a book on the beach,0.03,0.01,1.1,0,,,,
,,66c95504723c57c900715764,6685aa9113c938e83b4f1ea0,67111c134b5a15bf22ed0d38,2024-10-17_10h16.29.908,WTP_SM_Choice,2022.2.1,Win32,144.9275362,,,,,,,,,,,,,,,,,,54,,,,,,,,,,0.01,2,1.9206,0,3,3,3,1,Go to afternoon tea with family,Make coffee,0.04,0.01,4.4,0,,,,
,,66c95504723c57c900715764,6685aa9113c938e83b4f1ea0,67111c134b5a15bf22ed0d38,2024-10-17_10h16.29.908,WTP_SM_Choice,2022.2.1,Win32,144.9275362,,,,,,,,,,,,,,,,,,55,,,,,,,,,,0.01,2,1.6231,0,4,4,4,1,Go on a walk with my family,Read a book on the beach,0.05,0.01,1.1,0,,,,
,,66c95504723c57c900715764,6685aa9113c938e83b4f1ea0,67111c134b5a15bf22ed0d38,2024-10-17_10h16.29.908,WTP_SM_Choice,2022.2.1,Win32,144.9275362,,,,,,,NAN,,NAN,1.2,4.8,,0,54,54,54,1,55,Alex,Acc,Participant_Images/66c95504723c57c900715764/66c95504723c57c900715764_Images/66c95504723c57c900715764_Image_8.jpeg,liked,3.602308302,,,,,,,,,,,,,,,,,,,,,,
,,66c95504723c57c900715764,6685aa9113c938e83b4f1ea0,67111c134b5a15bf22ed0d38,2024-10-17_10h16.29.908,WTP_SM_Choice,2022.2.1,Win32,144.9275362,,,,,space,1.9449,NAN,,NAN,1.2,4.8,,0,55,55,55,1,56,Alex,Acc,Participant_Images/66c95504723c57c900715764/66c95504723c57c900715764_Images/66c95504723c57c900715764_Image_16.jpeg,liked,4.106391878,,,,,,,,,,,,,,,,,,,,,,
,,66c95504723c57c900715764,6685aa9113c938e83b4f1ea0,67111c134b5a15bf22ed0d38,2024-10-17_10h16.29.908,WTP_SM_Choice,2022.2.1,Win32,144.9275362,,,,,space,2.9319,NAN,,NAN,1.2,4.8,,0,56,56,56,1,57,Alex,Acc,Participant_Images/66c95504723c57c900715764/66c95504723c57c900715764_Images/66c95504723c57c900715764_Image_4.jpeg,liked,3.799433026,,,,,,,,,,,,,,,,,,,,,,
,,66c95504723c57c900715764,6685aa9113c938e83b4f1ea0,67111c134b5a15bf22ed0d38,2024-10-17_10h16.29.908,WTP_SM_Choice,2022.2.1,Win32,144.9275362,,,,,space,4.2893,NAN,,NAN,1.2,4.8,,0,57,57,57,1,58,Alex,Acc,Participant_Images/66c95504723c57c900715764/66c95504723c57c900715764_Images/66c95504723c57c900715764_Image_13.jpeg,did not like,5.246980764,,,,,,,,,,,,,,,,,,,,,,
,,66c95504723c57c900715764,6685aa9113c938e83b4f1ea0,67111c134b5a15bf22ed0d38,2024-10-17_10h16.29.908,WTP_SM_Choice,2022.2.1,Win32,144.9275362,,,,,space,2.8337,NAN,,NAN,1.2,4.8,,0,58,58,58,1,59,Alex,Acc,Participant_Images/66c95504723c57c900715764/66c95504723c57c900715764_Images/66c95504723c57c900715764_Image_21.jpeg,liked,3.30081769,,,,,,,,,,,,,,,,,,,,,,
,,66c95504723c57c900715764,6685aa9113c938e83b4f1ea0,67111c134b5a15bf22ed0d38,2024-10-17_10h16.29.908,WTP_SM_Choice,2022.2.1,Win32,144.9275362,,,,,,,,,,,,,,,,,,56,,,,,,space,1.6562,space,0.6269,0.01,1,1.8094,0,0,0,0,1,Watch Football with family,Play video games,0.01,0.02,8.8,0,,,,
,,66c95504723c57c900715764,6685aa9113c938e83b4f1ea0,67111c134b5a15bf22ed0d38,2024-10-17_10h16.29.908,WTP_SM_Choice,2022.2.1,Win32,144.9275362,,,,,,,,,,,,,,,,,,57,,,,,,,,,,0.02,1,3.2449,0,1,1,1,1,Play video games with friends and family,Take a bubble bath,0.02,0.02,4.4,0,,,,
,,66c95504723c57c900715764,6685aa9113c938e83b4f1ea0,67111c134b5a15bf22ed0d38,2024-10-17_10h16.29.908,WTP_SM_Choice,2022.2.1,Win32,144.9275362,,,,,,,,,,,,,,,,,,58,,,,,,,,,,0.02,2,2.7424,0,2,2,2,1,Go to the library with my sister,Play video games,0.03,0.02,4.4,0,,,,
,,66c95504723c57c900715764,6685aa9113c938e83b4f1ea0,67111c134b5a15bf22ed0d38,2024-10-17_10h16.29.908,WTP_SM_Choice,2022.2.1,Win32,144.9275362,,,,,,,,,,,,,,,,,,59,,,,,,,,,,0.02,2,1.0297,0,3,3,3,1,Relax in a hammock,Watch awards shows with family,0.04,0.02,4.4,1,,,,
,,66c95504723c57c900715764,6685aa9113c938e83b4f1ea0,67111c134b5a15bf22ed0d38,2024-10-17_10h16.29.908,WTP_SM_Choice,2022.2.1,Win32,144.9275362,,,,,,,,,,,,,,,,,,60,,,,,,,,,,0.02,2,1.1254,0,4,4,4,1,Bake something,See a movie with friends,0.05,0.02,1.1,1,,,,
,,66c95504723c57c900715764,6685aa9113c938e83b4f1ea0,67111c134b5a15bf22ed0d38,2024-10-17_10h16.29.908,WTP_SM_Choice,2022.2.1,Win32,144.9275362,,,,,,,NAN,,NAN,1.29,4.71,,0,59,59,59,1,60,Alex,Acc,Participant_Images/66c95504723c57c900715764/66c95504723c57c900715764_Images/66c95504723c57c900715764_Image_10.jpeg,liked,1.661473164,,,,,,,,,,,,,,,,,,,,,,
,,66c95504723c57c900715764,6685aa9113c938e83b4f1ea0,67111c134b5a15bf22ed0d38,2024-10-17_10h16.29.908,WTP_SM_Choice,2022.2.1,Win32,144.9275362,,,,,space,0.9518,NAN,,NAN,1.29,4.71,,0,60,60,60,1,61,Alex,Acc,Participant_Images/66c95504723c57c900715764/66c95504723c57c900715764_Images/66c95504723c57c900715764_Image_11.jpeg,liked,3.613205605,,,,,,,,,,,,,,,,,,,,,,
,,66c95504723c57c900715764,6685aa9113c938e83b4f1ea0,67111c134b5a15bf22ed0d38,2024-10-17_10h16.29.908,WTP_SM_Choice,2022.2.1,Win32,144.9275362,,,,,space,3.4407,NAN,,NAN,1.29,4.71,,0,61,61,61,1,62,Alex,Acc,Participant_Images/66c95504723c57c900715764/66c95504723c57c900715764_Images/66c95504723c57c900715764_Image_17.jpeg,did not like,4.988446431,,,,,,,,,,,,,,,,,,,,,,
,,66c95504723c57c900715764,6685aa9113c938e83b4f1ea0,67111c134b5a15bf22ed0d38,2024-10-17_10h16.29.908,WTP_SM_Choice,2022.2.1,Win32,144.9275362,,,,,space,0.57,NAN,,NAN,1.29,4.71,,0,62,62,62,1,63,Alex,Acc,Participant_Images/66c95504723c57c900715764/66c95504723c57c900715764_Images/66c95504723c57c900715764_Image_5.jpeg,liked,3.470791822,,,,,,,,,,,,,,,,,,,,,,
,,66c95504723c57c900715764,6685aa9113c938e83b4f1ea0,67111c134b5a15bf22ed0d38,2024-10-17_10h16.29.908,WTP_SM_Choice,2022.2.1,Win32,144.9275362,,,,,space,1.4397,NAN,,NAN,1.29,4.71,,0,63,63,63,1,64,Alex,Acc,Participant_Images/66c95504723c57c900715764/66c95504723c57c900715764_Images/66c95504723c57c900715764_Image_20.jpeg,liked,3.820572462,,,,,,,,,,,,,,,,,,,,,,
,,66c95504723c57c900715764,6685aa9113c938e83b4f1ea0,67111c134b5a15bf22ed0d38,2024-10-17_10h16.29.908,WTP_SM_Choice,2022.2.1,Win32,144.9275362,,,,,,,,,,,,,,,,,,61,,,,,,space,0.9595,space,1.6323,0.01,1,1.3228,0,0,0,0,1,Go on a walk with my family,Play video games,0.01,0.03,3.3,0,,,,
,,66c95504723c57c900715764,6685aa9113c938e83b4f1ea0,67111c134b5a15bf22ed0d38,2024-10-17_10h16.29.908,WTP_SM_Choice,2022.2.1,Win32,144.9275362,,,,,,,,,,,,,,,,,,62,,,,,,,,,,0.02,1,5.7169,0,1,1,1,1,celebrate occasions with family,Watch YouTube videos,0.02,0.03,3.3,0,,,,
,,66c95504723c57c900715764,6685aa9113c938e83b4f1ea0,67111c134b5a15bf22ed0d38,2024-10-17_10h16.29.908,WTP_SM_Choice,2022.2.1,Win32,144.9275362,,,,,,,,,,,,,,,,,,63,,,,,,,,,,0.03,2,3.3921,0,2,2,2,1,Try a new restaurant with family,Make coffee,0.03,0.03,3.3,0,,,,
,,66c95504723c57c900715764,6685aa9113c938e83b4f1ea0,67111c134b5a15bf22ed0d38,2024-10-17_10h16.29.908,WTP_SM_Choice,2022.2.1,Win32,144.9275362,,,,,,,,,,,,,,,,,,64,,,,,,,,,,0.03,2,1.1499,0,3,3,3,1,Take a bubble bath,celebrate occasions with family,0.04,0.03,1.1,1,,,,
,,66c95504723c57c900715764,6685aa9113c938e83b4f1ea0,67111c134b5a15bf22ed0d38,2024-10-17_10h16.29.908,WTP_SM_Choice,2022.2.1,Win32,144.9275362,,,,,,,,,,,,,,,,,,65,,,,,,,,,,0.03,2,1.2363,0,4,4,4,1,Play video games with friends and family,Bake something,0.05,0.03,1.1,0,,,,
,,66c95504723c57c900715764,6685aa9113c938e83b4f1ea0,67111c134b5a15bf22ed0d38,2024-10-17_10h16.29.908,WTP_SM_Choice,2022.2.1,Win32,144.9275362,,,,,,,NAN,,NAN,1.41,4.59,,0,64,64,64,1,65,Alex,Acc,Participant_Images/66c95504723c57c900715764/66c95504723c57c900715764_Images/66c95504723c57c900715764_Image_9.jpeg,did not like,2.455989137,,,,,,,,,,,,,,,,,,,,,,
,,66c95504723c57c900715764,6685aa9113c938e83b4f1ea0,67111c134b5a15bf22ed0d38,2024-10-17_10h16.29.908,WTP_SM_Choice,2022.2.1,Win32,144.9275362,,,,,space,0.7856,NAN,,NAN,1.41,4.59,,0,65,65,65,1,66,Alex,Acc,Participant_Images/66c95504723c57c900715764/66c95504723c57c900715764_Images/66c95504723c57c900715764_Image_3.jpeg,did not like,3.79605092,,,,,,,,,,,,,,,,,,,,,,
,,66c95504723c57c900715764,6685aa9113c938e83b4f1ea0,67111c134b5a15bf22ed0d38,2024-10-17_10h16.29.908,WTP_SM_Choice,2022.2.1,Win32,144.9275362,,,,,space,1.4559,NAN,,NAN,1.41,4.59,,0,66,66,66,1,67,Alex,Acc,Participant_Images/66c95504723c57c900715764/66c95504723c57c900715764_Images/66c95504723c57c900715764_Image_19.jpeg,liked,3.562416326,,,,,,,,,,,,,,,,,,,,,,
,,66c95504723c57c900715764,6685aa9113c938e83b4f1ea0,67111c134b5a15bf22ed0d38,2024-10-17_10h16.29.908,WTP_SM_Choice,2022.2.1,Win32,144.9275362,,,,,space,0.799,NAN,,NAN,1.41,4.59,,0,67,67,67,1,68,Alex,Acc,Participant_Images/66c95504723c57c900715764/66c95504723c57c900715764_Images/66c95504723c57c900715764_Image_25.jpeg,liked,2.843822497,,,,,,,,,,,,,,,,,,,,,,
,,66c95504723c57c900715764,6685aa9113c938e83b4f1ea0,67111c134b5a15bf22ed0d38,2024-10-17_10h16.29.908,WTP_SM_Choice,2022.2.1,Win32,144.9275362,,,,,space,1.1421,NAN,,NAN,1.41,4.59,,0,68,68,68,1,69,Alex,Acc,Participant_Images/66c95504723c57c900715764/66c95504723c57c900715764_Images/66c95504723c57c900715764_Image_22.jpeg,liked,3.546495948,,,,,,,,,,,,,,,,,,,,,,
,,66c95504723c57c900715764,6685aa9113c938e83b4f1ea0,67111c134b5a15bf22ed0d38,2024-10-17_10h16.29.908,WTP_SM_Choice,2022.2.1,Win32,144.9275362,,,,,,,,,,,,,,,,,,66,,,,,,space,0.986,space,0.6398,0.01,1,1.0014,0,0,0,0,1,Watch awards shows with family,Read a book on the beach,0.01,0.04,1.1,0,,,,
,,66c95504723c57c900715764,6685aa9113c938e83b4f1ea0,67111c134b5a15bf22ed0d38,2024-10-17_10h16.29.908,WTP_SM_Choice,2022.2.1,Win32,144.9275362,,,,,,,,,,,,,,,,,,67,,,,,,,,,,0.02,1,1.2411,0,1,1,1,1,Take a bubble bath,Try a new restaurant with family,0.02,0.04,8.8,1,,,,
,,66c95504723c57c900715764,6685aa9113c938e83b4f1ea0,67111c134b5a15bf22ed0d38,2024-10-17_10h16.29.908,WTP_SM_Choice,2022.2.1,Win32,144.9275362,,,,,,,,,,,,,,,,,,68,,,,,,,,,,0.03,1,5.4563,0,2,2,2,1,Listen to ironmouse songs and covers,Go on a walk with my family,0.03,0.04,4.4,1,,,,
,,66c95504723c57c900715764,6685aa9113c938e83b4f1ea0,67111c134b5a15bf22ed0d38,2024-10-17_10h16.29.908,WTP_SM_Choice,2022.2.1,Win32,144.9275362,,,,,,,,,,,,,,,,,,69,,,,,,,,,,0.04,1,1.8385,0,3,3,3,1,Bake something,Try a new restaurant with family,0.04,0.04,1.1,1,,,,
,,66c95504723c57c900715764,6685aa9113c938e83b4f1ea0,67111c134b5a15bf22ed0d38,2024-10-17_10h16.29.908,WTP_SM_Choice,2022.2.1,Win32,144.9275362,,,,,,,,,,,,,,,,,,70,,,,,,,,,,0.04,2,1.1923,0,4,4,4,1,Go to the library with my sister,Relax in a hammock,0.05,0.04,1.1,0,,,,
,,66c95504723c57c900715764,6685aa9113c938e83b4f1ea0,67111c134b5a15bf22ed0d38,2024-10-17_10h16.29.908,WTP_SM_Choice,2022.2.1,Win32,144.9275362,,,,,,,NAN,,NAN,1.55,4.45,,0,69,69,69,1,70,Alex,Acc,Participant_Images/66c95504723c57c900715764/66c95504723c57c900715764_Images/66c95504723c57c900715764_Image_12.jpeg,liked,1.672012706,,,,,,,,,,,,,,,,,,,,,,
,,66c95504723c57c900715764,6685aa9113c938e83b4f1ea0,67111c134b5a15bf22ed0d38,2024-10-17_10h16.29.908,WTP_SM_Choice,2022.2.1,Win32,144.9275362,,,,,space,2.5007,NAN,,NAN,1.55,4.45,,0,70,70,70,1,71,Alex,Acc,Participant_Images/66c95504723c57c900715764/66c95504723c57c900715764_Images/66c95504723c57c900715764_Image_7.jpeg,did not like,4.942172136,,,,,,,,,,,,,,,,,,,,,,
,,66c95504723c57c900715764,6685aa9113c938e83b4f1ea0,67111c134b5a15bf22ed0d38,2024-10-17_10h16.29.908,WTP_SM_Choice,2022.2.1,Win32,144.9275362,,,,,space,0.3208,NAN,,NAN,1.55,4.45,,0,71,71,71,1,72,Alex,Acc,Participant_Images/66c95504723c57c900715764/66c95504723c57c900715764_Images/66c95504723c57c900715764_Image_15.jpeg,liked,2.50187214,,,,,,,,,,,,,,,,,,,,,,
,,66c95504723c57c900715764,6685aa9113c938e83b4f1ea0,67111c134b5a15bf22ed0d38,2024-10-17_10h16.29.908,WTP_SM_Choice,2022.2.1,Win32,144.9275362,,,,,space,0.9406,NAN,,NAN,1.55,4.45,,0,72,72,72,1,73,Alex,Acc,Participant_Images/66c95504723c57c900715764/66c95504723c57c900715764_Images/66c95504723c57c900715764_Image_23.jpeg,liked,2.071164779,,,,,,,,,,,,,,,,,,,,,,
,,66c95504723c57c900715764,6685aa9113c938e83b4f1ea0,67111c134b5a15bf22ed0d38,2024-10-17_10h16.29.908,WTP_SM_Choice,2022.2.1,Win32,144.9275362,,,,,space,0.9963,NAN,,NAN,1.55,4.45,,0,73,73,73,1,74,Alex,Acc,Participant_Images/66c95504723c57c900715764/66c95504723c57c900715764_Images/66c95504723c57c900715764_Image_2.jpeg,liked,5.336503566,,,,,,,,,,,,,,,,,,,,,,
,,66c95504723c57c900715764,6685aa9113c938e83b4f1ea0,67111c134b5a15bf22ed0d38,2024-10-17_10h16.29.908,WTP_SM_Choice,2022.2.1,Win32,144.9275362,,,,,,,,,,,,,,,,,,71,,,,,,space,1.1251,space,0.5912,0.01,1,2.0515,0,0,0,0,1,Watch league of legends esports,celebrate occasions with family,0.01,0.05,3.3,1,,,,
,,66c95504723c57c900715764,6685aa9113c938e83b4f1ea0,67111c134b5a15bf22ed0d38,2024-10-17_10h16.29.908,WTP_SM_Choice,2022.2.1,Win32,144.9275362,,,,,,,,,,,,,,,,,,72,,,,,,,,,,0.02,1,1.04,0,1,1,1,1,Bake something,Watch Football with family,0.02,0.05,8.8,1,,,,
,,66c95504723c57c900715764,6685aa9113c938e83b4f1ea0,67111c134b5a15bf22ed0d38,2024-10-17_10h16.29.908,WTP_SM_Choice,2022.2.1,Win32,144.9275362,,,,,,,,,,,,,,,,,,73,,,,,,,,,,0.03,1,1.2154,0,2,2,2,1,Watch Football with family,Watch anime,0.03,0.05,3.3,0,,,,
,,66c95504723c57c900715764,6685aa9113c938e83b4f1ea0,67111c134b5a15bf22ed0d38,2024-10-17_10h16.29.908,WTP_SM_Choice,2022.2.1,Win32,144.9275362,,,,,,,,,,,,,,,,,,74,,,,,,,,,,0.04,1,1.5227,0,3,3,3,1,Play video games,See a movie with friends,0.04,0.05,4.4,1,,,,
,,66c95504723c57c900715764,6685aa9113c938e83b4f1ea0,67111c134b5a15bf22ed0d38,2024-10-17_10h16.29.908,WTP_SM_Choice,2022.2.1,Win32,144.9275362,,,,,,,,,,,,,,,,,,75,,,,,,,,,,0.05,2,1.9443,0,4,4,4,1,Go on a walk with my family,Relax in a hammock,0.05,0.05,3.3,0,,,,
,,66c95504723c57c900715764,6685aa9113c938e83b4f1ea0,67111c134b5a15bf22ed0d38,2024-10-17_10h16.29.908,WTP_SM_Choice,2022.2.1,Win32,144.9275362,,,,,,,3,,3,1.7,4.3,,0,74,74,74,1,75,Alex,Acc,Participant_Images/66c95504723c57c900715764/66c95504723c57c900715764_Images/66c95504723c57c900715764_Image_1.jpeg,did not like,2.642157193,,,,,,,,,,,,,,,,,,,space,0.9726,,
,,66c95504723c57c900715764,6685aa9113c938e83b4f1ea0,67111c134b5a15bf22ed0d38,2024-10-17_10h16.29.908,WTP_SM_Choice,2022.2.1,Win32,144.9275362,,,space,3.2177,space,3.4521,NAN,,NAN,1.7,4.3,,0,75,75,75,1,76,Charlie,Rej,Participant_Images/66c95504723c57c900715764/66c95504723c57c900715764_Images/66c95504723c57c900715764_Image_25.jpeg,liked,4.456234322,,,,,,,,,,,,,,,,,,,,,,
,,66c95504723c57c900715764,6685aa9113c938e83b4f1ea0,67111c134b5a15bf22ed0d38,2024-10-17_10h16.29.908,WTP_SM_Choice,2022.2.1,Win32,144.9275362,,,,,space,1.1175,NAN,,NAN,1.7,4.3,,0,76,76,76,1,77,Charlie,Rej,Participant_Images/66c95504723c57c900715764/66c95504723c57c900715764_Images/66c95504723c57c900715764_Image_6.jpeg,did not like,4.438512181,,,,,,,,,,,,,,,,,,,,,,
,,66c95504723c57c900715764,6685aa9113c938e83b4f1ea0,67111c134b5a15bf22ed0d38,2024-10-17_10h16.29.908,WTP_SM_Choice,2022.2.1,Win32,144.9275362,,,,,space,1.1113,NAN,,NAN,1.7,4.3,,0,77,77,77,1,78,Charlie,Rej,Participant_Images/66c95504723c57c900715764/66c95504723c57c900715764_Images/66c95504723c57c900715764_Image_1.jpeg,did not like,2.682944783,,,,,,,,,,,,,,,,,,,,,,
,,66c95504723c57c900715764,6685aa9113c938e83b4f1ea0,67111c134b5a15bf22ed0d38,2024-10-17_10h16.29.908,WTP_SM_Choice,2022.2.1,Win32,144.9275362,,,,,space,0.7915,NAN,,NAN,1.7,4.3,,0,78,78,78,1,79,Charlie,Rej,Participant_Images/66c95504723c57c900715764/66c95504723c57c900715764_Images/66c95504723c57c900715764_Image_18.jpeg,did not like,4.51984296,,,,,,,,,,,,,,,,,,,,,,
,,66c95504723c57c900715764,6685aa9113c938e83b4f1ea0,67111c134b5a15bf22ed0d38,2024-10-17_10h16.29.908,WTP_SM_Choice,2022.2.1,Win32,144.9275362,,,,,,,,,,,,,,,,,,76,,,,,,space,0.8057,space,1.5768,0.01,1,1.5123,0,0,0,0,1,Relax in a hammock,Go to afternoon tea with family,0.01,0.01,1.1,1,,,,
,,66c95504723c57c900715764,6685aa9113c938e83b4f1ea0,67111c134b5a15bf22ed0d38,2024-10-17_10h16.29.908,WTP_SM_Choice,2022.2.1,Win32,144.9275362,,,,,,,,,,,,,,,,,,77,,,,,,,,,,0.01,2,1.1237,0,1,1,1,1,Bake something,Watch awards shows with family,0.02,0.01,8.8,1,,,,
,,66c95504723c57c900715764,6685aa9113c938e83b4f1ea0,67111c134b5a15bf22ed0d38,2024-10-17_10h16.29.908,WTP_SM_Choice,2022.2.1,Win32,144.9275362,,,,,,,,,,,,,,,,,,78,,,,,,,,,,0.01,2,1.3036,0,2,2,2,1,Watch awards shows with family,Watch anime,0.03,0.01,1.1,0,,,,
,,66c95504723c57c900715764,6685aa9113c938e83b4f1ea0,67111c134b5a15bf22ed0d38,2024-10-17_10h16.29.908,WTP_SM_Choice,2022.2.1,Win32,144.9275362,,,,,,,,,,,,,,,,,,79,,,,,,,,,,0.01,2,1.1317,0,3,3,3,1,Watch Football with family,Make coffee,0.04,0.01,1.1,0,,,,
,,66c95504723c57c900715764,6685aa9113c938e83b4f1ea0,67111c134b5a15bf22ed0d38,2024-10-17_10h16.29.908,WTP_SM_Choice,2022.2.1,Win32,144.9275362,,,,,,,,,,,,,,,,,,80,,,,,,,,,,0.01,2,1.3437,0,4,4,4,1,See a movie with friends,Read a book on the beach,0.05,0.01,4.4,0,,,,
,,66c95504723c57c900715764,6685aa9113c938e83b4f1ea0,67111c134b5a15bf22ed0d38,2024-10-17_10h16.29.908,WTP_SM_Choice,2022.2.1,Win32,144.9275362,,,,,,,NAN,,NAN,1.75,4.25,,0,79,79,79,1,80,Charlie,Rej,Participant_Images/66c95504723c57c900715764/66c95504723c57c900715764_Images/66c95504723c57c900715764_Image_22.jpeg,liked,3.195382774,,,,,,,,,,,,,,,,,,,,,,
,,66c95504723c57c900715764,6685aa9113c938e83b4f1ea0,67111c134b5a15bf22ed0d38,2024-10-17_10h16.29.908,WTP_SM_Choice,2022.2.1,Win32,144.9275362,,,,,space,0.6281,NAN,,NAN,1.75,4.25,,0,80,80,80,1,81,Charlie,Rej,Participant_Images/66c95504723c57c900715764/66c95504723c57c900715764_Images/66c95504723c57c900715764_Image_14.jpeg,did not like,1.779333479,,,,,,,,,,,,,,,,,,,,,,
,,66c95504723c57c900715764,6685aa9113c938e83b4f1ea0,67111c134b5a15bf22ed0d38,2024-10-17_10h16.29.908,WTP_SM_Choice,2022.2.1,Win32,144.9275362,,,,,space,0.7159,NAN,,NAN,1.75,4.25,,0,81,81,81,1,82,Charlie,Rej,Participant_Images/66c95504723c57c900715764/66c95504723c57c900715764_Images/66c95504723c57c900715764_Image_16.jpeg,did not like,4.312468682,,,,,,,,,,,,,,,,,,,,,,
,,66c95504723c57c900715764,6685aa9113c938e83b4f1ea0,67111c134b5a15bf22ed0d38,2024-10-17_10h16.29.908,WTP_SM_Choice,2022.2.1,Win32,144.9275362,,,,,space,0.6288,NAN,,NAN,1.75,4.25,,0,82,82,82,1,83,Charlie,Rej,Participant_Images/66c95504723c57c900715764/66c95504723c57c900715764_Images/66c95504723c57c900715764_Image_19.jpeg,did not like,4.940433059,,,,,,,,,,,,,,,,,,,,,,
,,66c95504723c57c900715764,6685aa9113c938e83b4f1ea0,67111c134b5a15bf22ed0d38,2024-10-17_10h16.29.908,WTP_SM_Choice,2022.2.1,Win32,144.9275362,,,,,space,0.8063,NAN,,NAN,1.75,4.25,,0,83,83,83,1,84,Charlie,Rej,Participant_Images/66c95504723c57c900715764/66c95504723c57c900715764_Images/66c95504723c57c900715764_Image_9.jpeg,did not like,2.7105123,,,,,,,,,,,,,,,,,,,,,,
,,66c95504723c57c900715764,6685aa9113c938e83b4f1ea0,67111c134b5a15bf22ed0d38,2024-10-17_10h16.29.908,WTP_SM_Choice,2022.2.1,Win32,144.9275362,,,,,,,,,,,,,,,,,,81,,,,,,space,0.6418,space,1.1033,0.01,1,0.8193,0,0,0,0,1,Go hiking with family,Read a book on the beach,0.01,0.02,3.3,0,,,,
,,66c95504723c57c900715764,6685aa9113c938e83b4f1ea0,67111c134b5a15bf22ed0d38,2024-10-17_10h16.29.908,WTP_SM_Choice,2022.2.1,Win32,144.9275362,,,,,,,,,,,,,,,,,,82,,,,,,,,,,0.02,2,1.7642,0,1,1,1,1,Listen to ironmouse songs and covers,Watch awards shows with family,0.02,0.02,4.4,1,,,,
,,66c95504723c57c900715764,6685aa9113c938e83b4f1ea0,67111c134b5a15bf22ed0d38,2024-10-17_10h16.29.908,WTP_SM_Choice,2022.2.1,Win32,144.9275362,,,,,,,,,,,,,,,,,,83,,,,,,,,,,0.02,2,1.5828,0,2,2,2,1,Try a new restaurant with family,Listen to ironmouse songs and covers,0.03,0.02,1.1,0,,,,
,,66c95504723c57c900715764,6685aa9113c938e83b4f1ea0,67111c134b5a15bf22ed0d38,2024-10-17_10h16.29.908,WTP_SM_Choice,2022.2.1,Win32,144.9275362,,,,,,,,,,,,,,,,,,84,,,,,,,,,,0.02,2,1.1454,0,3,3,3,1,Go to the library with my sister,Listen to ironmouse songs and covers,0.04,0.02,3.3,0,,,,
,,66c95504723c57c900715764,6685aa9113c938e83b4f1ea0,67111c134b5a15bf22ed0d38,2024-10-17_10h16.29.908,WTP_SM_Choice,2022.2.1,Win32,144.9275362,,,,,,,,,,,,,,,,,,85,,,,,,,,,,0.02,2,1.2648,0,4,4,4,1,Watch league of legends esports,Go on a walk with my family,0.05,0.02,3.3,1,,,,
,,66c95504723c57c900715764,6685aa9113c938e83b4f1ea0,67111c134b5a15bf22ed0d38,2024-10-17_10h16.29.908,WTP_SM_Choice,2022.2.1,Win32,144.9275362,,,,,,,NAN,,NAN,1.84,4.16,,0,84,84,84,1,85,Charlie,Rej,Participant_Images/66c95504723c57c900715764/66c95504723c57c900715764_Images/66c95504723c57c900715764_Image_7.jpeg,did not like,3.602308302,,,,,,,,,,,,,,,,,,,,,,
,,66c95504723c57c900715764,6685aa9113c938e83b4f1ea0,67111c134b5a15bf22ed0d38,2024-10-17_10h16.29.908,WTP_SM_Choice,2022.2.1,Win32,144.9275362,,,,,space,0.2916,NAN,,NAN,1.84,4.16,,0,85,85,85,1,86,Charlie,Rej,Participant_Images/66c95504723c57c900715764/66c95504723c57c900715764_Images/66c95504723c57c900715764_Image_21.jpeg,did not like,4.106391878,,,,,,,,,,,,,,,,,,,,,,
,,66c95504723c57c900715764,6685aa9113c938e83b4f1ea0,67111c134b5a15bf22ed0d38,2024-10-17_10h16.29.908,WTP_SM_Choice,2022.2.1,Win32,144.9275362,,,,,space,1.1811,NAN,,NAN,1.84,4.16,,0,86,86,86,1,87,Charlie,Rej,Participant_Images/66c95504723c57c900715764/66c95504723c57c900715764_Images/66c95504723c57c900715764_Image_13.jpeg,liked,3.799433026,,,,,,,,,,,,,,,,,,,,,,
,,66c95504723c57c900715764,6685aa9113c938e83b4f1ea0,67111c134b5a15bf22ed0d38,2024-10-17_10h16.29.908,WTP_SM_Choice,2022.2.1,Win32,144.9275362,,,,,space,2.4428,NAN,,NAN,1.84,4.16,,0,87,87,87,1,88,Charlie,Rej,Participant_Images/66c95504723c57c900715764/66c95504723c57c900715764_Images/66c95504723c57c900715764_Image_15.jpeg,did not like,5.246980764,,,,,,,,,,,,,,,,,,,,,,
,,66c95504723c57c900715764,6685aa9113c938e83b4f1ea0,67111c134b5a15bf22ed0d38,2024-10-17_10h16.29.908,WTP_SM_Choice,2022.2.1,Win32,144.9275362,,,,,space,1.0073,NAN,,NAN,1.84,4.16,,0,88,88,88,1,89,Charlie,Rej,Participant_Images/66c95504723c57c900715764/66c95504723c57c900715764_Images/66c95504723c57c900715764_Image_20.jpeg,did not like,3.30081769,,,,,,,,,,,,,,,,,,,,,,
,,66c95504723c57c900715764,6685aa9113c938e83b4f1ea0,67111c134b5a15bf22ed0d38,2024-10-17_10h16.29.908,WTP_SM_Choice,2022.2.1,Win32,144.9275362,,,,,,,,,,,,,,,,,,86,,,,,,space,0.7577,space,0.708,0.01,1,2.2285,0,0,0,0,1,Watch YouTube videos,Watch Football with family,0.01,0.03,1.1,1,,,,
,,66c95504723c57c900715764,6685aa9113c938e83b4f1ea0,67111c134b5a15bf22ed0d38,2024-10-17_10h16.29.908,WTP_SM_Choice,2022.2.1,Win32,144.9275362,,,,,,,,,,,,,,,,,,87,,,,,,,,,,0.02,1,0.9517,0,1,1,1,1,Play video games,Go hiking with family,0.02,0.03,4.4,1,,,,
,,66c95504723c57c900715764,6685aa9113c938e83b4f1ea0,67111c134b5a15bf22ed0d38,2024-10-17_10h16.29.908,WTP_SM_Choice,2022.2.1,Win32,144.9275362,,,,,,,,,,,,,,,,,,88,,,,,,,,,,0.03,1,1.9994,0,2,2,2,1,Watch Football with family,Watch league of legends esports,0.03,0.03,1.1,0,,,,
,,66c95504723c57c900715764,6685aa9113c938e83b4f1ea0,67111c134b5a15bf22ed0d38,2024-10-17_10h16.29.908,WTP_SM_Choice,2022.2.1,Win32,144.9275362,,,,,,,,,,,,,,,,,,89,,,,,,,,,,0.03,2,2.2774,0,3,3,3,1,Watch anime,Go to the library with my sister,0.04,0.03,3.3,1,,,,
,,66c95504723c57c900715764,6685aa9113c938e83b4f1ea0,67111c134b5a15bf22ed0d38,2024-10-17_10h16.29.908,WTP_SM_Choice,2022.2.1,Win32,144.9275362,,,,,,,,,,,,,,,,,,90,,,,,,,,,,0.03,2,2.6055,0,4,4,4,1,Watch league of legends esports,Go to afternoon tea with family,0.05,0.03,8.8,1,,,,
,,66c95504723c57c900715764,6685aa9113c938e83b4f1ea0,67111c134b5a15bf22ed0d38,2024-10-17_10h16.29.908,WTP_SM_Choice,2022.2.1,Win32,144.9275362,,,,,,,NAN,,NAN,1.96,4.04,,0,89,89,89,1,90,Charlie,Rej,Participant_Images/66c95504723c57c900715764/66c95504723c57c900715764_Images/66c95504723c57c900715764_Image_3.jpeg,liked,1.661473164,,,,,,,,,,,,,,,,,,,,,,
,,66c95504723c57c900715764,6685aa9113c938e83b4f1ea0,67111c134b5a15bf22ed0d38,2024-10-17_10h16.29.908,WTP_SM_Choice,2022.2.1,Win32,144.9275362,,,,,space,0.8556,NAN,,NAN,1.96,4.04,,0,90,90,90,1,91,Charlie,Rej,Participant_Images/66c95504723c57c900715764/66c95504723c57c900715764_Images/66c95504723c57c900715764_Image_23.jpeg,did not like,3.613205605,,,,,,,,,,,,,,,,,,,,,,
,,66c95504723c57c900715764,6685aa9113c938e83b4f1ea0,67111c134b5a15bf22ed0d38,2024-10-17_10h16.29.908,WTP_SM_Choice,2022.2.1,Win32,144.9275362,,,,,space,1.6421,NAN,,NAN,1.96,4.04,,0,91,91,91,1,92,Charlie,Rej,Participant_Images/66c95504723c57c900715764/66c95504723c57c900715764_Images/66c95504723c57c900715764_Image_17.jpeg,did not like,4.988446431,,,,,,,,,,,,,,,,,,,,,,
,,66c95504723c57c900715764,6685aa9113c938e83b4f1ea0,67111c134b5a15bf22ed0d38,2024-10-17_10h16.29.908,WTP_SM_Choice,2022.2.1,Win32,144.9275362,,,,,space,3.7006,NAN,,NAN,1.96,4.04,,0,92,92,92,1,93,Charlie,Rej,Participant_Images/66c95504723c57c900715764/66c95504723c57c900715764_Images/66c95504723c57c900715764_Image_10.jpeg,liked,3.470791822,,,,,,,,,,,,,,,,,,,,,,
,,66c95504723c57c900715764,6685aa9113c938e83b4f1ea0,67111c134b5a15bf22ed0d38,2024-10-17_10h16.29.908,WTP_SM_Choice,2022.2.1,Win32,144.9275362,,,,,space,0.9272,NAN,,NAN,1.96,4.04,,0,93,93,93,1,94,Charlie,Rej,Participant_Images/66c95504723c57c900715764/66c95504723c57c900715764_Images/66c95504723c57c900715764_Image_8.jpeg,did not like,3.820572462,,,,,,,,,,,,,,,,,,,,,,
,,66c95504723c57c900715764,6685aa9113c938e83b4f1ea0,67111c134b5a15bf22ed0d38,2024-10-17_10h16.29.908,WTP_SM_Choice,2022.2.1,Win32,144.9275362,,,,,,,,,,,,,,,,,,91,,,,,,space,1,space,0.3548,0.01,1,0.9761,0,0,0,0,1,Go on a walk with my family,Watch anime,0.01,0.04,3.3,0,,,,
,,66c95504723c57c900715764,6685aa9113c938e83b4f1ea0,67111c134b5a15bf22ed0d38,2024-10-17_10h16.29.908,WTP_SM_Choice,2022.2.1,Win32,144.9275362,,,,,,,,,,,,,,,,,,92,,,,,,,,,,0.02,1,1.7676,0,1,1,1,1,Watch Football with family,Take a bubble bath,0.02,0.04,8.8,0,,,,
,,66c95504723c57c900715764,6685aa9113c938e83b4f1ea0,67111c134b5a15bf22ed0d38,2024-10-17_10h16.29.908,WTP_SM_Choice,2022.2.1,Win32,144.9275362,,,,,,,,,,,,,,,,,,93,,,,,,,,,,0.03,1,3.9027,0,2,2,2,1,Read a book on the beach,celebrate occasions with family,0.03,0.04,1.1,1,,,,
,,66c95504723c57c900715764,6685aa9113c938e83b4f1ea0,67111c134b5a15bf22ed0d38,2024-10-17_10h16.29.908,WTP_SM_Choice,2022.2.1,Win32,144.9275362,,,,,,,,,,,,,,,,,,94,,,,,,,,,,0.04,1,5.2842,0,3,3,3,1,Watch awards shows with family,Make coffee,0.04,0.04,4.4,0,,,,
,,66c95504723c57c900715764,6685aa9113c938e83b4f1ea0,67111c134b5a15bf22ed0d38,2024-10-17_10h16.29.908,WTP_SM_Choice,2022.2.1,Win32,144.9275362,,,,,,,,,,,,,,,,,,95,,,,,,,,,,0.04,2,1.7994,0,4,4,4,1,See a movie with friends,Listen to ironmouse songs and covers,0.05,0.04,4.4,0,,,,
,,66c95504723c57c900715764,6685aa9113c938e83b4f1ea0,67111c134b5a15bf22ed0d38,2024-10-17_10h16.29.908,WTP_SM_Choice,2022.2.1,Win32,144.9275362,,,,,,,NAN,,NAN,2.1,3.9,,0,94,94,94,1,95,Charlie,Rej,Participant_Images/66c95504723c57c900715764/66c95504723c57c900715764_Images/66c95504723c57c900715764_Image_2.jpeg,did not like,2.455989137,,,,,,,,,,,,,,,,,,,,,,
,,66c95504723c57c900715764,6685aa9113c938e83b4f1ea0,67111c134b5a15bf22ed0d38,2024-10-17_10h16.29.908,WTP_SM_Choice,2022.2.1,Win32,144.9275362,,,,,space,5.479,NAN,,NAN,2.1,3.9,,0,95,95,95,1,96,Charlie,Rej,Participant_Images/66c95504723c57c900715764/66c95504723c57c900715764_Images/66c95504723c57c900715764_Image_12.jpeg,did not like,3.79605092,,,,,,,,,,,,,,,,,,,,,,
,,66c95504723c57c900715764,6685aa9113c938e83b4f1ea0,67111c134b5a15bf22ed0d38,2024-10-17_10h16.29.908,WTP_SM_Choice,2022.2.1,Win32,144.9275362,,,,,space,5.1466,NAN,,NAN,2.1,3.9,,0,96,96,96,1,97,Charlie,Rej,Participant_Images/66c95504723c57c900715764/66c95504723c57c900715764_Images/66c95504723c57c900715764_Image_24.jpeg,liked,3.562416326,,,,,,,,,,,,,,,,,,,,,,
,,66c95504723c57c900715764,6685aa9113c938e83b4f1ea0,67111c134b5a15bf22ed0d38,2024-10-17_10h16.29.908,WTP_SM_Choice,2022.2.1,Win32,144.9275362,,,,,space,0.6506,NAN,,NAN,2.1,3.9,,0,97,97,97,1,98,Charlie,Rej,Participant_Images/66c95504723c57c900715764/66c95504723c57c900715764_Images/66c95504723c57c900715764_Image_4.jpeg,liked,2.843822497,,,,,,,,,,,,,,,,,,,,,,
,,66c95504723c57c900715764,6685aa9113c938e83b4f1ea0,67111c134b5a15bf22ed0d38,2024-10-17_10h16.29.908,WTP_SM_Choice,2022.2.1,Win32,144.9275362,,,,,space,0.6099,NAN,,NAN,2.1,3.9,,0,98,98,98,1,99,Charlie,Rej,Participant_Images/66c95504723c57c900715764/66c95504723c57c900715764_Images/66c95504723c57c900715764_Image_11.jpeg,did not like,3.546495948,,,,,,,,,,,,,,,,,,,,,,
,,66c95504723c57c900715764,6685aa9113c938e83b4f1ea0,67111c134b5a15bf22ed0d38,2024-10-17_10h16.29.908,WTP_SM_Choice,2022.2.1,Win32,144.9275362,,,,,,,,,,,,,,,,,,96,,,,,,space,1.749,space,0.7021,0.01,1,1.1012,0,0,0,0,1,Make coffee,Go to the library with my sister,0.01,0.05,3.3,1,,,,
,,66c95504723c57c900715764,6685aa9113c938e83b4f1ea0,67111c134b5a15bf22ed0d38,2024-10-17_10h16.29.908,WTP_SM_Choice,2022.2.1,Win32,144.9275362,,,,,,,,,,,,,,,,,,97,,,,,,,,,,0.02,1,1.3924,0,1,1,1,1,Play video games,Go to afternoon tea with family,0.02,0.05,1.1,1,,,,
,,66c95504723c57c900715764,6685aa9113c938e83b4f1ea0,67111c134b5a15bf22ed0d38,2024-10-17_10h16.29.908,WTP_SM_Choice,2022.2.1,Win32,144.9275362,,,,,,,,,,,,,,,,,,98,,,,,,,,,,0.03,1,1.4268,0,2,2,2,1,Go to the library with my sister,Watch league of legends esports,0.03,0.05,1.1,0,,,,
,,66c95504723c57c900715764,6685aa9113c938e83b4f1ea0,67111c134b5a15bf22ed0d38,2024-10-17_10h16.29.908,WTP_SM_Choice,2022.2.1,Win32,144.9275362,,,,,,,,,,,,,,,,,,99,,,,,,,,,,0.04,1,2.8345,0,3,3,3,1,Try a new restaurant with family,Watch league of legends esports,0.04,0.05,3.3,0,,,,
,,66c95504723c57c900715764,6685aa9113c938e83b4f1ea0,67111c134b5a15bf22ed0d38,2024-10-17_10h16.29.908,WTP_SM_Choice,2022.2.1,Win32,144.9275362,,,,,,,,,,,,,,,,,,100,,,,,,,,,,0.05,2,4.8611,0,4,4,4,1,Go on a walk with my family,Take a bubble bath,0.05,0.05,4.4,0,,,,
,,66c95504723c57c900715764,6685aa9113c938e83b4f1ea0,67111c134b5a15bf22ed0d38,2024-10-17_10h16.29.908,WTP_SM_Choice,2022.2.1,Win32,144.9275362,,,,,,,2,,3,2.25,3.75,,0,99,99,99,1,100,Charlie,Rej,Participant_Images/66c95504723c57c900715764/66c95504723c57c900715764_Images/66c95504723c57c900715764_Image_5.jpeg,did not like,1.672012706,,,,,,,,,,,,,,,,,,,space,0.9044,,
,,66c95504723c57c900715764,6685aa9113c938e83b4f1ea0,67111c134b5a15bf22ed0d38,2024-10-17_10h16.29.908,WTP_SM_Choice,2022.2.1,Win32,144.9275362,,,,,,,,,,,,,,,,,,,,,,,,,,,,,,,,,,,,,,,,,,,,space,2.9722
