endwelcomescreen_keys.keys,endwelcomescreen_keys.rt,participant,date,expName,psychopyVersion,OS,frameRate,endinstructionscreen_keys.keys,endinstructionscreen_keys.rt,endpartnermatch_keys.keys,endpartnermatch_keys.rt,sharenextphoto_key.keys,sharenextphoto_key.rt,salience_rating,key_resp.keys,stress_level,subtract_bonus,TOTAL_TASK_BONUS,stresslevel_keypress.keys,entiretaskloop.thisRepN,entiretaskloop.thisTrialN,entiretaskloop.thisN,entiretaskloop.thisIndex,entiretaskloop.ran,TrialNumber,Partner,Condition,Photos,Feedback,FeedbackWait,WTP_ins_keys1.keys,WTP_ins_keys1.rt,WTP_ins_keys2.keys,WTP_ins_keys2.rt,responses.keys,WTPTaskLoop.thisRepN,WTPTaskLoop.thisTrialN,WTPTaskLoop.thisN,WTPTaskLoop.thisIndex,WTPTaskLoop.ran,right,left,leftmoney,rightmoney,WTP_ITI,social_left,decision_price,responses.rt,Resume_keys.keys,Resume_keys.rt,end_screen_keys.keys,end_screen_keys.rt
space,6.577,66ce33a40ac4984adc2e18c8,2024-10-01_13h13.32.894,WTP_SM_Choice,2022.2.1,Win32,59.52380952,,,,,,,,,,,,,,,,,,,,,,,,,,,,,,,,,,,,,,,,,,,,,
,,66ce33a40ac4984adc2e18c8,2024-10-01_13h13.32.894,WTP_SM_Choice,2022.2.1,Win32,59.52380952,space,19.8846,,,,,,,,,,,,,,,,,,,,,,,,,,,,,,,,,,,,,,,,,,,
,,66ce33a40ac4984adc2e18c8,2024-10-01_13h13.32.894,WTP_SM_Choice,2022.2.1,Win32,59.52380952,,,space,2.5075,space,1.6695,NAN,,NAN,0,6,,0,0,0,0,1,1,Alex,Rej,Participant_Images/66ce33a40ac4984adc2e18c8/66ce33a40ac4984adc2e18c8_Images/66ce33a40ac4984adc2e18c8_Image_24.jpeg,liked,3.613205605,,,,,,,,,,,,,,,,,,,,,,
,,66ce33a40ac4984adc2e18c8,2024-10-01_13h13.32.894,WTP_SM_Choice,2022.2.1,Win32,59.52380952,,,,,space,2.008,NAN,,NAN,0,6,,0,1,1,1,1,2,Alex,Rej,Participant_Images/66ce33a40ac4984adc2e18c8/66ce33a40ac4984adc2e18c8_Images/66ce33a40ac4984adc2e18c8_Image_17.jpeg,liked,4.988446431,,,,,,,,,,,,,,,,,,,,,,
,,66ce33a40ac4984adc2e18c8,2024-10-01_13h13.32.894,WTP_SM_Choice,2022.2.1,Win32,59.52380952,,,,,space,1.123,NAN,,NAN,0,6,,0,2,2,2,1,3,Alex,Rej,Participant_Images/66ce33a40ac4984adc2e18c8/66ce33a40ac4984adc2e18c8_Images/66ce33a40ac4984adc2e18c8_Image_16.jpeg,liked,3.470791822,,,,,,,,,,,,,,,,,,,,,,
,,66ce33a40ac4984adc2e18c8,2024-10-01_13h13.32.894,WTP_SM_Choice,2022.2.1,Win32,59.52380952,,,,,space,0.9822,NAN,,NAN,0,6,,0,3,3,3,1,4,Alex,Rej,Participant_Images/66ce33a40ac4984adc2e18c8/66ce33a40ac4984adc2e18c8_Images/66ce33a40ac4984adc2e18c8_Image_7.jpeg,did not like,3.820572462,,,,,,,,,,,,,,,,,,,,,,
,,66ce33a40ac4984adc2e18c8,2024-10-01_13h13.32.894,WTP_SM_Choice,2022.2.1,Win32,59.52380952,,,,,,,,,,,,,,,,,,1,,,,,,space,1.2055,space,1.2884,,0,0,0,0,1,Cook and try out new recipes with my roommate on lazy sunday afternoons,Watch documentary films in the dim light of my living room on a sunday evening,0.01,0.01,4.4,0,,,,,,
,,66ce33a40ac4984adc2e18c8,2024-10-01_13h13.32.894,WTP_SM_Choice,2022.2.1,Win32,59.52380952,,,,,,,,,,,,,,,,,,2,,,,,,,,,,,0,1,1,1,1,Explore old vinyl records in my basement on a rainy weekend,Go to the farmers market and picking out fresh produce with my partner on saturday mornings,0.02,0.01,8.8,1,,,,,,
,,66ce33a40ac4984adc2e18c8,2024-10-01_13h13.32.894,WTP_SM_Choice,2022.2.1,Win32,59.52380952,,,,,,,,,,,,,,,,,,3,,,,,,,,,,1,0,2,2,2,1,Write poetry at a local cafe with a cup of chai tea beside me,Play tennis with my neighbor at the community courts during late spring,0.03,0.01,3.3,1,0.03,4.7159,,,,
,,66ce33a40ac4984adc2e18c8,2024-10-01_13h13.32.894,WTP_SM_Choice,2022.2.1,Win32,59.52380952,,,,,,,,,,,,,,,,,,4,,,,,,,,,,1,0,3,3,3,1,Plan and executing diy craft projects with my close friends on rainy saturday afternoons,Explore old vinyl records in my basement on a rainy weekend,0.04,0.01,1.1,0,0.04,3.7328,,,,
,,66ce33a40ac4984adc2e18c8,2024-10-01_13h13.32.894,WTP_SM_Choice,2022.2.1,Win32,59.52380952,,,,,,,,,,,,,,,,,,5,,,,,,,,,,1,0,4,4,4,1,Write poetry at a local cafe with a cup of chai tea beside me,Going hiking with my family on crisp autumn mornings followed by a cozy campfire with smores,0.05,0.01,1.1,1,0.05,0.5985,,,,
,,66ce33a40ac4984adc2e18c8,2024-10-01_13h13.32.894,WTP_SM_Choice,2022.2.1,Win32,59.52380952,,,,,,,NAN,,NAN,0.12,5.88,,0,4,4,4,1,5,Alex,Rej,Participant_Images/66ce33a40ac4984adc2e18c8/66ce33a40ac4984adc2e18c8_Images/66ce33a40ac4984adc2e18c8_Image_18.jpeg,liked,2.455989137,,,,,,,,,,,,,,,,,,,,,,
,,66ce33a40ac4984adc2e18c8,2024-10-01_13h13.32.894,WTP_SM_Choice,2022.2.1,Win32,59.52380952,,,,,space,1.5193,NAN,,NAN,0.12,5.88,,0,5,5,5,1,6,Alex,Rej,Participant_Images/66ce33a40ac4984adc2e18c8/66ce33a40ac4984adc2e18c8_Images/66ce33a40ac4984adc2e18c8_Image_6.jpeg,did not like,3.79605092,,,,,,,,,,,,,,,,,,,,,,
,,66ce33a40ac4984adc2e18c8,2024-10-01_13h13.32.894,WTP_SM_Choice,2022.2.1,Win32,59.52380952,,,,,space,1.883,NAN,,NAN,0.12,5.88,,0,6,6,6,1,7,Alex,Rej,Participant_Images/66ce33a40ac4984adc2e18c8/66ce33a40ac4984adc2e18c8_Images/66ce33a40ac4984adc2e18c8_Image_2.jpeg,did not like,3.562416326,,,,,,,,,,,,,,,,,,,,,,
,,66ce33a40ac4984adc2e18c8,2024-10-01_13h13.32.894,WTP_SM_Choice,2022.2.1,Win32,59.52380952,,,,,space,0.9202,NAN,,NAN,0.12,5.88,,0,7,7,7,1,8,Alex,Rej,Participant_Images/66ce33a40ac4984adc2e18c8/66ce33a40ac4984adc2e18c8_Images/66ce33a40ac4984adc2e18c8_Image_21.jpeg,did not like,2.843822497,,,,,,,,,,,,,,,,,,,,,,
,,66ce33a40ac4984adc2e18c8,2024-10-01_13h13.32.894,WTP_SM_Choice,2022.2.1,Win32,59.52380952,,,,,space,1.1718,NAN,,NAN,0.12,5.88,,0,8,8,8,1,9,Alex,Rej,Participant_Images/66ce33a40ac4984adc2e18c8/66ce33a40ac4984adc2e18c8_Images/66ce33a40ac4984adc2e18c8_Image_10.jpeg,did not like,3.546495948,,,,,,,,,,,,,,,,,,,,,,
,,66ce33a40ac4984adc2e18c8,2024-10-01_13h13.32.894,WTP_SM_Choice,2022.2.1,Win32,59.52380952,,,,,,,,,,,,,,,,,,6,,,,,,space,6.6669,space,1.4403,1,0,0,0,0,1,Write poetry at a local cafe with a cup of chai tea beside me,Go to the movies with my siblings on a rainy weekend,0.01,0.02,3.3,1,0.01,3.5074,,,,
,,66ce33a40ac4984adc2e18c8,2024-10-01_13h13.32.894,WTP_SM_Choice,2022.2.1,Win32,59.52380952,,,,,,,,,,,,,,,,,,7,,,,,,,,,,2,0,1,1,1,1,Go to the movies with my siblings on a rainy weekend,Watch documentary films in the dim light of my living room on a sunday evening,0.02,0.02,1.1,0,0.02,3.3334,,,,
,,66ce33a40ac4984adc2e18c8,2024-10-01_13h13.32.894,WTP_SM_Choice,2022.2.1,Win32,59.52380952,,,,,,,,,,,,,,,,,,8,,,,,,,,,,2,0,2,2,2,1,Host game nights with friends on friday evenings featuring board games and homemade snacks,Craft handmade candles in my studio with scented essential oils filling the air,0.03,0.02,1.1,0,0.02,3.1167,,,,
,,66ce33a40ac4984adc2e18c8,2024-10-01_13h13.32.894,WTP_SM_Choice,2022.2.1,Win32,59.52380952,,,,,,,,,,,,,,,,,,9,,,,,,,,,,2,0,3,3,3,1,Bake artisan bread in my kitchen with soft jazz playing in the background,Take weekend road trips with my best friend nexploring small towns and unique eateriesd,0.04,0.02,4.4,1,0.02,5.8473,,,,
,,66ce33a40ac4984adc2e18c8,2024-10-01_13h13.32.894,WTP_SM_Choice,2022.2.1,Win32,59.52380952,,,,,,,,,,,,,,,,,,10,,,,,,,,,,2,0,4,4,4,1,Visit art museums with my sister on sunny weekends discussing our favorite pieces over coffee,Explore old vinyl records in my basement on a rainy weekend,0.05,0.02,1.1,0,0.02,1.9,,,,
,,66ce33a40ac4984adc2e18c8,2024-10-01_13h13.32.894,WTP_SM_Choice,2022.2.1,Win32,59.52380952,,,,,,,NAN,,NAN,0.21,5.79,,0,9,9,9,1,10,Alex,Rej,Participant_Images/66ce33a40ac4984adc2e18c8/66ce33a40ac4984adc2e18c8_Images/66ce33a40ac4984adc2e18c8_Image_11.jpeg,did not like,1.672012706,,,,,,,,,,,,,,,,,,,,,,
,,66ce33a40ac4984adc2e18c8,2024-10-01_13h13.32.894,WTP_SM_Choice,2022.2.1,Win32,59.52380952,,,,,space,1.7718,NAN,,NAN,0.21,5.79,,0,10,10,10,1,11,Alex,Rej,Participant_Images/66ce33a40ac4984adc2e18c8/66ce33a40ac4984adc2e18c8_Images/66ce33a40ac4984adc2e18c8_Image_13.jpeg,liked,4.942172136,,,,,,,,,,,,,,,,,,,,,,
,,66ce33a40ac4984adc2e18c8,2024-10-01_13h13.32.894,WTP_SM_Choice,2022.2.1,Win32,59.52380952,,,,,space,1.5863,NAN,,NAN,0.21,5.79,,0,11,11,11,1,12,Alex,Rej,Participant_Images/66ce33a40ac4984adc2e18c8/66ce33a40ac4984adc2e18c8_Images/66ce33a40ac4984adc2e18c8_Image_14.jpeg,did not like,2.50187214,,,,,,,,,,,,,,,,,,,,,,
,,66ce33a40ac4984adc2e18c8,2024-10-01_13h13.32.894,WTP_SM_Choice,2022.2.1,Win32,59.52380952,,,,,space,0.7001,NAN,,NAN,0.21,5.79,,0,12,12,12,1,13,Alex,Rej,Participant_Images/66ce33a40ac4984adc2e18c8/66ce33a40ac4984adc2e18c8_Images/66ce33a40ac4984adc2e18c8_Image_15.jpeg,did not like,2.071164779,,,,,,,,,,,,,,,,,,,,,,
,,66ce33a40ac4984adc2e18c8,2024-10-01_13h13.32.894,WTP_SM_Choice,2022.2.1,Win32,59.52380952,,,,,space,1.8852,NAN,,NAN,0.21,5.79,,0,13,13,13,1,14,Alex,Rej,Participant_Images/66ce33a40ac4984adc2e18c8/66ce33a40ac4984adc2e18c8_Images/66ce33a40ac4984adc2e18c8_Image_19.jpeg,did not like,5.336503566,,,,,,,,,,,,,,,,,,,,,,
,,66ce33a40ac4984adc2e18c8,2024-10-01_13h13.32.894,WTP_SM_Choice,2022.2.1,Win32,59.52380952,,,,,,,,,,,,,,,,,,11,,,,,,space,6.6347,space,1.8006,2,0,0,0,0,1, Play tennis with my neighbor at the community courts during late spring,Craft handmade candles in my studio with scented essential oils filling the air,0.01,0.03,3.3,0,0.03,3.5657,,,,
,,66ce33a40ac4984adc2e18c8,2024-10-01_13h13.32.894,WTP_SM_Choice,2022.2.1,Win32,59.52380952,,,,,,,,,,,,,,,,,,12,,,,,,,,,,1,0,1,1,1,1,Craft handmade candles in my studio with scented essential oils filling the air,Cook and try out new recipes with my roommate on lazy sunday afternoons,0.02,0.03,4.4,1,0.02,1.0508,,,,
,,66ce33a40ac4984adc2e18c8,2024-10-01_13h13.32.894,WTP_SM_Choice,2022.2.1,Win32,59.52380952,,,,,,,,,,,,,,,,,,13,,,,,,,,,,1,0,2,2,2,1,Bake artisan bread in my kitchen with soft jazz playing in the background,Plan and executing diy craft projects with my close friends on rainy saturday afternoons,0.03,0.03,1.1,1,0.03,1.8862,,,,
,,66ce33a40ac4984adc2e18c8,2024-10-01_13h13.32.894,WTP_SM_Choice,2022.2.1,Win32,59.52380952,,,,,,,,,,,,,,,,,,14,,,,,,,,,,1,0,3,3,3,1,Journal about personal reflections at a quiet coffee shop with minimal foot traffic,Cook and try out new recipes with my roommate on lazy sunday afternoons,0.04,0.03,3.3,1,0.04,2.5847,,,,
,,66ce33a40ac4984adc2e18c8,2024-10-01_13h13.32.894,WTP_SM_Choice,2022.2.1,Win32,59.52380952,,,,,,,,,,,,,,,,,,15,,,,,,,,,,2,0,4,4,4,1,Go to the movies with my siblings on a rainy weekend,Journal about personal reflections at a quiet coffee shop with minimal foot traffic,0.05,0.03,4.4,0,0.03,2.0344,,,,
,,66ce33a40ac4984adc2e18c8,2024-10-01_13h13.32.894,WTP_SM_Choice,2022.2.1,Win32,59.52380952,,,,,,,NAN,,NAN,0.36,5.64,,0,14,14,14,1,15,Alex,Rej,Participant_Images/66ce33a40ac4984adc2e18c8/66ce33a40ac4984adc2e18c8_Images/66ce33a40ac4984adc2e18c8_Image_20.jpeg,did not like,2.642157193,,,,,,,,,,,,,,,,,,,,,,
,,66ce33a40ac4984adc2e18c8,2024-10-01_13h13.32.894,WTP_SM_Choice,2022.2.1,Win32,59.52380952,,,,,space,2.7205,NAN,,NAN,0.36,5.64,,0,15,15,15,1,16,Alex,Rej,Participant_Images/66ce33a40ac4984adc2e18c8/66ce33a40ac4984adc2e18c8_Images/66ce33a40ac4984adc2e18c8_Image_1.jpeg,did not like,4.456234322,,,,,,,,,,,,,,,,,,,,,,
,,66ce33a40ac4984adc2e18c8,2024-10-01_13h13.32.894,WTP_SM_Choice,2022.2.1,Win32,59.52380952,,,,,space,0.7691,NAN,,NAN,0.36,5.64,,0,16,16,16,1,17,Alex,Rej,Participant_Images/66ce33a40ac4984adc2e18c8/66ce33a40ac4984adc2e18c8_Images/66ce33a40ac4984adc2e18c8_Image_12.jpeg,did not like,4.438512181,,,,,,,,,,,,,,,,,,,,,,
,,66ce33a40ac4984adc2e18c8,2024-10-01_13h13.32.894,WTP_SM_Choice,2022.2.1,Win32,59.52380952,,,,,space,2.2711,NAN,,NAN,0.36,5.64,,0,17,17,17,1,18,Alex,Rej,Participant_Images/66ce33a40ac4984adc2e18c8/66ce33a40ac4984adc2e18c8_Images/66ce33a40ac4984adc2e18c8_Image_9.jpeg,did not like,2.682944783,,,,,,,,,,,,,,,,,,,,,,
,,66ce33a40ac4984adc2e18c8,2024-10-01_13h13.32.894,WTP_SM_Choice,2022.2.1,Win32,59.52380952,,,,,space,1.0339,NAN,,NAN,0.36,5.64,,0,18,18,18,1,19,Alex,Rej,Participant_Images/66ce33a40ac4984adc2e18c8/66ce33a40ac4984adc2e18c8_Images/66ce33a40ac4984adc2e18c8_Image_8.jpeg,did not like,4.51984296,,,,,,,,,,,,,,,,,,,,,,
,,66ce33a40ac4984adc2e18c8,2024-10-01_13h13.32.894,WTP_SM_Choice,2022.2.1,Win32,59.52380952,,,,,,,,,,,,,,,,,,16,,,,,,space,9.35,space,0.7425,1,0,0,0,0,1,Do meditation on my balcony at sunrise,Go to the farmers market and picking out fresh produce with my partner on saturday mornings,0.01,0.04,1.1,1,0.01,1.317,,,,
,,66ce33a40ac4984adc2e18c8,2024-10-01_13h13.32.894,WTP_SM_Choice,2022.2.1,Win32,59.52380952,,,,,,,,,,,,,,,,,,17,,,,,,,,,,1,0,1,1,1,1, Play tennis with my neighbor at the community courts during late spring,Listen to classical music while organizing and cleaning my bookshelf,0.02,0.04,8.8,0,0.02,1.0134,,,,
,,66ce33a40ac4984adc2e18c8,2024-10-01_13h13.32.894,WTP_SM_Choice,2022.2.1,Win32,59.52380952,,,,,,,,,,,,,,,,,,18,,,,,,,,,,1,0,2,2,2,1,Write poetry at a local cafe with a cup of chai tea beside me,Take weekend road trips with my best friend nexploring small towns and unique eateriesd,0.03,0.04,3.3,1,0.03,1.8408,,,,
,,66ce33a40ac4984adc2e18c8,2024-10-01_13h13.32.894,WTP_SM_Choice,2022.2.1,Win32,59.52380952,,,,,,,,,,,,,,,,,,19,,,,,,,,,,1,0,3,3,3,1,Read science fiction novels in a cozy armchair by the window on a quiet afternoon,Host game nights with friends on friday evenings featuring board games and homemade snacks,0.04,0.04,3.3,1,0.04,3.1638,,,,
,,66ce33a40ac4984adc2e18c8,2024-10-01_13h13.32.894,WTP_SM_Choice,2022.2.1,Win32,59.52380952,,,,,,,,,,,,,,,,,,20,,,,,,,,,,2,0,4,4,4,1,Write poetry at a local cafe with a cup of chai tea beside me,Go to the farmers market and picking out fresh produce with my partner on saturday mornings,0.05,0.04,1.1,1,0.04,4.3622,,,,
,,66ce33a40ac4984adc2e18c8,2024-10-01_13h13.32.894,WTP_SM_Choice,2022.2.1,Win32,59.52380952,,,,,,,NAN,,NAN,0.5,5.5,,0,19,19,19,1,20,Alex,Rej,Participant_Images/66ce33a40ac4984adc2e18c8/66ce33a40ac4984adc2e18c8_Images/66ce33a40ac4984adc2e18c8_Image_3.jpeg,did not like,3.195382774,,,,,,,,,,,,,,,,,,,,,,
,,66ce33a40ac4984adc2e18c8,2024-10-01_13h13.32.894,WTP_SM_Choice,2022.2.1,Win32,59.52380952,,,,,space,7.1463,NAN,,NAN,0.5,5.5,,0,20,20,20,1,21,Alex,Rej,Participant_Images/66ce33a40ac4984adc2e18c8/66ce33a40ac4984adc2e18c8_Images/66ce33a40ac4984adc2e18c8_Image_25.jpeg,did not like,1.779333479,,,,,,,,,,,,,,,,,,,,,,
,,66ce33a40ac4984adc2e18c8,2024-10-01_13h13.32.894,WTP_SM_Choice,2022.2.1,Win32,59.52380952,,,,,space,2.0756,NAN,,NAN,0.5,5.5,,0,21,21,21,1,22,Alex,Rej,Participant_Images/66ce33a40ac4984adc2e18c8/66ce33a40ac4984adc2e18c8_Images/66ce33a40ac4984adc2e18c8_Image_23.jpeg,did not like,4.312468682,,,,,,,,,,,,,,,,,,,,,,
,,66ce33a40ac4984adc2e18c8,2024-10-01_13h13.32.894,WTP_SM_Choice,2022.2.1,Win32,59.52380952,,,,,space,1.2169,NAN,,NAN,0.5,5.5,,0,22,22,22,1,23,Alex,Rej,Participant_Images/66ce33a40ac4984adc2e18c8/66ce33a40ac4984adc2e18c8_Images/66ce33a40ac4984adc2e18c8_Image_5.jpeg,liked,4.940433059,,,,,,,,,,,,,,,,,,,,,,
,,66ce33a40ac4984adc2e18c8,2024-10-01_13h13.32.894,WTP_SM_Choice,2022.2.1,Win32,59.52380952,,,,,space,0.4852,NAN,,NAN,0.5,5.5,,0,23,23,23,1,24,Alex,Rej,Participant_Images/66ce33a40ac4984adc2e18c8/66ce33a40ac4984adc2e18c8_Images/66ce33a40ac4984adc2e18c8_Image_22.jpeg,did not like,2.7105123,,,,,,,,,,,,,,,,,,,,,,
,,66ce33a40ac4984adc2e18c8,2024-10-01_13h13.32.894,WTP_SM_Choice,2022.2.1,Win32,59.52380952,,,,,,,,,,,,,,,,,,21,,,,,,space,1.3538,space,1.7152,1,0,0,0,0,1,Watch documentary films in the dim light of my living room on a sunday evening,Participate in trivia nights with my coworkers at a local pub on wednesday evenings,0.01,0.05,8.8,1,0.01,1.2343,,,,
,,66ce33a40ac4984adc2e18c8,2024-10-01_13h13.32.894,WTP_SM_Choice,2022.2.1,Win32,59.52380952,,,,,,,,,,,,,,,,,,22,,,,,,,,,,1,0,1,1,1,1,Going hiking with my family on crisp autumn mornings followed by a cozy campfire with smores,Sketch urban landscapes at a secluded spot in the park during the early morning,0.02,0.05,4.4,0,0.02,1.852,,,,
,,66ce33a40ac4984adc2e18c8,2024-10-01_13h13.32.894,WTP_SM_Choice,2022.2.1,Win32,59.52380952,,,,,,,,,,,,,,,,,,23,,,,,,,,,,1,0,2,2,2,1,Take weekend road trips with my best friend nexploring small towns and unique eateriesd,Watch documentary films in the dim light of my living room on a sunday evening,0.03,0.05,1.1,0,0.03,1.2987,,,,
,,66ce33a40ac4984adc2e18c8,2024-10-01_13h13.32.894,WTP_SM_Choice,2022.2.1,Win32,59.52380952,,,,,,,,,,,,,,,,,,24,,,,,,,,,,1,0,3,3,3,1,Watch documentary films in the dim light of my living room on a sunday evening,Host game nights with friends on friday evenings featuring board games and homemade snacks,0.04,0.05,4.4,1,0.04,1.1676,,,,
,,66ce33a40ac4984adc2e18c8,2024-10-01_13h13.32.894,WTP_SM_Choice,2022.2.1,Win32,59.52380952,,,,,,,,,,,,,,,,,,25,,,,,,,,,,1,0,4,4,4,1,Participate in trivia nights with my coworkers at a local pub on wednesday evenings,Listen to classical music while organizing and cleaning my bookshelf,0.05,0.05,3.3,0,0.05,1.9061,,,,
,,66ce33a40ac4984adc2e18c8,2024-10-01_13h13.32.894,WTP_SM_Choice,2022.2.1,Win32,59.52380952,,,,,,,3,,5,0.65,5.35,,0,24,24,24,1,25,Alex,Rej,Participant_Images/66ce33a40ac4984adc2e18c8/66ce33a40ac4984adc2e18c8_Images/66ce33a40ac4984adc2e18c8_Image_4.jpeg,liked,3.602308302,,,,,,,,,,,,,,,,,,,space,1.0535,,
,,66ce33a40ac4984adc2e18c8,2024-10-01_13h13.32.894,WTP_SM_Choice,2022.2.1,Win32,59.52380952,,,space,5.7674,space,1.6004,NAN,,NAN,0.65,5.35,,0,25,25,25,1,26,Charlie,Acc,Participant_Images/66ce33a40ac4984adc2e18c8/66ce33a40ac4984adc2e18c8_Images/66ce33a40ac4984adc2e18c8_Image_6.jpeg,liked,4.106391878,,,,,,,,,,,,,,,,,,,,,,
,,66ce33a40ac4984adc2e18c8,2024-10-01_13h13.32.894,WTP_SM_Choice,2022.2.1,Win32,59.52380952,,,,,space,0.7935,NAN,,NAN,0.65,5.35,,0,26,26,26,1,27,Charlie,Acc,Participant_Images/66ce33a40ac4984adc2e18c8/66ce33a40ac4984adc2e18c8_Images/66ce33a40ac4984adc2e18c8_Image_1.jpeg,did not like,3.799433026,,,,,,,,,,,,,,,,,,,,,,
,,66ce33a40ac4984adc2e18c8,2024-10-01_13h13.32.894,WTP_SM_Choice,2022.2.1,Win32,59.52380952,,,,,space,0.8588,NAN,,NAN,0.65,5.35,,0,27,27,27,1,28,Charlie,Acc,Participant_Images/66ce33a40ac4984adc2e18c8/66ce33a40ac4984adc2e18c8_Images/66ce33a40ac4984adc2e18c8_Image_9.jpeg,liked,5.246980764,,,,,,,,,,,,,,,,,,,,,,
,,66ce33a40ac4984adc2e18c8,2024-10-01_13h13.32.894,WTP_SM_Choice,2022.2.1,Win32,59.52380952,,,,,space,3.3359,NAN,,NAN,0.65,5.35,,0,28,28,28,1,29,Charlie,Acc,Participant_Images/66ce33a40ac4984adc2e18c8/66ce33a40ac4984adc2e18c8_Images/66ce33a40ac4984adc2e18c8_Image_10.jpeg,liked,3.30081769,,,,,,,,,,,,,,,,,,,,,,
,,66ce33a40ac4984adc2e18c8,2024-10-01_13h13.32.894,WTP_SM_Choice,2022.2.1,Win32,59.52380952,,,,,,,,,,,,,,,,,,26,,,,,,space,1.2648,space,2.018,1,0,0,0,0,1,Do meditation on my balcony at sunrise,Visit art museums with my sister on sunny weekends discussing our favorite pieces over coffee,0.01,0.01,4.4,1,0.01,0.8911,,,,
,,66ce33a40ac4984adc2e18c8,2024-10-01_13h13.32.894,WTP_SM_Choice,2022.2.1,Win32,59.52380952,,,,,,,,,,,,,,,,,,27,,,,,,,,,,2,0,1,1,1,1,Read science fiction novels in a cozy armchair by the window on a quiet afternoon,Go to the farmers market and picking out fresh produce with my partner on saturday mornings,0.02,0.01,3.3,1,0.01,1.3811,,,,
,,66ce33a40ac4984adc2e18c8,2024-10-01_13h13.32.894,WTP_SM_Choice,2022.2.1,Win32,59.52380952,,,,,,,,,,,,,,,,,,28,,,,,,,,,,2,0,2,2,2,1,Explore old vinyl records in my basement on a rainy weekend,Host game nights with friends on friday evenings featuring board games and homemade snacks,0.03,0.01,3.3,1,0.01,1.4745,,,,
,,66ce33a40ac4984adc2e18c8,2024-10-01_13h13.32.894,WTP_SM_Choice,2022.2.1,Win32,59.52380952,,,,,,,,,,,,,,,,,,29,,,,,,,,,,2,0,3,3,3,1,Participate in trivia nights with my coworkers at a local pub on wednesday evenings,Explore old vinyl records in my basement on a rainy weekend,0.04,0.01,4.4,0,0.01,2.1038,,,,
,,66ce33a40ac4984adc2e18c8,2024-10-01_13h13.32.894,WTP_SM_Choice,2022.2.1,Win32,59.52380952,,,,,,,,,,,,,,,,,,30,,,,,,,,,,2,0,4,4,4,1,Explore old vinyl records in my basement on a rainy weekend,Take weekend road trips with my best friend nexploring small towns and unique eateriesd,0.05,0.01,8.8,1,0.01,1.7141,,,,
,,66ce33a40ac4984adc2e18c8,2024-10-01_13h13.32.894,WTP_SM_Choice,2022.2.1,Win32,59.52380952,,,,,,,NAN,,NAN,0.7,5.3,,0,29,29,29,1,30,Charlie,Acc,Participant_Images/66ce33a40ac4984adc2e18c8/66ce33a40ac4984adc2e18c8_Images/66ce33a40ac4984adc2e18c8_Image_5.jpeg,liked,1.661473164,,,,,,,,,,,,,,,,,,,,,,
,,66ce33a40ac4984adc2e18c8,2024-10-01_13h13.32.894,WTP_SM_Choice,2022.2.1,Win32,59.52380952,,,,,space,1.2471,NAN,,NAN,0.7,5.3,,0,30,30,30,1,31,Charlie,Acc,Participant_Images/66ce33a40ac4984adc2e18c8/66ce33a40ac4984adc2e18c8_Images/66ce33a40ac4984adc2e18c8_Image_11.jpeg,did not like,3.613205605,,,,,,,,,,,,,,,,,,,,,,
,,66ce33a40ac4984adc2e18c8,2024-10-01_13h13.32.894,WTP_SM_Choice,2022.2.1,Win32,59.52380952,,,,,space,0.5837,NAN,,NAN,0.7,5.3,,0,31,31,31,1,32,Charlie,Acc,Participant_Images/66ce33a40ac4984adc2e18c8/66ce33a40ac4984adc2e18c8_Images/66ce33a40ac4984adc2e18c8_Image_15.jpeg,did not like,4.988446431,,,,,,,,,,,,,,,,,,,,,,
,,66ce33a40ac4984adc2e18c8,2024-10-01_13h13.32.894,WTP_SM_Choice,2022.2.1,Win32,59.52380952,,,,,space,0.8537,NAN,,NAN,0.7,5.3,,0,32,32,32,1,33,Charlie,Acc,Participant_Images/66ce33a40ac4984adc2e18c8/66ce33a40ac4984adc2e18c8_Images/66ce33a40ac4984adc2e18c8_Image_4.jpeg,liked,3.470791822,,,,,,,,,,,,,,,,,,,,,,
,,66ce33a40ac4984adc2e18c8,2024-10-01_13h13.32.894,WTP_SM_Choice,2022.2.1,Win32,59.52380952,,,,,space,0.7154,NAN,,NAN,0.7,5.3,,0,33,33,33,1,34,Charlie,Acc,Participant_Images/66ce33a40ac4984adc2e18c8/66ce33a40ac4984adc2e18c8_Images/66ce33a40ac4984adc2e18c8_Image_7.jpeg,liked,3.820572462,,,,,,,,,,,,,,,,,,,,,,
,,66ce33a40ac4984adc2e18c8,2024-10-01_13h13.32.894,WTP_SM_Choice,2022.2.1,Win32,59.52380952,,,,,,,,,,,,,,,,,,31,,,,,,space,0.6635,space,0.6798,1,0,0,0,0,1,Bake artisan bread in my kitchen with soft jazz playing in the background,Going hiking with my family on crisp autumn mornings followed by a cozy campfire with smores,0.01,0.02,8.8,1,0.01,1.2602,,,,
,,66ce33a40ac4984adc2e18c8,2024-10-01_13h13.32.894,WTP_SM_Choice,2022.2.1,Win32,59.52380952,,,,,,,,,,,,,,,,,,32,,,,,,,,,,2,0,1,1,1,1,Journal about personal reflections at a quiet coffee shop with minimal foot traffic,Visit art museums with my sister on sunny weekends discussing our favorite pieces over coffee,0.02,0.02,1.1,1,0.02,0.4201,,,,
,,66ce33a40ac4984adc2e18c8,2024-10-01_13h13.32.894,WTP_SM_Choice,2022.2.1,Win32,59.52380952,,,,,,,,,,,,,,,,,,33,,,,,,,,,,2,0,2,2,2,1,Visit art museums with my sister on sunny weekends discussing our favorite pieces over coffee,Listen to classical music while organizing and cleaning my bookshelf,0.03,0.02,4.4,0,0.02,1.8329,,,,
,,66ce33a40ac4984adc2e18c8,2024-10-01_13h13.32.894,WTP_SM_Choice,2022.2.1,Win32,59.52380952,,,,,,,,,,,,,,,,,,34,,,,,,,,,,2,0,3,3,3,1,Go to the movies with my siblings on a rainy weekend,Read science fiction novels in a cozy armchair by the window on a quiet afternoon,0.04,0.02,3.3,0,0.02,1.8599,,,,
,,66ce33a40ac4984adc2e18c8,2024-10-01_13h13.32.894,WTP_SM_Choice,2022.2.1,Win32,59.52380952,,,,,,,,,,,,,,,,,,35,,,,,,,,,,2,0,4,4,4,1,Listen to classical music while organizing and cleaning my bookshelf,Go to the movies with my siblings on a rainy weekend,0.05,0.02,1.1,1,0.02,2.3442,,,,
,,66ce33a40ac4984adc2e18c8,2024-10-01_13h13.32.894,WTP_SM_Choice,2022.2.1,Win32,59.52380952,,,,,,,NAN,,NAN,0.79,5.21,,0,34,34,34,1,35,Charlie,Acc,Participant_Images/66ce33a40ac4984adc2e18c8/66ce33a40ac4984adc2e18c8_Images/66ce33a40ac4984adc2e18c8_Image_20.jpeg,did not like,2.455989137,,,,,,,,,,,,,,,,,,,,,,
,,66ce33a40ac4984adc2e18c8,2024-10-01_13h13.32.894,WTP_SM_Choice,2022.2.1,Win32,59.52380952,,,,,space,1.3913,NAN,,NAN,0.79,5.21,,0,35,35,35,1,36,Charlie,Acc,Participant_Images/66ce33a40ac4984adc2e18c8/66ce33a40ac4984adc2e18c8_Images/66ce33a40ac4984adc2e18c8_Image_19.jpeg,liked,3.79605092,,,,,,,,,,,,,,,,,,,,,,
,,66ce33a40ac4984adc2e18c8,2024-10-01_13h13.32.894,WTP_SM_Choice,2022.2.1,Win32,59.52380952,,,,,space,1.2622,NAN,,NAN,0.79,5.21,,0,36,36,36,1,37,Charlie,Acc,Participant_Images/66ce33a40ac4984adc2e18c8/66ce33a40ac4984adc2e18c8_Images/66ce33a40ac4984adc2e18c8_Image_18.jpeg,liked,3.562416326,,,,,,,,,,,,,,,,,,,,,,
,,66ce33a40ac4984adc2e18c8,2024-10-01_13h13.32.894,WTP_SM_Choice,2022.2.1,Win32,59.52380952,,,,,space,1.7348,NAN,,NAN,0.79,5.21,,0,37,37,37,1,38,Charlie,Acc,Participant_Images/66ce33a40ac4984adc2e18c8/66ce33a40ac4984adc2e18c8_Images/66ce33a40ac4984adc2e18c8_Image_13.jpeg,liked,2.843822497,,,,,,,,,,,,,,,,,,,,,,
,,66ce33a40ac4984adc2e18c8,2024-10-01_13h13.32.894,WTP_SM_Choice,2022.2.1,Win32,59.52380952,,,,,space,1.3274,NAN,,NAN,0.79,5.21,,0,38,38,38,1,39,Charlie,Acc,Participant_Images/66ce33a40ac4984adc2e18c8/66ce33a40ac4984adc2e18c8_Images/66ce33a40ac4984adc2e18c8_Image_2.jpeg,did not like,3.546495948,,,,,,,,,,,,,,,,,,,,,,
,,66ce33a40ac4984adc2e18c8,2024-10-01_13h13.32.894,WTP_SM_Choice,2022.2.1,Win32,59.52380952,,,,,,,,,,,,,,,,,,36,,,,,,space,0.9672,space,0.7101,1,0,0,0,0,1,Go to the movies with my siblings on a rainy weekend,Sketch urban landscapes at a secluded spot in the park during the early morning,0.01,0.03,3.3,0,0.01,1.0503,,,,
,,66ce33a40ac4984adc2e18c8,2024-10-01_13h13.32.894,WTP_SM_Choice,2022.2.1,Win32,59.52380952,,,,,,,,,,,,,,,,,,37,,,,,,,,,,1,0,1,1,1,1,Going hiking with my family on crisp autumn mornings followed by a cozy campfire with smores,Watch documentary films in the dim light of my living room on a sunday evening,0.02,0.03,1.1,0,0.02,1.3551,,,,
,,66ce33a40ac4984adc2e18c8,2024-10-01_13h13.32.894,WTP_SM_Choice,2022.2.1,Win32,59.52380952,,,,,,,,,,,,,,,,,,38,,,,,,,,,,1,0,2,2,2,1,Host game nights with friends on friday evenings featuring board games and homemade snacks,Bake artisan bread in my kitchen with soft jazz playing in the background,0.03,0.03,1.1,0,0.03,1.3606,,,,
,,66ce33a40ac4984adc2e18c8,2024-10-01_13h13.32.894,WTP_SM_Choice,2022.2.1,Win32,59.52380952,,,,,,,,,,,,,,,,,,39,,,,,,,,,,2,0,3,3,3,1,Write poetry at a local cafe with a cup of chai tea beside me,Participate in trivia nights with my coworkers at a local pub on wednesday evenings,0.04,0.03,3.3,1,0.03,2.4829,,,,
,,66ce33a40ac4984adc2e18c8,2024-10-01_13h13.32.894,WTP_SM_Choice,2022.2.1,Win32,59.52380952,,,,,,,,,,,,,,,,,,40,,,,,,,,,,2,0,4,4,4,1,Cook and try out new recipes with my roommate on lazy sunday afternoons,Do meditation on my balcony at sunrise,0.05,0.03,4.4,0,0.03,3.3213,,,,
,,66ce33a40ac4984adc2e18c8,2024-10-01_13h13.32.894,WTP_SM_Choice,2022.2.1,Win32,59.52380952,,,,,,,NAN,,NAN,0.91,5.09,,0,39,39,39,1,40,Charlie,Acc,Participant_Images/66ce33a40ac4984adc2e18c8/66ce33a40ac4984adc2e18c8_Images/66ce33a40ac4984adc2e18c8_Image_3.jpeg,did not like,1.672012706,,,,,,,,,,,,,,,,,,,,,,
,,66ce33a40ac4984adc2e18c8,2024-10-01_13h13.32.894,WTP_SM_Choice,2022.2.1,Win32,59.52380952,,,,,space,4.1321,NAN,,NAN,0.91,5.09,,0,40,40,40,1,41,Charlie,Acc,Participant_Images/66ce33a40ac4984adc2e18c8/66ce33a40ac4984adc2e18c8_Images/66ce33a40ac4984adc2e18c8_Image_23.jpeg,liked,4.942172136,,,,,,,,,,,,,,,,,,,,,,
,,66ce33a40ac4984adc2e18c8,2024-10-01_13h13.32.894,WTP_SM_Choice,2022.2.1,Win32,59.52380952,,,,,space,0.9721,NAN,,NAN,0.91,5.09,,0,41,41,41,1,42,Charlie,Acc,Participant_Images/66ce33a40ac4984adc2e18c8/66ce33a40ac4984adc2e18c8_Images/66ce33a40ac4984adc2e18c8_Image_16.jpeg,liked,2.50187214,,,,,,,,,,,,,,,,,,,,,,
,,66ce33a40ac4984adc2e18c8,2024-10-01_13h13.32.894,WTP_SM_Choice,2022.2.1,Win32,59.52380952,,,,,space,0.5492,NAN,,NAN,0.91,5.09,,0,42,42,42,1,43,Charlie,Acc,Participant_Images/66ce33a40ac4984adc2e18c8/66ce33a40ac4984adc2e18c8_Images/66ce33a40ac4984adc2e18c8_Image_22.jpeg,did not like,2.071164779,,,,,,,,,,,,,,,,,,,,,,
,,66ce33a40ac4984adc2e18c8,2024-10-01_13h13.32.894,WTP_SM_Choice,2022.2.1,Win32,59.52380952,,,,,space,0.8045,NAN,,NAN,0.91,5.09,,0,43,43,43,1,44,Charlie,Acc,Participant_Images/66ce33a40ac4984adc2e18c8/66ce33a40ac4984adc2e18c8_Images/66ce33a40ac4984adc2e18c8_Image_14.jpeg,liked,5.336503566,,,,,,,,,,,,,,,,,,,,,,
,,66ce33a40ac4984adc2e18c8,2024-10-01_13h13.32.894,WTP_SM_Choice,2022.2.1,Win32,59.52380952,,,,,,,,,,,,,,,,,,41,,,,,,space,0.7145,space,0.5527,1,0,0,0,0,1,Journal about personal reflections at a quiet coffee shop with minimal foot traffic, Play tennis with my neighbor at the community courts during late spring,0.01,0.04,1.1,1,0.01,0.7996,,,,
,,66ce33a40ac4984adc2e18c8,2024-10-01_13h13.32.894,WTP_SM_Choice,2022.2.1,Win32,59.52380952,,,,,,,,,,,,,,,,,,42,,,,,,,,,,2,0,1,1,1,1,Go to the movies with my siblings on a rainy weekend,Explore old vinyl records in my basement on a rainy weekend,0.02,0.04,3.3,0,0.04,0.2098,,,,
,,66ce33a40ac4984adc2e18c8,2024-10-01_13h13.32.894,WTP_SM_Choice,2022.2.1,Win32,59.52380952,,,,,,,,,,,,,,,,,,43,,,,,,,,,,1,0,2,2,2,1,Do meditation on my balcony at sunrise,Going hiking with my family on crisp autumn mornings followed by a cozy campfire with smores,0.03,0.04,1.1,1,0.03,2.0659,,,,
,,66ce33a40ac4984adc2e18c8,2024-10-01_13h13.32.894,WTP_SM_Choice,2022.2.1,Win32,59.52380952,,,,,,,,,,,,,,,,,,44,,,,,,,,,,1,0,3,3,3,1,Listen to classical music while organizing and cleaning my bookshelf,Take weekend road trips with my best friend nexploring small towns and unique eateriesd,0.04,0.04,1.1,1,0.04,3.9589,,,,
,,66ce33a40ac4984adc2e18c8,2024-10-01_13h13.32.894,WTP_SM_Choice,2022.2.1,Win32,59.52380952,,,,,,,,,,,,,,,,,,45,,,,,,,,,,2,0,4,4,4,1,Do meditation on my balcony at sunrise,Host game nights with friends on friday evenings featuring board games and homemade snacks,0.05,0.04,4.4,1,0.04,2.4113,,,,
,,66ce33a40ac4984adc2e18c8,2024-10-01_13h13.32.894,WTP_SM_Choice,2022.2.1,Win32,59.52380952,,,,,,,NAN,,NAN,1.07,4.93,,0,44,44,44,1,45,Charlie,Acc,Participant_Images/66ce33a40ac4984adc2e18c8/66ce33a40ac4984adc2e18c8_Images/66ce33a40ac4984adc2e18c8_Image_17.jpeg,liked,2.642157193,,,,,,,,,,,,,,,,,,,,,,
,,66ce33a40ac4984adc2e18c8,2024-10-01_13h13.32.894,WTP_SM_Choice,2022.2.1,Win32,59.52380952,,,,,space,1.9,NAN,,NAN,1.07,4.93,,0,45,45,45,1,46,Charlie,Acc,Participant_Images/66ce33a40ac4984adc2e18c8/66ce33a40ac4984adc2e18c8_Images/66ce33a40ac4984adc2e18c8_Image_12.jpeg,liked,4.456234322,,,,,,,,,,,,,,,,,,,,,,
,,66ce33a40ac4984adc2e18c8,2024-10-01_13h13.32.894,WTP_SM_Choice,2022.2.1,Win32,59.52380952,,,,,space,2.1283,NAN,,NAN,1.07,4.93,,0,46,46,46,1,47,Charlie,Acc,Participant_Images/66ce33a40ac4984adc2e18c8/66ce33a40ac4984adc2e18c8_Images/66ce33a40ac4984adc2e18c8_Image_21.jpeg,liked,4.438512181,,,,,,,,,,,,,,,,,,,,,,
,,66ce33a40ac4984adc2e18c8,2024-10-01_13h13.32.894,WTP_SM_Choice,2022.2.1,Win32,59.52380952,,,,,space,1.3626,NAN,,NAN,1.07,4.93,,0,47,47,47,1,48,Charlie,Acc,Participant_Images/66ce33a40ac4984adc2e18c8/66ce33a40ac4984adc2e18c8_Images/66ce33a40ac4984adc2e18c8_Image_24.jpeg,liked,2.682944783,,,,,,,,,,,,,,,,,,,,,,
,,66ce33a40ac4984adc2e18c8,2024-10-01_13h13.32.894,WTP_SM_Choice,2022.2.1,Win32,59.52380952,,,,,space,2.9136,NAN,,NAN,1.07,4.93,,0,48,48,48,1,49,Charlie,Acc,Participant_Images/66ce33a40ac4984adc2e18c8/66ce33a40ac4984adc2e18c8_Images/66ce33a40ac4984adc2e18c8_Image_25.jpeg,liked,4.51984296,,,,,,,,,,,,,,,,,,,,,,
,,66ce33a40ac4984adc2e18c8,2024-10-01_13h13.32.894,WTP_SM_Choice,2022.2.1,Win32,59.52380952,,,,,,,,,,,,,,,,,,46,,,,,,space,1.07,space,0.6833,1,0,0,0,0,1,Bake artisan bread in my kitchen with soft jazz playing in the background,Participate in trivia nights with my coworkers at a local pub on wednesday evenings,0.01,0.05,8.8,1,0.01,0.8904,,,,
,,66ce33a40ac4984adc2e18c8,2024-10-01_13h13.32.894,WTP_SM_Choice,2022.2.1,Win32,59.52380952,,,,,,,,,,,,,,,,,,47,,,,,,,,,,1,0,1,1,1,1,Cook and try out new recipes with my roommate on lazy sunday afternoons,Listen to classical music while organizing and cleaning my bookshelf,0.02,0.05,1.1,0,0.02,2.6901,,,,
,,66ce33a40ac4984adc2e18c8,2024-10-01_13h13.32.894,WTP_SM_Choice,2022.2.1,Win32,59.52380952,,,,,,,,,,,,,,,,,,48,,,,,,,,,,1,0,2,2,2,1,Listen to classical music while organizing and cleaning my bookshelf,Go to the farmers market and picking out fresh produce with my partner on saturday mornings,0.03,0.05,4.4,1,0.03,1.3042,,,,
,,66ce33a40ac4984adc2e18c8,2024-10-01_13h13.32.894,WTP_SM_Choice,2022.2.1,Win32,59.52380952,,,,,,,,,,,,,,,,,,49,,,,,,,,,,1,0,3,3,3,1,Go to the movies with my siblings on a rainy weekend,Bake artisan bread in my kitchen with soft jazz playing in the background,0.04,0.05,3.3,0,0.04,1.1432,,,,
,,66ce33a40ac4984adc2e18c8,2024-10-01_13h13.32.894,WTP_SM_Choice,2022.2.1,Win32,59.52380952,,,,,,,,,,,,,,,,,,50,,,,,,,,,,1,0,4,4,4,1,Explore old vinyl records in my basement on a rainy weekend,Going hiking with my family on crisp autumn mornings followed by a cozy campfire with smores,0.05,0.05,1.1,1,0.05,2.4449,,,,
,,66ce33a40ac4984adc2e18c8,2024-10-01_13h13.32.894,WTP_SM_Choice,2022.2.1,Win32,59.52380952,,,,,,,4,,4,1.22,4.78,,0,49,49,49,1,50,Charlie,Acc,Participant_Images/66ce33a40ac4984adc2e18c8/66ce33a40ac4984adc2e18c8_Images/66ce33a40ac4984adc2e18c8_Image_8.jpeg,liked,3.195382774,,,,,,,,,,,,,,,,,,,space,0.7989,,
,,66ce33a40ac4984adc2e18c8,2024-10-01_13h13.32.894,WTP_SM_Choice,2022.2.1,Win32,59.52380952,,,space,1.5405,space,1.3494,NAN,,NAN,1.22,4.78,,0,50,50,50,1,51,Riley,Rej,Participant_Images/66ce33a40ac4984adc2e18c8/66ce33a40ac4984adc2e18c8_Images/66ce33a40ac4984adc2e18c8_Image_15.jpeg,liked,1.779333479,,,,,,,,,,,,,,,,,,,,,,
,,66ce33a40ac4984adc2e18c8,2024-10-01_13h13.32.894,WTP_SM_Choice,2022.2.1,Win32,59.52380952,,,,,space,0.7079,NAN,,NAN,1.22,4.78,,0,51,51,51,1,52,Riley,Rej,Participant_Images/66ce33a40ac4984adc2e18c8/66ce33a40ac4984adc2e18c8_Images/66ce33a40ac4984adc2e18c8_Image_3.jpeg,did not like,4.312468682,,,,,,,,,,,,,,,,,,,,,,
,,66ce33a40ac4984adc2e18c8,2024-10-01_13h13.32.894,WTP_SM_Choice,2022.2.1,Win32,59.52380952,,,,,space,1.1605,NAN,,NAN,1.22,4.78,,0,52,52,52,1,53,Riley,Rej,Participant_Images/66ce33a40ac4984adc2e18c8/66ce33a40ac4984adc2e18c8_Images/66ce33a40ac4984adc2e18c8_Image_17.jpeg,did not like,4.940433059,,,,,,,,,,,,,,,,,,,,,,
,,66ce33a40ac4984adc2e18c8,2024-10-01_13h13.32.894,WTP_SM_Choice,2022.2.1,Win32,59.52380952,,,,,space,1.0203,NAN,,NAN,1.22,4.78,,0,53,53,53,1,54,Riley,Rej,Participant_Images/66ce33a40ac4984adc2e18c8/66ce33a40ac4984adc2e18c8_Images/66ce33a40ac4984adc2e18c8_Image_20.jpeg,did not like,2.7105123,,,,,,,,,,,,,,,,,,,,,,
,,66ce33a40ac4984adc2e18c8,2024-10-01_13h13.32.894,WTP_SM_Choice,2022.2.1,Win32,59.52380952,,,,,,,,,,,,,,,,,,51,,,,,,space,27.7079,space,2.3875,1,0,0,0,0,1,Bake artisan bread in my kitchen with soft jazz playing in the background,Visit art museums with my sister on sunny weekends discussing our favorite pieces over coffee,0.01,0.01,1.1,1,0.01,1.7588,,,,
,,66ce33a40ac4984adc2e18c8,2024-10-01_13h13.32.894,WTP_SM_Choice,2022.2.1,Win32,59.52380952,,,,,,,,,,,,,,,,,,52,,,,,,,,,,2,0,1,1,1,1,Read science fiction novels in a cozy armchair by the window on a quiet afternoon,Participate in trivia nights with my coworkers at a local pub on wednesday evenings,0.02,0.01,3.3,1,0.01,1.4903,,,,
,,66ce33a40ac4984adc2e18c8,2024-10-01_13h13.32.894,WTP_SM_Choice,2022.2.1,Win32,59.52380952,,,,,,,,,,,,,,,,,,53,,,,,,,,,,2,0,2,2,2,1,Go to the movies with my siblings on a rainy weekend,Do meditation on my balcony at sunrise,0.03,0.01,1.1,0,0.01,1.2942,,,,
,,66ce33a40ac4984adc2e18c8,2024-10-01_13h13.32.894,WTP_SM_Choice,2022.2.1,Win32,59.52380952,,,,,,,,,,,,,,,,,,54,,,,,,,,,,2,0,3,3,3,1,Bake artisan bread in my kitchen with soft jazz playing in the background,Cook and try out new recipes with my roommate on lazy sunday afternoons,0.04,0.01,4.4,1,0.01,1.018,,,,
,,66ce33a40ac4984adc2e18c8,2024-10-01_13h13.32.894,WTP_SM_Choice,2022.2.1,Win32,59.52380952,,,,,,,,,,,,,,,,,,55,,,,,,,,,,2,0,4,4,4,1,Sketch urban landscapes at a secluded spot in the park during the early morning,Participate in trivia nights with my coworkers at a local pub on wednesday evenings,0.05,0.01,1.1,1,0.01,1.0369,,,,
,,66ce33a40ac4984adc2e18c8,2024-10-01_13h13.32.894,WTP_SM_Choice,2022.2.1,Win32,59.52380952,,,,,,,NAN,,NAN,1.27,4.73,,0,54,54,54,1,55,Riley,Rej,Participant_Images/66ce33a40ac4984adc2e18c8/66ce33a40ac4984adc2e18c8_Images/66ce33a40ac4984adc2e18c8_Image_4.jpeg,did not like,3.602308302,,,,,,,,,,,,,,,,,,,,,,
,,66ce33a40ac4984adc2e18c8,2024-10-01_13h13.32.894,WTP_SM_Choice,2022.2.1,Win32,59.52380952,,,,,space,2.1458,NAN,,NAN,1.27,4.73,,0,55,55,55,1,56,Riley,Rej,Participant_Images/66ce33a40ac4984adc2e18c8/66ce33a40ac4984adc2e18c8_Images/66ce33a40ac4984adc2e18c8_Image_24.jpeg,did not like,4.106391878,,,,,,,,,,,,,,,,,,,,,,
,,66ce33a40ac4984adc2e18c8,2024-10-01_13h13.32.894,WTP_SM_Choice,2022.2.1,Win32,59.52380952,,,,,space,0.7347,NAN,,NAN,1.27,4.73,,0,56,56,56,1,57,Riley,Rej,Participant_Images/66ce33a40ac4984adc2e18c8/66ce33a40ac4984adc2e18c8_Images/66ce33a40ac4984adc2e18c8_Image_23.jpeg,did not like,3.799433026,,,,,,,,,,,,,,,,,,,,,,
,,66ce33a40ac4984adc2e18c8,2024-10-01_13h13.32.894,WTP_SM_Choice,2022.2.1,Win32,59.52380952,,,,,space,0.6356,NAN,,NAN,1.27,4.73,,0,57,57,57,1,58,Riley,Rej,Participant_Images/66ce33a40ac4984adc2e18c8/66ce33a40ac4984adc2e18c8_Images/66ce33a40ac4984adc2e18c8_Image_2.jpeg,did not like,5.246980764,,,,,,,,,,,,,,,,,,,,,,
,,66ce33a40ac4984adc2e18c8,2024-10-01_13h13.32.894,WTP_SM_Choice,2022.2.1,Win32,59.52380952,,,,,space,0.6835,NAN,,NAN,1.27,4.73,,0,58,58,58,1,59,Riley,Rej,Participant_Images/66ce33a40ac4984adc2e18c8/66ce33a40ac4984adc2e18c8_Images/66ce33a40ac4984adc2e18c8_Image_1.jpeg,did not like,3.30081769,,,,,,,,,,,,,,,,,,,,,,
,,66ce33a40ac4984adc2e18c8,2024-10-01_13h13.32.894,WTP_SM_Choice,2022.2.1,Win32,59.52380952,,,,,,,,,,,,,,,,,,56,,,,,,space,0.6984,space,1.3371,2,0,0,0,0,1,Participate in trivia nights with my coworkers at a local pub on wednesday evenings,Journal about personal reflections at a quiet coffee shop with minimal foot traffic,0.01,0.02,8.8,0,0.02,0.9187,,,,
,,66ce33a40ac4984adc2e18c8,2024-10-01_13h13.32.894,WTP_SM_Choice,2022.2.1,Win32,59.52380952,,,,,,,,,,,,,,,,,,57,,,,,,,,,,1,0,1,1,1,1,Watch documentary films in the dim light of my living room on a sunday evening, Play tennis with my neighbor at the community courts during late spring,0.02,0.02,4.4,1,0.02,1.5649,,,,
,,66ce33a40ac4984adc2e18c8,2024-10-01_13h13.32.894,WTP_SM_Choice,2022.2.1,Win32,59.52380952,,,,,,,,,,,,,,,,,,58,,,,,,,,,,,0,2,2,2,1,Journal about personal reflections at a quiet coffee shop with minimal foot traffic,Go to the farmers market and picking out fresh produce with my partner on saturday mornings,0.03,0.02,4.4,1,,,,,,
,,66ce33a40ac4984adc2e18c8,2024-10-01_13h13.32.894,WTP_SM_Choice,2022.2.1,Win32,59.52380952,,,,,,,,,,,,,,,,,,59,,,,,,,,,,2,0,3,3,3,1,Going hiking with my family on crisp autumn mornings followed by a cozy campfire with smores,Read science fiction novels in a cozy armchair by the window on a quiet afternoon,0.04,0.02,4.4,0,0.02,1.108,,,,
,,66ce33a40ac4984adc2e18c8,2024-10-01_13h13.32.894,WTP_SM_Choice,2022.2.1,Win32,59.52380952,,,,,,,,,,,,,,,,,,60,,,,,,,,,,2,0,4,4,4,1,Host game nights with friends on friday evenings featuring board games and homemade snacks,Journal about personal reflections at a quiet coffee shop with minimal foot traffic,0.05,0.02,1.1,0,0.02,1.5634,,,,
,,66ce33a40ac4984adc2e18c8,2024-10-01_13h13.32.894,WTP_SM_Choice,2022.2.1,Win32,59.52380952,,,,,,,NAN,,NAN,1.35,4.65,,0,59,59,59,1,60,Riley,Rej,Participant_Images/66ce33a40ac4984adc2e18c8/66ce33a40ac4984adc2e18c8_Images/66ce33a40ac4984adc2e18c8_Image_11.jpeg,liked,1.661473164,,,,,,,,,,,,,,,,,,,,,,
,,66ce33a40ac4984adc2e18c8,2024-10-01_13h13.32.894,WTP_SM_Choice,2022.2.1,Win32,59.52380952,,,,,space,1.2005,NAN,,NAN,1.35,4.65,,0,60,60,60,1,61,Riley,Rej,Participant_Images/66ce33a40ac4984adc2e18c8/66ce33a40ac4984adc2e18c8_Images/66ce33a40ac4984adc2e18c8_Image_22.jpeg,did not like,3.613205605,,,,,,,,,,,,,,,,,,,,,,
,,66ce33a40ac4984adc2e18c8,2024-10-01_13h13.32.894,WTP_SM_Choice,2022.2.1,Win32,59.52380952,,,,,space,0.7583,NAN,,NAN,1.35,4.65,,0,61,61,61,1,62,Riley,Rej,Participant_Images/66ce33a40ac4984adc2e18c8/66ce33a40ac4984adc2e18c8_Images/66ce33a40ac4984adc2e18c8_Image_5.jpeg,did not like,4.988446431,,,,,,,,,,,,,,,,,,,,,,
,,66ce33a40ac4984adc2e18c8,2024-10-01_13h13.32.894,WTP_SM_Choice,2022.2.1,Win32,59.52380952,,,,,space,0.5757,NAN,,NAN,1.35,4.65,,0,62,62,62,1,63,Riley,Rej,Participant_Images/66ce33a40ac4984adc2e18c8/66ce33a40ac4984adc2e18c8_Images/66ce33a40ac4984adc2e18c8_Image_9.jpeg,did not like,3.470791822,,,,,,,,,,,,,,,,,,,,,,
,,66ce33a40ac4984adc2e18c8,2024-10-01_13h13.32.894,WTP_SM_Choice,2022.2.1,Win32,59.52380952,,,,,space,3.1599,NAN,,NAN,1.35,4.65,,0,63,63,63,1,64,Riley,Rej,Participant_Images/66ce33a40ac4984adc2e18c8/66ce33a40ac4984adc2e18c8_Images/66ce33a40ac4984adc2e18c8_Image_7.jpeg,did not like,3.820572462,,,,,,,,,,,,,,,,,,,,,,
,,66ce33a40ac4984adc2e18c8,2024-10-01_13h13.32.894,WTP_SM_Choice,2022.2.1,Win32,59.52380952,,,,,,,,,,,,,,,,,,61,,,,,,space,0.5217,space,0.6503,1,0,0,0,0,1, Play tennis with my neighbor at the community courts during late spring,Do meditation on my balcony at sunrise,0.01,0.03,3.3,0,0.01,0.9999,,,,
,,66ce33a40ac4984adc2e18c8,2024-10-01_13h13.32.894,WTP_SM_Choice,2022.2.1,Win32,59.52380952,,,,,,,,,,,,,,,,,,62,,,,,,,,,,1,0,1,1,1,1,Read science fiction novels in a cozy armchair by the window on a quiet afternoon, Play tennis with my neighbor at the community courts during late spring,0.02,0.03,3.3,1,0.02,0.9228,,,,
,,66ce33a40ac4984adc2e18c8,2024-10-01_13h13.32.894,WTP_SM_Choice,2022.2.1,Win32,59.52380952,,,,,,,,,,,,,,,,,,63,,,,,,,,,,1,0,2,2,2,1,Craft handmade candles in my studio with scented essential oils filling the air,Going hiking with my family on crisp autumn mornings followed by a cozy campfire with smores,0.03,0.03,3.3,1,0.03,1.107,,,,
,,66ce33a40ac4984adc2e18c8,2024-10-01_13h13.32.894,WTP_SM_Choice,2022.2.1,Win32,59.52380952,,,,,,,,,,,,,,,,,,64,,,,,,,,,,2,0,3,3,3,1,Write poetry at a local cafe with a cup of chai tea beside me,Host game nights with friends on friday evenings featuring board games and homemade snacks,0.04,0.03,1.1,1,0.03,1.2576,,,,
,,66ce33a40ac4984adc2e18c8,2024-10-01_13h13.32.894,WTP_SM_Choice,2022.2.1,Win32,59.52380952,,,,,,,,,,,,,,,,,,65,,,,,,,,,,2,0,4,4,4,1,Cook and try out new recipes with my roommate on lazy sunday afternoons,Write poetry at a local cafe with a cup of chai tea beside me,0.05,0.03,1.1,0,0.03,1.1062,,,,
,,66ce33a40ac4984adc2e18c8,2024-10-01_13h13.32.894,WTP_SM_Choice,2022.2.1,Win32,59.52380952,,,,,,,NAN,,NAN,1.47,4.53,,0,64,64,64,1,65,Riley,Rej,Participant_Images/66ce33a40ac4984adc2e18c8/66ce33a40ac4984adc2e18c8_Images/66ce33a40ac4984adc2e18c8_Image_13.jpeg,did not like,2.455989137,,,,,,,,,,,,,,,,,,,,,,
,,66ce33a40ac4984adc2e18c8,2024-10-01_13h13.32.894,WTP_SM_Choice,2022.2.1,Win32,59.52380952,,,,,space,7.201,NAN,,NAN,1.47,4.53,,0,65,65,65,1,66,Riley,Rej,Participant_Images/66ce33a40ac4984adc2e18c8/66ce33a40ac4984adc2e18c8_Images/66ce33a40ac4984adc2e18c8_Image_18.jpeg,did not like,3.79605092,,,,,,,,,,,,,,,,,,,,,,
,,66ce33a40ac4984adc2e18c8,2024-10-01_13h13.32.894,WTP_SM_Choice,2022.2.1,Win32,59.52380952,,,,,space,0.7838,NAN,,NAN,1.47,4.53,,0,66,66,66,1,67,Riley,Rej,Participant_Images/66ce33a40ac4984adc2e18c8/66ce33a40ac4984adc2e18c8_Images/66ce33a40ac4984adc2e18c8_Image_8.jpeg,liked,3.562416326,,,,,,,,,,,,,,,,,,,,,,
,,66ce33a40ac4984adc2e18c8,2024-10-01_13h13.32.894,WTP_SM_Choice,2022.2.1,Win32,59.52380952,,,,,space,8.0405,NAN,,NAN,1.47,4.53,,0,67,67,67,1,68,Riley,Rej,Participant_Images/66ce33a40ac4984adc2e18c8/66ce33a40ac4984adc2e18c8_Images/66ce33a40ac4984adc2e18c8_Image_6.jpeg,did not like,2.843822497,,,,,,,,,,,,,,,,,,,,,,
,,66ce33a40ac4984adc2e18c8,2024-10-01_13h13.32.894,WTP_SM_Choice,2022.2.1,Win32,59.52380952,,,,,space,0.9853,NAN,,NAN,1.47,4.53,,0,68,68,68,1,69,Riley,Rej,Participant_Images/66ce33a40ac4984adc2e18c8/66ce33a40ac4984adc2e18c8_Images/66ce33a40ac4984adc2e18c8_Image_12.jpeg,liked,3.546495948,,,,,,,,,,,,,,,,,,,,,,
,,66ce33a40ac4984adc2e18c8,2024-10-01_13h13.32.894,WTP_SM_Choice,2022.2.1,Win32,59.52380952,,,,,,,,,,,,,,,,,,66,,,,,,space,0.9495,space,0.7903,1,0,0,0,0,1,Explore old vinyl records in my basement on a rainy weekend, Play tennis with my neighbor at the community courts during late spring,0.01,0.04,1.1,1,0.01,0.9421,,,,
,,66ce33a40ac4984adc2e18c8,2024-10-01_13h13.32.894,WTP_SM_Choice,2022.2.1,Win32,59.52380952,,,,,,,,,,,,,,,,,,67,,,,,,,,,,1,0,1,1,1,1,Participate in trivia nights with my coworkers at a local pub on wednesday evenings,Craft handmade candles in my studio with scented essential oils filling the air,0.02,0.04,8.8,0,0.02,1.0931,,,,
,,66ce33a40ac4984adc2e18c8,2024-10-01_13h13.32.894,WTP_SM_Choice,2022.2.1,Win32,59.52380952,,,,,,,,,,,,,,,,,,68,,,,,,,,,,1,0,2,2,2,1,Plan and executing diy craft projects with my close friends on rainy saturday afternoons,Read science fiction novels in a cozy armchair by the window on a quiet afternoon,0.03,0.04,4.4,0,0.03,1.1315,,,,
,,66ce33a40ac4984adc2e18c8,2024-10-01_13h13.32.894,WTP_SM_Choice,2022.2.1,Win32,59.52380952,,,,,,,,,,,,,,,,,,69,,,,,,,,,,1,0,3,3,3,1,Read science fiction novels in a cozy armchair by the window on a quiet afternoon,Take weekend road trips with my best friend nexploring small towns and unique eateriesd,0.04,0.04,1.1,1,0.04,1.3844,,,,
,,66ce33a40ac4984adc2e18c8,2024-10-01_13h13.32.894,WTP_SM_Choice,2022.2.1,Win32,59.52380952,,,,,,,,,,,,,,,,,,70,,,,,,,,,,2,0,4,4,4,1,Plan and executing diy craft projects with my close friends on rainy saturday afternoons,Sketch urban landscapes at a secluded spot in the park during the early morning,0.05,0.04,1.1,0,0.04,1.3897,,,,
,,66ce33a40ac4984adc2e18c8,2024-10-01_13h13.32.894,WTP_SM_Choice,2022.2.1,Win32,59.52380952,,,,,,,NAN,,NAN,1.61,4.39,,0,69,69,69,1,70,Riley,Rej,Participant_Images/66ce33a40ac4984adc2e18c8/66ce33a40ac4984adc2e18c8_Images/66ce33a40ac4984adc2e18c8_Image_21.jpeg,did not like,1.672012706,,,,,,,,,,,,,,,,,,,,,,
,,66ce33a40ac4984adc2e18c8,2024-10-01_13h13.32.894,WTP_SM_Choice,2022.2.1,Win32,59.52380952,,,,,space,1.1211,NAN,,NAN,1.61,4.39,,0,70,70,70,1,71,Riley,Rej,Participant_Images/66ce33a40ac4984adc2e18c8/66ce33a40ac4984adc2e18c8_Images/66ce33a40ac4984adc2e18c8_Image_25.jpeg,did not like,4.942172136,,,,,,,,,,,,,,,,,,,,,,
,,66ce33a40ac4984adc2e18c8,2024-10-01_13h13.32.894,WTP_SM_Choice,2022.2.1,Win32,59.52380952,,,,,space,1.2385,NAN,,NAN,1.61,4.39,,0,71,71,71,1,72,Riley,Rej,Participant_Images/66ce33a40ac4984adc2e18c8/66ce33a40ac4984adc2e18c8_Images/66ce33a40ac4984adc2e18c8_Image_14.jpeg,liked,2.50187214,,,,,,,,,,,,,,,,,,,,,,
,,66ce33a40ac4984adc2e18c8,2024-10-01_13h13.32.894,WTP_SM_Choice,2022.2.1,Win32,59.52380952,,,,,space,1.4207,NAN,,NAN,1.61,4.39,,0,72,72,72,1,73,Riley,Rej,Participant_Images/66ce33a40ac4984adc2e18c8/66ce33a40ac4984adc2e18c8_Images/66ce33a40ac4984adc2e18c8_Image_19.jpeg,did not like,2.071164779,,,,,,,,,,,,,,,,,,,,,,
,,66ce33a40ac4984adc2e18c8,2024-10-01_13h13.32.894,WTP_SM_Choice,2022.2.1,Win32,59.52380952,,,,,space,0.5908,NAN,,NAN,1.61,4.39,,0,73,73,73,1,74,Riley,Rej,Participant_Images/66ce33a40ac4984adc2e18c8/66ce33a40ac4984adc2e18c8_Images/66ce33a40ac4984adc2e18c8_Image_10.jpeg,liked,5.336503566,,,,,,,,,,,,,,,,,,,,,,
,,66ce33a40ac4984adc2e18c8,2024-10-01_13h13.32.894,WTP_SM_Choice,2022.2.1,Win32,59.52380952,,,,,,,,,,,,,,,,,,71,,,,,,space,1.5001,space,0.6498,1,0,0,0,0,1,Visit art museums with my sister on sunny weekends discussing our favorite pieces over coffee,Read science fiction novels in a cozy armchair by the window on a quiet afternoon,0.01,0.05,3.3,0,0.01,0.6013,,,,
,,66ce33a40ac4984adc2e18c8,2024-10-01_13h13.32.894,WTP_SM_Choice,2022.2.1,Win32,59.52380952,,,,,,,,,,,,,,,,,,72,,,,,,,,,,1,0,1,1,1,1,Journal about personal reflections at a quiet coffee shop with minimal foot traffic,Plan and executing diy craft projects with my close friends on rainy saturday afternoons,0.02,0.05,8.8,1,0.02,0.9954,,,,
,,66ce33a40ac4984adc2e18c8,2024-10-01_13h13.32.894,WTP_SM_Choice,2022.2.1,Win32,59.52380952,,,,,,,,,,,,,,,,,,73,,,,,,,,,,1,0,2,2,2,1,Plan and executing diy craft projects with my close friends on rainy saturday afternoons,Craft handmade candles in my studio with scented essential oils filling the air,0.03,0.05,3.3,0,0.03,1.2246,,,,
,,66ce33a40ac4984adc2e18c8,2024-10-01_13h13.32.894,WTP_SM_Choice,2022.2.1,Win32,59.52380952,,,,,,,,,,,,,,,,,,74,,,,,,,,,,1,0,3,3,3,1, Play tennis with my neighbor at the community courts during late spring,Sketch urban landscapes at a secluded spot in the park during the early morning,0.04,0.05,4.4,0,0.04,1.231,,,,
,,66ce33a40ac4984adc2e18c8,2024-10-01_13h13.32.894,WTP_SM_Choice,2022.2.1,Win32,59.52380952,,,,,,,,,,,,,,,,,,75,,,,,,,,,,1,0,4,4,4,1,Sketch urban landscapes at a secluded spot in the park during the early morning,Host game nights with friends on friday evenings featuring board games and homemade snacks,0.05,0.05,3.3,1,0.05,1.5382,,,,
,,66ce33a40ac4984adc2e18c8,2024-10-01_13h13.32.894,WTP_SM_Choice,2022.2.1,Win32,59.52380952,,,,,,,4,,6,1.76,4.24,,0,74,74,74,1,75,Riley,Rej,Participant_Images/66ce33a40ac4984adc2e18c8/66ce33a40ac4984adc2e18c8_Images/66ce33a40ac4984adc2e18c8_Image_16.jpeg,liked,2.642157193,,,,,,,,,,,,,,,,,,,space,1.2558,,
,,66ce33a40ac4984adc2e18c8,2024-10-01_13h13.32.894,WTP_SM_Choice,2022.2.1,Win32,59.52380952,,,space,1.9152,space,0.8297,NAN,,NAN,1.76,4.24,,0,75,75,75,1,76,Sam,Acc,Participant_Images/66ce33a40ac4984adc2e18c8/66ce33a40ac4984adc2e18c8_Images/66ce33a40ac4984adc2e18c8_Image_8.jpeg,liked,4.456234322,,,,,,,,,,,,,,,,,,,,,,
,,66ce33a40ac4984adc2e18c8,2024-10-01_13h13.32.894,WTP_SM_Choice,2022.2.1,Win32,59.52380952,,,,,space,0.62,NAN,,NAN,1.76,4.24,,0,76,76,76,1,77,Sam,Acc,Participant_Images/66ce33a40ac4984adc2e18c8/66ce33a40ac4984adc2e18c8_Images/66ce33a40ac4984adc2e18c8_Image_3.jpeg,liked,4.438512181,,,,,,,,,,,,,,,,,,,,,,
,,66ce33a40ac4984adc2e18c8,2024-10-01_13h13.32.894,WTP_SM_Choice,2022.2.1,Win32,59.52380952,,,,,space,0.618,NAN,,NAN,1.76,4.24,,0,77,77,77,1,78,Sam,Acc,Participant_Images/66ce33a40ac4984adc2e18c8/66ce33a40ac4984adc2e18c8_Images/66ce33a40ac4984adc2e18c8_Image_12.jpeg,liked,2.682944783,,,,,,,,,,,,,,,,,,,,,,
,,66ce33a40ac4984adc2e18c8,2024-10-01_13h13.32.894,WTP_SM_Choice,2022.2.1,Win32,59.52380952,,,,,space,0.5676,NAN,,NAN,1.76,4.24,,0,78,78,78,1,79,Sam,Acc,Participant_Images/66ce33a40ac4984adc2e18c8/66ce33a40ac4984adc2e18c8_Images/66ce33a40ac4984adc2e18c8_Image_14.jpeg,liked,4.51984296,,,,,,,,,,,,,,,,,,,,,,
,,66ce33a40ac4984adc2e18c8,2024-10-01_13h13.32.894,WTP_SM_Choice,2022.2.1,Win32,59.52380952,,,,,,,,,,,,,,,,,,76,,,,,,space,2.2866,space,0.8129,1,0,0,0,0,1,Watch documentary films in the dim light of my living room on a sunday evening,Go to the farmers market and picking out fresh produce with my partner on saturday mornings,0.01,0.01,1.1,1,0.01,0.8693,,,,
,,66ce33a40ac4984adc2e18c8,2024-10-01_13h13.32.894,WTP_SM_Choice,2022.2.1,Win32,59.52380952,,,,,,,,,,,,,,,,,,77,,,,,,,,,,1,0,1,1,1,1,Listen to classical music while organizing and cleaning my bookshelf,Going hiking with my family on crisp autumn mornings followed by a cozy campfire with smores,0.02,0.01,8.8,1,0.02,0.6935,,,,
,,66ce33a40ac4984adc2e18c8,2024-10-01_13h13.32.894,WTP_SM_Choice,2022.2.1,Win32,59.52380952,,,,,,,,,,,,,,,,,,78,,,,,,,,,,2,0,2,2,2,1,Sketch urban landscapes at a secluded spot in the park during the early morning,Take weekend road trips with my best friend nexploring small towns and unique eateriesd,0.03,0.01,1.1,1,0.01,1.4107,,,,
,,66ce33a40ac4984adc2e18c8,2024-10-01_13h13.32.894,WTP_SM_Choice,2022.2.1,Win32,59.52380952,,,,,,,,,,,,,,,,,,79,,,,,,,,,,2,0,3,3,3,1,Visit art museums with my sister on sunny weekends discussing our favorite pieces over coffee,Write poetry at a local cafe with a cup of chai tea beside me,0.04,0.01,1.1,0,0.01,0.9599,,,,
,,66ce33a40ac4984adc2e18c8,2024-10-01_13h13.32.894,WTP_SM_Choice,2022.2.1,Win32,59.52380952,,,,,,,,,,,,,,,,,,80,,,,,,,,,,2,0,4,4,4,1,Sketch urban landscapes at a secluded spot in the park during the early morning,Cook and try out new recipes with my roommate on lazy sunday afternoons,0.05,0.01,4.4,1,0.01,0.7961,,,,
,,66ce33a40ac4984adc2e18c8,2024-10-01_13h13.32.894,WTP_SM_Choice,2022.2.1,Win32,59.52380952,,,,,,,NAN,,NAN,1.82,4.18,,0,79,79,79,1,80,Sam,Acc,Participant_Images/66ce33a40ac4984adc2e18c8/66ce33a40ac4984adc2e18c8_Images/66ce33a40ac4984adc2e18c8_Image_25.jpeg,did not like,3.195382774,,,,,,,,,,,,,,,,,,,,,,
,,66ce33a40ac4984adc2e18c8,2024-10-01_13h13.32.894,WTP_SM_Choice,2022.2.1,Win32,59.52380952,,,,,space,0.5362,NAN,,NAN,1.82,4.18,,0,80,80,80,1,81,Sam,Acc,Participant_Images/66ce33a40ac4984adc2e18c8/66ce33a40ac4984adc2e18c8_Images/66ce33a40ac4984adc2e18c8_Image_1.jpeg,liked,1.779333479,,,,,,,,,,,,,,,,,,,,,,
,,66ce33a40ac4984adc2e18c8,2024-10-01_13h13.32.894,WTP_SM_Choice,2022.2.1,Win32,59.52380952,,,,,space,1.4033,NAN,,NAN,1.82,4.18,,0,81,81,81,1,82,Sam,Acc,Participant_Images/66ce33a40ac4984adc2e18c8/66ce33a40ac4984adc2e18c8_Images/66ce33a40ac4984adc2e18c8_Image_19.jpeg,liked,4.312468682,,,,,,,,,,,,,,,,,,,,,,
,,66ce33a40ac4984adc2e18c8,2024-10-01_13h13.32.894,WTP_SM_Choice,2022.2.1,Win32,59.52380952,,,,,space,0.6011,NAN,,NAN,1.82,4.18,,0,82,82,82,1,83,Sam,Acc,Participant_Images/66ce33a40ac4984adc2e18c8/66ce33a40ac4984adc2e18c8_Images/66ce33a40ac4984adc2e18c8_Image_18.jpeg,liked,4.940433059,,,,,,,,,,,,,,,,,,,,,,
,,66ce33a40ac4984adc2e18c8,2024-10-01_13h13.32.894,WTP_SM_Choice,2022.2.1,Win32,59.52380952,,,,,space,1.5745,NAN,,NAN,1.82,4.18,,0,83,83,83,1,84,Sam,Acc,Participant_Images/66ce33a40ac4984adc2e18c8/66ce33a40ac4984adc2e18c8_Images/66ce33a40ac4984adc2e18c8_Image_20.jpeg,liked,2.7105123,,,,,,,,,,,,,,,,,,,,,,
,,66ce33a40ac4984adc2e18c8,2024-10-01_13h13.32.894,WTP_SM_Choice,2022.2.1,Win32,59.52380952,,,,,,,,,,,,,,,,,,81,,,,,,space,0.5677,space,0.7157,1,0,0,0,0,1,Take weekend road trips with my best friend nexploring small towns and unique eateriesd,Do meditation on my balcony at sunrise,0.01,0.02,3.3,0,0.01,0.7381,,,,
,,66ce33a40ac4984adc2e18c8,2024-10-01_13h13.32.894,WTP_SM_Choice,2022.2.1,Win32,59.52380952,,,,,,,,,,,,,,,,,,82,,,,,,,,,,1,0,1,1,1,1,Sketch urban landscapes at a secluded spot in the park during the early morning,Go to the farmers market and picking out fresh produce with my partner on saturday mornings,0.02,0.02,4.4,1,0.02,1.5341,,,,
,,66ce33a40ac4984adc2e18c8,2024-10-01_13h13.32.894,WTP_SM_Choice,2022.2.1,Win32,59.52380952,,,,,,,,,,,,,,,,,,83,,,,,,,,,,2,0,2,2,2,1,Take weekend road trips with my best friend nexploring small towns and unique eateriesd,Journal about personal reflections at a quiet coffee shop with minimal foot traffic,0.03,0.02,1.1,0,0.02,1.4086,,,,
,,66ce33a40ac4984adc2e18c8,2024-10-01_13h13.32.894,WTP_SM_Choice,2022.2.1,Win32,59.52380952,,,,,,,,,,,,,,,,,,84,,,,,,,,,,2,0,3,3,3,1,Participate in trivia nights with my coworkers at a local pub on wednesday evenings,Do meditation on my balcony at sunrise,0.04,0.02,3.3,0,0.02,2.3567,,,,
,,66ce33a40ac4984adc2e18c8,2024-10-01_13h13.32.894,WTP_SM_Choice,2022.2.1,Win32,59.52380952,,,,,,,,,,,,,,,,,,85,,,,,,,,,,2,0,4,4,4,1,Going hiking with my family on crisp autumn mornings followed by a cozy campfire with smores,Journal about personal reflections at a quiet coffee shop with minimal foot traffic,0.05,0.02,3.3,0,0.02,1.1118,,,,
,,66ce33a40ac4984adc2e18c8,2024-10-01_13h13.32.894,WTP_SM_Choice,2022.2.1,Win32,59.52380952,,,,,,,NAN,,NAN,1.91,4.09,,0,84,84,84,1,85,Sam,Acc,Participant_Images/66ce33a40ac4984adc2e18c8/66ce33a40ac4984adc2e18c8_Images/66ce33a40ac4984adc2e18c8_Image_5.jpeg,liked,3.602308302,,,,,,,,,,,,,,,,,,,,,,
,,66ce33a40ac4984adc2e18c8,2024-10-01_13h13.32.894,WTP_SM_Choice,2022.2.1,Win32,59.52380952,,,,,space,0.8733,NAN,,NAN,1.91,4.09,,0,85,85,85,1,86,Sam,Acc,Participant_Images/66ce33a40ac4984adc2e18c8/66ce33a40ac4984adc2e18c8_Images/66ce33a40ac4984adc2e18c8_Image_11.jpeg,liked,4.106391878,,,,,,,,,,,,,,,,,,,,,,
,,66ce33a40ac4984adc2e18c8,2024-10-01_13h13.32.894,WTP_SM_Choice,2022.2.1,Win32,59.52380952,,,,,space,1.244,NAN,,NAN,1.91,4.09,,0,86,86,86,1,87,Sam,Acc,Participant_Images/66ce33a40ac4984adc2e18c8/66ce33a40ac4984adc2e18c8_Images/66ce33a40ac4984adc2e18c8_Image_23.jpeg,liked,3.799433026,,,,,,,,,,,,,,,,,,,,,,
,,66ce33a40ac4984adc2e18c8,2024-10-01_13h13.32.894,WTP_SM_Choice,2022.2.1,Win32,59.52380952,,,,,space,2.8666,NAN,,NAN,1.91,4.09,,0,87,87,87,1,88,Sam,Acc,Participant_Images/66ce33a40ac4984adc2e18c8/66ce33a40ac4984adc2e18c8_Images/66ce33a40ac4984adc2e18c8_Image_9.jpeg,did not like,5.246980764,,,,,,,,,,,,,,,,,,,,,,
,,66ce33a40ac4984adc2e18c8,2024-10-01_13h13.32.894,WTP_SM_Choice,2022.2.1,Win32,59.52380952,,,,,space,0.5639,NAN,,NAN,1.91,4.09,,0,88,88,88,1,89,Sam,Acc,Participant_Images/66ce33a40ac4984adc2e18c8/66ce33a40ac4984adc2e18c8_Images/66ce33a40ac4984adc2e18c8_Image_10.jpeg,did not like,3.30081769,,,,,,,,,,,,,,,,,,,,,,
,,66ce33a40ac4984adc2e18c8,2024-10-01_13h13.32.894,WTP_SM_Choice,2022.2.1,Win32,59.52380952,,,,,,,,,,,,,,,,,,86,,,,,,space,1.9999,space,0.6368,1,0,0,0,0,1,Plan and executing diy craft projects with my close friends on rainy saturday afternoons,Listen to classical music while organizing and cleaning my bookshelf,0.01,0.03,1.1,0,0.01,0.5993,,,,
,,66ce33a40ac4984adc2e18c8,2024-10-01_13h13.32.894,WTP_SM_Choice,2022.2.1,Win32,59.52380952,,,,,,,,,,,,,,,,,,87,,,,,,,,,,1,0,1,1,1,1,Go to the farmers market and picking out fresh produce with my partner on saturday mornings,Craft handmade candles in my studio with scented essential oils filling the air,0.02,0.03,4.4,0,0.02,0.7878,,,,
,,66ce33a40ac4984adc2e18c8,2024-10-01_13h13.32.894,WTP_SM_Choice,2022.2.1,Win32,59.52380952,,,,,,,,,,,,,,,,,,88,,,,,,,,,,1,0,2,2,2,1,Plan and executing diy craft projects with my close friends on rainy saturday afternoons,Watch documentary films in the dim light of my living room on a sunday evening,0.03,0.03,1.1,0,0.03,0.8926,,,,
,,66ce33a40ac4984adc2e18c8,2024-10-01_13h13.32.894,WTP_SM_Choice,2022.2.1,Win32,59.52380952,,,,,,,,,,,,,,,,,,89,,,,,,,,,,2,0,3,3,3,1,Visit art museums with my sister on sunny weekends discussing our favorite pieces over coffee,Craft handmade candles in my studio with scented essential oils filling the air,0.04,0.03,3.3,0,0.03,1.9441,,,,
,,66ce33a40ac4984adc2e18c8,2024-10-01_13h13.32.894,WTP_SM_Choice,2022.2.1,Win32,59.52380952,,,,,,,,,,,,,,,,,,90,,,,,,,,,,2,0,4,4,4,1,Host game nights with friends on friday evenings featuring board games and homemade snacks,Listen to classical music while organizing and cleaning my bookshelf,0.05,0.03,8.8,0,0.03,1.0787,,,,
,,66ce33a40ac4984adc2e18c8,2024-10-01_13h13.32.894,WTP_SM_Choice,2022.2.1,Win32,59.52380952,,,,,,,NAN,,NAN,2.03,3.97,,0,89,89,89,1,90,Sam,Acc,Participant_Images/66ce33a40ac4984adc2e18c8/66ce33a40ac4984adc2e18c8_Images/66ce33a40ac4984adc2e18c8_Image_4.jpeg,liked,1.661473164,,,,,,,,,,,,,,,,,,,,,,
,,66ce33a40ac4984adc2e18c8,2024-10-01_13h13.32.894,WTP_SM_Choice,2022.2.1,Win32,59.52380952,,,,,space,0.8412,NAN,,NAN,2.03,3.97,,0,90,90,90,1,91,Sam,Acc,Participant_Images/66ce33a40ac4984adc2e18c8/66ce33a40ac4984adc2e18c8_Images/66ce33a40ac4984adc2e18c8_Image_6.jpeg,liked,3.613205605,,,,,,,,,,,,,,,,,,,,,,
,,66ce33a40ac4984adc2e18c8,2024-10-01_13h13.32.894,WTP_SM_Choice,2022.2.1,Win32,59.52380952,,,,,space,0.6865,NAN,,NAN,2.03,3.97,,0,91,91,91,1,92,Sam,Acc,Participant_Images/66ce33a40ac4984adc2e18c8/66ce33a40ac4984adc2e18c8_Images/66ce33a40ac4984adc2e18c8_Image_2.jpeg,did not like,4.988446431,,,,,,,,,,,,,,,,,,,,,,
,,66ce33a40ac4984adc2e18c8,2024-10-01_13h13.32.894,WTP_SM_Choice,2022.2.1,Win32,59.52380952,,,,,space,0.6029,NAN,,NAN,2.03,3.97,,0,92,92,92,1,93,Sam,Acc,Participant_Images/66ce33a40ac4984adc2e18c8/66ce33a40ac4984adc2e18c8_Images/66ce33a40ac4984adc2e18c8_Image_16.jpeg,liked,3.470791822,,,,,,,,,,,,,,,,,,,,,,
,,66ce33a40ac4984adc2e18c8,2024-10-01_13h13.32.894,WTP_SM_Choice,2022.2.1,Win32,59.52380952,,,,,space,0.6322,NAN,,NAN,2.03,3.97,,0,93,93,93,1,94,Sam,Acc,Participant_Images/66ce33a40ac4984adc2e18c8/66ce33a40ac4984adc2e18c8_Images/66ce33a40ac4984adc2e18c8_Image_7.jpeg,did not like,3.820572462,,,,,,,,,,,,,,,,,,,,,,
,,66ce33a40ac4984adc2e18c8,2024-10-01_13h13.32.894,WTP_SM_Choice,2022.2.1,Win32,59.52380952,,,,,,,,,,,,,,,,,,91,,,,,,space,0.0092,space,0.6189,1,0,0,0,0,1,Cook and try out new recipes with my roommate on lazy sunday afternoons,Explore old vinyl records in my basement on a rainy weekend,0.01,0.04,3.3,0,0.01,0.7966,,,,
,,66ce33a40ac4984adc2e18c8,2024-10-01_13h13.32.894,WTP_SM_Choice,2022.2.1,Win32,59.52380952,,,,,,,,,,,,,,,,,,92,,,,,,,,,,1,0,1,1,1,1,Visit art museums with my sister on sunny weekends discussing our favorite pieces over coffee,Sketch urban landscapes at a secluded spot in the park during the early morning,0.02,0.04,8.8,0,0.02,1.0049,,,,
,,66ce33a40ac4984adc2e18c8,2024-10-01_13h13.32.894,WTP_SM_Choice,2022.2.1,Win32,59.52380952,,,,,,,,,,,,,,,,,,93,,,,,,,,,,1,0,2,2,2,1,Craft handmade candles in my studio with scented essential oils filling the air,Go to the movies with my siblings on a rainy weekend,0.03,0.04,1.1,1,0.03,3.3058,,,,
,,66ce33a40ac4984adc2e18c8,2024-10-01_13h13.32.894,WTP_SM_Choice,2022.2.1,Win32,59.52380952,,,,,,,,,,,,,,,,,,94,,,,,,,,,,1,0,3,3,3,1, Play tennis with my neighbor at the community courts during late spring,Bake artisan bread in my kitchen with soft jazz playing in the background,0.04,0.04,4.4,0,0.04,2.4031,,,,
,,66ce33a40ac4984adc2e18c8,2024-10-01_13h13.32.894,WTP_SM_Choice,2022.2.1,Win32,59.52380952,,,,,,,,,,,,,,,,,,95,,,,,,,,,,2,0,4,4,4,1,Visit art museums with my sister on sunny weekends discussing our favorite pieces over coffee,Watch documentary films in the dim light of my living room on a sunday evening,0.05,0.04,4.4,0,0.04,1.6334,,,,
,,66ce33a40ac4984adc2e18c8,2024-10-01_13h13.32.894,WTP_SM_Choice,2022.2.1,Win32,59.52380952,,,,,,,NAN,,NAN,2.17,3.83,,0,94,94,94,1,95,Sam,Acc,Participant_Images/66ce33a40ac4984adc2e18c8/66ce33a40ac4984adc2e18c8_Images/66ce33a40ac4984adc2e18c8_Image_24.jpeg,did not like,2.455989137,,,,,,,,,,,,,,,,,,,,,,
,,66ce33a40ac4984adc2e18c8,2024-10-01_13h13.32.894,WTP_SM_Choice,2022.2.1,Win32,59.52380952,,,,,space,8.7699,NAN,,NAN,2.17,3.83,,0,95,95,95,1,96,Sam,Acc,Participant_Images/66ce33a40ac4984adc2e18c8/66ce33a40ac4984adc2e18c8_Images/66ce33a40ac4984adc2e18c8_Image_22.jpeg,liked,3.79605092,,,,,,,,,,,,,,,,,,,,,,
,,66ce33a40ac4984adc2e18c8,2024-10-01_13h13.32.894,WTP_SM_Choice,2022.2.1,Win32,59.52380952,,,,,space,0.701,NAN,,NAN,2.17,3.83,,0,96,96,96,1,97,Sam,Acc,Participant_Images/66ce33a40ac4984adc2e18c8/66ce33a40ac4984adc2e18c8_Images/66ce33a40ac4984adc2e18c8_Image_13.jpeg,liked,3.562416326,,,,,,,,,,,,,,,,,,,,,,
,,66ce33a40ac4984adc2e18c8,2024-10-01_13h13.32.894,WTP_SM_Choice,2022.2.1,Win32,59.52380952,,,,,space,0.5722,NAN,,NAN,2.17,3.83,,0,97,97,97,1,98,Sam,Acc,Participant_Images/66ce33a40ac4984adc2e18c8/66ce33a40ac4984adc2e18c8_Images/66ce33a40ac4984adc2e18c8_Image_21.jpeg,did not like,2.843822497,,,,,,,,,,,,,,,,,,,,,,
,,66ce33a40ac4984adc2e18c8,2024-10-01_13h13.32.894,WTP_SM_Choice,2022.2.1,Win32,59.52380952,,,,,space,0.2532,NAN,,NAN,2.17,3.83,,0,98,98,98,1,99,Sam,Acc,Participant_Images/66ce33a40ac4984adc2e18c8/66ce33a40ac4984adc2e18c8_Images/66ce33a40ac4984adc2e18c8_Image_17.jpeg,liked,3.546495948,,,,,,,,,,,,,,,,,,,,,,
,,66ce33a40ac4984adc2e18c8,2024-10-01_13h13.32.894,WTP_SM_Choice,2022.2.1,Win32,59.52380952,,,,,,,,,,,,,,,,,,96,,,,,,space,0.7856,space,0.6191,1,0,0,0,0,1,Craft handmade candles in my studio with scented essential oils filling the air,Take weekend road trips with my best friend nexploring small towns and unique eateriesd,0.01,0.05,3.3,1,0.01,0.4734,,,,
,,66ce33a40ac4984adc2e18c8,2024-10-01_13h13.32.894,WTP_SM_Choice,2022.2.1,Win32,59.52380952,,,,,,,,,,,,,,,,,,97,,,,,,,,,,1,0,1,1,1,1,Do meditation on my balcony at sunrise,Plan and executing diy craft projects with my close friends on rainy saturday afternoons,0.02,0.05,1.1,1,0.02,0.8395,,,,
,,66ce33a40ac4984adc2e18c8,2024-10-01_13h13.32.894,WTP_SM_Choice,2022.2.1,Win32,59.52380952,,,,,,,,,,,,,,,,,,98,,,,,,,,,,1,0,2,2,2,1,Plan and executing diy craft projects with my close friends on rainy saturday afternoons,Write poetry at a local cafe with a cup of chai tea beside me,0.03,0.05,1.1,0,0.03,0.9807,,,,
,,66ce33a40ac4984adc2e18c8,2024-10-01_13h13.32.894,WTP_SM_Choice,2022.2.1,Win32,59.52380952,,,,,,,,,,,,,,,,,,99,,,,,,,,,,1,0,3,3,3,1,Go to the farmers market and picking out fresh produce with my partner on saturday mornings,Bake artisan bread in my kitchen with soft jazz playing in the background,0.04,0.05,3.3,0,0.04,0.8973,,,,
,,66ce33a40ac4984adc2e18c8,2024-10-01_13h13.32.894,WTP_SM_Choice,2022.2.1,Win32,59.52380952,,,,,,,,,,,,,,,,,,100,,,,,,,,,,2,0,4,4,4,1,Cook and try out new recipes with my roommate on lazy sunday afternoons,Read science fiction novels in a cozy armchair by the window on a quiet afternoon,0.05,0.05,4.4,0,0.05,2.7178,,,,
,,66ce33a40ac4984adc2e18c8,2024-10-01_13h13.32.894,WTP_SM_Choice,2022.2.1,Win32,59.52380952,,,,,,,4,,3,2.32,3.68,,0,99,99,99,1,100,Sam,Acc,Participant_Images/66ce33a40ac4984adc2e18c8/66ce33a40ac4984adc2e18c8_Images/66ce33a40ac4984adc2e18c8_Image_15.jpeg,liked,1.672012706,,,,,,,,,,,,,,,,,,,space,1.2088,,
,,66ce33a40ac4984adc2e18c8,2024-10-01_13h13.32.894,WTP_SM_Choice,2022.2.1,Win32,59.52380952,,,,,,,,,,,,,,,,,,,,,,,,,,,,,,,,,,,,,,,,,,,,space,2.8468
