endwelcomescreen_keys.keys,endwelcomescreen_keys.rt,participant,STUDY_ID,SESSION_ID,date,expName,psychopyVersion,OS,frameRate,endinstructionscreen_keys.keys,endinstructionscreen_keys.rt,endpartnermatch_keys.keys,endpartnermatch_keys.rt,sharenextphoto_key.keys,sharenextphoto_key.rt,salience_rating,key_resp.keys,stress_level,subtract_bonus,TOTAL_TASK_BONUS,stresslevel_keypress.keys,entiretaskloop.thisRepN,entiretaskloop.thisTrialN,entiretaskloop.thisN,entiretaskloop.thisIndex,entiretaskloop.ran,TrialNumber,Partner,Condition,Photos,Feedback,FeedbackWait,WTP_ins_keys1.keys,WTP_ins_keys1.rt,WTP_ins_keys2.keys,WTP_ins_keys2.rt,decision_price,responses.keys,responses.rt,WTPTaskLoop.thisRepN,WTPTaskLoop.thisTrialN,WTPTaskLoop.thisN,WTPTaskLoop.thisIndex,WTPTaskLoop.ran,right,left,leftmoney,rightmoney,WTP_ITI,social_left,Resume_keys.keys,Resume_keys.rt,end_screen_keys.keys,end_screen_keys.rt
space,2.1626,66d2d920fb76c49f098b9397,6685aa9113c938e83b4f1ea0,672d6fb774fced60f5d2c0d3,2024-11-08_16h08.04.411,WTP_SM_Choice,2022.2.1,Win32,50,,,,,,,,,,,,,,,,,,,,,,,,,,,,,,,,,,,,,,,,,,,,,
,,66d2d920fb76c49f098b9397,6685aa9113c938e83b4f1ea0,672d6fb774fced60f5d2c0d3,2024-11-08_16h08.04.411,WTP_SM_Choice,2022.2.1,Win32,50,space,5.1935,,,,,,,,,,,,,,,,,,,,,,,,,,,,,,,,,,,,,,,,,,,
,,66d2d920fb76c49f098b9397,6685aa9113c938e83b4f1ea0,672d6fb774fced60f5d2c0d3,2024-11-08_16h08.04.411,WTP_SM_Choice,2022.2.1,Win32,50,,,space,5.674,space,4.0025,NAN,,NAN,0,6,,0,0,0,0,1,1,Charlie,Rej,Participant_Images/66d2d920fb76c49f098b9397/66d2d920fb76c49f098b9397_Images/66d2d920fb76c49f098b9397_Image_14.jpeg,did not like,3.613205605,,,,,,,,,,,,,,,,,,,,,,
,,66d2d920fb76c49f098b9397,6685aa9113c938e83b4f1ea0,672d6fb774fced60f5d2c0d3,2024-11-08_16h08.04.411,WTP_SM_Choice,2022.2.1,Win32,50,,,,,space,1.386,NAN,,NAN,0,6,,0,1,1,1,1,2,Charlie,Rej,Participant_Images/66d2d920fb76c49f098b9397/66d2d920fb76c49f098b9397_Images/66d2d920fb76c49f098b9397_Image_1.jpeg,did not like,4.988446431,,,,,,,,,,,,,,,,,,,,,,
,,66d2d920fb76c49f098b9397,6685aa9113c938e83b4f1ea0,672d6fb774fced60f5d2c0d3,2024-11-08_16h08.04.411,WTP_SM_Choice,2022.2.1,Win32,50,,,,,space,5.9913,NAN,,NAN,0,6,,0,2,2,2,1,3,Charlie,Rej,Participant_Images/66d2d920fb76c49f098b9397/66d2d920fb76c49f098b9397_Images/66d2d920fb76c49f098b9397_Image_13.jpeg,did not like,3.470791822,,,,,,,,,,,,,,,,,,,,,,
,,66d2d920fb76c49f098b9397,6685aa9113c938e83b4f1ea0,672d6fb774fced60f5d2c0d3,2024-11-08_16h08.04.411,WTP_SM_Choice,2022.2.1,Win32,50,,,,,space,12.6822,NAN,,NAN,0,6,,0,3,3,3,1,4,Charlie,Rej,Participant_Images/66d2d920fb76c49f098b9397/66d2d920fb76c49f098b9397_Images/66d2d920fb76c49f098b9397_Image_25.jpeg,did not like,3.820572462,,,,,,,,,,,,,,,,,,,,,,
,,66d2d920fb76c49f098b9397,6685aa9113c938e83b4f1ea0,672d6fb774fced60f5d2c0d3,2024-11-08_16h08.04.411,WTP_SM_Choice,2022.2.1,Win32,50,,,,,,,,,,,,,,,,,,1,,,,,,space,22.7352,space,14.0643,0.01,1,7.0684,0,0,0,0,1,Sketch or create art in my sketchbook while relaxing on the couch.,Play boardgames with my significant other,0.01,0.01,4.4,1,,,,
,,66d2d920fb76c49f098b9397,6685aa9113c938e83b4f1ea0,672d6fb774fced60f5d2c0d3,2024-11-08_16h08.04.411,WTP_SM_Choice,2022.2.1,Win32,50,,,,,,,,,,,,,,,,,,2,,,,,,,,,,0.02,1,5.0796,0,1,1,1,1,Play video games against my sister and friends,Taking my dog cooper out for a walk to go play in the park,0.02,0.01,8.8,0,,,,
,,66d2d920fb76c49f098b9397,6685aa9113c938e83b4f1ea0,672d6fb774fced60f5d2c0d3,2024-11-08_16h08.04.411,WTP_SM_Choice,2022.2.1,Win32,50,,,,,,,,,,,,,,,,,,3,,,,,,,,,,0.03,1,4.8586,0,2,2,2,1,Play video games against my sister and friends,Play my casino games while laying in bed.,0.03,0.01,3.3,0,,,,
,,66d2d920fb76c49f098b9397,6685aa9113c938e83b4f1ea0,672d6fb774fced60f5d2c0d3,2024-11-08_16h08.04.411,WTP_SM_Choice,2022.2.1,Win32,50,,,,,,,,,,,,,,,,,,4,,,,,,,,,,0.01,2,3.4788,0,3,3,3,1,Relax in the pool late at night with my husband,Binge watch my favorite tv series when its raining outside,0.04,0.01,1.1,0,,,,
,,66d2d920fb76c49f098b9397,6685aa9113c938e83b4f1ea0,672d6fb774fced60f5d2c0d3,2024-11-08_16h08.04.411,WTP_SM_Choice,2022.2.1,Win32,50,,,,,,,,,,,,,,,,,,5,,,,,,,,,,0.01,2,3.4035,0,4,4,4,1,Play video games against my sister and friends,Going to the beach to lay out and swim on a sunny beautiful day.,0.05,0.01,1.1,0,,,,
,,66d2d920fb76c49f098b9397,6685aa9113c938e83b4f1ea0,672d6fb774fced60f5d2c0d3,2024-11-08_16h08.04.411,WTP_SM_Choice,2022.2.1,Win32,50,,,,,,,NAN,,NAN,0.08,5.92,,0,4,4,4,1,5,Charlie,Rej,Participant_Images/66d2d920fb76c49f098b9397/66d2d920fb76c49f098b9397_Images/66d2d920fb76c49f098b9397_Image_15.jpeg,liked,2.455989137,,,,,,,,,,,,,,,,,,,,,,
,,66d2d920fb76c49f098b9397,6685aa9113c938e83b4f1ea0,672d6fb774fced60f5d2c0d3,2024-11-08_16h08.04.411,WTP_SM_Choice,2022.2.1,Win32,50,,,,,space,6.2566,NAN,,NAN,0.08,5.92,,0,5,5,5,1,6,Charlie,Rej,Participant_Images/66d2d920fb76c49f098b9397/66d2d920fb76c49f098b9397_Images/66d2d920fb76c49f098b9397_Image_22.jpeg,did not like,3.79605092,,,,,,,,,,,,,,,,,,,,,,
,,66d2d920fb76c49f098b9397,6685aa9113c938e83b4f1ea0,672d6fb774fced60f5d2c0d3,2024-11-08_16h08.04.411,WTP_SM_Choice,2022.2.1,Win32,50,,,,,space,0.4788,NAN,,NAN,0.08,5.92,,0,6,6,6,1,7,Charlie,Rej,Participant_Images/66d2d920fb76c49f098b9397/66d2d920fb76c49f098b9397_Images/66d2d920fb76c49f098b9397_Image_12.jpeg,did not like,3.562416326,,,,,,,,,,,,,,,,,,,,,,
,,66d2d920fb76c49f098b9397,6685aa9113c938e83b4f1ea0,672d6fb774fced60f5d2c0d3,2024-11-08_16h08.04.411,WTP_SM_Choice,2022.2.1,Win32,50,,,,,space,4.2568,NAN,,NAN,0.08,5.92,,0,7,7,7,1,8,Charlie,Rej,Participant_Images/66d2d920fb76c49f098b9397/66d2d920fb76c49f098b9397_Images/66d2d920fb76c49f098b9397_Image_9.jpeg,did not like,2.843822497,,,,,,,,,,,,,,,,,,,,,,
,,66d2d920fb76c49f098b9397,6685aa9113c938e83b4f1ea0,672d6fb774fced60f5d2c0d3,2024-11-08_16h08.04.411,WTP_SM_Choice,2022.2.1,Win32,50,,,,,space,2.4616,NAN,,NAN,0.08,5.92,,0,8,8,8,1,9,Charlie,Rej,Participant_Images/66d2d920fb76c49f098b9397/66d2d920fb76c49f098b9397_Images/66d2d920fb76c49f098b9397_Image_7.jpeg,did not like,3.546495948,,,,,,,,,,,,,,,,,,,,,,
,,66d2d920fb76c49f098b9397,6685aa9113c938e83b4f1ea0,672d6fb774fced60f5d2c0d3,2024-11-08_16h08.04.411,WTP_SM_Choice,2022.2.1,Win32,50,,,,,,,,,,,,,,,,,,6,,,,,,space,3.9969,space,0.9359,0.02,2,7.4136,0,0,0,0,1,Drive around with no destination with my husband Dylan,Sketch or create art in my sketchbook while relaxing on the couch.,0.01,0.02,3.3,0,,,,
,,66d2d920fb76c49f098b9397,6685aa9113c938e83b4f1ea0,672d6fb774fced60f5d2c0d3,2024-11-08_16h08.04.411,WTP_SM_Choice,2022.2.1,Win32,50,,,,,,,,,,,,,,,,,,7,,,,,,,,,,0.02,1,5.2138,0,1,1,1,1,Play my casino games while laying in bed.,Go to rock concerts with my dad,0.02,0.02,1.1,1,,,,
,,66d2d920fb76c49f098b9397,6685aa9113c938e83b4f1ea0,672d6fb774fced60f5d2c0d3,2024-11-08_16h08.04.411,WTP_SM_Choice,2022.2.1,Win32,50,,,,,,,,,,,,,,,,,,8,,,,,,,,,,0.03,1,5.7647,0,2,2,2,1,Lay in the hammock and looking up at the clouds on a nice windy day,Cook dinner with my pappy,0.03,0.02,1.1,1,,,,
,,66d2d920fb76c49f098b9397,6685aa9113c938e83b4f1ea0,672d6fb774fced60f5d2c0d3,2024-11-08_16h08.04.411,WTP_SM_Choice,2022.2.1,Win32,50,,,,,,,,,,,,,,,,,,9,,,,,,,,,,0.04,1,3.9398,0,3,3,3,1,Look up at the stars late at night searching for ufos or shooting stars,Cook dinner with my pappy,0.04,0.02,4.4,1,,,,
,,66d2d920fb76c49f098b9397,6685aa9113c938e83b4f1ea0,672d6fb774fced60f5d2c0d3,2024-11-08_16h08.04.411,WTP_SM_Choice,2022.2.1,Win32,50,,,,,,,,,,,,,,,,,,10,,,,,,,,,,0.05,1,3.3208,0,4,4,4,1,Cook dinner with my pappy,Drive in the car and enjoying the radio blaring and wind in my hair,0.05,0.02,1.1,0,,,,
,,66d2d920fb76c49f098b9397,6685aa9113c938e83b4f1ea0,672d6fb774fced60f5d2c0d3,2024-11-08_16h08.04.411,WTP_SM_Choice,2022.2.1,Win32,50,,,,,,,NAN,,NAN,0.24,5.76,,0,9,9,9,1,10,Charlie,Rej,Participant_Images/66d2d920fb76c49f098b9397/66d2d920fb76c49f098b9397_Images/66d2d920fb76c49f098b9397_Image_6.jpeg,did not like,1.672012706,,,,,,,,,,,,,,,,,,,,,,
,,66d2d920fb76c49f098b9397,6685aa9113c938e83b4f1ea0,672d6fb774fced60f5d2c0d3,2024-11-08_16h08.04.411,WTP_SM_Choice,2022.2.1,Win32,50,,,,,space,0.3638,NAN,,NAN,0.24,5.76,,0,10,10,10,1,11,Charlie,Rej,Participant_Images/66d2d920fb76c49f098b9397/66d2d920fb76c49f098b9397_Images/66d2d920fb76c49f098b9397_Image_4.jpeg,did not like,4.942172136,,,,,,,,,,,,,,,,,,,,,,
,,66d2d920fb76c49f098b9397,6685aa9113c938e83b4f1ea0,672d6fb774fced60f5d2c0d3,2024-11-08_16h08.04.411,WTP_SM_Choice,2022.2.1,Win32,50,,,,,space,2.6999,NAN,,NAN,0.24,5.76,,0,11,11,11,1,12,Charlie,Rej,Participant_Images/66d2d920fb76c49f098b9397/66d2d920fb76c49f098b9397_Images/66d2d920fb76c49f098b9397_Image_2.jpeg,liked,2.50187214,,,,,,,,,,,,,,,,,,,,,,
,,66d2d920fb76c49f098b9397,6685aa9113c938e83b4f1ea0,672d6fb774fced60f5d2c0d3,2024-11-08_16h08.04.411,WTP_SM_Choice,2022.2.1,Win32,50,,,,,space,5.068,NAN,,NAN,0.24,5.76,,0,12,12,12,1,13,Charlie,Rej,Participant_Images/66d2d920fb76c49f098b9397/66d2d920fb76c49f098b9397_Images/66d2d920fb76c49f098b9397_Image_3.jpeg,did not like,2.071164779,,,,,,,,,,,,,,,,,,,,,,
,,66d2d920fb76c49f098b9397,6685aa9113c938e83b4f1ea0,672d6fb774fced60f5d2c0d3,2024-11-08_16h08.04.411,WTP_SM_Choice,2022.2.1,Win32,50,,,,,space,1.9009,NAN,,NAN,0.24,5.76,,0,13,13,13,1,14,Charlie,Rej,Participant_Images/66d2d920fb76c49f098b9397/66d2d920fb76c49f098b9397_Images/66d2d920fb76c49f098b9397_Image_5.jpeg,did not like,5.336503566,,,,,,,,,,,,,,,,,,,,,,
,,66d2d920fb76c49f098b9397,6685aa9113c938e83b4f1ea0,672d6fb774fced60f5d2c0d3,2024-11-08_16h08.04.411,WTP_SM_Choice,2022.2.1,Win32,50,,,,,,,,,,,,,,,,,,11,,,,,,space,21.0553,space,0.7192,0.03,2,3.5178,0,0,0,0,1,Taking my dog cooper out for a walk to go play in the park,Go to rock concerts with my dad,0.01,0.03,3.3,1,,,,
,,66d2d920fb76c49f098b9397,6685aa9113c938e83b4f1ea0,672d6fb774fced60f5d2c0d3,2024-11-08_16h08.04.411,WTP_SM_Choice,2022.2.1,Win32,50,,,,,,,,,,,,,,,,,,12,,,,,,,,,,0.03,2,4.8033,0,1,1,1,1,Relax in the pool late at night with my husband,Going to the beach to lay out and swim on a sunny beautiful day.,0.02,0.03,4.4,0,,,,
,,66d2d920fb76c49f098b9397,6685aa9113c938e83b4f1ea0,672d6fb774fced60f5d2c0d3,2024-11-08_16h08.04.411,WTP_SM_Choice,2022.2.1,Win32,50,,,,,,,,,,,,,,,,,,13,,,,,,,,,,0.03,1,6.9088,0,2,2,2,1,Look up at the stars late at night searching for ufos or shooting stars,Drive around with no destination with my husband Dylan,0.03,0.03,1.1,1,,,,
,,66d2d920fb76c49f098b9397,6685aa9113c938e83b4f1ea0,672d6fb774fced60f5d2c0d3,2024-11-08_16h08.04.411,WTP_SM_Choice,2022.2.1,Win32,50,,,,,,,,,,,,,,,,,,14,,,,,,,,,,0.04,1,2.7746,0,3,3,3,1,Watch Jerry Springer with my sister,Lay in the hammock and looking up at the clouds on a nice windy day,0.04,0.03,3.3,0,,,,
,,66d2d920fb76c49f098b9397,6685aa9113c938e83b4f1ea0,672d6fb774fced60f5d2c0d3,2024-11-08_16h08.04.411,WTP_SM_Choice,2022.2.1,Win32,50,,,,,,,,,,,,,,,,,,15,,,,,,,,,,0.03,2,3.6015,0,4,4,4,1,Play my casino games while laying in bed.,Go to the casino with my friend James,0.05,0.03,4.4,1,,,,
,,66d2d920fb76c49f098b9397,6685aa9113c938e83b4f1ea0,672d6fb774fced60f5d2c0d3,2024-11-08_16h08.04.411,WTP_SM_Choice,2022.2.1,Win32,50,,,,,,,NAN,,NAN,0.4,5.6,,0,14,14,14,1,15,Charlie,Rej,Participant_Images/66d2d920fb76c49f098b9397/66d2d920fb76c49f098b9397_Images/66d2d920fb76c49f098b9397_Image_19.jpeg,liked,2.642157193,,,,,,,,,,,,,,,,,,,,,,
,,66d2d920fb76c49f098b9397,6685aa9113c938e83b4f1ea0,672d6fb774fced60f5d2c0d3,2024-11-08_16h08.04.411,WTP_SM_Choice,2022.2.1,Win32,50,,,,,space,2.5857,NAN,,NAN,0.4,5.6,,0,15,15,15,1,16,Charlie,Rej,Participant_Images/66d2d920fb76c49f098b9397/66d2d920fb76c49f098b9397_Images/66d2d920fb76c49f098b9397_Image_18.jpeg,liked,4.456234322,,,,,,,,,,,,,,,,,,,,,,
,,66d2d920fb76c49f098b9397,6685aa9113c938e83b4f1ea0,672d6fb774fced60f5d2c0d3,2024-11-08_16h08.04.411,WTP_SM_Choice,2022.2.1,Win32,50,,,,,space,4.5744,NAN,,NAN,0.4,5.6,,0,16,16,16,1,17,Charlie,Rej,Participant_Images/66d2d920fb76c49f098b9397/66d2d920fb76c49f098b9397_Images/66d2d920fb76c49f098b9397_Image_24.jpeg,liked,4.438512181,,,,,,,,,,,,,,,,,,,,,,
,,66d2d920fb76c49f098b9397,6685aa9113c938e83b4f1ea0,672d6fb774fced60f5d2c0d3,2024-11-08_16h08.04.411,WTP_SM_Choice,2022.2.1,Win32,50,,,,,space,1.5271,NAN,,NAN,0.4,5.6,,0,17,17,17,1,18,Charlie,Rej,Participant_Images/66d2d920fb76c49f098b9397/66d2d920fb76c49f098b9397_Images/66d2d920fb76c49f098b9397_Image_11.jpeg,did not like,2.682944783,,,,,,,,,,,,,,,,,,,,,,
,,66d2d920fb76c49f098b9397,6685aa9113c938e83b4f1ea0,672d6fb774fced60f5d2c0d3,2024-11-08_16h08.04.411,WTP_SM_Choice,2022.2.1,Win32,50,,,,,space,2.217,NAN,,NAN,0.4,5.6,,0,18,18,18,1,19,Charlie,Rej,Participant_Images/66d2d920fb76c49f098b9397/66d2d920fb76c49f098b9397_Images/66d2d920fb76c49f098b9397_Image_21.jpeg,did not like,4.51984296,,,,,,,,,,,,,,,,,,,,,,
,,66d2d920fb76c49f098b9397,6685aa9113c938e83b4f1ea0,672d6fb774fced60f5d2c0d3,2024-11-08_16h08.04.411,WTP_SM_Choice,2022.2.1,Win32,50,,,,,,,,,,,,,,,,,,16,,,,,,space,5.2543,space,1.059,0.04,2,3.8744,0,0,0,0,1,Drive in the car and enjoying the radio blaring and wind in my hair,Watch Jerry Springer with my sister,0.01,0.04,1.1,1,,,,
,,66d2d920fb76c49f098b9397,6685aa9113c938e83b4f1ea0,672d6fb774fced60f5d2c0d3,2024-11-08_16h08.04.411,WTP_SM_Choice,2022.2.1,Win32,50,,,,,,,,,,,,,,,,,,17,,,,,,,,,,0.04,2,5.1139,0,1,1,1,1,Relax in the pool late at night with my husband,Sing loudly in the shower and feeling like I am Americas next Idol,0.02,0.04,8.8,0,,,,
,,66d2d920fb76c49f098b9397,6685aa9113c938e83b4f1ea0,672d6fb774fced60f5d2c0d3,2024-11-08_16h08.04.411,WTP_SM_Choice,2022.2.1,Win32,50,,,,,,,,,,,,,,,,,,18,,,,,,,,,,0.03,1,4.8594,0,2,2,2,1,Going to the beach to lay out and swim on a sunny beautiful day.,hang out with my girlfriend and gossiping about life,0.03,0.04,3.3,1,,,,
,,66d2d920fb76c49f098b9397,6685aa9113c938e83b4f1ea0,672d6fb774fced60f5d2c0d3,2024-11-08_16h08.04.411,WTP_SM_Choice,2022.2.1,Win32,50,,,,,,,,,,,,,,,,,,19,,,,,,,,,,0.04,1,6.2442,0,3,3,3,1,Road trip to California with my best friend and brother in law,Play my casino games while laying in bed.,0.04,0.04,3.3,0,,,,
,,66d2d920fb76c49f098b9397,6685aa9113c938e83b4f1ea0,672d6fb774fced60f5d2c0d3,2024-11-08_16h08.04.411,WTP_SM_Choice,2022.2.1,Win32,50,,,,,,,,,,,,,,,,,,20,,,,,,,,,,0.05,1,6.0943,0,4,4,4,1,Road trip to California with my best friend and brother in law,Drive in the car and enjoying the radio blaring and wind in my hair,0.05,0.04,1.1,0,,,,
,,66d2d920fb76c49f098b9397,6685aa9113c938e83b4f1ea0,672d6fb774fced60f5d2c0d3,2024-11-08_16h08.04.411,WTP_SM_Choice,2022.2.1,Win32,50,,,,,,,NAN,,NAN,0.6,5.4,,0,19,19,19,1,20,Charlie,Rej,Participant_Images/66d2d920fb76c49f098b9397/66d2d920fb76c49f098b9397_Images/66d2d920fb76c49f098b9397_Image_10.jpeg,did not like,3.195382774,,,,,,,,,,,,,,,,,,,,,,
,,66d2d920fb76c49f098b9397,6685aa9113c938e83b4f1ea0,672d6fb774fced60f5d2c0d3,2024-11-08_16h08.04.411,WTP_SM_Choice,2022.2.1,Win32,50,,,,,space,1.8072,NAN,,NAN,0.6,5.4,,0,20,20,20,1,21,Charlie,Rej,Participant_Images/66d2d920fb76c49f098b9397/66d2d920fb76c49f098b9397_Images/66d2d920fb76c49f098b9397_Image_20.jpeg,liked,1.779333479,,,,,,,,,,,,,,,,,,,,,,
,,66d2d920fb76c49f098b9397,6685aa9113c938e83b4f1ea0,672d6fb774fced60f5d2c0d3,2024-11-08_16h08.04.411,WTP_SM_Choice,2022.2.1,Win32,50,,,,,space,16.6273,NAN,,NAN,0.6,5.4,,0,21,21,21,1,22,Charlie,Rej,Participant_Images/66d2d920fb76c49f098b9397/66d2d920fb76c49f098b9397_Images/66d2d920fb76c49f098b9397_Image_23.jpeg,did not like,4.312468682,,,,,,,,,,,,,,,,,,,,,,
,,66d2d920fb76c49f098b9397,6685aa9113c938e83b4f1ea0,672d6fb774fced60f5d2c0d3,2024-11-08_16h08.04.411,WTP_SM_Choice,2022.2.1,Win32,50,,,,,space,6.5018,NAN,,NAN,0.6,5.4,,0,22,22,22,1,23,Charlie,Rej,Participant_Images/66d2d920fb76c49f098b9397/66d2d920fb76c49f098b9397_Images/66d2d920fb76c49f098b9397_Image_17.jpeg,did not like,4.940433059,,,,,,,,,,,,,,,,,,,,,,
,,66d2d920fb76c49f098b9397,6685aa9113c938e83b4f1ea0,672d6fb774fced60f5d2c0d3,2024-11-08_16h08.04.411,WTP_SM_Choice,2022.2.1,Win32,50,,,,,space,4.8294,NAN,,NAN,0.6,5.4,,0,23,23,23,1,24,Charlie,Rej,Participant_Images/66d2d920fb76c49f098b9397/66d2d920fb76c49f098b9397_Images/66d2d920fb76c49f098b9397_Image_16.jpeg,liked,2.7105123,,,,,,,,,,,,,,,,,,,,,,
,,66d2d920fb76c49f098b9397,6685aa9113c938e83b4f1ea0,672d6fb774fced60f5d2c0d3,2024-11-08_16h08.04.411,WTP_SM_Choice,2022.2.1,Win32,50,,,,,,,,,,,,,,,,,,21,,,,,,space,0.5042,space,0.5956,0.05,2,4.6751,0,0,0,0,1,Play boardgames with my significant other,Sing loudly in the shower and feeling like I am Americas next Idol,0.01,0.05,8.8,0,,,,
,,66d2d920fb76c49f098b9397,6685aa9113c938e83b4f1ea0,672d6fb774fced60f5d2c0d3,2024-11-08_16h08.04.411,WTP_SM_Choice,2022.2.1,Win32,50,,,,,,,,,,,,,,,,,,22,,,,,,,,,,0.05,2,4.7349,0,1,1,1,1,Binge watch my favorite tv series when its raining outside,Go to rock concerts with my dad,0.02,0.05,4.4,1,,,,
,,66d2d920fb76c49f098b9397,6685aa9113c938e83b4f1ea0,672d6fb774fced60f5d2c0d3,2024-11-08_16h08.04.411,WTP_SM_Choice,2022.2.1,Win32,50,,,,,,,,,,,,,,,,,,23,,,,,,,,,,0.05,2,7.4629,0,2,2,2,1,Sketch or create art in my sketchbook while relaxing on the couch.,Play video games against my sister and friends,0.03,0.05,1.1,1,,,,
,,66d2d920fb76c49f098b9397,6685aa9113c938e83b4f1ea0,672d6fb774fced60f5d2c0d3,2024-11-08_16h08.04.411,WTP_SM_Choice,2022.2.1,Win32,50,,,,,,,,,,,,,,,,,,24,,,,,,,,,,0.04,1,4.0592,0,3,3,3,1,Sing loudly in the shower and feeling like I am Americas next Idol,hang out with my girlfriend and gossiping about life,0.04,0.05,4.4,1,,,,
,,66d2d920fb76c49f098b9397,6685aa9113c938e83b4f1ea0,672d6fb774fced60f5d2c0d3,2024-11-08_16h08.04.411,WTP_SM_Choice,2022.2.1,Win32,50,,,,,,,,,,,,,,,,,,25,,,,,,,,,,0.05,2,7.178,0,4,4,4,1,Go to rock concerts with my dad,Crochet my current project while watching tv late at night,0.05,0.05,3.3,0,,,,
,,66d2d920fb76c49f098b9397,6685aa9113c938e83b4f1ea0,672d6fb774fced60f5d2c0d3,2024-11-08_16h08.04.411,WTP_SM_Choice,2022.2.1,Win32,50,,,,,,,3,,9,0.84,5.16,,0,24,24,24,1,25,Charlie,Rej,Participant_Images/66d2d920fb76c49f098b9397/66d2d920fb76c49f098b9397_Images/66d2d920fb76c49f098b9397_Image_8.jpeg,did not like,3.602308302,,,,,,,,,,,,,,,,,,,space,1.4438,,
,,66d2d920fb76c49f098b9397,6685aa9113c938e83b4f1ea0,672d6fb774fced60f5d2c0d3,2024-11-08_16h08.04.411,WTP_SM_Choice,2022.2.1,Win32,50,,,space,3.8359,space,6.0644,NAN,,NAN,0.84,5.16,,0,25,25,25,1,26,Riley,Acc,Participant_Images/66d2d920fb76c49f098b9397/66d2d920fb76c49f098b9397_Images/66d2d920fb76c49f098b9397_Image_5.jpeg,did not like,4.106391878,,,,,,,,,,,,,,,,,,,,,,
,,66d2d920fb76c49f098b9397,6685aa9113c938e83b4f1ea0,672d6fb774fced60f5d2c0d3,2024-11-08_16h08.04.411,WTP_SM_Choice,2022.2.1,Win32,50,,,,,space,3.8585,NAN,,NAN,0.84,5.16,,0,26,26,26,1,27,Riley,Acc,Participant_Images/66d2d920fb76c49f098b9397/66d2d920fb76c49f098b9397_Images/66d2d920fb76c49f098b9397_Image_2.jpeg,did not like,3.799433026,,,,,,,,,,,,,,,,,,,,,,
,,66d2d920fb76c49f098b9397,6685aa9113c938e83b4f1ea0,672d6fb774fced60f5d2c0d3,2024-11-08_16h08.04.411,WTP_SM_Choice,2022.2.1,Win32,50,,,,,space,1.6695,NAN,,NAN,0.84,5.16,,0,27,27,27,1,28,Riley,Acc,Participant_Images/66d2d920fb76c49f098b9397/66d2d920fb76c49f098b9397_Images/66d2d920fb76c49f098b9397_Image_6.jpeg,liked,5.246980764,,,,,,,,,,,,,,,,,,,,,,
,,66d2d920fb76c49f098b9397,6685aa9113c938e83b4f1ea0,672d6fb774fced60f5d2c0d3,2024-11-08_16h08.04.411,WTP_SM_Choice,2022.2.1,Win32,50,,,,,space,4.5888,NAN,,NAN,0.84,5.16,,0,28,28,28,1,29,Riley,Acc,Participant_Images/66d2d920fb76c49f098b9397/66d2d920fb76c49f098b9397_Images/66d2d920fb76c49f098b9397_Image_25.jpeg,liked,3.30081769,,,,,,,,,,,,,,,,,,,,,,
,,66d2d920fb76c49f098b9397,6685aa9113c938e83b4f1ea0,672d6fb774fced60f5d2c0d3,2024-11-08_16h08.04.411,WTP_SM_Choice,2022.2.1,Win32,50,,,,,,,,,,,,,,,,,,26,,,,,,space,2.0197,space,0.4743,0.01,1,5.9939,0,0,0,0,1,Going to the beach to lay out and swim on a sunny beautiful day.,Road trip to California with my best friend and brother in law,0.01,0.01,4.4,1,,,,
,,66d2d920fb76c49f098b9397,6685aa9113c938e83b4f1ea0,672d6fb774fced60f5d2c0d3,2024-11-08_16h08.04.411,WTP_SM_Choice,2022.2.1,Win32,50,,,,,,,,,,,,,,,,,,27,,,,,,,,,,0.02,1,3.3871,0,1,1,1,1,Sketch or create art in my sketchbook while relaxing on the couch.,Go to rock concerts with my dad,0.02,0.01,3.3,1,,,,
,,66d2d920fb76c49f098b9397,6685aa9113c938e83b4f1ea0,672d6fb774fced60f5d2c0d3,2024-11-08_16h08.04.411,WTP_SM_Choice,2022.2.1,Win32,50,,,,,,,,,,,,,,,,,,28,,,,,,,,,,0.03,1,1.8606,0,2,2,2,1,Sketch or create art in my sketchbook while relaxing on the couch.,Relax in the pool late at night with my husband,0.03,0.01,3.3,1,,,,
,,66d2d920fb76c49f098b9397,6685aa9113c938e83b4f1ea0,672d6fb774fced60f5d2c0d3,2024-11-08_16h08.04.411,WTP_SM_Choice,2022.2.1,Win32,50,,,,,,,,,,,,,,,,,,29,,,,,,,,,,0.01,2,5.3227,0,3,3,3,1,Go to rock concerts with my dad,Going to the beach to lay out and swim on a sunny beautiful day.,0.04,0.01,4.4,0,,,,
,,66d2d920fb76c49f098b9397,6685aa9113c938e83b4f1ea0,672d6fb774fced60f5d2c0d3,2024-11-08_16h08.04.411,WTP_SM_Choice,2022.2.1,Win32,50,,,,,,,,,,,,,,,,,,30,,,,,,,,,,0.05,1,6.9735,0,4,4,4,1,Taking my dog cooper out for a walk to go play in the park,Cook dinner with my pappy,0.05,0.01,8.8,1,,,,
,,66d2d920fb76c49f098b9397,6685aa9113c938e83b4f1ea0,672d6fb774fced60f5d2c0d3,2024-11-08_16h08.04.411,WTP_SM_Choice,2022.2.1,Win32,50,,,,,,,NAN,,NAN,0.96,5.04,,0,29,29,29,1,30,Riley,Acc,Participant_Images/66d2d920fb76c49f098b9397/66d2d920fb76c49f098b9397_Images/66d2d920fb76c49f098b9397_Image_14.jpeg,liked,1.661473164,,,,,,,,,,,,,,,,,,,,,,
,,66d2d920fb76c49f098b9397,6685aa9113c938e83b4f1ea0,672d6fb774fced60f5d2c0d3,2024-11-08_16h08.04.411,WTP_SM_Choice,2022.2.1,Win32,50,,,,,space,0.7163,NAN,,NAN,0.96,5.04,,0,30,30,30,1,31,Riley,Acc,Participant_Images/66d2d920fb76c49f098b9397/66d2d920fb76c49f098b9397_Images/66d2d920fb76c49f098b9397_Image_22.jpeg,liked,3.613205605,,,,,,,,,,,,,,,,,,,,,,
,,66d2d920fb76c49f098b9397,6685aa9113c938e83b4f1ea0,672d6fb774fced60f5d2c0d3,2024-11-08_16h08.04.411,WTP_SM_Choice,2022.2.1,Win32,50,,,,,space,2.7958,NAN,,NAN,0.96,5.04,,0,31,31,31,1,32,Riley,Acc,Participant_Images/66d2d920fb76c49f098b9397/66d2d920fb76c49f098b9397_Images/66d2d920fb76c49f098b9397_Image_3.jpeg,liked,4.988446431,,,,,,,,,,,,,,,,,,,,,,
,,66d2d920fb76c49f098b9397,6685aa9113c938e83b4f1ea0,672d6fb774fced60f5d2c0d3,2024-11-08_16h08.04.411,WTP_SM_Choice,2022.2.1,Win32,50,,,,,space,1.0135,NAN,,NAN,0.96,5.04,,0,32,32,32,1,33,Riley,Acc,Participant_Images/66d2d920fb76c49f098b9397/66d2d920fb76c49f098b9397_Images/66d2d920fb76c49f098b9397_Image_21.jpeg,liked,3.470791822,,,,,,,,,,,,,,,,,,,,,,
,,66d2d920fb76c49f098b9397,6685aa9113c938e83b4f1ea0,672d6fb774fced60f5d2c0d3,2024-11-08_16h08.04.411,WTP_SM_Choice,2022.2.1,Win32,50,,,,,space,4.0628,NAN,,NAN,0.96,5.04,,0,33,33,33,1,34,Riley,Acc,Participant_Images/66d2d920fb76c49f098b9397/66d2d920fb76c49f098b9397_Images/66d2d920fb76c49f098b9397_Image_18.jpeg,did not like,3.820572462,,,,,,,,,,,,,,,,,,,,,,
,,66d2d920fb76c49f098b9397,6685aa9113c938e83b4f1ea0,672d6fb774fced60f5d2c0d3,2024-11-08_16h08.04.411,WTP_SM_Choice,2022.2.1,Win32,50,,,,,,,,,,,,,,,,,,31,,,,,,space,3.3329,space,0.9968,0.01,1,5.5526,0,0,0,0,1,Play video games against my sister and friends,Look up at the stars late at night searching for ufos or shooting stars,0.01,0.02,8.8,0,,,,
,,66d2d920fb76c49f098b9397,6685aa9113c938e83b4f1ea0,672d6fb774fced60f5d2c0d3,2024-11-08_16h08.04.411,WTP_SM_Choice,2022.2.1,Win32,50,,,,,,,,,,,,,,,,,,32,,,,,,,,,,0.02,2,3.9168,0,1,1,1,1,Taking my dog cooper out for a walk to go play in the park,hang out with my girlfriend and gossiping about life,0.02,0.02,1.1,1,,,,
,,66d2d920fb76c49f098b9397,6685aa9113c938e83b4f1ea0,672d6fb774fced60f5d2c0d3,2024-11-08_16h08.04.411,WTP_SM_Choice,2022.2.1,Win32,50,,,,,,,,,,,,,,,,,,33,,,,,,,,,,0.03,1,2.9591,0,2,2,2,1,Going to the beach to lay out and swim on a sunny beautiful day.,Go to the casino with my friend James,0.03,0.02,4.4,1,,,,
,,66d2d920fb76c49f098b9397,6685aa9113c938e83b4f1ea0,672d6fb774fced60f5d2c0d3,2024-11-08_16h08.04.411,WTP_SM_Choice,2022.2.1,Win32,50,,,,,,,,,,,,,,,,,,34,,,,,,,,,,0.02,2,5.0975,0,3,3,3,1,Play my casino games while laying in bed.,Cook dinner with my pappy,0.04,0.02,3.3,1,,,,
,,66d2d920fb76c49f098b9397,6685aa9113c938e83b4f1ea0,672d6fb774fced60f5d2c0d3,2024-11-08_16h08.04.411,WTP_SM_Choice,2022.2.1,Win32,50,,,,,,,,,,,,,,,,,,35,,,,,,,,,,0.05,1,3.9337,0,4,4,4,1,Lay in the hammock and looking up at the clouds on a nice windy day,Drive around with no destination with my husband Dylan,0.05,0.02,1.1,1,,,,
,,66d2d920fb76c49f098b9397,6685aa9113c938e83b4f1ea0,672d6fb774fced60f5d2c0d3,2024-11-08_16h08.04.411,WTP_SM_Choice,2022.2.1,Win32,50,,,,,,,NAN,,NAN,1.09,4.91,,0,34,34,34,1,35,Riley,Acc,Participant_Images/66d2d920fb76c49f098b9397/66d2d920fb76c49f098b9397_Images/66d2d920fb76c49f098b9397_Image_16.jpeg,liked,2.455989137,,,,,,,,,,,,,,,,,,,,,,
,,66d2d920fb76c49f098b9397,6685aa9113c938e83b4f1ea0,672d6fb774fced60f5d2c0d3,2024-11-08_16h08.04.411,WTP_SM_Choice,2022.2.1,Win32,50,,,,,space,2.2989,NAN,,NAN,1.09,4.91,,0,35,35,35,1,36,Riley,Acc,Participant_Images/66d2d920fb76c49f098b9397/66d2d920fb76c49f098b9397_Images/66d2d920fb76c49f098b9397_Image_13.jpeg,liked,3.79605092,,,,,,,,,,,,,,,,,,,,,,
,,66d2d920fb76c49f098b9397,6685aa9113c938e83b4f1ea0,672d6fb774fced60f5d2c0d3,2024-11-08_16h08.04.411,WTP_SM_Choice,2022.2.1,Win32,50,,,,,space,0.7602,NAN,,NAN,1.09,4.91,,0,36,36,36,1,37,Riley,Acc,Participant_Images/66d2d920fb76c49f098b9397/66d2d920fb76c49f098b9397_Images/66d2d920fb76c49f098b9397_Image_1.jpeg,liked,3.562416326,,,,,,,,,,,,,,,,,,,,,,
,,66d2d920fb76c49f098b9397,6685aa9113c938e83b4f1ea0,672d6fb774fced60f5d2c0d3,2024-11-08_16h08.04.411,WTP_SM_Choice,2022.2.1,Win32,50,,,,,space,4.4649,NAN,,NAN,1.09,4.91,,0,37,37,37,1,38,Riley,Acc,Participant_Images/66d2d920fb76c49f098b9397/66d2d920fb76c49f098b9397_Images/66d2d920fb76c49f098b9397_Image_17.jpeg,did not like,2.843822497,,,,,,,,,,,,,,,,,,,,,,
,,66d2d920fb76c49f098b9397,6685aa9113c938e83b4f1ea0,672d6fb774fced60f5d2c0d3,2024-11-08_16h08.04.411,WTP_SM_Choice,2022.2.1,Win32,50,,,,,space,1.9738,NAN,,NAN,1.09,4.91,,0,38,38,38,1,39,Riley,Acc,Participant_Images/66d2d920fb76c49f098b9397/66d2d920fb76c49f098b9397_Images/66d2d920fb76c49f098b9397_Image_24.jpeg,liked,3.546495948,,,,,,,,,,,,,,,,,,,,,,
,,66d2d920fb76c49f098b9397,6685aa9113c938e83b4f1ea0,672d6fb774fced60f5d2c0d3,2024-11-08_16h08.04.411,WTP_SM_Choice,2022.2.1,Win32,50,,,,,,,,,,,,,,,,,,36,,,,,,space,4.5196,space,0.3367,0.03,2,3.8027,0,0,0,0,1,Play my casino games while laying in bed.,Play boardgames with my significant other,0.01,0.03,3.3,1,,,,
,,66d2d920fb76c49f098b9397,6685aa9113c938e83b4f1ea0,672d6fb774fced60f5d2c0d3,2024-11-08_16h08.04.411,WTP_SM_Choice,2022.2.1,Win32,50,,,,,,,,,,,,,,,,,,37,,,,,,,,,,,,,0,1,1,1,1,Binge watch my favorite tv series when its raining outside,Cook dinner with my pappy,0.02,0.03,1.1,1,,,,
,,66d2d920fb76c49f098b9397,6685aa9113c938e83b4f1ea0,672d6fb774fced60f5d2c0d3,2024-11-08_16h08.04.411,WTP_SM_Choice,2022.2.1,Win32,50,,,,,,,,,,,,,,,,,,38,,,,,,,,,,0.03,2,3.4708,0,2,2,2,1,Look up at the stars late at night searching for ufos or shooting stars,Watch Jerry Springer with my sister,0.03,0.03,1.1,1,,,,
,,66d2d920fb76c49f098b9397,6685aa9113c938e83b4f1ea0,672d6fb774fced60f5d2c0d3,2024-11-08_16h08.04.411,WTP_SM_Choice,2022.2.1,Win32,50,,,,,,,,,,,,,,,,,,39,,,,,,,,,,,,,0,3,3,3,1,Road trip to California with my best friend and brother in law,Look up at the stars late at night searching for ufos or shooting stars,0.04,0.03,3.3,0,,,,
,,66d2d920fb76c49f098b9397,6685aa9113c938e83b4f1ea0,672d6fb774fced60f5d2c0d3,2024-11-08_16h08.04.411,WTP_SM_Choice,2022.2.1,Win32,50,,,,,,,,,,,,,,,,,,40,,,,,,,,,,0.03,2,7.2379,0,4,4,4,1,Play boardgames with my significant other,Going to the beach to lay out and swim on a sunny beautiful day.,0.05,0.03,4.4,0,,,,
,,66d2d920fb76c49f098b9397,6685aa9113c938e83b4f1ea0,672d6fb774fced60f5d2c0d3,2024-11-08_16h08.04.411,WTP_SM_Choice,2022.2.1,Win32,50,,,,,,,NAN,,NAN,1.18,4.82,,0,39,39,39,1,40,Riley,Acc,Participant_Images/66d2d920fb76c49f098b9397/66d2d920fb76c49f098b9397_Images/66d2d920fb76c49f098b9397_Image_20.jpeg,liked,1.672012706,,,,,,,,,,,,,,,,,,,,,,
,,66d2d920fb76c49f098b9397,6685aa9113c938e83b4f1ea0,672d6fb774fced60f5d2c0d3,2024-11-08_16h08.04.411,WTP_SM_Choice,2022.2.1,Win32,50,,,,,space,9.1621,NAN,,NAN,1.18,4.82,,0,40,40,40,1,41,Riley,Acc,Participant_Images/66d2d920fb76c49f098b9397/66d2d920fb76c49f098b9397_Images/66d2d920fb76c49f098b9397_Image_12.jpeg,did not like,4.942172136,,,,,,,,,,,,,,,,,,,,,,
,,66d2d920fb76c49f098b9397,6685aa9113c938e83b4f1ea0,672d6fb774fced60f5d2c0d3,2024-11-08_16h08.04.411,WTP_SM_Choice,2022.2.1,Win32,50,,,,,space,4.8404,NAN,,NAN,1.18,4.82,,0,41,41,41,1,42,Riley,Acc,Participant_Images/66d2d920fb76c49f098b9397/66d2d920fb76c49f098b9397_Images/66d2d920fb76c49f098b9397_Image_23.jpeg,did not like,2.50187214,,,,,,,,,,,,,,,,,,,,,,
,,66d2d920fb76c49f098b9397,6685aa9113c938e83b4f1ea0,672d6fb774fced60f5d2c0d3,2024-11-08_16h08.04.411,WTP_SM_Choice,2022.2.1,Win32,50,,,,,space,7.4048,NAN,,NAN,1.18,4.82,,0,42,42,42,1,43,Riley,Acc,Participant_Images/66d2d920fb76c49f098b9397/66d2d920fb76c49f098b9397_Images/66d2d920fb76c49f098b9397_Image_9.jpeg,liked,2.071164779,,,,,,,,,,,,,,,,,,,,,,
,,66d2d920fb76c49f098b9397,6685aa9113c938e83b4f1ea0,672d6fb774fced60f5d2c0d3,2024-11-08_16h08.04.411,WTP_SM_Choice,2022.2.1,Win32,50,,,,,space,1.6747,NAN,,NAN,1.18,4.82,,0,43,43,43,1,44,Riley,Acc,Participant_Images/66d2d920fb76c49f098b9397/66d2d920fb76c49f098b9397_Images/66d2d920fb76c49f098b9397_Image_4.jpeg,liked,5.336503566,,,,,,,,,,,,,,,,,,,,,,
,,66d2d920fb76c49f098b9397,6685aa9113c938e83b4f1ea0,672d6fb774fced60f5d2c0d3,2024-11-08_16h08.04.411,WTP_SM_Choice,2022.2.1,Win32,50,,,,,,,,,,,,,,,,,,41,,,,,,space,1.2622,space,0.3813,0.01,1,3.7725,0,0,0,0,1,Road trip to California with my best friend and brother in law,Sketch or create art in my sketchbook while relaxing on the couch.,0.01,0.04,1.1,0,,,,
,,66d2d920fb76c49f098b9397,6685aa9113c938e83b4f1ea0,672d6fb774fced60f5d2c0d3,2024-11-08_16h08.04.411,WTP_SM_Choice,2022.2.1,Win32,50,,,,,,,,,,,,,,,,,,42,,,,,,,,,,0.02,1,9.7162,0,1,1,1,1,Sketch or create art in my sketchbook while relaxing on the couch.,Go to the casino with my friend James,0.02,0.04,3.3,1,,,,
,,66d2d920fb76c49f098b9397,6685aa9113c938e83b4f1ea0,672d6fb774fced60f5d2c0d3,2024-11-08_16h08.04.411,WTP_SM_Choice,2022.2.1,Win32,50,,,,,,,,,,,,,,,,,,43,,,,,,,,,,0.04,2,6.8394,0,2,2,2,1,Cook dinner with my pappy,Crochet my current project while watching tv late at night,0.03,0.04,1.1,0,,,,
,,66d2d920fb76c49f098b9397,6685aa9113c938e83b4f1ea0,672d6fb774fced60f5d2c0d3,2024-11-08_16h08.04.411,WTP_SM_Choice,2022.2.1,Win32,50,,,,,,,,,,,,,,,,,,44,,,,,,,,,,0.04,1,7.6567,0,3,3,3,1,Lay in the hammock and looking up at the clouds on a nice windy day,Go to the casino with my friend James,0.04,0.04,1.1,1,,,,
,,66d2d920fb76c49f098b9397,6685aa9113c938e83b4f1ea0,672d6fb774fced60f5d2c0d3,2024-11-08_16h08.04.411,WTP_SM_Choice,2022.2.1,Win32,50,,,,,,,,,,,,,,,,,,45,,,,,,,,,,0.04,2,9.4744,0,4,4,4,1,Relax in the pool late at night with my husband,Drive in the car and enjoying the radio blaring and wind in my hair,0.05,0.04,4.4,0,,,,
,,66d2d920fb76c49f098b9397,6685aa9113c938e83b4f1ea0,672d6fb774fced60f5d2c0d3,2024-11-08_16h08.04.411,WTP_SM_Choice,2022.2.1,Win32,50,,,,,,,NAN,,NAN,1.33,4.67,,0,44,44,44,1,45,Riley,Acc,Participant_Images/66d2d920fb76c49f098b9397/66d2d920fb76c49f098b9397_Images/66d2d920fb76c49f098b9397_Image_10.jpeg,liked,2.642157193,,,,,,,,,,,,,,,,,,,,,,
,,66d2d920fb76c49f098b9397,6685aa9113c938e83b4f1ea0,672d6fb774fced60f5d2c0d3,2024-11-08_16h08.04.411,WTP_SM_Choice,2022.2.1,Win32,50,,,,,space,5.3154,NAN,,NAN,1.33,4.67,,0,45,45,45,1,46,Riley,Acc,Participant_Images/66d2d920fb76c49f098b9397/66d2d920fb76c49f098b9397_Images/66d2d920fb76c49f098b9397_Image_8.jpeg,did not like,4.456234322,,,,,,,,,,,,,,,,,,,,,,
,,66d2d920fb76c49f098b9397,6685aa9113c938e83b4f1ea0,672d6fb774fced60f5d2c0d3,2024-11-08_16h08.04.411,WTP_SM_Choice,2022.2.1,Win32,50,,,,,space,2.3427,NAN,,NAN,1.33,4.67,,0,46,46,46,1,47,Riley,Acc,Participant_Images/66d2d920fb76c49f098b9397/66d2d920fb76c49f098b9397_Images/66d2d920fb76c49f098b9397_Image_19.jpeg,liked,4.438512181,,,,,,,,,,,,,,,,,,,,,,
,,66d2d920fb76c49f098b9397,6685aa9113c938e83b4f1ea0,672d6fb774fced60f5d2c0d3,2024-11-08_16h08.04.411,WTP_SM_Choice,2022.2.1,Win32,50,,,,,space,9.4036,NAN,,NAN,1.33,4.67,,0,47,47,47,1,48,Riley,Acc,Participant_Images/66d2d920fb76c49f098b9397/66d2d920fb76c49f098b9397_Images/66d2d920fb76c49f098b9397_Image_7.jpeg,liked,2.682944783,,,,,,,,,,,,,,,,,,,,,,
,,66d2d920fb76c49f098b9397,6685aa9113c938e83b4f1ea0,672d6fb774fced60f5d2c0d3,2024-11-08_16h08.04.411,WTP_SM_Choice,2022.2.1,Win32,50,,,,,space,9.1687,NAN,,NAN,1.33,4.67,,0,48,48,48,1,49,Riley,Acc,Participant_Images/66d2d920fb76c49f098b9397/66d2d920fb76c49f098b9397_Images/66d2d920fb76c49f098b9397_Image_11.jpeg,liked,4.51984296,,,,,,,,,,,,,,,,,,,,,,
,,66d2d920fb76c49f098b9397,6685aa9113c938e83b4f1ea0,672d6fb774fced60f5d2c0d3,2024-11-08_16h08.04.411,WTP_SM_Choice,2022.2.1,Win32,50,,,,,,,,,,,,,,,,,,46,,,,,,space,0.3859,space,0.0226,0.01,1,3.5537,0,0,0,0,1,Road trip to California with my best friend and brother in law,Taking my dog cooper out for a walk to go play in the park,0.01,0.05,8.8,0,,,,
,,66d2d920fb76c49f098b9397,6685aa9113c938e83b4f1ea0,672d6fb774fced60f5d2c0d3,2024-11-08_16h08.04.411,WTP_SM_Choice,2022.2.1,Win32,50,,,,,,,,,,,,,,,,,,47,,,,,,,,,,,,,0,1,1,1,1,Sing loudly in the shower and feeling like I am Americas next Idol,Watch Jerry Springer with my sister,0.02,0.05,1.1,1,,,,
,,66d2d920fb76c49f098b9397,6685aa9113c938e83b4f1ea0,672d6fb774fced60f5d2c0d3,2024-11-08_16h08.04.411,WTP_SM_Choice,2022.2.1,Win32,50,,,,,,,,,,,,,,,,,,48,,,,,,,,,,0.05,2,4.9823,0,2,2,2,1,Play my casino games while laying in bed.,Relax in the pool late at night with my husband,0.03,0.05,4.4,1,,,,
,,66d2d920fb76c49f098b9397,6685aa9113c938e83b4f1ea0,672d6fb774fced60f5d2c0d3,2024-11-08_16h08.04.411,WTP_SM_Choice,2022.2.1,Win32,50,,,,,,,,,,,,,,,,,,49,,,,,,,,,,0.05,2,7.3388,0,3,3,3,1,Go to rock concerts with my dad,Sing loudly in the shower and feeling like I am Americas next Idol,0.04,0.05,3.3,0,,,,
,,66d2d920fb76c49f098b9397,6685aa9113c938e83b4f1ea0,672d6fb774fced60f5d2c0d3,2024-11-08_16h08.04.411,WTP_SM_Choice,2022.2.1,Win32,50,,,,,,,,,,,,,,,,,,50,,,,,,,,,,0.05,1,5.0598,0,4,4,4,1,Sing loudly in the shower and feeling like I am Americas next Idol,Drive around with no destination with my husband Dylan,0.05,0.05,1.1,1,,,,
,,66d2d920fb76c49f098b9397,6685aa9113c938e83b4f1ea0,672d6fb774fced60f5d2c0d3,2024-11-08_16h08.04.411,WTP_SM_Choice,2022.2.1,Win32,50,,,,,,,5,,9,1.49,4.51,,0,49,49,49,1,50,Riley,Acc,Participant_Images/66d2d920fb76c49f098b9397/66d2d920fb76c49f098b9397_Images/66d2d920fb76c49f098b9397_Image_15.jpeg,liked,3.195382774,,,,,,,,,,,,,,,,,,,space,4.2621,,
,,66d2d920fb76c49f098b9397,6685aa9113c938e83b4f1ea0,672d6fb774fced60f5d2c0d3,2024-11-08_16h08.04.411,WTP_SM_Choice,2022.2.1,Win32,50,,,space,2.3594,space,0.5299,NAN,,NAN,1.49,4.51,,0,50,50,50,1,51,Alex,Rej,Participant_Images/66d2d920fb76c49f098b9397/66d2d920fb76c49f098b9397_Images/66d2d920fb76c49f098b9397_Image_21.jpeg,did not like,1.779333479,,,,,,,,,,,,,,,,,,,,,,
,,66d2d920fb76c49f098b9397,6685aa9113c938e83b4f1ea0,672d6fb774fced60f5d2c0d3,2024-11-08_16h08.04.411,WTP_SM_Choice,2022.2.1,Win32,50,,,,,space,4.4804,NAN,,NAN,1.49,4.51,,0,51,51,51,1,52,Alex,Rej,Participant_Images/66d2d920fb76c49f098b9397/66d2d920fb76c49f098b9397_Images/66d2d920fb76c49f098b9397_Image_13.jpeg,did not like,4.312468682,,,,,,,,,,,,,,,,,,,,,,
,,66d2d920fb76c49f098b9397,6685aa9113c938e83b4f1ea0,672d6fb774fced60f5d2c0d3,2024-11-08_16h08.04.411,WTP_SM_Choice,2022.2.1,Win32,50,,,,,space,2.4266,NAN,,NAN,1.49,4.51,,0,52,52,52,1,53,Alex,Rej,Participant_Images/66d2d920fb76c49f098b9397/66d2d920fb76c49f098b9397_Images/66d2d920fb76c49f098b9397_Image_9.jpeg,liked,4.940433059,,,,,,,,,,,,,,,,,,,,,,
,,66d2d920fb76c49f098b9397,6685aa9113c938e83b4f1ea0,672d6fb774fced60f5d2c0d3,2024-11-08_16h08.04.411,WTP_SM_Choice,2022.2.1,Win32,50,,,,,space,0.3804,NAN,,NAN,1.49,4.51,,0,53,53,53,1,54,Alex,Rej,Participant_Images/66d2d920fb76c49f098b9397/66d2d920fb76c49f098b9397_Images/66d2d920fb76c49f098b9397_Image_20.jpeg,liked,2.7105123,,,,,,,,,,,,,,,,,,,,,,
,,66d2d920fb76c49f098b9397,6685aa9113c938e83b4f1ea0,672d6fb774fced60f5d2c0d3,2024-11-08_16h08.04.411,WTP_SM_Choice,2022.2.1,Win32,50,,,,,,,,,,,,,,,,,,51,,,,,,space,3.8652,space,4.1336,0.01,2,5.1317,0,0,0,0,1,Drive around with no destination with my husband Dylan,Drive in the car and enjoying the radio blaring and wind in my hair,0.01,0.01,1.1,0,,,,
,,66d2d920fb76c49f098b9397,6685aa9113c938e83b4f1ea0,672d6fb774fced60f5d2c0d3,2024-11-08_16h08.04.411,WTP_SM_Choice,2022.2.1,Win32,50,,,,,,,,,,,,,,,,,,52,,,,,,,,,,0.02,1,8.1228,0,1,1,1,1,Crochet my current project while watching tv late at night,Go to the casino with my friend James,0.02,0.01,3.3,1,,,,
,,66d2d920fb76c49f098b9397,6685aa9113c938e83b4f1ea0,672d6fb774fced60f5d2c0d3,2024-11-08_16h08.04.411,WTP_SM_Choice,2022.2.1,Win32,50,,,,,,,,,,,,,,,,,,53,,,,,,,,,,0.01,2,5.3544,0,2,2,2,1,Go to rock concerts with my dad,Look up at the stars late at night searching for ufos or shooting stars,0.03,0.01,1.1,0,,,,
,,66d2d920fb76c49f098b9397,6685aa9113c938e83b4f1ea0,672d6fb774fced60f5d2c0d3,2024-11-08_16h08.04.411,WTP_SM_Choice,2022.2.1,Win32,50,,,,,,,,,,,,,,,,,,54,,,,,,,,,,0.04,1,8.4211,0,3,3,3,1,Play video games against my sister and friends,Binge watch my favorite tv series when its raining outside,0.04,0.01,4.4,0,,,,
,,66d2d920fb76c49f098b9397,6685aa9113c938e83b4f1ea0,672d6fb774fced60f5d2c0d3,2024-11-08_16h08.04.411,WTP_SM_Choice,2022.2.1,Win32,50,,,,,,,,,,,,,,,,,,55,,,,,,,,,,0.05,1,2.7298,0,4,4,4,1,Lay in the hammock and looking up at the clouds on a nice windy day,Road trip to California with my best friend and brother in law,0.05,0.01,1.1,1,,,,
,,66d2d920fb76c49f098b9397,6685aa9113c938e83b4f1ea0,672d6fb774fced60f5d2c0d3,2024-11-08_16h08.04.411,WTP_SM_Choice,2022.2.1,Win32,50,,,,,,,NAN,,NAN,1.62,4.38,,0,54,54,54,1,55,Alex,Rej,Participant_Images/66d2d920fb76c49f098b9397/66d2d920fb76c49f098b9397_Images/66d2d920fb76c49f098b9397_Image_1.jpeg,liked,3.602308302,,,,,,,,,,,,,,,,,,,,,,
,,66d2d920fb76c49f098b9397,6685aa9113c938e83b4f1ea0,672d6fb774fced60f5d2c0d3,2024-11-08_16h08.04.411,WTP_SM_Choice,2022.2.1,Win32,50,,,,,space,1.3669,NAN,,NAN,1.62,4.38,,0,55,55,55,1,56,Alex,Rej,Participant_Images/66d2d920fb76c49f098b9397/66d2d920fb76c49f098b9397_Images/66d2d920fb76c49f098b9397_Image_2.jpeg,liked,4.106391878,,,,,,,,,,,,,,,,,,,,,,
,,66d2d920fb76c49f098b9397,6685aa9113c938e83b4f1ea0,672d6fb774fced60f5d2c0d3,2024-11-08_16h08.04.411,WTP_SM_Choice,2022.2.1,Win32,50,,,,,space,3.8962,NAN,,NAN,1.62,4.38,,0,56,56,56,1,57,Alex,Rej,Participant_Images/66d2d920fb76c49f098b9397/66d2d920fb76c49f098b9397_Images/66d2d920fb76c49f098b9397_Image_5.jpeg,did not like,3.799433026,,,,,,,,,,,,,,,,,,,,,,
,,66d2d920fb76c49f098b9397,6685aa9113c938e83b4f1ea0,672d6fb774fced60f5d2c0d3,2024-11-08_16h08.04.411,WTP_SM_Choice,2022.2.1,Win32,50,,,,,space,7.4526,NAN,,NAN,1.62,4.38,,0,57,57,57,1,58,Alex,Rej,Participant_Images/66d2d920fb76c49f098b9397/66d2d920fb76c49f098b9397_Images/66d2d920fb76c49f098b9397_Image_17.jpeg,did not like,5.246980764,,,,,,,,,,,,,,,,,,,,,,
,,66d2d920fb76c49f098b9397,6685aa9113c938e83b4f1ea0,672d6fb774fced60f5d2c0d3,2024-11-08_16h08.04.411,WTP_SM_Choice,2022.2.1,Win32,50,,,,,space,0.5119,NAN,,NAN,1.62,4.38,,0,58,58,58,1,59,Alex,Rej,Participant_Images/66d2d920fb76c49f098b9397/66d2d920fb76c49f098b9397_Images/66d2d920fb76c49f098b9397_Image_16.jpeg,did not like,3.30081769,,,,,,,,,,,,,,,,,,,,,,
,,66d2d920fb76c49f098b9397,6685aa9113c938e83b4f1ea0,672d6fb774fced60f5d2c0d3,2024-11-08_16h08.04.411,WTP_SM_Choice,2022.2.1,Win32,50,,,,,,,,,,,,,,,,,,56,,,,,,space,3.4384,space,2.0097,0.02,2,4.4476,0,0,0,0,1,Play my casino games while laying in bed.,Drive around with no destination with my husband Dylan,0.01,0.02,8.8,1,,,,
,,66d2d920fb76c49f098b9397,6685aa9113c938e83b4f1ea0,672d6fb774fced60f5d2c0d3,2024-11-08_16h08.04.411,WTP_SM_Choice,2022.2.1,Win32,50,,,,,,,,,,,,,,,,,,57,,,,,,,,,,0.02,1,5.1056,0,1,1,1,1,Lay in the hammock and looking up at the clouds on a nice windy day,Relax in the pool late at night with my husband,0.02,0.02,4.4,1,,,,
,,66d2d920fb76c49f098b9397,6685aa9113c938e83b4f1ea0,672d6fb774fced60f5d2c0d3,2024-11-08_16h08.04.411,WTP_SM_Choice,2022.2.1,Win32,50,,,,,,,,,,,,,,,,,,58,,,,,,,,,,0.03,1,4.4009,0,2,2,2,1,hang out with my girlfriend and gossiping about life,Drive in the car and enjoying the radio blaring and wind in my hair,0.03,0.02,4.4,0,,,,
,,66d2d920fb76c49f098b9397,6685aa9113c938e83b4f1ea0,672d6fb774fced60f5d2c0d3,2024-11-08_16h08.04.411,WTP_SM_Choice,2022.2.1,Win32,50,,,,,,,,,,,,,,,,,,59,,,,,,,,,,0.02,2,4.3201,0,3,3,3,1,Play boardgames with my significant other,Drive in the car and enjoying the radio blaring and wind in my hair,0.04,0.02,4.4,0,,,,
,,66d2d920fb76c49f098b9397,6685aa9113c938e83b4f1ea0,672d6fb774fced60f5d2c0d3,2024-11-08_16h08.04.411,WTP_SM_Choice,2022.2.1,Win32,50,,,,,,,,,,,,,,,,,,60,,,,,,,,,,0.05,1,3.3563,0,4,4,4,1,Sketch or create art in my sketchbook while relaxing on the couch.,Cook dinner with my pappy,0.05,0.02,1.1,1,,,,
,,66d2d920fb76c49f098b9397,6685aa9113c938e83b4f1ea0,672d6fb774fced60f5d2c0d3,2024-11-08_16h08.04.411,WTP_SM_Choice,2022.2.1,Win32,50,,,,,,,NAN,,NAN,1.76,4.24,,0,59,59,59,1,60,Alex,Rej,Participant_Images/66d2d920fb76c49f098b9397/66d2d920fb76c49f098b9397_Images/66d2d920fb76c49f098b9397_Image_23.jpeg,did not like,1.661473164,,,,,,,,,,,,,,,,,,,,,,
,,66d2d920fb76c49f098b9397,6685aa9113c938e83b4f1ea0,672d6fb774fced60f5d2c0d3,2024-11-08_16h08.04.411,WTP_SM_Choice,2022.2.1,Win32,50,,,,,space,2.2409,NAN,,NAN,1.76,4.24,,0,60,60,60,1,61,Alex,Rej,Participant_Images/66d2d920fb76c49f098b9397/66d2d920fb76c49f098b9397_Images/66d2d920fb76c49f098b9397_Image_4.jpeg,liked,3.613205605,,,,,,,,,,,,,,,,,,,,,,
,,66d2d920fb76c49f098b9397,6685aa9113c938e83b4f1ea0,672d6fb774fced60f5d2c0d3,2024-11-08_16h08.04.411,WTP_SM_Choice,2022.2.1,Win32,50,,,,,space,2.9183,NAN,,NAN,1.76,4.24,,0,61,61,61,1,62,Alex,Rej,Participant_Images/66d2d920fb76c49f098b9397/66d2d920fb76c49f098b9397_Images/66d2d920fb76c49f098b9397_Image_14.jpeg,did not like,4.988446431,,,,,,,,,,,,,,,,,,,,,,
,,66d2d920fb76c49f098b9397,6685aa9113c938e83b4f1ea0,672d6fb774fced60f5d2c0d3,2024-11-08_16h08.04.411,WTP_SM_Choice,2022.2.1,Win32,50,,,,,space,9.46,NAN,,NAN,1.76,4.24,,0,62,62,62,1,63,Alex,Rej,Participant_Images/66d2d920fb76c49f098b9397/66d2d920fb76c49f098b9397_Images/66d2d920fb76c49f098b9397_Image_12.jpeg,did not like,3.470791822,,,,,,,,,,,,,,,,,,,,,,
,,66d2d920fb76c49f098b9397,6685aa9113c938e83b4f1ea0,672d6fb774fced60f5d2c0d3,2024-11-08_16h08.04.411,WTP_SM_Choice,2022.2.1,Win32,50,,,,,space,2.1392,NAN,,NAN,1.76,4.24,,0,63,63,63,1,64,Alex,Rej,Participant_Images/66d2d920fb76c49f098b9397/66d2d920fb76c49f098b9397_Images/66d2d920fb76c49f098b9397_Image_6.jpeg,liked,3.820572462,,,,,,,,,,,,,,,,,,,,,,
,,66d2d920fb76c49f098b9397,6685aa9113c938e83b4f1ea0,672d6fb774fced60f5d2c0d3,2024-11-08_16h08.04.411,WTP_SM_Choice,2022.2.1,Win32,50,,,,,,,,,,,,,,,,,,61,,,,,,space,4.8443,space,0.4931,0.03,2,4.0133,0,0,0,0,1,Crochet my current project while watching tv late at night,Play video games against my sister and friends,0.01,0.03,3.3,1,,,,
,,66d2d920fb76c49f098b9397,6685aa9113c938e83b4f1ea0,672d6fb774fced60f5d2c0d3,2024-11-08_16h08.04.411,WTP_SM_Choice,2022.2.1,Win32,50,,,,,,,,,,,,,,,,,,62,,,,,,,,,,0.02,1,5.1527,0,1,1,1,1,Look up at the stars late at night searching for ufos or shooting stars,Go to the casino with my friend James,0.02,0.03,3.3,1,,,,
,,66d2d920fb76c49f098b9397,6685aa9113c938e83b4f1ea0,672d6fb774fced60f5d2c0d3,2024-11-08_16h08.04.411,WTP_SM_Choice,2022.2.1,Win32,50,,,,,,,,,,,,,,,,,,63,,,,,,,,,,0.03,2,4.0405,0,2,2,2,1,Cook dinner with my pappy,Sing loudly in the shower and feeling like I am Americas next Idol,0.03,0.03,3.3,0,,,,
,,66d2d920fb76c49f098b9397,6685aa9113c938e83b4f1ea0,672d6fb774fced60f5d2c0d3,2024-11-08_16h08.04.411,WTP_SM_Choice,2022.2.1,Win32,50,,,,,,,,,,,,,,,,,,64,,,,,,,,,,0.04,1,3.1831,0,3,3,3,1,Watch Jerry Springer with my sister,Going to the beach to lay out and swim on a sunny beautiful day.,0.04,0.03,1.1,0,,,,
,,66d2d920fb76c49f098b9397,6685aa9113c938e83b4f1ea0,672d6fb774fced60f5d2c0d3,2024-11-08_16h08.04.411,WTP_SM_Choice,2022.2.1,Win32,50,,,,,,,,,,,,,,,,,,65,,,,,,,,,,0.03,2,5.095,0,4,4,4,1,Relax in the pool late at night with my husband,Crochet my current project while watching tv late at night,0.05,0.03,1.1,0,,,,
,,66d2d920fb76c49f098b9397,6685aa9113c938e83b4f1ea0,672d6fb774fced60f5d2c0d3,2024-11-08_16h08.04.411,WTP_SM_Choice,2022.2.1,Win32,50,,,,,,,NAN,,NAN,1.91,4.09,,0,64,64,64,1,65,Alex,Rej,Participant_Images/66d2d920fb76c49f098b9397/66d2d920fb76c49f098b9397_Images/66d2d920fb76c49f098b9397_Image_24.jpeg,did not like,2.455989137,,,,,,,,,,,,,,,,,,,,,,
,,66d2d920fb76c49f098b9397,6685aa9113c938e83b4f1ea0,672d6fb774fced60f5d2c0d3,2024-11-08_16h08.04.411,WTP_SM_Choice,2022.2.1,Win32,50,,,,,space,2.7238,NAN,,NAN,1.91,4.09,,0,65,65,65,1,66,Alex,Rej,Participant_Images/66d2d920fb76c49f098b9397/66d2d920fb76c49f098b9397_Images/66d2d920fb76c49f098b9397_Image_7.jpeg,did not like,3.79605092,,,,,,,,,,,,,,,,,,,,,,
,,66d2d920fb76c49f098b9397,6685aa9113c938e83b4f1ea0,672d6fb774fced60f5d2c0d3,2024-11-08_16h08.04.411,WTP_SM_Choice,2022.2.1,Win32,50,,,,,space,0.8592,NAN,,NAN,1.91,4.09,,0,66,66,66,1,67,Alex,Rej,Participant_Images/66d2d920fb76c49f098b9397/66d2d920fb76c49f098b9397_Images/66d2d920fb76c49f098b9397_Image_19.jpeg,did not like,3.562416326,,,,,,,,,,,,,,,,,,,,,,
,,66d2d920fb76c49f098b9397,6685aa9113c938e83b4f1ea0,672d6fb774fced60f5d2c0d3,2024-11-08_16h08.04.411,WTP_SM_Choice,2022.2.1,Win32,50,,,,,space,2.6835,NAN,,NAN,1.91,4.09,,0,67,67,67,1,68,Alex,Rej,Participant_Images/66d2d920fb76c49f098b9397/66d2d920fb76c49f098b9397_Images/66d2d920fb76c49f098b9397_Image_15.jpeg,did not like,2.843822497,,,,,,,,,,,,,,,,,,,,,,
,,66d2d920fb76c49f098b9397,6685aa9113c938e83b4f1ea0,672d6fb774fced60f5d2c0d3,2024-11-08_16h08.04.411,WTP_SM_Choice,2022.2.1,Win32,50,,,,,space,3.4764,NAN,,NAN,1.91,4.09,,0,68,68,68,1,69,Alex,Rej,Participant_Images/66d2d920fb76c49f098b9397/66d2d920fb76c49f098b9397_Images/66d2d920fb76c49f098b9397_Image_8.jpeg,did not like,3.546495948,,,,,,,,,,,,,,,,,,,,,,
,,66d2d920fb76c49f098b9397,6685aa9113c938e83b4f1ea0,672d6fb774fced60f5d2c0d3,2024-11-08_16h08.04.411,WTP_SM_Choice,2022.2.1,Win32,50,,,,,,,,,,,,,,,,,,66,,,,,,space,0.2544,space,0.8977,0.04,2,5.3394,0,0,0,0,1,Play boardgames with my significant other,Look up at the stars late at night searching for ufos or shooting stars,0.01,0.04,1.1,0,,,,
,,66d2d920fb76c49f098b9397,6685aa9113c938e83b4f1ea0,672d6fb774fced60f5d2c0d3,2024-11-08_16h08.04.411,WTP_SM_Choice,2022.2.1,Win32,50,,,,,,,,,,,,,,,,,,67,,,,,,,,,,0.04,2,4.3792,0,1,1,1,1,Go to rock concerts with my dad,Drive in the car and enjoying the radio blaring and wind in my hair,0.02,0.04,8.8,0,,,,
,,66d2d920fb76c49f098b9397,6685aa9113c938e83b4f1ea0,672d6fb774fced60f5d2c0d3,2024-11-08_16h08.04.411,WTP_SM_Choice,2022.2.1,Win32,50,,,,,,,,,,,,,,,,,,68,,,,,,,,,,0.03,1,5.4978,0,2,2,2,1,Binge watch my favorite tv series when its raining outside,Road trip to California with my best friend and brother in law,0.03,0.04,4.4,1,,,,
,,66d2d920fb76c49f098b9397,6685aa9113c938e83b4f1ea0,672d6fb774fced60f5d2c0d3,2024-11-08_16h08.04.411,WTP_SM_Choice,2022.2.1,Win32,50,,,,,,,,,,,,,,,,,,69,,,,,,,,,,0.04,2,6.8788,0,3,3,3,1,Play boardgames with my significant other,Taking my dog cooper out for a walk to go play in the park,0.04,0.04,1.1,0,,,,
,,66d2d920fb76c49f098b9397,6685aa9113c938e83b4f1ea0,672d6fb774fced60f5d2c0d3,2024-11-08_16h08.04.411,WTP_SM_Choice,2022.2.1,Win32,50,,,,,,,,,,,,,,,,,,70,,,,,,,,,,0.04,2,9.1571,0,4,4,4,1,Binge watch my favorite tv series when its raining outside,Watch Jerry Springer with my sister,0.05,0.04,1.1,1,,,,
,,66d2d920fb76c49f098b9397,6685aa9113c938e83b4f1ea0,672d6fb774fced60f5d2c0d3,2024-11-08_16h08.04.411,WTP_SM_Choice,2022.2.1,Win32,50,,,,,,,NAN,,NAN,2.1,3.9,,0,69,69,69,1,70,Alex,Rej,Participant_Images/66d2d920fb76c49f098b9397/66d2d920fb76c49f098b9397_Images/66d2d920fb76c49f098b9397_Image_25.jpeg,did not like,1.672012706,,,,,,,,,,,,,,,,,,,,,,
,,66d2d920fb76c49f098b9397,6685aa9113c938e83b4f1ea0,672d6fb774fced60f5d2c0d3,2024-11-08_16h08.04.411,WTP_SM_Choice,2022.2.1,Win32,50,,,,,space,1.1029,NAN,,NAN,2.1,3.9,,0,70,70,70,1,71,Alex,Rej,Participant_Images/66d2d920fb76c49f098b9397/66d2d920fb76c49f098b9397_Images/66d2d920fb76c49f098b9397_Image_10.jpeg,liked,4.942172136,,,,,,,,,,,,,,,,,,,,,,
,,66d2d920fb76c49f098b9397,6685aa9113c938e83b4f1ea0,672d6fb774fced60f5d2c0d3,2024-11-08_16h08.04.411,WTP_SM_Choice,2022.2.1,Win32,50,,,,,space,0.4916,NAN,,NAN,2.1,3.9,,0,71,71,71,1,72,Alex,Rej,Participant_Images/66d2d920fb76c49f098b9397/66d2d920fb76c49f098b9397_Images/66d2d920fb76c49f098b9397_Image_18.jpeg,did not like,2.50187214,,,,,,,,,,,,,,,,,,,,,,
,,66d2d920fb76c49f098b9397,6685aa9113c938e83b4f1ea0,672d6fb774fced60f5d2c0d3,2024-11-08_16h08.04.411,WTP_SM_Choice,2022.2.1,Win32,50,,,,,space,1.9238,NAN,,NAN,2.1,3.9,,0,72,72,72,1,73,Alex,Rej,Participant_Images/66d2d920fb76c49f098b9397/66d2d920fb76c49f098b9397_Images/66d2d920fb76c49f098b9397_Image_11.jpeg,did not like,2.071164779,,,,,,,,,,,,,,,,,,,,,,
,,66d2d920fb76c49f098b9397,6685aa9113c938e83b4f1ea0,672d6fb774fced60f5d2c0d3,2024-11-08_16h08.04.411,WTP_SM_Choice,2022.2.1,Win32,50,,,,,space,1.3495,NAN,,NAN,2.1,3.9,,0,73,73,73,1,74,Alex,Rej,Participant_Images/66d2d920fb76c49f098b9397/66d2d920fb76c49f098b9397_Images/66d2d920fb76c49f098b9397_Image_3.jpeg,did not like,5.336503566,,,,,,,,,,,,,,,,,,,,,,
,,66d2d920fb76c49f098b9397,6685aa9113c938e83b4f1ea0,672d6fb774fced60f5d2c0d3,2024-11-08_16h08.04.411,WTP_SM_Choice,2022.2.1,Win32,50,,,,,,,,,,,,,,,,,,71,,,,,,space,0.8972,space,1.6846,0.05,2,4.0411,0,0,0,0,1,Play my casino games while laying in bed.,hang out with my girlfriend and gossiping about life,0.01,0.05,3.3,1,,,,
,,66d2d920fb76c49f098b9397,6685aa9113c938e83b4f1ea0,672d6fb774fced60f5d2c0d3,2024-11-08_16h08.04.411,WTP_SM_Choice,2022.2.1,Win32,50,,,,,,,,,,,,,,,,,,72,,,,,,,,,,0.02,1,3.0733,0,1,1,1,1,Sing loudly in the shower and feeling like I am Americas next Idol,Road trip to California with my best friend and brother in law,0.02,0.05,8.8,1,,,,
,,66d2d920fb76c49f098b9397,6685aa9113c938e83b4f1ea0,672d6fb774fced60f5d2c0d3,2024-11-08_16h08.04.411,WTP_SM_Choice,2022.2.1,Win32,50,,,,,,,,,,,,,,,,,,73,,,,,,,,,,0.03,1,5.8214,0,2,2,2,1,Drive in the car and enjoying the radio blaring and wind in my hair,Go to the casino with my friend James,0.03,0.05,3.3,1,,,,
,,66d2d920fb76c49f098b9397,6685aa9113c938e83b4f1ea0,672d6fb774fced60f5d2c0d3,2024-11-08_16h08.04.411,WTP_SM_Choice,2022.2.1,Win32,50,,,,,,,,,,,,,,,,,,74,,,,,,,,,,0.05,2,3.9595,0,3,3,3,1,Relax in the pool late at night with my husband,Look up at the stars late at night searching for ufos or shooting stars,0.04,0.05,4.4,0,,,,
,,66d2d920fb76c49f098b9397,6685aa9113c938e83b4f1ea0,672d6fb774fced60f5d2c0d3,2024-11-08_16h08.04.411,WTP_SM_Choice,2022.2.1,Win32,50,,,,,,,,,,,,,,,,,,75,,,,,,,,,,0.05,1,5.5054,0,4,4,4,1,Going to the beach to lay out and swim on a sunny beautiful day.,Cook dinner with my pappy,0.05,0.05,3.3,1,,,,
,,66d2d920fb76c49f098b9397,6685aa9113c938e83b4f1ea0,672d6fb774fced60f5d2c0d3,2024-11-08_16h08.04.411,WTP_SM_Choice,2022.2.1,Win32,50,,,,,,,5,,9,2.3,3.7,,0,74,74,74,1,75,Alex,Rej,Participant_Images/66d2d920fb76c49f098b9397/66d2d920fb76c49f098b9397_Images/66d2d920fb76c49f098b9397_Image_22.jpeg,did not like,2.642157193,,,,,,,,,,,,,,,,,,,space,1.603,,
,,66d2d920fb76c49f098b9397,6685aa9113c938e83b4f1ea0,672d6fb774fced60f5d2c0d3,2024-11-08_16h08.04.411,WTP_SM_Choice,2022.2.1,Win32,50,,,space,3.9536,space,1.7377,NAN,,NAN,2.3,3.7,,0,75,75,75,1,76,Sam,Acc,Participant_Images/66d2d920fb76c49f098b9397/66d2d920fb76c49f098b9397_Images/66d2d920fb76c49f098b9397_Image_21.jpeg,liked,4.456234322,,,,,,,,,,,,,,,,,,,,,,
,,66d2d920fb76c49f098b9397,6685aa9113c938e83b4f1ea0,672d6fb774fced60f5d2c0d3,2024-11-08_16h08.04.411,WTP_SM_Choice,2022.2.1,Win32,50,,,,,space,2.2891,NAN,,NAN,2.3,3.7,,0,76,76,76,1,77,Sam,Acc,Participant_Images/66d2d920fb76c49f098b9397/66d2d920fb76c49f098b9397_Images/66d2d920fb76c49f098b9397_Image_3.jpeg,liked,4.438512181,,,,,,,,,,,,,,,,,,,,,,
,,66d2d920fb76c49f098b9397,6685aa9113c938e83b4f1ea0,672d6fb774fced60f5d2c0d3,2024-11-08_16h08.04.411,WTP_SM_Choice,2022.2.1,Win32,50,,,,,space,8.6241,NAN,,NAN,2.3,3.7,,0,77,77,77,1,78,Sam,Acc,Participant_Images/66d2d920fb76c49f098b9397/66d2d920fb76c49f098b9397_Images/66d2d920fb76c49f098b9397_Image_25.jpeg,did not like,2.682944783,,,,,,,,,,,,,,,,,,,,,,
,,66d2d920fb76c49f098b9397,6685aa9113c938e83b4f1ea0,672d6fb774fced60f5d2c0d3,2024-11-08_16h08.04.411,WTP_SM_Choice,2022.2.1,Win32,50,,,,,space,1.8842,NAN,,NAN,2.3,3.7,,0,78,78,78,1,79,Sam,Acc,Participant_Images/66d2d920fb76c49f098b9397/66d2d920fb76c49f098b9397_Images/66d2d920fb76c49f098b9397_Image_22.jpeg,liked,4.51984296,,,,,,,,,,,,,,,,,,,,,,
,,66d2d920fb76c49f098b9397,6685aa9113c938e83b4f1ea0,672d6fb774fced60f5d2c0d3,2024-11-08_16h08.04.411,WTP_SM_Choice,2022.2.1,Win32,50,,,,,,,,,,,,,,,,,,76,,,,,,space,2.1845,space,1.8539,0.01,1,2.9911,0,0,0,0,1,Watch Jerry Springer with my sister,Play my casino games while laying in bed.,0.01,0.01,1.1,0,,,,
,,66d2d920fb76c49f098b9397,6685aa9113c938e83b4f1ea0,672d6fb774fced60f5d2c0d3,2024-11-08_16h08.04.411,WTP_SM_Choice,2022.2.1,Win32,50,,,,,,,,,,,,,,,,,,77,,,,,,,,,,0.01,2,3.8539,0,1,1,1,1,Go to the casino with my friend James,Sing loudly in the shower and feeling like I am Americas next Idol,0.02,0.01,8.8,0,,,,
,,66d2d920fb76c49f098b9397,6685aa9113c938e83b4f1ea0,672d6fb774fced60f5d2c0d3,2024-11-08_16h08.04.411,WTP_SM_Choice,2022.2.1,Win32,50,,,,,,,,,,,,,,,,,,78,,,,,,,,,,0.01,2,5.0246,0,2,2,2,1,Play boardgames with my significant other,Binge watch my favorite tv series when its raining outside,0.03,0.01,1.1,0,,,,
,,66d2d920fb76c49f098b9397,6685aa9113c938e83b4f1ea0,672d6fb774fced60f5d2c0d3,2024-11-08_16h08.04.411,WTP_SM_Choice,2022.2.1,Win32,50,,,,,,,,,,,,,,,,,,79,,,,,,,,,,0.04,1,6.6909,0,3,3,3,1,hang out with my girlfriend and gossiping about life,Lay in the hammock and looking up at the clouds on a nice windy day,0.04,0.01,1.1,0,,,,
,,66d2d920fb76c49f098b9397,6685aa9113c938e83b4f1ea0,672d6fb774fced60f5d2c0d3,2024-11-08_16h08.04.411,WTP_SM_Choice,2022.2.1,Win32,50,,,,,,,,,,,,,,,,,,80,,,,,,,,,,0.01,2,5.8517,0,4,4,4,1,Drive around with no destination with my husband Dylan,Taking my dog cooper out for a walk to go play in the park,0.05,0.01,4.4,0,,,,
,,66d2d920fb76c49f098b9397,6685aa9113c938e83b4f1ea0,672d6fb774fced60f5d2c0d3,2024-11-08_16h08.04.411,WTP_SM_Choice,2022.2.1,Win32,50,,,,,,,NAN,,NAN,2.38,3.62,,0,79,79,79,1,80,Sam,Acc,Participant_Images/66d2d920fb76c49f098b9397/66d2d920fb76c49f098b9397_Images/66d2d920fb76c49f098b9397_Image_16.jpeg,liked,3.195382774,,,,,,,,,,,,,,,,,,,,,,
,,66d2d920fb76c49f098b9397,6685aa9113c938e83b4f1ea0,672d6fb774fced60f5d2c0d3,2024-11-08_16h08.04.411,WTP_SM_Choice,2022.2.1,Win32,50,,,,,space,1.0781,NAN,,NAN,2.38,3.62,,0,80,80,80,1,81,Sam,Acc,Participant_Images/66d2d920fb76c49f098b9397/66d2d920fb76c49f098b9397_Images/66d2d920fb76c49f098b9397_Image_14.jpeg,liked,1.779333479,,,,,,,,,,,,,,,,,,,,,,
,,66d2d920fb76c49f098b9397,6685aa9113c938e83b4f1ea0,672d6fb774fced60f5d2c0d3,2024-11-08_16h08.04.411,WTP_SM_Choice,2022.2.1,Win32,50,,,,,space,0.5003,NAN,,NAN,2.38,3.62,,0,81,81,81,1,82,Sam,Acc,Participant_Images/66d2d920fb76c49f098b9397/66d2d920fb76c49f098b9397_Images/66d2d920fb76c49f098b9397_Image_6.jpeg,liked,4.312468682,,,,,,,,,,,,,,,,,,,,,,
,,66d2d920fb76c49f098b9397,6685aa9113c938e83b4f1ea0,672d6fb774fced60f5d2c0d3,2024-11-08_16h08.04.411,WTP_SM_Choice,2022.2.1,Win32,50,,,,,space,2.9634,NAN,,NAN,2.38,3.62,,0,82,82,82,1,83,Sam,Acc,Participant_Images/66d2d920fb76c49f098b9397/66d2d920fb76c49f098b9397_Images/66d2d920fb76c49f098b9397_Image_7.jpeg,liked,4.940433059,,,,,,,,,,,,,,,,,,,,,,
,,66d2d920fb76c49f098b9397,6685aa9113c938e83b4f1ea0,672d6fb774fced60f5d2c0d3,2024-11-08_16h08.04.411,WTP_SM_Choice,2022.2.1,Win32,50,,,,,space,1.2519,NAN,,NAN,2.38,3.62,,0,83,83,83,1,84,Sam,Acc,Participant_Images/66d2d920fb76c49f098b9397/66d2d920fb76c49f098b9397_Images/66d2d920fb76c49f098b9397_Image_19.jpeg,liked,2.7105123,,,,,,,,,,,,,,,,,,,,,,
,,66d2d920fb76c49f098b9397,6685aa9113c938e83b4f1ea0,672d6fb774fced60f5d2c0d3,2024-11-08_16h08.04.411,WTP_SM_Choice,2022.2.1,Win32,50,,,,,,,,,,,,,,,,,,81,,,,,,space,2.9051,space,0.5742,0.02,2,2.6036,0,0,0,0,1,Drive around with no destination with my husband Dylan,Going to the beach to lay out and swim on a sunny beautiful day.,0.01,0.02,3.3,0,,,,
,,66d2d920fb76c49f098b9397,6685aa9113c938e83b4f1ea0,672d6fb774fced60f5d2c0d3,2024-11-08_16h08.04.411,WTP_SM_Choice,2022.2.1,Win32,50,,,,,,,,,,,,,,,,,,82,,,,,,,,,,0.02,1,3.7139,0,1,1,1,1,Watch Jerry Springer with my sister,Taking my dog cooper out for a walk to go play in the park,0.02,0.02,4.4,0,,,,
,,66d2d920fb76c49f098b9397,6685aa9113c938e83b4f1ea0,672d6fb774fced60f5d2c0d3,2024-11-08_16h08.04.411,WTP_SM_Choice,2022.2.1,Win32,50,,,,,,,,,,,,,,,,,,83,,,,,,,,,,0.03,1,2.5844,0,2,2,2,1,Play video games against my sister and friends,Lay in the hammock and looking up at the clouds on a nice windy day,0.03,0.02,1.1,0,,,,
,,66d2d920fb76c49f098b9397,6685aa9113c938e83b4f1ea0,672d6fb774fced60f5d2c0d3,2024-11-08_16h08.04.411,WTP_SM_Choice,2022.2.1,Win32,50,,,,,,,,,,,,,,,,,,84,,,,,,,,,,0.04,1,6.2594,0,3,3,3,1,Sketch or create art in my sketchbook while relaxing on the couch.,hang out with my girlfriend and gossiping about life,0.04,0.02,3.3,1,,,,
,,66d2d920fb76c49f098b9397,6685aa9113c938e83b4f1ea0,672d6fb774fced60f5d2c0d3,2024-11-08_16h08.04.411,WTP_SM_Choice,2022.2.1,Win32,50,,,,,,,,,,,,,,,,,,85,,,,,,,,,,,,,0,4,4,4,1,Lay in the hammock and looking up at the clouds on a nice windy day,Play boardgames with my significant other,0.05,0.02,3.3,1,,,,
,,66d2d920fb76c49f098b9397,6685aa9113c938e83b4f1ea0,672d6fb774fced60f5d2c0d3,2024-11-08_16h08.04.411,WTP_SM_Choice,2022.2.1,Win32,50,,,,,,,NAN,,NAN,2.49,3.51,,0,84,84,84,1,85,Sam,Acc,Participant_Images/66d2d920fb76c49f098b9397/66d2d920fb76c49f098b9397_Images/66d2d920fb76c49f098b9397_Image_17.jpeg,liked,3.602308302,,,,,,,,,,,,,,,,,,,,,,
,,66d2d920fb76c49f098b9397,6685aa9113c938e83b4f1ea0,672d6fb774fced60f5d2c0d3,2024-11-08_16h08.04.411,WTP_SM_Choice,2022.2.1,Win32,50,,,,,space,0.8353,NAN,,NAN,2.49,3.51,,0,85,85,85,1,86,Sam,Acc,Participant_Images/66d2d920fb76c49f098b9397/66d2d920fb76c49f098b9397_Images/66d2d920fb76c49f098b9397_Image_23.jpeg,did not like,4.106391878,,,,,,,,,,,,,,,,,,,,,,
,,66d2d920fb76c49f098b9397,6685aa9113c938e83b4f1ea0,672d6fb774fced60f5d2c0d3,2024-11-08_16h08.04.411,WTP_SM_Choice,2022.2.1,Win32,50,,,,,space,4.5627,NAN,,NAN,2.49,3.51,,0,86,86,86,1,87,Sam,Acc,Participant_Images/66d2d920fb76c49f098b9397/66d2d920fb76c49f098b9397_Images/66d2d920fb76c49f098b9397_Image_12.jpeg,liked,3.799433026,,,,,,,,,,,,,,,,,,,,,,
,,66d2d920fb76c49f098b9397,6685aa9113c938e83b4f1ea0,672d6fb774fced60f5d2c0d3,2024-11-08_16h08.04.411,WTP_SM_Choice,2022.2.1,Win32,50,,,,,space,7.5824,NAN,,NAN,2.49,3.51,,0,87,87,87,1,88,Sam,Acc,Participant_Images/66d2d920fb76c49f098b9397/66d2d920fb76c49f098b9397_Images/66d2d920fb76c49f098b9397_Image_4.jpeg,liked,5.246980764,,,,,,,,,,,,,,,,,,,,,,
,,66d2d920fb76c49f098b9397,6685aa9113c938e83b4f1ea0,672d6fb774fced60f5d2c0d3,2024-11-08_16h08.04.411,WTP_SM_Choice,2022.2.1,Win32,50,,,,,space,2.1315,NAN,,NAN,2.49,3.51,,0,88,88,88,1,89,Sam,Acc,Participant_Images/66d2d920fb76c49f098b9397/66d2d920fb76c49f098b9397_Images/66d2d920fb76c49f098b9397_Image_15.jpeg,liked,3.30081769,,,,,,,,,,,,,,,,,,,,,,
,,66d2d920fb76c49f098b9397,6685aa9113c938e83b4f1ea0,672d6fb774fced60f5d2c0d3,2024-11-08_16h08.04.411,WTP_SM_Choice,2022.2.1,Win32,50,,,,,,,,,,,,,,,,,,86,,,,,,space,2.5071,space,0.3581,0.03,2,3.6222,0,0,0,0,1,Road trip to California with my best friend and brother in law,Crochet my current project while watching tv late at night,0.01,0.03,1.1,0,,,,
,,66d2d920fb76c49f098b9397,6685aa9113c938e83b4f1ea0,672d6fb774fced60f5d2c0d3,2024-11-08_16h08.04.411,WTP_SM_Choice,2022.2.1,Win32,50,,,,,,,,,,,,,,,,,,87,,,,,,,,,,0.03,2,4.9179,0,1,1,1,1,Look up at the stars late at night searching for ufos or shooting stars,hang out with my girlfriend and gossiping about life,0.02,0.03,4.4,1,,,,
,,66d2d920fb76c49f098b9397,6685aa9113c938e83b4f1ea0,672d6fb774fced60f5d2c0d3,2024-11-08_16h08.04.411,WTP_SM_Choice,2022.2.1,Win32,50,,,,,,,,,,,,,,,,,,88,,,,,,,,,,0.03,2,6.7361,0,2,2,2,1,Go to rock concerts with my dad,Lay in the hammock and looking up at the clouds on a nice windy day,0.03,0.03,1.1,0,,,,
,,66d2d920fb76c49f098b9397,6685aa9113c938e83b4f1ea0,672d6fb774fced60f5d2c0d3,2024-11-08_16h08.04.411,WTP_SM_Choice,2022.2.1,Win32,50,,,,,,,,,,,,,,,,,,89,,,,,,,,,,0.04,1,7.1173,0,3,3,3,1,Taking my dog cooper out for a walk to go play in the park,Go to the casino with my friend James,0.04,0.03,3.3,1,,,,
,,66d2d920fb76c49f098b9397,6685aa9113c938e83b4f1ea0,672d6fb774fced60f5d2c0d3,2024-11-08_16h08.04.411,WTP_SM_Choice,2022.2.1,Win32,50,,,,,,,,,,,,,,,,,,90,,,,,,,,,,0.03,2,4.3595,0,4,4,4,1,hang out with my girlfriend and gossiping about life,Binge watch my favorite tv series when its raining outside,0.05,0.03,8.8,0,,,,
,,66d2d920fb76c49f098b9397,6685aa9113c938e83b4f1ea0,672d6fb774fced60f5d2c0d3,2024-11-08_16h08.04.411,WTP_SM_Choice,2022.2.1,Win32,50,,,,,,,NAN,,NAN,2.65,3.35,,0,89,89,89,1,90,Sam,Acc,Participant_Images/66d2d920fb76c49f098b9397/66d2d920fb76c49f098b9397_Images/66d2d920fb76c49f098b9397_Image_11.jpeg,did not like,1.661473164,,,,,,,,,,,,,,,,,,,,,,
,,66d2d920fb76c49f098b9397,6685aa9113c938e83b4f1ea0,672d6fb774fced60f5d2c0d3,2024-11-08_16h08.04.411,WTP_SM_Choice,2022.2.1,Win32,50,,,,,space,1.2607,NAN,,NAN,2.65,3.35,,0,90,90,90,1,91,Sam,Acc,Participant_Images/66d2d920fb76c49f098b9397/66d2d920fb76c49f098b9397_Images/66d2d920fb76c49f098b9397_Image_20.jpeg,did not like,3.613205605,,,,,,,,,,,,,,,,,,,,,,
,,66d2d920fb76c49f098b9397,6685aa9113c938e83b4f1ea0,672d6fb774fced60f5d2c0d3,2024-11-08_16h08.04.411,WTP_SM_Choice,2022.2.1,Win32,50,,,,,space,2.2777,NAN,,NAN,2.65,3.35,,0,91,91,91,1,92,Sam,Acc,Participant_Images/66d2d920fb76c49f098b9397/66d2d920fb76c49f098b9397_Images/66d2d920fb76c49f098b9397_Image_9.jpeg,liked,4.988446431,,,,,,,,,,,,,,,,,,,,,,
,,66d2d920fb76c49f098b9397,6685aa9113c938e83b4f1ea0,672d6fb774fced60f5d2c0d3,2024-11-08_16h08.04.411,WTP_SM_Choice,2022.2.1,Win32,50,,,,,space,3.4547,NAN,,NAN,2.65,3.35,,0,92,92,92,1,93,Sam,Acc,Participant_Images/66d2d920fb76c49f098b9397/66d2d920fb76c49f098b9397_Images/66d2d920fb76c49f098b9397_Image_5.jpeg,liked,3.470791822,,,,,,,,,,,,,,,,,,,,,,
,,66d2d920fb76c49f098b9397,6685aa9113c938e83b4f1ea0,672d6fb774fced60f5d2c0d3,2024-11-08_16h08.04.411,WTP_SM_Choice,2022.2.1,Win32,50,,,,,space,11.7166,NAN,,NAN,2.65,3.35,,0,93,93,93,1,94,Sam,Acc,Participant_Images/66d2d920fb76c49f098b9397/66d2d920fb76c49f098b9397_Images/66d2d920fb76c49f098b9397_Image_8.jpeg,did not like,3.820572462,,,,,,,,,,,,,,,,,,,,,,
,,66d2d920fb76c49f098b9397,6685aa9113c938e83b4f1ea0,672d6fb774fced60f5d2c0d3,2024-11-08_16h08.04.411,WTP_SM_Choice,2022.2.1,Win32,50,,,,,,,,,,,,,,,,,,91,,,,,,space,1.4773,space,0.1594,0.04,2,3.4916,0,0,0,0,1,Sing loudly in the shower and feeling like I am Americas next Idol,Play video games against my sister and friends,0.01,0.04,3.3,1,,,,
,,66d2d920fb76c49f098b9397,6685aa9113c938e83b4f1ea0,672d6fb774fced60f5d2c0d3,2024-11-08_16h08.04.411,WTP_SM_Choice,2022.2.1,Win32,50,,,,,,,,,,,,,,,,,,92,,,,,,,,,,0.04,2,6.5225,0,1,1,1,1,Go to the casino with my friend James,Binge watch my favorite tv series when its raining outside,0.02,0.04,8.8,0,,,,
,,66d2d920fb76c49f098b9397,6685aa9113c938e83b4f1ea0,672d6fb774fced60f5d2c0d3,2024-11-08_16h08.04.411,WTP_SM_Choice,2022.2.1,Win32,50,,,,,,,,,,,,,,,,,,93,,,,,,,,,,0.03,1,2.5441,0,2,2,2,1,Play video games against my sister and friends,Drive in the car and enjoying the radio blaring and wind in my hair,0.03,0.04,1.1,0,,,,
,,66d2d920fb76c49f098b9397,6685aa9113c938e83b4f1ea0,672d6fb774fced60f5d2c0d3,2024-11-08_16h08.04.411,WTP_SM_Choice,2022.2.1,Win32,50,,,,,,,,,,,,,,,,,,94,,,,,,,,,,0.04,2,6.42,0,3,3,3,1,Play boardgames with my significant other,Crochet my current project while watching tv late at night,0.04,0.04,4.4,0,,,,
,,66d2d920fb76c49f098b9397,6685aa9113c938e83b4f1ea0,672d6fb774fced60f5d2c0d3,2024-11-08_16h08.04.411,WTP_SM_Choice,2022.2.1,Win32,50,,,,,,,,,,,,,,,,,,95,,,,,,,,,,0.04,2,2.9359,0,4,4,4,1,Sketch or create art in my sketchbook while relaxing on the couch.,Watch Jerry Springer with my sister,0.05,0.04,4.4,1,,,,
,,66d2d920fb76c49f098b9397,6685aa9113c938e83b4f1ea0,672d6fb774fced60f5d2c0d3,2024-11-08_16h08.04.411,WTP_SM_Choice,2022.2.1,Win32,50,,,,,,,NAN,,NAN,2.84,3.16,,0,94,94,94,1,95,Sam,Acc,Participant_Images/66d2d920fb76c49f098b9397/66d2d920fb76c49f098b9397_Images/66d2d920fb76c49f098b9397_Image_18.jpeg,liked,2.455989137,,,,,,,,,,,,,,,,,,,,,,
,,66d2d920fb76c49f098b9397,6685aa9113c938e83b4f1ea0,672d6fb774fced60f5d2c0d3,2024-11-08_16h08.04.411,WTP_SM_Choice,2022.2.1,Win32,50,,,,,space,0.72,NAN,,NAN,2.84,3.16,,0,95,95,95,1,96,Sam,Acc,Participant_Images/66d2d920fb76c49f098b9397/66d2d920fb76c49f098b9397_Images/66d2d920fb76c49f098b9397_Image_1.jpeg,liked,3.79605092,,,,,,,,,,,,,,,,,,,,,,
,,66d2d920fb76c49f098b9397,6685aa9113c938e83b4f1ea0,672d6fb774fced60f5d2c0d3,2024-11-08_16h08.04.411,WTP_SM_Choice,2022.2.1,Win32,50,,,,,space,4.5372,NAN,,NAN,2.84,3.16,,0,96,96,96,1,97,Sam,Acc,Participant_Images/66d2d920fb76c49f098b9397/66d2d920fb76c49f098b9397_Images/66d2d920fb76c49f098b9397_Image_2.jpeg,did not like,3.562416326,,,,,,,,,,,,,,,,,,,,,,
,,66d2d920fb76c49f098b9397,6685aa9113c938e83b4f1ea0,672d6fb774fced60f5d2c0d3,2024-11-08_16h08.04.411,WTP_SM_Choice,2022.2.1,Win32,50,,,,,space,0.7415,NAN,,NAN,2.84,3.16,,0,97,97,97,1,98,Sam,Acc,Participant_Images/66d2d920fb76c49f098b9397/66d2d920fb76c49f098b9397_Images/66d2d920fb76c49f098b9397_Image_24.jpeg,liked,2.843822497,,,,,,,,,,,,,,,,,,,,,,
,,66d2d920fb76c49f098b9397,6685aa9113c938e83b4f1ea0,672d6fb774fced60f5d2c0d3,2024-11-08_16h08.04.411,WTP_SM_Choice,2022.2.1,Win32,50,,,,,space,1.4667,NAN,,NAN,2.84,3.16,,0,98,98,98,1,99,Sam,Acc,Participant_Images/66d2d920fb76c49f098b9397/66d2d920fb76c49f098b9397_Images/66d2d920fb76c49f098b9397_Image_10.jpeg,liked,3.546495948,,,,,,,,,,,,,,,,,,,,,,
,,66d2d920fb76c49f098b9397,6685aa9113c938e83b4f1ea0,672d6fb774fced60f5d2c0d3,2024-11-08_16h08.04.411,WTP_SM_Choice,2022.2.1,Win32,50,,,,,,,,,,,,,,,,,,96,,,,,,space,0.9268,space,0.4018,0.01,1,3.6033,0,0,0,0,1,Crochet my current project while watching tv late at night,hang out with my girlfriend and gossiping about life,0.01,0.05,3.3,1,,,,
,,66d2d920fb76c49f098b9397,6685aa9113c938e83b4f1ea0,672d6fb774fced60f5d2c0d3,2024-11-08_16h08.04.411,WTP_SM_Choice,2022.2.1,Win32,50,,,,,,,,,,,,,,,,,,97,,,,,,,,,,0.02,1,5.3233,0,1,1,1,1,Watch Jerry Springer with my sister,Crochet my current project while watching tv late at night,0.02,0.05,1.1,0,,,,
,,66d2d920fb76c49f098b9397,6685aa9113c938e83b4f1ea0,672d6fb774fced60f5d2c0d3,2024-11-08_16h08.04.411,WTP_SM_Choice,2022.2.1,Win32,50,,,,,,,,,,,,,,,,,,98,,,,,,,,,,0.03,1,2.8589,0,2,2,2,1,Taking my dog cooper out for a walk to go play in the park,Relax in the pool late at night with my husband,0.03,0.05,1.1,1,,,,
,,66d2d920fb76c49f098b9397,6685aa9113c938e83b4f1ea0,672d6fb774fced60f5d2c0d3,2024-11-08_16h08.04.411,WTP_SM_Choice,2022.2.1,Win32,50,,,,,,,,,,,,,,,,,,99,,,,,,,,,,0.04,1,2.8241,0,3,3,3,1,Binge watch my favorite tv series when its raining outside,Drive around with no destination with my husband Dylan,0.04,0.05,3.3,1,,,,
,,66d2d920fb76c49f098b9397,6685aa9113c938e83b4f1ea0,672d6fb774fced60f5d2c0d3,2024-11-08_16h08.04.411,WTP_SM_Choice,2022.2.1,Win32,50,,,,,,,,,,,,,,,,,,100,,,,,,,,,,0.05,2,4.4407,0,4,4,4,1,Drive around with no destination with my husband Dylan,Crochet my current project while watching tv late at night,0.05,0.05,4.4,0,,,,
,,66d2d920fb76c49f098b9397,6685aa9113c938e83b4f1ea0,672d6fb774fced60f5d2c0d3,2024-11-08_16h08.04.411,WTP_SM_Choice,2022.2.1,Win32,50,,,,,,,5,,9,2.99,3.01,,0,99,99,99,1,100,Sam,Acc,Participant_Images/66d2d920fb76c49f098b9397/66d2d920fb76c49f098b9397_Images/66d2d920fb76c49f098b9397_Image_13.jpeg,did not like,1.672012706,,,,,,,,,,,,,,,,,,,space,2.0831,,
,,66d2d920fb76c49f098b9397,6685aa9113c938e83b4f1ea0,672d6fb774fced60f5d2c0d3,2024-11-08_16h08.04.411,WTP_SM_Choice,2022.2.1,Win32,50,,,,,,,,,,,,,,,,,,,,,,,,,,,,,,,,,,,,,,,,,,,,space,2.2676
