endwelcomescreen_keys.keys,endwelcomescreen_keys.rt,participant,date,expName,psychopyVersion,OS,frameRate,endinstructionscreen_keys.keys,endinstructionscreen_keys.rt,endpartnermatch_keys.keys,endpartnermatch_keys.rt,sharenextphoto_key.keys,sharenextphoto_key.rt,salience_rating,key_resp.keys,stress_level,subtract_bonus,TOTAL_TASK_BONUS,stresslevel_keypress.keys,entiretaskloop.thisRepN,entiretaskloop.thisTrialN,entiretaskloop.thisN,entiretaskloop.thisIndex,entiretaskloop.ran,TrialNumber,Partner,Condition,Photos,Feedback,FeedbackWait,WTP_ins_keys1.keys,WTP_ins_keys1.rt,WTP_ins_keys2.keys,WTP_ins_keys2.rt,decision_price,responses.keys,responses.rt,WTPTaskLoop.thisRepN,WTPTaskLoop.thisTrialN,WTPTaskLoop.thisN,WTPTaskLoop.thisIndex,WTPTaskLoop.ran,right,left,leftmoney,rightmoney,WTP_ITI,social_left,Resume_keys.keys,Resume_keys.rt,end_screen_keys.keys,end_screen_keys.rt
space,4.806,66d9609fbac7758ed890cece,2024-09-26_12h20.08.446,WTP_SM_Choice,2022.2.1,Win32,9.98003992,,,,,,,,,,,,,,,,,,,,,,,,,,,,,,,,,,,,,,,,,,,,,
,,66d9609fbac7758ed890cece,2024-09-26_12h20.08.446,WTP_SM_Choice,2022.2.1,Win32,9.98003992,space,12.476,,,,,,,,,,,,,,,,,,,,,,,,,,,,,,,,,,,,,,,,,,,
,,66d9609fbac7758ed890cece,2024-09-26_12h20.08.446,WTP_SM_Choice,2022.2.1,Win32,9.98003992,,,space,5.4907,space,1.5222,NAN,,NAN,0,6,,0,0,0,0,1,1,Sam,Acc,Participant_Images/66d9609fbac7758ed890cece/66d9609fbac7758ed890cece_Images/66d9609fbac7758ed890cece_Image_21.jpeg,liked,3.613205605,,,,,,,,,,,,,,,,,,,,,,
,,66d9609fbac7758ed890cece,2024-09-26_12h20.08.446,WTP_SM_Choice,2022.2.1,Win32,9.98003992,,,,,space,1.5024,NAN,,NAN,0,6,,0,1,1,1,1,2,Sam,Acc,Participant_Images/66d9609fbac7758ed890cece/66d9609fbac7758ed890cece_Images/66d9609fbac7758ed890cece_Image_20.jpeg,liked,4.988446431,,,,,,,,,,,,,,,,,,,,,,
,,66d9609fbac7758ed890cece,2024-09-26_12h20.08.446,WTP_SM_Choice,2022.2.1,Win32,9.98003992,,,,,space,1.5988,NAN,,NAN,0,6,,0,2,2,2,1,3,Sam,Acc,Participant_Images/66d9609fbac7758ed890cece/66d9609fbac7758ed890cece_Images/66d9609fbac7758ed890cece_Image_12.jpeg,liked,3.470791822,,,,,,,,,,,,,,,,,,,,,,
,,66d9609fbac7758ed890cece,2024-09-26_12h20.08.446,WTP_SM_Choice,2022.2.1,Win32,9.98003992,,,,,space,1.8412,NAN,,NAN,0,6,,0,3,3,3,1,4,Sam,Acc,Participant_Images/66d9609fbac7758ed890cece/66d9609fbac7758ed890cece_Images/66d9609fbac7758ed890cece_Image_9.jpeg,liked,3.820572462,,,,,,,,,,,,,,,,,,,,,,
,,66d9609fbac7758ed890cece,2024-09-26_12h20.08.446,WTP_SM_Choice,2022.2.1,Win32,9.98003992,,,,,,,,,,,,,,,,,,1,,,,,,space,22.4367,space,6.8241,0.01,1,4.4421,0,0,0,0,1,Play video games in my room on my bed,Go to boardgame night at my college dorm every wednesday night,0.01,0.01,4.4,1,,,,
,,66d9609fbac7758ed890cece,2024-09-26_12h20.08.446,WTP_SM_Choice,2022.2.1,Win32,9.98003992,,,,,,,,,,,,,,,,,,2,,,,,,,,,,0.01,2,3.3947,0,1,1,1,1,Soak in the bathtub to relax after a long day,Go to have lunch on the weekends,0.02,0.01,8.8,1,,,,
,,66d9609fbac7758ed890cece,2024-09-26_12h20.08.446,WTP_SM_Choice,2022.2.1,Win32,9.98003992,,,,,,,,,,,,,,,,,,3,,,,,,,,,,0.03,1,6.1265,0,2,2,2,1,Complete puzzles with my dorm friends on the weekend,Go for walks outside in the evenings to stretch my legs,0.03,0.01,3.3,0,,,,
,,66d9609fbac7758ed890cece,2024-09-26_12h20.08.446,WTP_SM_Choice,2022.2.1,Win32,9.98003992,,,,,,,,,,,,,,,,,,4,,,,,,,,,,0.04,1,4.1414,0,3,3,3,1,Care for plants I got on sale at the local store in my dorm,Go to get boba on the weekend with my best friend,0.04,0.01,1.1,1,,,,
,,66d9609fbac7758ed890cece,2024-09-26_12h20.08.446,WTP_SM_Choice,2022.2.1,Win32,9.98003992,,,,,,,,,,,,,,,,,,5,,,,,,,,,,0.01,2,5.4373,0,4,4,4,1,Watch videos of our favorite youtuber together,Care for plants I got on sale at the local store in my dorm,0.05,0.01,1.1,0,,,,
,,66d9609fbac7758ed890cece,2024-09-26_12h20.08.446,WTP_SM_Choice,2022.2.1,Win32,9.98003992,,,,,,,NAN,,NAN,0.1,5.9,,0,4,4,4,1,5,Sam,Acc,Participant_Images/66d9609fbac7758ed890cece/66d9609fbac7758ed890cece_Images/66d9609fbac7758ed890cece_Image_2.jpeg,liked,2.455989137,,,,,,,,,,,,,,,,,,,,,,
,,66d9609fbac7758ed890cece,2024-09-26_12h20.08.446,WTP_SM_Choice,2022.2.1,Win32,9.98003992,,,,,space,2.1471,NAN,,NAN,0.1,5.9,,0,5,5,5,1,6,Sam,Acc,Participant_Images/66d9609fbac7758ed890cece/66d9609fbac7758ed890cece_Images/66d9609fbac7758ed890cece_Image_16.jpeg,liked,3.79605092,,,,,,,,,,,,,,,,,,,,,,
,,66d9609fbac7758ed890cece,2024-09-26_12h20.08.446,WTP_SM_Choice,2022.2.1,Win32,9.98003992,,,,,space,4.4585,NAN,,NAN,0.1,5.9,,0,6,6,6,1,7,Sam,Acc,Participant_Images/66d9609fbac7758ed890cece/66d9609fbac7758ed890cece_Images/66d9609fbac7758ed890cece_Image_22.jpeg,liked,3.562416326,,,,,,,,,,,,,,,,,,,,,,
,,66d9609fbac7758ed890cece,2024-09-26_12h20.08.446,WTP_SM_Choice,2022.2.1,Win32,9.98003992,,,,,space,1.6839,NAN,,NAN,0.1,5.9,,0,7,7,7,1,8,Sam,Acc,Participant_Images/66d9609fbac7758ed890cece/66d9609fbac7758ed890cece_Images/66d9609fbac7758ed890cece_Image_15.jpeg,liked,2.843822497,,,,,,,,,,,,,,,,,,,,,,
,,66d9609fbac7758ed890cece,2024-09-26_12h20.08.446,WTP_SM_Choice,2022.2.1,Win32,9.98003992,,,,,space,1.8818,NAN,,NAN,0.1,5.9,,0,8,8,8,1,9,Sam,Acc,Participant_Images/66d9609fbac7758ed890cece/66d9609fbac7758ed890cece_Images/66d9609fbac7758ed890cece_Image_19.jpeg,did not like,3.546495948,,,,,,,,,,,,,,,,,,,,,,
,,66d9609fbac7758ed890cece,2024-09-26_12h20.08.446,WTP_SM_Choice,2022.2.1,Win32,9.98003992,,,,,,,,,,,,,,,,,,6,,,,,,space,8.3356,space,4.3969,0.02,2,4.8534,0,0,0,0,1,Having breakfast together after chemistry class three days per week,Listen to podcasts at night to help me fall asleep,0.01,0.02,3.3,0,,,,
,,66d9609fbac7758ed890cece,2024-09-26_12h20.08.446,WTP_SM_Choice,2022.2.1,Win32,9.98003992,,,,,,,,,,,,,,,,,,7,,,,,,,,,,0.02,2,3.5216,0,1,1,1,1,Play video games in my room on my bed,Play our own version of taskmaster at birthday parties a few times per semester,0.02,0.02,1.1,1,,,,
,,66d9609fbac7758ed890cece,2024-09-26_12h20.08.446,WTP_SM_Choice,2022.2.1,Win32,9.98003992,,,,,,,,,,,,,,,,,,8,,,,,,,,,,0.02,2,3.4812,0,2,2,2,1,Go to have lunch on the weekends,Go for walks outside in the evenings to stretch my legs,0.03,0.02,1.1,0,,,,
,,66d9609fbac7758ed890cece,2024-09-26_12h20.08.446,WTP_SM_Choice,2022.2.1,Win32,9.98003992,,,,,,,,,,,,,,,,,,9,,,,,,,,,,0.02,2,4.6134,0,3,3,3,1,Listen to audiobooks while driving to work,Meet up with my best friend for lunch in our dorm dining hall once per week,0.04,0.02,4.4,1,,,,
,,66d9609fbac7758ed890cece,2024-09-26_12h20.08.446,WTP_SM_Choice,2022.2.1,Win32,9.98003992,,,,,,,,,,,,,,,,,,10,,,,,,,,,,0.02,2,3.6041,0,4,4,4,1,Bake delicious snacks in my kitchen on the weekend,Practice college advising for a club with several friends once per week,0.05,0.02,1.1,1,,,,
,,66d9609fbac7758ed890cece,2024-09-26_12h20.08.446,WTP_SM_Choice,2022.2.1,Win32,9.98003992,,,,,,,NAN,,NAN,0.2,5.8,,0,9,9,9,1,10,Sam,Acc,Participant_Images/66d9609fbac7758ed890cece/66d9609fbac7758ed890cece_Images/66d9609fbac7758ed890cece_Image_5.jpeg,did not like,1.672012706,,,,,,,,,,,,,,,,,,,,,,
,,66d9609fbac7758ed890cece,2024-09-26_12h20.08.446,WTP_SM_Choice,2022.2.1,Win32,9.98003992,,,,,space,3.2242,NAN,,NAN,0.2,5.8,,0,10,10,10,1,11,Sam,Acc,Participant_Images/66d9609fbac7758ed890cece/66d9609fbac7758ed890cece_Images/66d9609fbac7758ed890cece_Image_7.jpeg,liked,4.942172136,,,,,,,,,,,,,,,,,,,,,,
,,66d9609fbac7758ed890cece,2024-09-26_12h20.08.446,WTP_SM_Choice,2022.2.1,Win32,9.98003992,,,,,space,1.6042,NAN,,NAN,0.2,5.8,,0,11,11,11,1,12,Sam,Acc,Participant_Images/66d9609fbac7758ed890cece/66d9609fbac7758ed890cece_Images/66d9609fbac7758ed890cece_Image_18.jpeg,did not like,2.50187214,,,,,,,,,,,,,,,,,,,,,,
,,66d9609fbac7758ed890cece,2024-09-26_12h20.08.446,WTP_SM_Choice,2022.2.1,Win32,9.98003992,,,,,space,1.7455,NAN,,NAN,0.2,5.8,,0,12,12,12,1,13,Sam,Acc,Participant_Images/66d9609fbac7758ed890cece/66d9609fbac7758ed890cece_Images/66d9609fbac7758ed890cece_Image_17.jpeg,liked,2.071164779,,,,,,,,,,,,,,,,,,,,,,
,,66d9609fbac7758ed890cece,2024-09-26_12h20.08.446,WTP_SM_Choice,2022.2.1,Win32,9.98003992,,,,,space,1.4656,NAN,,NAN,0.2,5.8,,0,13,13,13,1,14,Sam,Acc,Participant_Images/66d9609fbac7758ed890cece/66d9609fbac7758ed890cece_Images/66d9609fbac7758ed890cece_Image_24.jpeg,liked,5.336503566,,,,,,,,,,,,,,,,,,,,,,
,,66d9609fbac7758ed890cece,2024-09-26_12h20.08.446,WTP_SM_Choice,2022.2.1,Win32,9.98003992,,,,,,,,,,,,,,,,,,11,,,,,,space,3.7255,space,3.5603,0.01,1,4.8633,0,0,0,0,1,Bake delicious snacks in my kitchen on the weekend,Having breakfast together after chemistry class three days per week,0.01,0.03,3.3,1,,,,
,,66d9609fbac7758ed890cece,2024-09-26_12h20.08.446,WTP_SM_Choice,2022.2.1,Win32,9.98003992,,,,,,,,,,,,,,,,,,12,,,,,,,,,,0.03,2,3.9072,0,1,1,1,1,Soak in the bathtub to relax after a long day,Play our own version of taskmaster at birthday parties a few times per semester,0.02,0.03,4.4,1,,,,
,,66d9609fbac7758ed890cece,2024-09-26_12h20.08.446,WTP_SM_Choice,2022.2.1,Win32,9.98003992,,,,,,,,,,,,,,,,,,13,,,,,,,,,,0.03,1,3.0394,0,2,2,2,1,Play our own version of taskmaster at birthday parties a few times per semester,Care for plants I got on sale at the local store in my dorm,0.03,0.03,1.1,0,,,,
,,66d9609fbac7758ed890cece,2024-09-26_12h20.08.446,WTP_SM_Choice,2022.2.1,Win32,9.98003992,,,,,,,,,,,,,,,,,,14,,,,,,,,,,0.03,2,2.7343,0,3,3,3,1,Go to get boba on the weekend with my best friend,Bake delicious snacks in my kitchen on the weekend,0.04,0.03,3.3,0,,,,
,,66d9609fbac7758ed890cece,2024-09-26_12h20.08.446,WTP_SM_Choice,2022.2.1,Win32,9.98003992,,,,,,,,,,,,,,,,,,15,,,,,,,,,,0.03,2,5.1858,0,4,4,4,1,Listen to audiobooks while driving to work,Having breakfast together after chemistry class three days per week,0.05,0.03,4.4,1,,,,
,,66d9609fbac7758ed890cece,2024-09-26_12h20.08.446,WTP_SM_Choice,2022.2.1,Win32,9.98003992,,,,,,,NAN,,NAN,0.33,5.67,,0,14,14,14,1,15,Sam,Acc,Participant_Images/66d9609fbac7758ed890cece/66d9609fbac7758ed890cece_Images/66d9609fbac7758ed890cece_Image_6.jpeg,liked,2.642157193,,,,,,,,,,,,,,,,,,,,,,
,,66d9609fbac7758ed890cece,2024-09-26_12h20.08.446,WTP_SM_Choice,2022.2.1,Win32,9.98003992,,,,,space,1.3349,NAN,,NAN,0.33,5.67,,0,15,15,15,1,16,Sam,Acc,Participant_Images/66d9609fbac7758ed890cece/66d9609fbac7758ed890cece_Images/66d9609fbac7758ed890cece_Image_1.jpeg,did not like,4.456234322,,,,,,,,,,,,,,,,,,,,,,
,,66d9609fbac7758ed890cece,2024-09-26_12h20.08.446,WTP_SM_Choice,2022.2.1,Win32,9.98003992,,,,,space,1.0704,NAN,,NAN,0.33,5.67,,0,16,16,16,1,17,Sam,Acc,Participant_Images/66d9609fbac7758ed890cece/66d9609fbac7758ed890cece_Images/66d9609fbac7758ed890cece_Image_13.jpeg,did not like,4.438512181,,,,,,,,,,,,,,,,,,,,,,
,,66d9609fbac7758ed890cece,2024-09-26_12h20.08.446,WTP_SM_Choice,2022.2.1,Win32,9.98003992,,,,,space,1.0666,NAN,,NAN,0.33,5.67,,0,17,17,17,1,18,Sam,Acc,Participant_Images/66d9609fbac7758ed890cece/66d9609fbac7758ed890cece_Images/66d9609fbac7758ed890cece_Image_25.jpeg,did not like,2.682944783,,,,,,,,,,,,,,,,,,,,,,
,,66d9609fbac7758ed890cece,2024-09-26_12h20.08.446,WTP_SM_Choice,2022.2.1,Win32,9.98003992,,,,,space,1.5947,NAN,,NAN,0.33,5.67,,0,18,18,18,1,19,Sam,Acc,Participant_Images/66d9609fbac7758ed890cece/66d9609fbac7758ed890cece_Images/66d9609fbac7758ed890cece_Image_8.jpeg,liked,4.51984296,,,,,,,,,,,,,,,,,,,,,,
,,66d9609fbac7758ed890cece,2024-09-26_12h20.08.446,WTP_SM_Choice,2022.2.1,Win32,9.98003992,,,,,,,,,,,,,,,,,,16,,,,,,space,298.8253,space,1.5748,0.04,2,2.4097,0,0,0,0,1,Soak in the bathtub to relax after a long day,Go to boardgame night at my college dorm every wednesday night,0.01,0.04,1.1,1,,,,
,,66d9609fbac7758ed890cece,2024-09-26_12h20.08.446,WTP_SM_Choice,2022.2.1,Win32,9.98003992,,,,,,,,,,,,,,,,,,17,,,,,,,,,,0.02,1,3.7595,0,1,1,1,1,Have chocolate milk in the living room after a workout,Play our own version of taskmaster at birthday parties a few times per semester,0.02,0.04,8.8,1,,,,
,,66d9609fbac7758ed890cece,2024-09-26_12h20.08.446,WTP_SM_Choice,2022.2.1,Win32,9.98003992,,,,,,,,,,,,,,,,,,18,,,,,,,,,,0.04,2,4.2294,0,2,2,2,1,Listen to audiobooks while driving to work,Complete puzzles with my dorm friends on the weekend,0.03,0.04,3.3,1,,,,
,,66d9609fbac7758ed890cece,2024-09-26_12h20.08.446,WTP_SM_Choice,2022.2.1,Win32,9.98003992,,,,,,,,,,,,,,,,,,19,,,,,,,,,,0.04,1,3.2757,0,3,3,3,1,Help each other with coding homework every week,Soak in the bathtub to relax after a long day,0.04,0.04,3.3,0,,,,
,,66d9609fbac7758ed890cece,2024-09-26_12h20.08.446,WTP_SM_Choice,2022.2.1,Win32,9.98003992,,,,,,,,,,,,,,,,,,20,,,,,,,,,,0.05,1,4.4746,0,4,4,4,1,Help each other with coding homework every week,Go for walks outside in the evenings to stretch my legs,0.05,0.04,1.1,0,,,,
,,66d9609fbac7758ed890cece,2024-09-26_12h20.08.446,WTP_SM_Choice,2022.2.1,Win32,9.98003992,,,,,,,NAN,,NAN,0.52,5.48,,0,19,19,19,1,20,Sam,Acc,Participant_Images/66d9609fbac7758ed890cece/66d9609fbac7758ed890cece_Images/66d9609fbac7758ed890cece_Image_23.jpeg,liked,3.195382774,,,,,,,,,,,,,,,,,,,,,,
,,66d9609fbac7758ed890cece,2024-09-26_12h20.08.446,WTP_SM_Choice,2022.2.1,Win32,9.98003992,,,,,space,1.3076,NAN,,NAN,0.52,5.48,,0,20,20,20,1,21,Sam,Acc,Participant_Images/66d9609fbac7758ed890cece/66d9609fbac7758ed890cece_Images/66d9609fbac7758ed890cece_Image_4.jpeg,liked,1.779333479,,,,,,,,,,,,,,,,,,,,,,
,,66d9609fbac7758ed890cece,2024-09-26_12h20.08.446,WTP_SM_Choice,2022.2.1,Win32,9.98003992,,,,,space,1.0806,NAN,,NAN,0.52,5.48,,0,21,21,21,1,22,Sam,Acc,Participant_Images/66d9609fbac7758ed890cece/66d9609fbac7758ed890cece_Images/66d9609fbac7758ed890cece_Image_3.jpeg,liked,4.312468682,,,,,,,,,,,,,,,,,,,,,,
,,66d9609fbac7758ed890cece,2024-09-26_12h20.08.446,WTP_SM_Choice,2022.2.1,Win32,9.98003992,,,,,space,1.0788,NAN,,NAN,0.52,5.48,,0,22,22,22,1,23,Sam,Acc,Participant_Images/66d9609fbac7758ed890cece/66d9609fbac7758ed890cece_Images/66d9609fbac7758ed890cece_Image_14.jpeg,liked,4.940433059,,,,,,,,,,,,,,,,,,,,,,
,,66d9609fbac7758ed890cece,2024-09-26_12h20.08.446,WTP_SM_Choice,2022.2.1,Win32,9.98003992,,,,,space,2.108,NAN,,NAN,0.52,5.48,,0,23,23,23,1,24,Sam,Acc,Participant_Images/66d9609fbac7758ed890cece/66d9609fbac7758ed890cece_Images/66d9609fbac7758ed890cece_Image_10.jpeg,liked,2.7105123,,,,,,,,,,,,,,,,,,,,,,
,,66d9609fbac7758ed890cece,2024-09-26_12h20.08.446,WTP_SM_Choice,2022.2.1,Win32,9.98003992,,,,,,,,,,,,,,,,,,21,,,,,,space,2.2088,space,1.662,0.01,1,4.317,0,0,0,0,1,Watch videos of our favorite youtuber together,Go for walks outside in the evenings to stretch my legs,0.01,0.05,8.8,0,,,,
,,66d9609fbac7758ed890cece,2024-09-26_12h20.08.446,WTP_SM_Choice,2022.2.1,Win32,9.98003992,,,,,,,,,,,,,,,,,,22,,,,,,,,,,0.02,1,2.4863,0,1,1,1,1,Go for walks outside in the evenings to stretch my legs,Go to get boba on the weekend with my best friend,0.02,0.05,4.4,1,,,,
,,66d9609fbac7758ed890cece,2024-09-26_12h20.08.446,WTP_SM_Choice,2022.2.1,Win32,9.98003992,,,,,,,,,,,,,,,,,,23,,,,,,,,,,0.03,1,3.962,0,2,2,2,1,Listen to podcasts at night to help me fall asleep,Play our own version of taskmaster at birthday parties a few times per semester,0.03,0.05,1.1,1,,,,
,,66d9609fbac7758ed890cece,2024-09-26_12h20.08.446,WTP_SM_Choice,2022.2.1,Win32,9.98003992,,,,,,,,,,,,,,,,,,24,,,,,,,,,,0.05,2,3.2528,0,3,3,3,1,Listen to audiobooks while driving to work,Play our own version of taskmaster at birthday parties a few times per semester,0.04,0.05,4.4,1,,,,
,,66d9609fbac7758ed890cece,2024-09-26_12h20.08.446,WTP_SM_Choice,2022.2.1,Win32,9.98003992,,,,,,,,,,,,,,,,,,25,,,,,,,,,,0.05,2,2.8722,0,4,4,4,1,Bake delicious snacks in my kitchen on the weekend,Play our own version of taskmaster at birthday parties a few times per semester,0.05,0.05,3.3,1,,,,
,,66d9609fbac7758ed890cece,2024-09-26_12h20.08.446,WTP_SM_Choice,2022.2.1,Win32,9.98003992,,,,,,,4,,4,0.68,5.32,,0,24,24,24,1,25,Sam,Acc,Participant_Images/66d9609fbac7758ed890cece/66d9609fbac7758ed890cece_Images/66d9609fbac7758ed890cece_Image_11.jpeg,did not like,3.602308302,,,,,,,,,,,,,,,,,,,space,1.4524,,
,,66d9609fbac7758ed890cece,2024-09-26_12h20.08.446,WTP_SM_Choice,2022.2.1,Win32,9.98003992,,,space,1.9795,space,1.1991,NAN,,NAN,0.68,5.32,,0,25,25,25,1,26,Alex,Acc,Participant_Images/66d9609fbac7758ed890cece/66d9609fbac7758ed890cece_Images/66d9609fbac7758ed890cece_Image_7.jpeg,liked,4.106391878,,,,,,,,,,,,,,,,,,,,,,
,,66d9609fbac7758ed890cece,2024-09-26_12h20.08.446,WTP_SM_Choice,2022.2.1,Win32,9.98003992,,,,,space,1.0735,NAN,,NAN,0.68,5.32,,0,26,26,26,1,27,Alex,Acc,Participant_Images/66d9609fbac7758ed890cece/66d9609fbac7758ed890cece_Images/66d9609fbac7758ed890cece_Image_15.jpeg,did not like,3.799433026,,,,,,,,,,,,,,,,,,,,,,
,,66d9609fbac7758ed890cece,2024-09-26_12h20.08.446,WTP_SM_Choice,2022.2.1,Win32,9.98003992,,,,,space,0.9367,NAN,,NAN,0.68,5.32,,0,27,27,27,1,28,Alex,Acc,Participant_Images/66d9609fbac7758ed890cece/66d9609fbac7758ed890cece_Images/66d9609fbac7758ed890cece_Image_16.jpeg,liked,5.246980764,,,,,,,,,,,,,,,,,,,,,,
,,66d9609fbac7758ed890cece,2024-09-26_12h20.08.446,WTP_SM_Choice,2022.2.1,Win32,9.98003992,,,,,space,0.9497,NAN,,NAN,0.68,5.32,,0,28,28,28,1,29,Alex,Acc,Participant_Images/66d9609fbac7758ed890cece/66d9609fbac7758ed890cece_Images/66d9609fbac7758ed890cece_Image_4.jpeg,liked,3.30081769,,,,,,,,,,,,,,,,,,,,,,
,,66d9609fbac7758ed890cece,2024-09-26_12h20.08.446,WTP_SM_Choice,2022.2.1,Win32,9.98003992,,,,,,,,,,,,,,,,,,26,,,,,,space,108.1611,space,6.6198,0.01,1,2.4314,0,0,0,0,1,Complete puzzles with my dorm friends on the weekend,Play video games in my room on my bed,0.01,0.01,4.4,0,,,,
,,66d9609fbac7758ed890cece,2024-09-26_12h20.08.446,WTP_SM_Choice,2022.2.1,Win32,9.98003992,,,,,,,,,,,,,,,,,,27,,,,,,,,,,0.01,2,3.2776,0,1,1,1,1,Having breakfast together after chemistry class three days per week,Sketch pictures of my favorite characters from games and shows in my moleskin notebook,0.02,0.01,3.3,0,,,,
,,66d9609fbac7758ed890cece,2024-09-26_12h20.08.446,WTP_SM_Choice,2022.2.1,Win32,9.98003992,,,,,,,,,,,,,,,,,,28,,,,,,,,,,0.03,1,4.1792,0,2,2,2,1,Listen to podcasts at night to help me fall asleep,Meet up with my best friend for lunch in our dorm dining hall once per week,0.03,0.01,3.3,1,,,,
,,66d9609fbac7758ed890cece,2024-09-26_12h20.08.446,WTP_SM_Choice,2022.2.1,Win32,9.98003992,,,,,,,,,,,,,,,,,,29,,,,,,,,,,0.04,1,2.6831,0,3,3,3,1,Watch videos of our favorite youtuber together,Soak in the bathtub to relax after a long day,0.04,0.01,4.4,0,,,,
,,66d9609fbac7758ed890cece,2024-09-26_12h20.08.446,WTP_SM_Choice,2022.2.1,Win32,9.98003992,,,,,,,,,,,,,,,,,,30,,,,,,,,,,0.01,2,3.4436,0,4,4,4,1,Meet up with my best friend for lunch in our dorm dining hall once per week,Go for walks outside in the evenings to stretch my legs,0.05,0.01,8.8,0,,,,
,,66d9609fbac7758ed890cece,2024-09-26_12h20.08.446,WTP_SM_Choice,2022.2.1,Win32,9.98003992,,,,,,,NAN,,NAN,0.78,5.22,,0,29,29,29,1,30,Alex,Acc,Participant_Images/66d9609fbac7758ed890cece/66d9609fbac7758ed890cece_Images/66d9609fbac7758ed890cece_Image_17.jpeg,liked,1.661473164,,,,,,,,,,,,,,,,,,,,,,
,,66d9609fbac7758ed890cece,2024-09-26_12h20.08.446,WTP_SM_Choice,2022.2.1,Win32,9.98003992,,,,,space,3.1682,NAN,,NAN,0.78,5.22,,0,30,30,30,1,31,Alex,Acc,Participant_Images/66d9609fbac7758ed890cece/66d9609fbac7758ed890cece_Images/66d9609fbac7758ed890cece_Image_14.jpeg,liked,3.613205605,,,,,,,,,,,,,,,,,,,,,,
,,66d9609fbac7758ed890cece,2024-09-26_12h20.08.446,WTP_SM_Choice,2022.2.1,Win32,9.98003992,,,,,space,2.0094,NAN,,NAN,0.78,5.22,,0,31,31,31,1,32,Alex,Acc,Participant_Images/66d9609fbac7758ed890cece/66d9609fbac7758ed890cece_Images/66d9609fbac7758ed890cece_Image_8.jpeg,liked,4.988446431,,,,,,,,,,,,,,,,,,,,,,
,,66d9609fbac7758ed890cece,2024-09-26_12h20.08.446,WTP_SM_Choice,2022.2.1,Win32,9.98003992,,,,,space,2.1177,NAN,,NAN,0.78,5.22,,0,32,32,32,1,33,Alex,Acc,Participant_Images/66d9609fbac7758ed890cece/66d9609fbac7758ed890cece_Images/66d9609fbac7758ed890cece_Image_13.jpeg,liked,3.470791822,,,,,,,,,,,,,,,,,,,,,,
,,66d9609fbac7758ed890cece,2024-09-26_12h20.08.446,WTP_SM_Choice,2022.2.1,Win32,9.98003992,,,,,space,2.0441,NAN,,NAN,0.78,5.22,,0,33,33,33,1,34,Alex,Acc,Participant_Images/66d9609fbac7758ed890cece/66d9609fbac7758ed890cece_Images/66d9609fbac7758ed890cece_Image_3.jpeg,did not like,3.820572462,,,,,,,,,,,,,,,,,,,,,,
,,66d9609fbac7758ed890cece,2024-09-26_12h20.08.446,WTP_SM_Choice,2022.2.1,Win32,9.98003992,,,,,,,,,,,,,,,,,,31,,,,,,space,11.5465,space,1.3944,0.01,1,4.3681,0,0,0,0,1,Soak in the bathtub to relax after a long day,Meet up with my best friend for lunch in our dorm dining hall once per week,0.01,0.02,8.8,1,,,,
,,66d9609fbac7758ed890cece,2024-09-26_12h20.08.446,WTP_SM_Choice,2022.2.1,Win32,9.98003992,,,,,,,,,,,,,,,,,,32,,,,,,,,,,0.02,2,3.2675,0,1,1,1,1,Sketch pictures of my favorite characters from games and shows in my moleskin notebook,Help each other with coding homework every week,0.02,0.02,1.1,1,,,,
,,66d9609fbac7758ed890cece,2024-09-26_12h20.08.446,WTP_SM_Choice,2022.2.1,Win32,9.98003992,,,,,,,,,,,,,,,,,,33,,,,,,,,,,0.02,2,2.6621,0,2,2,2,1,Listen to audiobooks while driving to work,Watch videos of our favorite youtuber together,0.03,0.02,4.4,1,,,,
,,66d9609fbac7758ed890cece,2024-09-26_12h20.08.446,WTP_SM_Choice,2022.2.1,Win32,9.98003992,,,,,,,,,,,,,,,,,,34,,,,,,,,,,0.02,2,3.3718,0,3,3,3,1,Have chocolate milk in the living room after a workout,Watch videos of our favorite youtuber together,0.04,0.02,3.3,1,,,,
,,66d9609fbac7758ed890cece,2024-09-26_12h20.08.446,WTP_SM_Choice,2022.2.1,Win32,9.98003992,,,,,,,,,,,,,,,,,,35,,,,,,,,,,0.02,2,2.461,0,4,4,4,1,Play video games in my room on my bed,Go to get boba on the weekend with my best friend,0.05,0.02,1.1,1,,,,
,,66d9609fbac7758ed890cece,2024-09-26_12h20.08.446,WTP_SM_Choice,2022.2.1,Win32,9.98003992,,,,,,,NAN,,NAN,0.87,5.13,,0,34,34,34,1,35,Alex,Acc,Participant_Images/66d9609fbac7758ed890cece/66d9609fbac7758ed890cece_Images/66d9609fbac7758ed890cece_Image_20.jpeg,liked,2.455989137,,,,,,,,,,,,,,,,,,,,,,
,,66d9609fbac7758ed890cece,2024-09-26_12h20.08.446,WTP_SM_Choice,2022.2.1,Win32,9.98003992,,,,,space,1.8319,NAN,,NAN,0.87,5.13,,0,35,35,35,1,36,Alex,Acc,Participant_Images/66d9609fbac7758ed890cece/66d9609fbac7758ed890cece_Images/66d9609fbac7758ed890cece_Image_18.jpeg,did not like,3.79605092,,,,,,,,,,,,,,,,,,,,,,
,,66d9609fbac7758ed890cece,2024-09-26_12h20.08.446,WTP_SM_Choice,2022.2.1,Win32,9.98003992,,,,,space,4.2245,NAN,,NAN,0.87,5.13,,0,36,36,36,1,37,Alex,Acc,Participant_Images/66d9609fbac7758ed890cece/66d9609fbac7758ed890cece_Images/66d9609fbac7758ed890cece_Image_12.jpeg,did not like,3.562416326,,,,,,,,,,,,,,,,,,,,,,
,,66d9609fbac7758ed890cece,2024-09-26_12h20.08.446,WTP_SM_Choice,2022.2.1,Win32,9.98003992,,,,,space,2.2774,NAN,,NAN,0.87,5.13,,0,37,37,37,1,38,Alex,Acc,Participant_Images/66d9609fbac7758ed890cece/66d9609fbac7758ed890cece_Images/66d9609fbac7758ed890cece_Image_6.jpeg,liked,2.843822497,,,,,,,,,,,,,,,,,,,,,,
,,66d9609fbac7758ed890cece,2024-09-26_12h20.08.446,WTP_SM_Choice,2022.2.1,Win32,9.98003992,,,,,space,3.9521,NAN,,NAN,0.87,5.13,,0,38,38,38,1,39,Alex,Acc,Participant_Images/66d9609fbac7758ed890cece/66d9609fbac7758ed890cece_Images/66d9609fbac7758ed890cece_Image_25.jpeg,liked,3.546495948,,,,,,,,,,,,,,,,,,,,,,
,,66d9609fbac7758ed890cece,2024-09-26_12h20.08.446,WTP_SM_Choice,2022.2.1,Win32,9.98003992,,,,,,,,,,,,,,,,,,36,,,,,,space,2.4892,space,2.736,0.01,1,2.7564,0,0,0,0,1,Practice college advising for a club with several friends once per week,Sketch pictures of my favorite characters from games and shows in my moleskin notebook,0.01,0.03,3.3,0,,,,
,,66d9609fbac7758ed890cece,2024-09-26_12h20.08.446,WTP_SM_Choice,2022.2.1,Win32,9.98003992,,,,,,,,,,,,,,,,,,37,,,,,,,,,,0.02,1,2.1818,0,1,1,1,1,Listen to podcasts at night to help me fall asleep,Go to boardgame night at my college dorm every wednesday night,0.02,0.03,1.1,1,,,,
,,66d9609fbac7758ed890cece,2024-09-26_12h20.08.446,WTP_SM_Choice,2022.2.1,Win32,9.98003992,,,,,,,,,,,,,,,,,,38,,,,,,,,,,0.03,1,5.9552,0,2,2,2,1,Plann what characters to build for my game with pretty markers next to the computer,Go to boardgame night at my college dorm every wednesday night,0.03,0.03,1.1,1,,,,
,,66d9609fbac7758ed890cece,2024-09-26_12h20.08.446,WTP_SM_Choice,2022.2.1,Win32,9.98003992,,,,,,,,,,,,,,,,,,39,,,,,,,,,,0.03,2,2.7417,0,3,3,3,1,Bake delicious snacks in my kitchen on the weekend,Meet up with my best friend for lunch in our dorm dining hall once per week,0.04,0.03,3.3,1,,,,
,,66d9609fbac7758ed890cece,2024-09-26_12h20.08.446,WTP_SM_Choice,2022.2.1,Win32,9.98003992,,,,,,,,,,,,,,,,,,40,,,,,,,,,,0.03,2,8.8622,0,4,4,4,1,Practice college advising for a club with several friends once per week,Plann what characters to build for my game with pretty markers next to the computer,0.05,0.03,4.4,0,,,,
,,66d9609fbac7758ed890cece,2024-09-26_12h20.08.446,WTP_SM_Choice,2022.2.1,Win32,9.98003992,,,,,,,NAN,,NAN,0.99,5.01,,0,39,39,39,1,40,Alex,Acc,Participant_Images/66d9609fbac7758ed890cece/66d9609fbac7758ed890cece_Images/66d9609fbac7758ed890cece_Image_9.jpeg,liked,1.672012706,,,,,,,,,,,,,,,,,,,,,,
,,66d9609fbac7758ed890cece,2024-09-26_12h20.08.446,WTP_SM_Choice,2022.2.1,Win32,9.98003992,,,,,space,1.0604,NAN,,NAN,0.99,5.01,,0,40,40,40,1,41,Alex,Acc,Participant_Images/66d9609fbac7758ed890cece/66d9609fbac7758ed890cece_Images/66d9609fbac7758ed890cece_Image_22.jpeg,liked,4.942172136,,,,,,,,,,,,,,,,,,,,,,
,,66d9609fbac7758ed890cece,2024-09-26_12h20.08.446,WTP_SM_Choice,2022.2.1,Win32,9.98003992,,,,,space,3.8247,NAN,,NAN,0.99,5.01,,0,41,41,41,1,42,Alex,Acc,Participant_Images/66d9609fbac7758ed890cece/66d9609fbac7758ed890cece_Images/66d9609fbac7758ed890cece_Image_23.jpeg,liked,2.50187214,,,,,,,,,,,,,,,,,,,,,,
,,66d9609fbac7758ed890cece,2024-09-26_12h20.08.446,WTP_SM_Choice,2022.2.1,Win32,9.98003992,,,,,space,1.0479,NAN,,NAN,0.99,5.01,,0,42,42,42,1,43,Alex,Acc,Participant_Images/66d9609fbac7758ed890cece/66d9609fbac7758ed890cece_Images/66d9609fbac7758ed890cece_Image_24.jpeg,liked,2.071164779,,,,,,,,,,,,,,,,,,,,,,
,,66d9609fbac7758ed890cece,2024-09-26_12h20.08.446,WTP_SM_Choice,2022.2.1,Win32,9.98003992,,,,,space,1.2168,NAN,,NAN,0.99,5.01,,0,43,43,43,1,44,Alex,Acc,Participant_Images/66d9609fbac7758ed890cece/66d9609fbac7758ed890cece_Images/66d9609fbac7758ed890cece_Image_5.jpeg,did not like,5.336503566,,,,,,,,,,,,,,,,,,,,,,
,,66d9609fbac7758ed890cece,2024-09-26_12h20.08.446,WTP_SM_Choice,2022.2.1,Win32,9.98003992,,,,,,,,,,,,,,,,,,41,,,,,,space,1.6363,space,3.8432,0.04,2,2.0598,0,0,0,0,1,Bake delicious snacks in my kitchen on the weekend,Watch videos of our favorite youtuber together,0.01,0.04,1.1,1,,,,
,,66d9609fbac7758ed890cece,2024-09-26_12h20.08.446,WTP_SM_Choice,2022.2.1,Win32,9.98003992,,,,,,,,,,,,,,,,,,42,,,,,,,,,,0.02,1,2.706,0,1,1,1,1,Help each other with coding homework every week,Listen to audiobooks while driving to work,0.02,0.04,3.3,0,,,,
,,66d9609fbac7758ed890cece,2024-09-26_12h20.08.446,WTP_SM_Choice,2022.2.1,Win32,9.98003992,,,,,,,,,,,,,,,,,,43,,,,,,,,,,0.03,1,2.5986,0,2,2,2,1,Help each other with coding homework every week,Plann what characters to build for my game with pretty markers next to the computer,0.03,0.04,1.1,0,,,,
,,66d9609fbac7758ed890cece,2024-09-26_12h20.08.446,WTP_SM_Choice,2022.2.1,Win32,9.98003992,,,,,,,,,,,,,,,,,,44,,,,,,,,,,0.04,1,1.7642,0,3,3,3,1,Practice college advising for a club with several friends once per week,Soak in the bathtub to relax after a long day,0.04,0.04,1.1,0,,,,
,,66d9609fbac7758ed890cece,2024-09-26_12h20.08.446,WTP_SM_Choice,2022.2.1,Win32,9.98003992,,,,,,,,,,,,,,,,,,45,,,,,,,,,,0.04,2,2.4245,0,4,4,4,1,Go to get boba on the weekend with my best friend,Listen to audiobooks while driving to work,0.05,0.04,4.4,0,,,,
,,66d9609fbac7758ed890cece,2024-09-26_12h20.08.446,WTP_SM_Choice,2022.2.1,Win32,9.98003992,,,,,,,NAN,,NAN,1.16,4.84,,0,44,44,44,1,45,Alex,Acc,Participant_Images/66d9609fbac7758ed890cece/66d9609fbac7758ed890cece_Images/66d9609fbac7758ed890cece_Image_10.jpeg,did not like,2.642157193,,,,,,,,,,,,,,,,,,,,,,
,,66d9609fbac7758ed890cece,2024-09-26_12h20.08.446,WTP_SM_Choice,2022.2.1,Win32,9.98003992,,,,,space,1.7449,NAN,,NAN,1.16,4.84,,0,45,45,45,1,46,Alex,Acc,Participant_Images/66d9609fbac7758ed890cece/66d9609fbac7758ed890cece_Images/66d9609fbac7758ed890cece_Image_11.jpeg,liked,4.456234322,,,,,,,,,,,,,,,,,,,,,,
,,66d9609fbac7758ed890cece,2024-09-26_12h20.08.446,WTP_SM_Choice,2022.2.1,Win32,9.98003992,,,,,space,1.0494,NAN,,NAN,1.16,4.84,,0,46,46,46,1,47,Alex,Acc,Participant_Images/66d9609fbac7758ed890cece/66d9609fbac7758ed890cece_Images/66d9609fbac7758ed890cece_Image_19.jpeg,did not like,4.438512181,,,,,,,,,,,,,,,,,,,,,,
,,66d9609fbac7758ed890cece,2024-09-26_12h20.08.446,WTP_SM_Choice,2022.2.1,Win32,9.98003992,,,,,space,1.0575,NAN,,NAN,1.16,4.84,,0,47,47,47,1,48,Alex,Acc,Participant_Images/66d9609fbac7758ed890cece/66d9609fbac7758ed890cece_Images/66d9609fbac7758ed890cece_Image_2.jpeg,liked,2.682944783,,,,,,,,,,,,,,,,,,,,,,
,,66d9609fbac7758ed890cece,2024-09-26_12h20.08.446,WTP_SM_Choice,2022.2.1,Win32,9.98003992,,,,,space,1.0636,NAN,,NAN,1.16,4.84,,0,48,48,48,1,49,Alex,Acc,Participant_Images/66d9609fbac7758ed890cece/66d9609fbac7758ed890cece_Images/66d9609fbac7758ed890cece_Image_1.jpeg,liked,4.51984296,,,,,,,,,,,,,,,,,,,,,,
,,66d9609fbac7758ed890cece,2024-09-26_12h20.08.446,WTP_SM_Choice,2022.2.1,Win32,9.98003992,,,,,,,,,,,,,,,,,,46,,,,,,space,2.6712,space,1.2391,0.01,1,2.0073,0,0,0,0,1,Listen to podcasts at night to help me fall asleep,Go to have lunch on the weekends,0.01,0.05,8.8,1,,,,
,,66d9609fbac7758ed890cece,2024-09-26_12h20.08.446,WTP_SM_Choice,2022.2.1,Win32,9.98003992,,,,,,,,,,,,,,,,,,47,,,,,,,,,,0.02,1,2.9475,0,1,1,1,1,Play video games in my room on my bed,Watch videos of our favorite youtuber together,0.02,0.05,1.1,1,,,,
,,66d9609fbac7758ed890cece,2024-09-26_12h20.08.446,WTP_SM_Choice,2022.2.1,Win32,9.98003992,,,,,,,,,,,,,,,,,,48,,,,,,,,,,0.03,1,2.5409,0,2,2,2,1,Go to have lunch on the weekends,Have chocolate milk in the living room after a workout,0.03,0.05,4.4,0,,,,
,,66d9609fbac7758ed890cece,2024-09-26_12h20.08.446,WTP_SM_Choice,2022.2.1,Win32,9.98003992,,,,,,,,,,,,,,,,,,49,,,,,,,,,,0.04,1,1.935,0,3,3,3,1,Go to boardgame night at my college dorm every wednesday night,Go for walks outside in the evenings to stretch my legs,0.04,0.05,3.3,0,,,,
,,66d9609fbac7758ed890cece,2024-09-26_12h20.08.446,WTP_SM_Choice,2022.2.1,Win32,9.98003992,,,,,,,,,,,,,,,,,,50,,,,,,,,,,0.05,1,3.0254,0,4,4,4,1,Have chocolate milk in the living room after a workout,Having breakfast together after chemistry class three days per week,0.05,0.05,1.1,1,,,,
,,66d9609fbac7758ed890cece,2024-09-26_12h20.08.446,WTP_SM_Choice,2022.2.1,Win32,9.98003992,,,,,,,5,,4,1.31,4.69,,0,49,49,49,1,50,Alex,Acc,Participant_Images/66d9609fbac7758ed890cece/66d9609fbac7758ed890cece_Images/66d9609fbac7758ed890cece_Image_21.jpeg,liked,3.195382774,,,,,,,,,,,,,,,,,,,space,3.0759,,
,,66d9609fbac7758ed890cece,2024-09-26_12h20.08.446,WTP_SM_Choice,2022.2.1,Win32,9.98003992,,,space,2.7879,space,1.323,NAN,,NAN,1.31,4.69,,0,50,50,50,1,51,Riley,Rej,Participant_Images/66d9609fbac7758ed890cece/66d9609fbac7758ed890cece_Images/66d9609fbac7758ed890cece_Image_14.jpeg,liked,1.779333479,,,,,,,,,,,,,,,,,,,,,,
,,66d9609fbac7758ed890cece,2024-09-26_12h20.08.446,WTP_SM_Choice,2022.2.1,Win32,9.98003992,,,,,space,0.9876,NAN,,NAN,1.31,4.69,,0,51,51,51,1,52,Riley,Rej,Participant_Images/66d9609fbac7758ed890cece/66d9609fbac7758ed890cece_Images/66d9609fbac7758ed890cece_Image_6.jpeg,liked,4.312468682,,,,,,,,,,,,,,,,,,,,,,
,,66d9609fbac7758ed890cece,2024-09-26_12h20.08.446,WTP_SM_Choice,2022.2.1,Win32,9.98003992,,,,,space,0.667,NAN,,NAN,1.31,4.69,,0,52,52,52,1,53,Riley,Rej,Participant_Images/66d9609fbac7758ed890cece/66d9609fbac7758ed890cece_Images/66d9609fbac7758ed890cece_Image_22.jpeg,liked,4.940433059,,,,,,,,,,,,,,,,,,,,,,
,,66d9609fbac7758ed890cece,2024-09-26_12h20.08.446,WTP_SM_Choice,2022.2.1,Win32,9.98003992,,,,,space,0.673,NAN,,NAN,1.31,4.69,,0,53,53,53,1,54,Riley,Rej,Participant_Images/66d9609fbac7758ed890cece/66d9609fbac7758ed890cece_Images/66d9609fbac7758ed890cece_Image_21.jpeg,did not like,2.7105123,,,,,,,,,,,,,,,,,,,,,,
,,66d9609fbac7758ed890cece,2024-09-26_12h20.08.446,WTP_SM_Choice,2022.2.1,Win32,9.98003992,,,,,,,,,,,,,,,,,,51,,,,,,space,1.1918,space,1.4473,0.01,2,2.7942,0,0,0,0,1,Meet up with my best friend for lunch in our dorm dining hall once per week,Plann what characters to build for my game with pretty markers next to the computer,0.01,0.01,1.1,0,,,,
,,66d9609fbac7758ed890cece,2024-09-26_12h20.08.446,WTP_SM_Choice,2022.2.1,Win32,9.98003992,,,,,,,,,,,,,,,,,,52,,,,,,,,,,0.01,2,2.6965,0,1,1,1,1,Listen to podcasts at night to help me fall asleep,Complete puzzles with my dorm friends on the weekend,0.02,0.01,3.3,1,,,,
,,66d9609fbac7758ed890cece,2024-09-26_12h20.08.446,WTP_SM_Choice,2022.2.1,Win32,9.98003992,,,,,,,,,,,,,,,,,,53,,,,,,,,,,0.01,2,2.3065,0,2,2,2,1,Bake delicious snacks in my kitchen on the weekend,Help each other with coding homework every week,0.03,0.01,1.1,1,,,,
,,66d9609fbac7758ed890cece,2024-09-26_12h20.08.446,WTP_SM_Choice,2022.2.1,Win32,9.98003992,,,,,,,,,,,,,,,,,,54,,,,,,,,,,0.01,2,2.1399,0,3,3,3,1,Bake delicious snacks in my kitchen on the weekend,Go to have lunch on the weekends,0.04,0.01,4.4,1,,,,
,,66d9609fbac7758ed890cece,2024-09-26_12h20.08.446,WTP_SM_Choice,2022.2.1,Win32,9.98003992,,,,,,,,,,,,,,,,,,55,,,,,,,,,,0.05,1,2.8672,0,4,4,4,1,Have chocolate milk in the living room after a workout,Go to boardgame night at my college dorm every wednesday night,0.05,0.01,1.1,1,,,,
,,66d9609fbac7758ed890cece,2024-09-26_12h20.08.446,WTP_SM_Choice,2022.2.1,Win32,9.98003992,,,,,,,NAN,,NAN,1.4,4.6,,0,54,54,54,1,55,Riley,Rej,Participant_Images/66d9609fbac7758ed890cece/66d9609fbac7758ed890cece_Images/66d9609fbac7758ed890cece_Image_9.jpeg,did not like,3.602308302,,,,,,,,,,,,,,,,,,,,,,
,,66d9609fbac7758ed890cece,2024-09-26_12h20.08.446,WTP_SM_Choice,2022.2.1,Win32,9.98003992,,,,,space,0.6606,NAN,,NAN,1.4,4.6,,0,55,55,55,1,56,Riley,Rej,Participant_Images/66d9609fbac7758ed890cece/66d9609fbac7758ed890cece_Images/66d9609fbac7758ed890cece_Image_24.jpeg,did not like,4.106391878,,,,,,,,,,,,,,,,,,,,,,
,,66d9609fbac7758ed890cece,2024-09-26_12h20.08.446,WTP_SM_Choice,2022.2.1,Win32,9.98003992,,,,,space,0.5331,NAN,,NAN,1.4,4.6,,0,56,56,56,1,57,Riley,Rej,Participant_Images/66d9609fbac7758ed890cece/66d9609fbac7758ed890cece_Images/66d9609fbac7758ed890cece_Image_17.jpeg,did not like,3.799433026,,,,,,,,,,,,,,,,,,,,,,
,,66d9609fbac7758ed890cece,2024-09-26_12h20.08.446,WTP_SM_Choice,2022.2.1,Win32,9.98003992,,,,,space,1.1806,NAN,,NAN,1.4,4.6,,0,57,57,57,1,58,Riley,Rej,Participant_Images/66d9609fbac7758ed890cece/66d9609fbac7758ed890cece_Images/66d9609fbac7758ed890cece_Image_10.jpeg,did not like,5.246980764,,,,,,,,,,,,,,,,,,,,,,
,,66d9609fbac7758ed890cece,2024-09-26_12h20.08.446,WTP_SM_Choice,2022.2.1,Win32,9.98003992,,,,,space,2.6783,NAN,,NAN,1.4,4.6,,0,58,58,58,1,59,Riley,Rej,Participant_Images/66d9609fbac7758ed890cece/66d9609fbac7758ed890cece_Images/66d9609fbac7758ed890cece_Image_8.jpeg,did not like,3.30081769,,,,,,,,,,,,,,,,,,,,,,
,,66d9609fbac7758ed890cece,2024-09-26_12h20.08.446,WTP_SM_Choice,2022.2.1,Win32,9.98003992,,,,,,,,,,,,,,,,,,56,,,,,,space,2.7822,space,1.5446,0.02,2,1.8608,0,0,0,0,1,Have chocolate milk in the living room after a workout,Help each other with coding homework every week,0.01,0.02,8.8,1,,,,
,,66d9609fbac7758ed890cece,2024-09-26_12h20.08.446,WTP_SM_Choice,2022.2.1,Win32,9.98003992,,,,,,,,,,,,,,,,,,57,,,,,,,,,,0.02,2,3.2647,0,1,1,1,1,Listen to audiobooks while driving to work,Practice college advising for a club with several friends once per week,0.02,0.02,4.4,1,,,,
,,66d9609fbac7758ed890cece,2024-09-26_12h20.08.446,WTP_SM_Choice,2022.2.1,Win32,9.98003992,,,,,,,,,,,,,,,,,,58,,,,,,,,,,0.03,1,2.3843,0,2,2,2,1,Practice college advising for a club with several friends once per week,Go for walks outside in the evenings to stretch my legs,0.03,0.02,4.4,0,,,,
,,66d9609fbac7758ed890cece,2024-09-26_12h20.08.446,WTP_SM_Choice,2022.2.1,Win32,9.98003992,,,,,,,,,,,,,,,,,,59,,,,,,,,,,0.02,2,4.2007,0,3,3,3,1,Watch videos of our favorite youtuber together,Sketch pictures of my favorite characters from games and shows in my moleskin notebook,0.04,0.02,4.4,0,,,,
,,66d9609fbac7758ed890cece,2024-09-26_12h20.08.446,WTP_SM_Choice,2022.2.1,Win32,9.98003992,,,,,,,,,,,,,,,,,,60,,,,,,,,,,0.02,2,2.6853,0,4,4,4,1,Go to get boba on the weekend with my best friend,Listen to podcasts at night to help me fall asleep,0.05,0.02,1.1,0,,,,
,,66d9609fbac7758ed890cece,2024-09-26_12h20.08.446,WTP_SM_Choice,2022.2.1,Win32,9.98003992,,,,,,,NAN,,NAN,1.51,4.49,,0,59,59,59,1,60,Riley,Rej,Participant_Images/66d9609fbac7758ed890cece/66d9609fbac7758ed890cece_Images/66d9609fbac7758ed890cece_Image_19.jpeg,did not like,1.661473164,,,,,,,,,,,,,,,,,,,,,,
,,66d9609fbac7758ed890cece,2024-09-26_12h20.08.446,WTP_SM_Choice,2022.2.1,Win32,9.98003992,,,,,space,1.1868,NAN,,NAN,1.51,4.49,,0,60,60,60,1,61,Riley,Rej,Participant_Images/66d9609fbac7758ed890cece/66d9609fbac7758ed890cece_Images/66d9609fbac7758ed890cece_Image_18.jpeg,did not like,3.613205605,,,,,,,,,,,,,,,,,,,,,,
,,66d9609fbac7758ed890cece,2024-09-26_12h20.08.446,WTP_SM_Choice,2022.2.1,Win32,9.98003992,,,,,space,1.074,NAN,,NAN,1.51,4.49,,0,61,61,61,1,62,Riley,Rej,Participant_Images/66d9609fbac7758ed890cece/66d9609fbac7758ed890cece_Images/66d9609fbac7758ed890cece_Image_4.jpeg,did not like,4.988446431,,,,,,,,,,,,,,,,,,,,,,
,,66d9609fbac7758ed890cece,2024-09-26_12h20.08.446,WTP_SM_Choice,2022.2.1,Win32,9.98003992,,,,,space,1.1819,NAN,,NAN,1.51,4.49,,0,62,62,62,1,63,Riley,Rej,Participant_Images/66d9609fbac7758ed890cece/66d9609fbac7758ed890cece_Images/66d9609fbac7758ed890cece_Image_13.jpeg,did not like,3.470791822,,,,,,,,,,,,,,,,,,,,,,
,,66d9609fbac7758ed890cece,2024-09-26_12h20.08.446,WTP_SM_Choice,2022.2.1,Win32,9.98003992,,,,,space,0.7912,NAN,,NAN,1.51,4.49,,0,63,63,63,1,64,Riley,Rej,Participant_Images/66d9609fbac7758ed890cece/66d9609fbac7758ed890cece_Images/66d9609fbac7758ed890cece_Image_16.jpeg,liked,3.820572462,,,,,,,,,,,,,,,,,,,,,,
,,66d9609fbac7758ed890cece,2024-09-26_12h20.08.446,WTP_SM_Choice,2022.2.1,Win32,9.98003992,,,,,,,,,,,,,,,,,,61,,,,,,space,3.2478,space,3.0655,0.01,1,1.9325,0,0,0,0,1,Help each other with coding homework every week,Play video games in my room on my bed,0.01,0.03,3.3,0,,,,
,,66d9609fbac7758ed890cece,2024-09-26_12h20.08.446,WTP_SM_Choice,2022.2.1,Win32,9.98003992,,,,,,,,,,,,,,,,,,62,,,,,,,,,,0.02,1,2.1912,0,1,1,1,1,Go to boardgame night at my college dorm every wednesday night,Care for plants I got on sale at the local store in my dorm,0.02,0.03,3.3,0,,,,
,,66d9609fbac7758ed890cece,2024-09-26_12h20.08.446,WTP_SM_Choice,2022.2.1,Win32,9.98003992,,,,,,,,,,,,,,,,,,63,,,,,,,,,,0.03,1,3.0648,0,2,2,2,1,Sketch pictures of my favorite characters from games and shows in my moleskin notebook,Go to boardgame night at my college dorm every wednesday night,0.03,0.03,3.3,1,,,,
,,66d9609fbac7758ed890cece,2024-09-26_12h20.08.446,WTP_SM_Choice,2022.2.1,Win32,9.98003992,,,,,,,,,,,,,,,,,,64,,,,,,,,,,0.04,1,3.3237,0,3,3,3,1,Listen to audiobooks while driving to work,Go to have lunch on the weekends,0.04,0.03,1.1,1,,,,
,,66d9609fbac7758ed890cece,2024-09-26_12h20.08.446,WTP_SM_Choice,2022.2.1,Win32,9.98003992,,,,,,,,,,,,,,,,,,65,,,,,,,,,,0.03,2,1.7628,0,4,4,4,1,Bake delicious snacks in my kitchen on the weekend,Go to boardgame night at my college dorm every wednesday night,0.05,0.03,1.1,1,,,,
,,66d9609fbac7758ed890cece,2024-09-26_12h20.08.446,WTP_SM_Choice,2022.2.1,Win32,9.98003992,,,,,,,NAN,,NAN,1.64,4.36,,0,64,64,64,1,65,Riley,Rej,Participant_Images/66d9609fbac7758ed890cece/66d9609fbac7758ed890cece_Images/66d9609fbac7758ed890cece_Image_1.jpeg,did not like,2.455989137,,,,,,,,,,,,,,,,,,,,,,
,,66d9609fbac7758ed890cece,2024-09-26_12h20.08.446,WTP_SM_Choice,2022.2.1,Win32,9.98003992,,,,,space,0.9368,NAN,,NAN,1.64,4.36,,0,65,65,65,1,66,Riley,Rej,Participant_Images/66d9609fbac7758ed890cece/66d9609fbac7758ed890cece_Images/66d9609fbac7758ed890cece_Image_23.jpeg,did not like,3.79605092,,,,,,,,,,,,,,,,,,,,,,
,,66d9609fbac7758ed890cece,2024-09-26_12h20.08.446,WTP_SM_Choice,2022.2.1,Win32,9.98003992,,,,,space,1.0503,NAN,,NAN,1.64,4.36,,0,66,66,66,1,67,Riley,Rej,Participant_Images/66d9609fbac7758ed890cece/66d9609fbac7758ed890cece_Images/66d9609fbac7758ed890cece_Image_25.jpeg,liked,3.562416326,,,,,,,,,,,,,,,,,,,,,,
,,66d9609fbac7758ed890cece,2024-09-26_12h20.08.446,WTP_SM_Choice,2022.2.1,Win32,9.98003992,,,,,space,1.7161,NAN,,NAN,1.64,4.36,,0,67,67,67,1,68,Riley,Rej,Participant_Images/66d9609fbac7758ed890cece/66d9609fbac7758ed890cece_Images/66d9609fbac7758ed890cece_Image_11.jpeg,did not like,2.843822497,,,,,,,,,,,,,,,,,,,,,,
,,66d9609fbac7758ed890cece,2024-09-26_12h20.08.446,WTP_SM_Choice,2022.2.1,Win32,9.98003992,,,,,space,1.3253,NAN,,NAN,1.64,4.36,,0,68,68,68,1,69,Riley,Rej,Participant_Images/66d9609fbac7758ed890cece/66d9609fbac7758ed890cece_Images/66d9609fbac7758ed890cece_Image_15.jpeg,liked,3.546495948,,,,,,,,,,,,,,,,,,,,,,
,,66d9609fbac7758ed890cece,2024-09-26_12h20.08.446,WTP_SM_Choice,2022.2.1,Win32,9.98003992,,,,,,,,,,,,,,,,,,66,,,,,,space,1.0693,space,0.8375,0.01,1,1.8798,0,0,0,0,1,Watch videos of our favorite youtuber together,Listen to podcasts at night to help me fall asleep,0.01,0.04,1.1,0,,,,
,,66d9609fbac7758ed890cece,2024-09-26_12h20.08.446,WTP_SM_Choice,2022.2.1,Win32,9.98003992,,,,,,,,,,,,,,,,,,67,,,,,,,,,,0.02,1,4.9293,0,1,1,1,1,Meet up with my best friend for lunch in our dorm dining hall once per week,Care for plants I got on sale at the local store in my dorm,0.02,0.04,8.8,0,,,,
,,66d9609fbac7758ed890cece,2024-09-26_12h20.08.446,WTP_SM_Choice,2022.2.1,Win32,9.98003992,,,,,,,,,,,,,,,,,,68,,,,,,,,,,0.03,1,3.4082,0,2,2,2,1,Play our own version of taskmaster at birthday parties a few times per semester,Plann what characters to build for my game with pretty markers next to the computer,0.03,0.04,4.4,0,,,,
,,66d9609fbac7758ed890cece,2024-09-26_12h20.08.446,WTP_SM_Choice,2022.2.1,Win32,9.98003992,,,,,,,,,,,,,,,,,,69,,,,,,,,,,0.04,1,2.2991,0,3,3,3,1,Complete puzzles with my dorm friends on the weekend,Soak in the bathtub to relax after a long day,0.04,0.04,1.1,0,,,,
,,66d9609fbac7758ed890cece,2024-09-26_12h20.08.446,WTP_SM_Choice,2022.2.1,Win32,9.98003992,,,,,,,,,,,,,,,,,,70,,,,,,,,,,0.05,1,4.899,0,4,4,4,1,Watch videos of our favorite youtuber together,Plann what characters to build for my game with pretty markers next to the computer,0.05,0.04,1.1,0,,,,
,,66d9609fbac7758ed890cece,2024-09-26_12h20.08.446,WTP_SM_Choice,2022.2.1,Win32,9.98003992,,,,,,,NAN,,NAN,1.79,4.21,,0,69,69,69,1,70,Riley,Rej,Participant_Images/66d9609fbac7758ed890cece/66d9609fbac7758ed890cece_Images/66d9609fbac7758ed890cece_Image_20.jpeg,did not like,1.672012706,,,,,,,,,,,,,,,,,,,,,,
,,66d9609fbac7758ed890cece,2024-09-26_12h20.08.446,WTP_SM_Choice,2022.2.1,Win32,9.98003992,,,,,space,1.0526,NAN,,NAN,1.79,4.21,,0,70,70,70,1,71,Riley,Rej,Participant_Images/66d9609fbac7758ed890cece/66d9609fbac7758ed890cece_Images/66d9609fbac7758ed890cece_Image_7.jpeg,did not like,4.942172136,,,,,,,,,,,,,,,,,,,,,,
,,66d9609fbac7758ed890cece,2024-09-26_12h20.08.446,WTP_SM_Choice,2022.2.1,Win32,9.98003992,,,,,space,1.4401,NAN,,NAN,1.79,4.21,,0,71,71,71,1,72,Riley,Rej,Participant_Images/66d9609fbac7758ed890cece/66d9609fbac7758ed890cece_Images/66d9609fbac7758ed890cece_Image_5.jpeg,did not like,2.50187214,,,,,,,,,,,,,,,,,,,,,,
,,66d9609fbac7758ed890cece,2024-09-26_12h20.08.446,WTP_SM_Choice,2022.2.1,Win32,9.98003992,,,,,space,0.9314,NAN,,NAN,1.79,4.21,,0,72,72,72,1,73,Riley,Rej,Participant_Images/66d9609fbac7758ed890cece/66d9609fbac7758ed890cece_Images/66d9609fbac7758ed890cece_Image_3.jpeg,liked,2.071164779,,,,,,,,,,,,,,,,,,,,,,
,,66d9609fbac7758ed890cece,2024-09-26_12h20.08.446,WTP_SM_Choice,2022.2.1,Win32,9.98003992,,,,,space,0.7943,NAN,,NAN,1.79,4.21,,0,73,73,73,1,74,Riley,Rej,Participant_Images/66d9609fbac7758ed890cece/66d9609fbac7758ed890cece_Images/66d9609fbac7758ed890cece_Image_2.jpeg,did not like,5.336503566,,,,,,,,,,,,,,,,,,,,,,
,,66d9609fbac7758ed890cece,2024-09-26_12h20.08.446,WTP_SM_Choice,2022.2.1,Win32,9.98003992,,,,,,,,,,,,,,,,,,71,,,,,,space,0.7421,space,2.7421,0.05,2,2.2078,0,0,0,0,1,Care for plants I got on sale at the local store in my dorm,Practice college advising for a club with several friends once per week,0.01,0.05,3.3,1,,,,
,,66d9609fbac7758ed890cece,2024-09-26_12h20.08.446,WTP_SM_Choice,2022.2.1,Win32,9.98003992,,,,,,,,,,,,,,,,,,72,,,,,,,,,,0.02,1,4.6569,0,1,1,1,1,Complete puzzles with my dorm friends on the weekend,Sketch pictures of my favorite characters from games and shows in my moleskin notebook,0.02,0.05,8.8,0,,,,
,,66d9609fbac7758ed890cece,2024-09-26_12h20.08.446,WTP_SM_Choice,2022.2.1,Win32,9.98003992,,,,,,,,,,,,,,,,,,73,,,,,,,,,,0.03,1,1.5365,0,2,2,2,1,Practice college advising for a club with several friends once per week,Listen to podcasts at night to help me fall asleep,0.03,0.05,3.3,0,,,,
,,66d9609fbac7758ed890cece,2024-09-26_12h20.08.446,WTP_SM_Choice,2022.2.1,Win32,9.98003992,,,,,,,,,,,,,,,,,,74,,,,,,,,,,0.04,1,2.2822,0,3,3,3,1,Practice college advising for a club with several friends once per week,Play video games in my room on my bed,0.04,0.05,4.4,0,,,,
,,66d9609fbac7758ed890cece,2024-09-26_12h20.08.446,WTP_SM_Choice,2022.2.1,Win32,9.98003992,,,,,,,,,,,,,,,,,,75,,,,,,,,,,0.05,2,3.2622,0,4,4,4,1,Listen to podcasts at night to help me fall asleep,Help each other with coding homework every week,0.05,0.05,3.3,1,,,,
,,66d9609fbac7758ed890cece,2024-09-26_12h20.08.446,WTP_SM_Choice,2022.2.1,Win32,9.98003992,,,,,,,3,,4,1.98,4.02,,0,74,74,74,1,75,Riley,Rej,Participant_Images/66d9609fbac7758ed890cece/66d9609fbac7758ed890cece_Images/66d9609fbac7758ed890cece_Image_12.jpeg,did not like,2.642157193,,,,,,,,,,,,,,,,,,,space,1.3277,,
,,66d9609fbac7758ed890cece,2024-09-26_12h20.08.446,WTP_SM_Choice,2022.2.1,Win32,9.98003992,,,space,1.8276,space,1.7107,NAN,,NAN,1.98,4.02,,0,75,75,75,1,76,Charlie,Rej,Participant_Images/66d9609fbac7758ed890cece/66d9609fbac7758ed890cece_Images/66d9609fbac7758ed890cece_Image_25.jpeg,did not like,4.456234322,,,,,,,,,,,,,,,,,,,,,,
,,66d9609fbac7758ed890cece,2024-09-26_12h20.08.446,WTP_SM_Choice,2022.2.1,Win32,9.98003992,,,,,space,0.6624,NAN,,NAN,1.98,4.02,,0,76,76,76,1,77,Charlie,Rej,Participant_Images/66d9609fbac7758ed890cece/66d9609fbac7758ed890cece_Images/66d9609fbac7758ed890cece_Image_20.jpeg,did not like,4.438512181,,,,,,,,,,,,,,,,,,,,,,
,,66d9609fbac7758ed890cece,2024-09-26_12h20.08.446,WTP_SM_Choice,2022.2.1,Win32,9.98003992,,,,,space,0.7919,NAN,,NAN,1.98,4.02,,0,77,77,77,1,78,Charlie,Rej,Participant_Images/66d9609fbac7758ed890cece/66d9609fbac7758ed890cece_Images/66d9609fbac7758ed890cece_Image_14.jpeg,did not like,2.682944783,,,,,,,,,,,,,,,,,,,,,,
,,66d9609fbac7758ed890cece,2024-09-26_12h20.08.446,WTP_SM_Choice,2022.2.1,Win32,9.98003992,,,,,space,0.6583,NAN,,NAN,1.98,4.02,,0,78,78,78,1,79,Charlie,Rej,Participant_Images/66d9609fbac7758ed890cece/66d9609fbac7758ed890cece_Images/66d9609fbac7758ed890cece_Image_19.jpeg,did not like,4.51984296,,,,,,,,,,,,,,,,,,,,,,
,,66d9609fbac7758ed890cece,2024-09-26_12h20.08.446,WTP_SM_Choice,2022.2.1,Win32,9.98003992,,,,,,,,,,,,,,,,,,76,,,,,,space,3.9454,space,1.2376,0.01,2,3.5213,0,0,0,0,1,Go to boardgame night at my college dorm every wednesday night,Listen to audiobooks while driving to work,0.01,0.01,1.1,0,,,,
,,66d9609fbac7758ed890cece,2024-09-26_12h20.08.446,WTP_SM_Choice,2022.2.1,Win32,9.98003992,,,,,,,,,,,,,,,,,,77,,,,,,,,,,0.02,1,2.3092,0,1,1,1,1,Go for walks outside in the evenings to stretch my legs,Having breakfast together after chemistry class three days per week,0.02,0.01,8.8,1,,,,
,,66d9609fbac7758ed890cece,2024-09-26_12h20.08.446,WTP_SM_Choice,2022.2.1,Win32,9.98003992,,,,,,,,,,,,,,,,,,78,,,,,,,,,,0.03,1,3.6929,0,2,2,2,1,Sketch pictures of my favorite characters from games and shows in my moleskin notebook,Meet up with my best friend for lunch in our dorm dining hall once per week,0.03,0.01,1.1,1,,,,
,,66d9609fbac7758ed890cece,2024-09-26_12h20.08.446,WTP_SM_Choice,2022.2.1,Win32,9.98003992,,,,,,,,,,,,,,,,,,79,,,,,,,,,,0.01,2,2.7183,0,3,3,3,1,Go to have lunch on the weekends,Sketch pictures of my favorite characters from games and shows in my moleskin notebook,0.04,0.01,1.1,0,,,,
,,66d9609fbac7758ed890cece,2024-09-26_12h20.08.446,WTP_SM_Choice,2022.2.1,Win32,9.98003992,,,,,,,,,,,,,,,,,,80,,,,,,,,,,0.05,1,5.2246,0,4,4,4,1,Having breakfast together after chemistry class three days per week,Care for plants I got on sale at the local store in my dorm,0.05,0.01,4.4,0,,,,
,,66d9609fbac7758ed890cece,2024-09-26_12h20.08.446,WTP_SM_Choice,2022.2.1,Win32,9.98003992,,,,,,,NAN,,NAN,2.1,3.9,,0,79,79,79,1,80,Charlie,Rej,Participant_Images/66d9609fbac7758ed890cece/66d9609fbac7758ed890cece_Images/66d9609fbac7758ed890cece_Image_23.jpeg,did not like,3.195382774,,,,,,,,,,,,,,,,,,,,,,
,,66d9609fbac7758ed890cece,2024-09-26_12h20.08.446,WTP_SM_Choice,2022.2.1,Win32,9.98003992,,,,,space,1.4648,NAN,,NAN,2.1,3.9,,0,80,80,80,1,81,Charlie,Rej,Participant_Images/66d9609fbac7758ed890cece/66d9609fbac7758ed890cece_Images/66d9609fbac7758ed890cece_Image_21.jpeg,did not like,1.779333479,,,,,,,,,,,,,,,,,,,,,,
,,66d9609fbac7758ed890cece,2024-09-26_12h20.08.446,WTP_SM_Choice,2022.2.1,Win32,9.98003992,,,,,space,0.9475,NAN,,NAN,2.1,3.9,,0,81,81,81,1,82,Charlie,Rej,Participant_Images/66d9609fbac7758ed890cece/66d9609fbac7758ed890cece_Images/66d9609fbac7758ed890cece_Image_5.jpeg,liked,4.312468682,,,,,,,,,,,,,,,,,,,,,,
,,66d9609fbac7758ed890cece,2024-09-26_12h20.08.446,WTP_SM_Choice,2022.2.1,Win32,9.98003992,,,,,space,1.7148,NAN,,NAN,2.1,3.9,,0,82,82,82,1,83,Charlie,Rej,Participant_Images/66d9609fbac7758ed890cece/66d9609fbac7758ed890cece_Images/66d9609fbac7758ed890cece_Image_13.jpeg,liked,4.940433059,,,,,,,,,,,,,,,,,,,,,,
,,66d9609fbac7758ed890cece,2024-09-26_12h20.08.446,WTP_SM_Choice,2022.2.1,Win32,9.98003992,,,,,space,1.7422,NAN,,NAN,2.1,3.9,,0,83,83,83,1,84,Charlie,Rej,Participant_Images/66d9609fbac7758ed890cece/66d9609fbac7758ed890cece_Images/66d9609fbac7758ed890cece_Image_9.jpeg,liked,2.7105123,,,,,,,,,,,,,,,,,,,,,,
,,66d9609fbac7758ed890cece,2024-09-26_12h20.08.446,WTP_SM_Choice,2022.2.1,Win32,9.98003992,,,,,,,,,,,,,,,,,,81,,,,,,space,1.0308,space,0.984,0.01,1,2.455,0,0,0,0,1,Having breakfast together after chemistry class three days per week,Play video games in my room on my bed,0.01,0.02,3.3,0,,,,
,,66d9609fbac7758ed890cece,2024-09-26_12h20.08.446,WTP_SM_Choice,2022.2.1,Win32,9.98003992,,,,,,,,,,,,,,,,,,82,,,,,,,,,,0.02,1,4.2059,0,1,1,1,1,Play video games in my room on my bed,Meet up with my best friend for lunch in our dorm dining hall once per week,0.02,0.02,4.4,1,,,,
,,66d9609fbac7758ed890cece,2024-09-26_12h20.08.446,WTP_SM_Choice,2022.2.1,Win32,9.98003992,,,,,,,,,,,,,,,,,,83,,,,,,,,,,0.03,1,1.765,0,2,2,2,1,Plann what characters to build for my game with pretty markers next to the computer,Go to get boba on the weekend with my best friend,0.03,0.02,1.1,1,,,,
,,66d9609fbac7758ed890cece,2024-09-26_12h20.08.446,WTP_SM_Choice,2022.2.1,Win32,9.98003992,,,,,,,,,,,,,,,,,,84,,,,,,,,,,0.02,2,1.5194,0,3,3,3,1,Care for plants I got on sale at the local store in my dorm,Complete puzzles with my dorm friends on the weekend,0.04,0.02,3.3,1,,,,
,,66d9609fbac7758ed890cece,2024-09-26_12h20.08.446,WTP_SM_Choice,2022.2.1,Win32,9.98003992,,,,,,,,,,,,,,,,,,85,,,,,,,,,,0.02,2,2.6174,0,4,4,4,1,Having breakfast together after chemistry class three days per week,Plann what characters to build for my game with pretty markers next to the computer,0.05,0.02,3.3,0,,,,
,,66d9609fbac7758ed890cece,2024-09-26_12h20.08.446,WTP_SM_Choice,2022.2.1,Win32,9.98003992,,,,,,,NAN,,NAN,2.2,3.8,,0,84,84,84,1,85,Charlie,Rej,Participant_Images/66d9609fbac7758ed890cece/66d9609fbac7758ed890cece_Images/66d9609fbac7758ed890cece_Image_22.jpeg,liked,3.602308302,,,,,,,,,,,,,,,,,,,,,,
,,66d9609fbac7758ed890cece,2024-09-26_12h20.08.446,WTP_SM_Choice,2022.2.1,Win32,9.98003992,,,,,space,0.9289,NAN,,NAN,2.2,3.8,,0,85,85,85,1,86,Charlie,Rej,Participant_Images/66d9609fbac7758ed890cece/66d9609fbac7758ed890cece_Images/66d9609fbac7758ed890cece_Image_17.jpeg,did not like,4.106391878,,,,,,,,,,,,,,,,,,,,,,
,,66d9609fbac7758ed890cece,2024-09-26_12h20.08.446,WTP_SM_Choice,2022.2.1,Win32,9.98003992,,,,,space,0.808,NAN,,NAN,2.2,3.8,,0,86,86,86,1,87,Charlie,Rej,Participant_Images/66d9609fbac7758ed890cece/66d9609fbac7758ed890cece_Images/66d9609fbac7758ed890cece_Image_18.jpeg,did not like,3.799433026,,,,,,,,,,,,,,,,,,,,,,
,,66d9609fbac7758ed890cece,2024-09-26_12h20.08.446,WTP_SM_Choice,2022.2.1,Win32,9.98003992,,,,,space,0.6748,NAN,,NAN,2.2,3.8,,0,87,87,87,1,88,Charlie,Rej,Participant_Images/66d9609fbac7758ed890cece/66d9609fbac7758ed890cece_Images/66d9609fbac7758ed890cece_Image_16.jpeg,did not like,5.246980764,,,,,,,,,,,,,,,,,,,,,,
,,66d9609fbac7758ed890cece,2024-09-26_12h20.08.446,WTP_SM_Choice,2022.2.1,Win32,9.98003992,,,,,space,0.7938,NAN,,NAN,2.2,3.8,,0,88,88,88,1,89,Charlie,Rej,Participant_Images/66d9609fbac7758ed890cece/66d9609fbac7758ed890cece_Images/66d9609fbac7758ed890cece_Image_10.jpeg,did not like,3.30081769,,,,,,,,,,,,,,,,,,,,,,
,,66d9609fbac7758ed890cece,2024-09-26_12h20.08.446,WTP_SM_Choice,2022.2.1,Win32,9.98003992,,,,,,,,,,,,,,,,,,86,,,,,,space,0.8874,space,2.7901,0.01,1,2.1425,0,0,0,0,1,Complete puzzles with my dorm friends on the weekend,Plann what characters to build for my game with pretty markers next to the computer,0.01,0.03,1.1,0,,,,
,,66d9609fbac7758ed890cece,2024-09-26_12h20.08.446,WTP_SM_Choice,2022.2.1,Win32,9.98003992,,,,,,,,,,,,,,,,,,87,,,,,,,,,,0.02,1,2.5859,0,1,1,1,1,Go to have lunch on the weekends,Play video games in my room on my bed,0.02,0.03,4.4,0,,,,
,,66d9609fbac7758ed890cece,2024-09-26_12h20.08.446,WTP_SM_Choice,2022.2.1,Win32,9.98003992,,,,,,,,,,,,,,,,,,88,,,,,,,,,,0.03,1,2.2531,0,2,2,2,1,Having breakfast together after chemistry class three days per week,Soak in the bathtub to relax after a long day,0.03,0.03,1.1,0,,,,
,,66d9609fbac7758ed890cece,2024-09-26_12h20.08.446,WTP_SM_Choice,2022.2.1,Win32,9.98003992,,,,,,,,,,,,,,,,,,89,,,,,,,,,,0.04,1,2.1012,0,3,3,3,1,Complete puzzles with my dorm friends on the weekend,Bake delicious snacks in my kitchen on the weekend,0.04,0.03,3.3,0,,,,
,,66d9609fbac7758ed890cece,2024-09-26_12h20.08.446,WTP_SM_Choice,2022.2.1,Win32,9.98003992,,,,,,,,,,,,,,,,,,90,,,,,,,,,,0.05,1,2.3398,0,4,4,4,1,Help each other with coding homework every week,Care for plants I got on sale at the local store in my dorm,0.05,0.03,8.8,0,,,,
,,66d9609fbac7758ed890cece,2024-09-26_12h20.08.446,WTP_SM_Choice,2022.2.1,Win32,9.98003992,,,,,,,NAN,,NAN,2.35,3.65,,0,89,89,89,1,90,Charlie,Rej,Participant_Images/66d9609fbac7758ed890cece/66d9609fbac7758ed890cece_Images/66d9609fbac7758ed890cece_Image_6.jpeg,did not like,1.661473164,,,,,,,,,,,,,,,,,,,,,,
,,66d9609fbac7758ed890cece,2024-09-26_12h20.08.446,WTP_SM_Choice,2022.2.1,Win32,9.98003992,,,,,space,1.1959,NAN,,NAN,2.35,3.65,,0,90,90,90,1,91,Charlie,Rej,Participant_Images/66d9609fbac7758ed890cece/66d9609fbac7758ed890cece_Images/66d9609fbac7758ed890cece_Image_1.jpeg,did not like,3.613205605,,,,,,,,,,,,,,,,,,,,,,
,,66d9609fbac7758ed890cece,2024-09-26_12h20.08.446,WTP_SM_Choice,2022.2.1,Win32,9.98003992,,,,,space,0.8013,NAN,,NAN,2.35,3.65,,0,91,91,91,1,92,Charlie,Rej,Participant_Images/66d9609fbac7758ed890cece/66d9609fbac7758ed890cece_Images/66d9609fbac7758ed890cece_Image_12.jpeg,liked,4.988446431,,,,,,,,,,,,,,,,,,,,,,
,,66d9609fbac7758ed890cece,2024-09-26_12h20.08.446,WTP_SM_Choice,2022.2.1,Win32,9.98003992,,,,,space,1.5746,NAN,,NAN,2.35,3.65,,0,92,92,92,1,93,Charlie,Rej,Participant_Images/66d9609fbac7758ed890cece/66d9609fbac7758ed890cece_Images/66d9609fbac7758ed890cece_Image_24.jpeg,liked,3.470791822,,,,,,,,,,,,,,,,,,,,,,
,,66d9609fbac7758ed890cece,2024-09-26_12h20.08.446,WTP_SM_Choice,2022.2.1,Win32,9.98003992,,,,,space,0.8063,NAN,,NAN,2.35,3.65,,0,93,93,93,1,94,Charlie,Rej,Participant_Images/66d9609fbac7758ed890cece/66d9609fbac7758ed890cece_Images/66d9609fbac7758ed890cece_Image_2.jpeg,did not like,3.820572462,,,,,,,,,,,,,,,,,,,,,,
,,66d9609fbac7758ed890cece,2024-09-26_12h20.08.446,WTP_SM_Choice,2022.2.1,Win32,9.98003992,,,,,,,,,,,,,,,,,,91,,,,,,space,0.8869,space,0.5601,0.01,1,1.801,0,0,0,0,1,Complete puzzles with my dorm friends on the weekend,Have chocolate milk in the living room after a workout,0.01,0.04,3.3,0,,,,
,,66d9609fbac7758ed890cece,2024-09-26_12h20.08.446,WTP_SM_Choice,2022.2.1,Win32,9.98003992,,,,,,,,,,,,,,,,,,92,,,,,,,,,,0.02,1,2.877,0,1,1,1,1,Play our own version of taskmaster at birthday parties a few times per semester,Go for walks outside in the evenings to stretch my legs,0.02,0.04,8.8,0,,,,
,,66d9609fbac7758ed890cece,2024-09-26_12h20.08.446,WTP_SM_Choice,2022.2.1,Win32,9.98003992,,,,,,,,,,,,,,,,,,93,,,,,,,,,,0.03,1,1.6471,0,2,2,2,1,Have chocolate milk in the living room after a workout,Go to get boba on the weekend with my best friend,0.03,0.04,1.1,1,,,,
,,66d9609fbac7758ed890cece,2024-09-26_12h20.08.446,WTP_SM_Choice,2022.2.1,Win32,9.98003992,,,,,,,,,,,,,,,,,,94,,,,,,,,,,0.04,1,1.905,0,3,3,3,1,Sketch pictures of my favorite characters from games and shows in my moleskin notebook,Go to get boba on the weekend with my best friend,0.04,0.04,4.4,1,,,,
,,66d9609fbac7758ed890cece,2024-09-26_12h20.08.446,WTP_SM_Choice,2022.2.1,Win32,9.98003992,,,,,,,,,,,,,,,,,,95,,,,,,,,,,0.05,1,2.5911,0,4,4,4,1,Play our own version of taskmaster at birthday parties a few times per semester,Sketch pictures of my favorite characters from games and shows in my moleskin notebook,0.05,0.04,4.4,0,,,,
,,66d9609fbac7758ed890cece,2024-09-26_12h20.08.446,WTP_SM_Choice,2022.2.1,Win32,9.98003992,,,,,,,NAN,,NAN,2.5,3.5,,0,94,94,94,1,95,Charlie,Rej,Participant_Images/66d9609fbac7758ed890cece/66d9609fbac7758ed890cece_Images/66d9609fbac7758ed890cece_Image_7.jpeg,did not like,2.455989137,,,,,,,,,,,,,,,,,,,,,,
,,66d9609fbac7758ed890cece,2024-09-26_12h20.08.446,WTP_SM_Choice,2022.2.1,Win32,9.98003992,,,,,space,1.9838,NAN,,NAN,2.5,3.5,,0,95,95,95,1,96,Charlie,Rej,Participant_Images/66d9609fbac7758ed890cece/66d9609fbac7758ed890cece_Images/66d9609fbac7758ed890cece_Image_15.jpeg,did not like,3.79605092,,,,,,,,,,,,,,,,,,,,,,
,,66d9609fbac7758ed890cece,2024-09-26_12h20.08.446,WTP_SM_Choice,2022.2.1,Win32,9.98003992,,,,,space,0.7935,NAN,,NAN,2.5,3.5,,0,96,96,96,1,97,Charlie,Rej,Participant_Images/66d9609fbac7758ed890cece/66d9609fbac7758ed890cece_Images/66d9609fbac7758ed890cece_Image_11.jpeg,liked,3.562416326,,,,,,,,,,,,,,,,,,,,,,
,,66d9609fbac7758ed890cece,2024-09-26_12h20.08.446,WTP_SM_Choice,2022.2.1,Win32,9.98003992,,,,,space,0.6643,NAN,,NAN,2.5,3.5,,0,97,97,97,1,98,Charlie,Rej,Participant_Images/66d9609fbac7758ed890cece/66d9609fbac7758ed890cece_Images/66d9609fbac7758ed890cece_Image_4.jpeg,did not like,2.843822497,,,,,,,,,,,,,,,,,,,,,,
,,66d9609fbac7758ed890cece,2024-09-26_12h20.08.446,WTP_SM_Choice,2022.2.1,Win32,9.98003992,,,,,space,1.0566,NAN,,NAN,2.5,3.5,,0,98,98,98,1,99,Charlie,Rej,Participant_Images/66d9609fbac7758ed890cece/66d9609fbac7758ed890cece_Images/66d9609fbac7758ed890cece_Image_3.jpeg,did not like,3.546495948,,,,,,,,,,,,,,,,,,,,,,
,,66d9609fbac7758ed890cece,2024-09-26_12h20.08.446,WTP_SM_Choice,2022.2.1,Win32,9.98003992,,,,,,,,,,,,,,,,,,96,,,,,,space,2.93,space,4.015,0.01,1,1.2208,0,0,0,0,1,Soak in the bathtub to relax after a long day,Go to get boba on the weekend with my best friend,0.01,0.05,3.3,1,,,,
,,66d9609fbac7758ed890cece,2024-09-26_12h20.08.446,WTP_SM_Choice,2022.2.1,Win32,9.98003992,,,,,,,,,,,,,,,,,,97,,,,,,,,,,0.02,1,2.9067,0,1,1,1,1,Have chocolate milk in the living room after a workout,Meet up with my best friend for lunch in our dorm dining hall once per week,0.02,0.05,1.1,1,,,,
,,66d9609fbac7758ed890cece,2024-09-26_12h20.08.446,WTP_SM_Choice,2022.2.1,Win32,9.98003992,,,,,,,,,,,,,,,,,,98,,,,,,,,,,0.03,1,1.8988,0,2,2,2,1,Plann what characters to build for my game with pretty markers next to the computer,Go to have lunch on the weekends,0.03,0.05,1.1,1,,,,
,,66d9609fbac7758ed890cece,2024-09-26_12h20.08.446,WTP_SM_Choice,2022.2.1,Win32,9.98003992,,,,,,,,,,,,,,,,,,99,,,,,,,,,,0.04,1,2.0289,0,3,3,3,1,Go to have lunch on the weekends,Care for plants I got on sale at the local store in my dorm,0.04,0.05,3.3,0,,,,
,,66d9609fbac7758ed890cece,2024-09-26_12h20.08.446,WTP_SM_Choice,2022.2.1,Win32,9.98003992,,,,,,,,,,,,,,,,,,100,,,,,,,,,,0.05,1,1.7977,0,4,4,4,1,Practice college advising for a club with several friends once per week,Have chocolate milk in the living room after a workout,0.05,0.05,4.4,0,,,,
,,66d9609fbac7758ed890cece,2024-09-26_12h20.08.446,WTP_SM_Choice,2022.2.1,Win32,9.98003992,,,,,,,1,,5,2.65,3.35,,0,99,99,99,1,100,Charlie,Rej,Participant_Images/66d9609fbac7758ed890cece/66d9609fbac7758ed890cece_Images/66d9609fbac7758ed890cece_Image_8.jpeg,did not like,1.672012706,,,,,,,,,,,,,,,,,,,space,0.8066,,
,,66d9609fbac7758ed890cece,2024-09-26_12h20.08.446,WTP_SM_Choice,2022.2.1,Win32,9.98003992,,,,,,,,,,,,,,,,,,,,,,,,,,,,,,,,,,,,,,,,,,,,space,3.0922
