endwelcomescreen_keys.keys,endwelcomescreen_keys.rt,participant,STUDY_ID,SESSION_ID,date,expName,psychopyVersion,OS,frameRate,endinstructionscreen_keys.keys,endinstructionscreen_keys.rt,endpartnermatch_keys.keys,endpartnermatch_keys.rt,sharenextphoto_key.keys,sharenextphoto_key.rt,salience_rating,key_resp.keys,stress_level,subtract_bonus,TOTAL_TASK_BONUS,stresslevel_keypress.keys,entiretaskloop.thisRepN,entiretaskloop.thisTrialN,entiretaskloop.thisN,entiretaskloop.thisIndex,entiretaskloop.ran,TrialNumber,Partner,Condition,Photos,Feedback,FeedbackWait,WTP_ins_keys1.keys,WTP_ins_keys1.rt,WTP_ins_keys2.keys,WTP_ins_keys2.rt,decision_price,responses.keys,responses.rt,WTPTaskLoop.thisRepN,WTPTaskLoop.thisTrialN,WTPTaskLoop.thisN,WTPTaskLoop.thisIndex,WTPTaskLoop.ran,right,left,leftmoney,rightmoney,WTP_ITI,social_left,Resume_keys.keys,Resume_keys.rt,end_screen_keys.keys,end_screen_keys.rt
space,82.5953,66dc48cea9a85fe230c06b5f,6685aa9113c938e83b4f1ea0,67153dcb8dd6fca1aa159427,2024-10-20_10h36.38.873,WTP_SM_Choice,2022.2.1,Win32,59.88023952,,,,,,,,,,,,,,,,,,,,,,,,,,,,,,,,,,,,,,,,,,,,,
,,66dc48cea9a85fe230c06b5f,6685aa9113c938e83b4f1ea0,67153dcb8dd6fca1aa159427,2024-10-20_10h36.38.873,WTP_SM_Choice,2022.2.1,Win32,59.88023952,space,32.587,,,,,,,,,,,,,,,,,,,,,,,,,,,,,,,,,,,,,,,,,,,
,,66dc48cea9a85fe230c06b5f,6685aa9113c938e83b4f1ea0,67153dcb8dd6fca1aa159427,2024-10-20_10h36.38.873,WTP_SM_Choice,2022.2.1,Win32,59.88023952,,,space,4.389,space,1.6457,NAN,,NAN,0,6,,0,0,0,0,1,1,Charlie,Rej,Participant_Images/66dc48cea9a85fe230c06b5f/66dc48cea9a85fe230c06b5f_Images/66dc48cea9a85fe230c06b5f_Image_2.jpeg,liked,3.613205605,,,,,,,,,,,,,,,,,,,,,,
,,66dc48cea9a85fe230c06b5f,6685aa9113c938e83b4f1ea0,67153dcb8dd6fca1aa159427,2024-10-20_10h36.38.873,WTP_SM_Choice,2022.2.1,Win32,59.88023952,,,,,space,0.21,NAN,,NAN,0,6,,0,1,1,1,1,2,Charlie,Rej,Participant_Images/66dc48cea9a85fe230c06b5f/66dc48cea9a85fe230c06b5f_Images/66dc48cea9a85fe230c06b5f_Image_12.jpeg,did not like,4.988446431,,,,,,,,,,,,,,,,,,,,,,
,,66dc48cea9a85fe230c06b5f,6685aa9113c938e83b4f1ea0,67153dcb8dd6fca1aa159427,2024-10-20_10h36.38.873,WTP_SM_Choice,2022.2.1,Win32,59.88023952,,,,,space,1.242,NAN,,NAN,0,6,,0,2,2,2,1,3,Charlie,Rej,Participant_Images/66dc48cea9a85fe230c06b5f/66dc48cea9a85fe230c06b5f_Images/66dc48cea9a85fe230c06b5f_Image_5.jpeg,did not like,3.470791822,,,,,,,,,,,,,,,,,,,,,,
,,66dc48cea9a85fe230c06b5f,6685aa9113c938e83b4f1ea0,67153dcb8dd6fca1aa159427,2024-10-20_10h36.38.873,WTP_SM_Choice,2022.2.1,Win32,59.88023952,,,,,space,3.9427,NAN,,NAN,0,6,,0,3,3,3,1,4,Charlie,Rej,Participant_Images/66dc48cea9a85fe230c06b5f/66dc48cea9a85fe230c06b5f_Images/66dc48cea9a85fe230c06b5f_Image_11.jpeg,liked,3.820572462,,,,,,,,,,,,,,,,,,,,,,
,,66dc48cea9a85fe230c06b5f,6685aa9113c938e83b4f1ea0,67153dcb8dd6fca1aa159427,2024-10-20_10h36.38.873,WTP_SM_Choice,2022.2.1,Win32,59.88023952,,,,,,,,,,,,,,,,,,1,,,,,,space,29.0457,space,12.2675,0.01,2,6.4086,0,0,0,0,1,Listen to music on the bed,Travel with my family to a new city,0.01,0.01,4.4,1,,,,
,,66dc48cea9a85fe230c06b5f,6685aa9113c938e83b4f1ea0,67153dcb8dd6fca1aa159427,2024-10-20_10h36.38.873,WTP_SM_Choice,2022.2.1,Win32,59.88023952,,,,,,,,,,,,,,,,,,2,,,,,,,,,,0.02,1,3.597,0,1,1,1,1,Sit in the sofa,Play with my kids,0.02,0.01,8.8,1,,,,
,,66dc48cea9a85fe230c06b5f,6685aa9113c938e83b4f1ea0,67153dcb8dd6fca1aa159427,2024-10-20_10h36.38.873,WTP_SM_Choice,2022.2.1,Win32,59.88023952,,,,,,,,,,,,,,,,,,3,,,,,,,,,,0.03,1,2.7734,0,2,2,2,1,Listen to music on the bed,Go on a date with my partner,0.03,0.01,3.3,1,,,,
,,66dc48cea9a85fe230c06b5f,6685aa9113c938e83b4f1ea0,67153dcb8dd6fca1aa159427,2024-10-20_10h36.38.873,WTP_SM_Choice,2022.2.1,Win32,59.88023952,,,,,,,,,,,,,,,,,,4,,,,,,,,,,0.01,2,5.9066,0,3,3,3,1,have a drink at the bar with friends,Clean the living room,0.04,0.01,1.1,0,,,,
,,66dc48cea9a85fe230c06b5f,6685aa9113c938e83b4f1ea0,67153dcb8dd6fca1aa159427,2024-10-20_10h36.38.873,WTP_SM_Choice,2022.2.1,Win32,59.88023952,,,,,,,,,,,,,,,,,,5,,,,,,,,,,0.05,1,2.9669,0,4,4,4,1,Listen to music on the bed,Go for a picnic with my family,0.05,0.01,1.1,1,,,,
,,66dc48cea9a85fe230c06b5f,6685aa9113c938e83b4f1ea0,67153dcb8dd6fca1aa159427,2024-10-20_10h36.38.873,WTP_SM_Choice,2022.2.1,Win32,59.88023952,,,,,,,NAN,,NAN,0.12,5.88,,0,4,4,4,1,5,Charlie,Rej,Participant_Images/66dc48cea9a85fe230c06b5f/66dc48cea9a85fe230c06b5f_Images/66dc48cea9a85fe230c06b5f_Image_23.jpeg,did not like,2.455989137,,,,,,,,,,,,,,,,,,,,,,
,,66dc48cea9a85fe230c06b5f,6685aa9113c938e83b4f1ea0,67153dcb8dd6fca1aa159427,2024-10-20_10h36.38.873,WTP_SM_Choice,2022.2.1,Win32,59.88023952,,,,,space,1.0626,NAN,,NAN,0.12,5.88,,0,5,5,5,1,6,Charlie,Rej,Participant_Images/66dc48cea9a85fe230c06b5f/66dc48cea9a85fe230c06b5f_Images/66dc48cea9a85fe230c06b5f_Image_15.jpeg,liked,3.79605092,,,,,,,,,,,,,,,,,,,,,,
,,66dc48cea9a85fe230c06b5f,6685aa9113c938e83b4f1ea0,67153dcb8dd6fca1aa159427,2024-10-20_10h36.38.873,WTP_SM_Choice,2022.2.1,Win32,59.88023952,,,,,space,1.4204,NAN,,NAN,0.12,5.88,,0,6,6,6,1,7,Charlie,Rej,Participant_Images/66dc48cea9a85fe230c06b5f/66dc48cea9a85fe230c06b5f_Images/66dc48cea9a85fe230c06b5f_Image_7.jpeg,liked,3.562416326,,,,,,,,,,,,,,,,,,,,,,
,,66dc48cea9a85fe230c06b5f,6685aa9113c938e83b4f1ea0,67153dcb8dd6fca1aa159427,2024-10-20_10h36.38.873,WTP_SM_Choice,2022.2.1,Win32,59.88023952,,,,,space,0.8582,NAN,,NAN,0.12,5.88,,0,7,7,7,1,8,Charlie,Rej,Participant_Images/66dc48cea9a85fe230c06b5f/66dc48cea9a85fe230c06b5f_Images/66dc48cea9a85fe230c06b5f_Image_9.jpeg,liked,2.843822497,,,,,,,,,,,,,,,,,,,,,,
,,66dc48cea9a85fe230c06b5f,6685aa9113c938e83b4f1ea0,67153dcb8dd6fca1aa159427,2024-10-20_10h36.38.873,WTP_SM_Choice,2022.2.1,Win32,59.88023952,,,,,space,1.3801,NAN,,NAN,0.12,5.88,,0,8,8,8,1,9,Charlie,Rej,Participant_Images/66dc48cea9a85fe230c06b5f/66dc48cea9a85fe230c06b5f_Images/66dc48cea9a85fe230c06b5f_Image_10.jpeg,did not like,3.546495948,,,,,,,,,,,,,,,,,,,,,,
,,66dc48cea9a85fe230c06b5f,6685aa9113c938e83b4f1ea0,67153dcb8dd6fca1aa159427,2024-10-20_10h36.38.873,WTP_SM_Choice,2022.2.1,Win32,59.88023952,,,,,,,,,,,,,,,,,,6,,,,,,space,8.6958,space,2.1954,0.02,2,6.7145,0,0,0,0,1,have a drink at the bar with friends,Watch a cooking show on social media,0.01,0.02,3.3,0,,,,
,,66dc48cea9a85fe230c06b5f,6685aa9113c938e83b4f1ea0,67153dcb8dd6fca1aa159427,2024-10-20_10h36.38.873,WTP_SM_Choice,2022.2.1,Win32,59.88023952,,,,,,,,,,,,,,,,,,7,,,,,,,,,,0.02,1,4.0918,0,1,1,1,1,Browse apparel shops online,Go sight seeing with my friends,0.02,0.02,1.1,1,,,,
,,66dc48cea9a85fe230c06b5f,6685aa9113c938e83b4f1ea0,67153dcb8dd6fca1aa159427,2024-10-20_10h36.38.873,WTP_SM_Choice,2022.2.1,Win32,59.88023952,,,,,,,,,,,,,,,,,,8,,,,,,,,,,0.02,2,2.5095,0,2,2,2,1,Laugh with my partner,Sleep on the couch,0.03,0.02,1.1,0,,,,
,,66dc48cea9a85fe230c06b5f,6685aa9113c938e83b4f1ea0,67153dcb8dd6fca1aa159427,2024-10-20_10h36.38.873,WTP_SM_Choice,2022.2.1,Win32,59.88023952,,,,,,,,,,,,,,,,,,9,,,,,,,,,,0.04,1,3.1987,0,3,3,3,1,Sit in the sofa,Go to see a movie with friends,0.04,0.02,4.4,1,,,,
,,66dc48cea9a85fe230c06b5f,6685aa9113c938e83b4f1ea0,67153dcb8dd6fca1aa159427,2024-10-20_10h36.38.873,WTP_SM_Choice,2022.2.1,Win32,59.88023952,,,,,,,,,,,,,,,,,,10,,,,,,,,,,0.05,1,4.1005,0,4,4,4,1,Lay bed in my bedroom deep in my thoughts,Watch movies with my partner,0.05,0.02,1.1,1,,,,
,,66dc48cea9a85fe230c06b5f,6685aa9113c938e83b4f1ea0,67153dcb8dd6fca1aa159427,2024-10-20_10h36.38.873,WTP_SM_Choice,2022.2.1,Win32,59.88023952,,,,,,,NAN,,NAN,0.27,5.73,,0,9,9,9,1,10,Charlie,Rej,Participant_Images/66dc48cea9a85fe230c06b5f/66dc48cea9a85fe230c06b5f_Images/66dc48cea9a85fe230c06b5f_Image_22.jpeg,liked,1.672012706,,,,,,,,,,,,,,,,,,,,,,
,,66dc48cea9a85fe230c06b5f,6685aa9113c938e83b4f1ea0,67153dcb8dd6fca1aa159427,2024-10-20_10h36.38.873,WTP_SM_Choice,2022.2.1,Win32,59.88023952,,,,,space,1.628,NAN,,NAN,0.27,5.73,,0,10,10,10,1,11,Charlie,Rej,Participant_Images/66dc48cea9a85fe230c06b5f/66dc48cea9a85fe230c06b5f_Images/66dc48cea9a85fe230c06b5f_Image_25.jpeg,did not like,4.942172136,,,,,,,,,,,,,,,,,,,,,,
,,66dc48cea9a85fe230c06b5f,6685aa9113c938e83b4f1ea0,67153dcb8dd6fca1aa159427,2024-10-20_10h36.38.873,WTP_SM_Choice,2022.2.1,Win32,59.88023952,,,,,space,6.9585,NAN,,NAN,0.27,5.73,,0,11,11,11,1,12,Charlie,Rej,Participant_Images/66dc48cea9a85fe230c06b5f/66dc48cea9a85fe230c06b5f_Images/66dc48cea9a85fe230c06b5f_Image_1.jpeg,liked,2.50187214,,,,,,,,,,,,,,,,,,,,,,
,,66dc48cea9a85fe230c06b5f,6685aa9113c938e83b4f1ea0,67153dcb8dd6fca1aa159427,2024-10-20_10h36.38.873,WTP_SM_Choice,2022.2.1,Win32,59.88023952,,,,,space,3.3914,NAN,,NAN,0.27,5.73,,0,12,12,12,1,13,Charlie,Rej,Participant_Images/66dc48cea9a85fe230c06b5f/66dc48cea9a85fe230c06b5f_Images/66dc48cea9a85fe230c06b5f_Image_19.jpeg,did not like,2.071164779,,,,,,,,,,,,,,,,,,,,,,
,,66dc48cea9a85fe230c06b5f,6685aa9113c938e83b4f1ea0,67153dcb8dd6fca1aa159427,2024-10-20_10h36.38.873,WTP_SM_Choice,2022.2.1,Win32,59.88023952,,,,,space,4.9404,NAN,,NAN,0.27,5.73,,0,13,13,13,1,14,Charlie,Rej,Participant_Images/66dc48cea9a85fe230c06b5f/66dc48cea9a85fe230c06b5f_Images/66dc48cea9a85fe230c06b5f_Image_16.jpeg,did not like,5.336503566,,,,,,,,,,,,,,,,,,,,,,
,,66dc48cea9a85fe230c06b5f,6685aa9113c938e83b4f1ea0,67153dcb8dd6fca1aa159427,2024-10-20_10h36.38.873,WTP_SM_Choice,2022.2.1,Win32,59.88023952,,,,,,,,,,,,,,,,,,11,,,,,,space,615.6871,space,1.8242,0.03,2,3.1048,0,0,0,0,1,Go for a picnic with my family,Clean the living room,0.01,0.03,3.3,0,,,,
,,66dc48cea9a85fe230c06b5f,6685aa9113c938e83b4f1ea0,67153dcb8dd6fca1aa159427,2024-10-20_10h36.38.873,WTP_SM_Choice,2022.2.1,Win32,59.88023952,,,,,,,,,,,,,,,,,,12,,,,,,,,,,,,,0,1,1,1,1,Travel with my family to a new city,Watch a cooking show on social media,0.02,0.03,4.4,0,,,,
,,66dc48cea9a85fe230c06b5f,6685aa9113c938e83b4f1ea0,67153dcb8dd6fca1aa159427,2024-10-20_10h36.38.873,WTP_SM_Choice,2022.2.1,Win32,59.88023952,,,,,,,,,,,,,,,,,,13,,,,,,,,,,0.03,1,7.1484,0,2,2,2,1,Read a novel on my bed,Go to see a movie with friends,0.03,0.03,1.1,1,,,,
,,66dc48cea9a85fe230c06b5f,6685aa9113c938e83b4f1ea0,67153dcb8dd6fca1aa159427,2024-10-20_10h36.38.873,WTP_SM_Choice,2022.2.1,Win32,59.88023952,,,,,,,,,,,,,,,,,,14,,,,,,,,,,0.03,2,3.8933,0,3,3,3,1,have a drink at the bar with friends,Sniffing my partners outfits because I miss him,0.04,0.03,3.3,0,,,,
,,66dc48cea9a85fe230c06b5f,6685aa9113c938e83b4f1ea0,67153dcb8dd6fca1aa159427,2024-10-20_10h36.38.873,WTP_SM_Choice,2022.2.1,Win32,59.88023952,,,,,,,,,,,,,,,,,,15,,,,,,,,,,0.05,1,2.2721,0,4,4,4,1,Laugh with my partner,Browse apparel shops online,0.05,0.03,4.4,0,,,,
,,66dc48cea9a85fe230c06b5f,6685aa9113c938e83b4f1ea0,67153dcb8dd6fca1aa159427,2024-10-20_10h36.38.873,WTP_SM_Choice,2022.2.1,Win32,59.88023952,,,,,,,NAN,,NAN,0.41,5.59,,0,14,14,14,1,15,Charlie,Rej,Participant_Images/66dc48cea9a85fe230c06b5f/66dc48cea9a85fe230c06b5f_Images/66dc48cea9a85fe230c06b5f_Image_24.jpeg,did not like,2.642157193,,,,,,,,,,,,,,,,,,,,,,
,,66dc48cea9a85fe230c06b5f,6685aa9113c938e83b4f1ea0,67153dcb8dd6fca1aa159427,2024-10-20_10h36.38.873,WTP_SM_Choice,2022.2.1,Win32,59.88023952,,,,,space,3.9743,NAN,,NAN,0.41,5.59,,0,15,15,15,1,16,Charlie,Rej,Participant_Images/66dc48cea9a85fe230c06b5f/66dc48cea9a85fe230c06b5f_Images/66dc48cea9a85fe230c06b5f_Image_4.jpeg,did not like,4.456234322,,,,,,,,,,,,,,,,,,,,,,
,,66dc48cea9a85fe230c06b5f,6685aa9113c938e83b4f1ea0,67153dcb8dd6fca1aa159427,2024-10-20_10h36.38.873,WTP_SM_Choice,2022.2.1,Win32,59.88023952,,,,,space,59.9972,NAN,,NAN,0.41,5.59,,0,16,16,16,1,17,Charlie,Rej,Participant_Images/66dc48cea9a85fe230c06b5f/66dc48cea9a85fe230c06b5f_Images/66dc48cea9a85fe230c06b5f_Image_20.jpeg,did not like,4.438512181,,,,,,,,,,,,,,,,,,,,,,
,,66dc48cea9a85fe230c06b5f,6685aa9113c938e83b4f1ea0,67153dcb8dd6fca1aa159427,2024-10-20_10h36.38.873,WTP_SM_Choice,2022.2.1,Win32,59.88023952,,,,,space,5.4343,NAN,,NAN,0.41,5.59,,0,17,17,17,1,18,Charlie,Rej,Participant_Images/66dc48cea9a85fe230c06b5f/66dc48cea9a85fe230c06b5f_Images/66dc48cea9a85fe230c06b5f_Image_14.jpeg,did not like,2.682944783,,,,,,,,,,,,,,,,,,,,,,
,,66dc48cea9a85fe230c06b5f,6685aa9113c938e83b4f1ea0,67153dcb8dd6fca1aa159427,2024-10-20_10h36.38.873,WTP_SM_Choice,2022.2.1,Win32,59.88023952,,,,,space,9.0929,NAN,,NAN,0.41,5.59,,0,18,18,18,1,19,Charlie,Rej,Participant_Images/66dc48cea9a85fe230c06b5f/66dc48cea9a85fe230c06b5f_Images/66dc48cea9a85fe230c06b5f_Image_17.jpeg,did not like,4.51984296,,,,,,,,,,,,,,,,,,,,,,
,,66dc48cea9a85fe230c06b5f,6685aa9113c938e83b4f1ea0,67153dcb8dd6fca1aa159427,2024-10-20_10h36.38.873,WTP_SM_Choice,2022.2.1,Win32,59.88023952,,,,,,,,,,,,,,,,,,16,,,,,,space,1.9241,space,30.7159,0.01,1,2.5166,0,0,0,0,1,Sniffing my partners outfits because I miss him,Travel with my family to a new city,0.01,0.04,1.1,1,,,,
,,66dc48cea9a85fe230c06b5f,6685aa9113c938e83b4f1ea0,67153dcb8dd6fca1aa159427,2024-10-20_10h36.38.873,WTP_SM_Choice,2022.2.1,Win32,59.88023952,,,,,,,,,,,,,,,,,,17,,,,,,,,,,0.02,1,2.3979,0,1,1,1,1,Go to see a movie with friends,Watch a cooking show on social media,0.02,0.04,8.8,0,,,,
,,66dc48cea9a85fe230c06b5f,6685aa9113c938e83b4f1ea0,67153dcb8dd6fca1aa159427,2024-10-20_10h36.38.873,WTP_SM_Choice,2022.2.1,Win32,59.88023952,,,,,,,,,,,,,,,,,,18,,,,,,,,,,0.04,2,2.5231,0,2,2,2,1,Go on a date with my partner,Browse apparel shops online,0.03,0.04,3.3,0,,,,
,,66dc48cea9a85fe230c06b5f,6685aa9113c938e83b4f1ea0,67153dcb8dd6fca1aa159427,2024-10-20_10h36.38.873,WTP_SM_Choice,2022.2.1,Win32,59.88023952,,,,,,,,,,,,,,,,,,19,,,,,,,,,,0.04,1,3.4868,0,3,3,3,1,Clean the living room,Travel with my family to a new city,0.04,0.04,3.3,1,,,,
,,66dc48cea9a85fe230c06b5f,6685aa9113c938e83b4f1ea0,67153dcb8dd6fca1aa159427,2024-10-20_10h36.38.873,WTP_SM_Choice,2022.2.1,Win32,59.88023952,,,,,,,,,,,,,,,,,,20,,,,,,,,,,0.05,1,5.8281,0,4,4,4,1,Go on a date with my partner,Read Tony Robins book on sales and marketing,0.05,0.04,1.1,0,,,,
,,66dc48cea9a85fe230c06b5f,6685aa9113c938e83b4f1ea0,67153dcb8dd6fca1aa159427,2024-10-20_10h36.38.873,WTP_SM_Choice,2022.2.1,Win32,59.88023952,,,,,,,NAN,,NAN,0.57,5.43,,0,19,19,19,1,20,Charlie,Rej,Participant_Images/66dc48cea9a85fe230c06b5f/66dc48cea9a85fe230c06b5f_Images/66dc48cea9a85fe230c06b5f_Image_21.jpeg,did not like,3.195382774,,,,,,,,,,,,,,,,,,,,,,
,,66dc48cea9a85fe230c06b5f,6685aa9113c938e83b4f1ea0,67153dcb8dd6fca1aa159427,2024-10-20_10h36.38.873,WTP_SM_Choice,2022.2.1,Win32,59.88023952,,,,,space,1.74,NAN,,NAN,0.57,5.43,,0,20,20,20,1,21,Charlie,Rej,Participant_Images/66dc48cea9a85fe230c06b5f/66dc48cea9a85fe230c06b5f_Images/66dc48cea9a85fe230c06b5f_Image_6.jpeg,did not like,1.779333479,,,,,,,,,,,,,,,,,,,,,,
,,66dc48cea9a85fe230c06b5f,6685aa9113c938e83b4f1ea0,67153dcb8dd6fca1aa159427,2024-10-20_10h36.38.873,WTP_SM_Choice,2022.2.1,Win32,59.88023952,,,,,space,1.5155,NAN,,NAN,0.57,5.43,,0,21,21,21,1,22,Charlie,Rej,Participant_Images/66dc48cea9a85fe230c06b5f/66dc48cea9a85fe230c06b5f_Images/66dc48cea9a85fe230c06b5f_Image_3.jpeg,did not like,4.312468682,,,,,,,,,,,,,,,,,,,,,,
,,66dc48cea9a85fe230c06b5f,6685aa9113c938e83b4f1ea0,67153dcb8dd6fca1aa159427,2024-10-20_10h36.38.873,WTP_SM_Choice,2022.2.1,Win32,59.88023952,,,,,space,6.4565,NAN,,NAN,0.57,5.43,,0,22,22,22,1,23,Charlie,Rej,Participant_Images/66dc48cea9a85fe230c06b5f/66dc48cea9a85fe230c06b5f_Images/66dc48cea9a85fe230c06b5f_Image_18.jpeg,did not like,4.940433059,,,,,,,,,,,,,,,,,,,,,,
,,66dc48cea9a85fe230c06b5f,6685aa9113c938e83b4f1ea0,67153dcb8dd6fca1aa159427,2024-10-20_10h36.38.873,WTP_SM_Choice,2022.2.1,Win32,59.88023952,,,,,space,2.7929,NAN,,NAN,0.57,5.43,,0,23,23,23,1,24,Charlie,Rej,Participant_Images/66dc48cea9a85fe230c06b5f/66dc48cea9a85fe230c06b5f_Images/66dc48cea9a85fe230c06b5f_Image_8.jpeg,did not like,2.7105123,,,,,,,,,,,,,,,,,,,,,,
,,66dc48cea9a85fe230c06b5f,6685aa9113c938e83b4f1ea0,67153dcb8dd6fca1aa159427,2024-10-20_10h36.38.873,WTP_SM_Choice,2022.2.1,Win32,59.88023952,,,,,,,,,,,,,,,,,,21,,,,,,space,9.74,space,9.2172,0.01,1,5.3354,0,0,0,0,1,Watch movies with my partner,Sniffing my partners outfits because I miss him,0.01,0.05,8.8,0,,,,
,,66dc48cea9a85fe230c06b5f,6685aa9113c938e83b4f1ea0,67153dcb8dd6fca1aa159427,2024-10-20_10h36.38.873,WTP_SM_Choice,2022.2.1,Win32,59.88023952,,,,,,,,,,,,,,,,,,22,,,,,,,,,,0.05,2,3.0395,0,1,1,1,1,Talk to my mother on video call,Sleep on the couch,0.02,0.05,4.4,0,,,,
,,66dc48cea9a85fe230c06b5f,6685aa9113c938e83b4f1ea0,67153dcb8dd6fca1aa159427,2024-10-20_10h36.38.873,WTP_SM_Choice,2022.2.1,Win32,59.88023952,,,,,,,,,,,,,,,,,,23,,,,,,,,,,0.03,1,3.291,0,2,2,2,1,Laugh with my partner,Listen to music on the bed,0.03,0.05,1.1,0,,,,
,,66dc48cea9a85fe230c06b5f,6685aa9113c938e83b4f1ea0,67153dcb8dd6fca1aa159427,2024-10-20_10h36.38.873,WTP_SM_Choice,2022.2.1,Win32,59.88023952,,,,,,,,,,,,,,,,,,24,,,,,,,,,,0.04,1,4.5901,0,3,3,3,1,Talk to my mother on video call,Read Tony Robins book on sales and marketing,0.04,0.05,4.4,0,,,,
,,66dc48cea9a85fe230c06b5f,6685aa9113c938e83b4f1ea0,67153dcb8dd6fca1aa159427,2024-10-20_10h36.38.873,WTP_SM_Choice,2022.2.1,Win32,59.88023952,,,,,,,,,,,,,,,,,,25,,,,,,,,,,0.05,1,3.2262,0,4,4,4,1,Watch a cooking show on social media,Laugh with my partner,0.05,0.05,3.3,1,,,,
,,66dc48cea9a85fe230c06b5f,6685aa9113c938e83b4f1ea0,67153dcb8dd6fca1aa159427,2024-10-20_10h36.38.873,WTP_SM_Choice,2022.2.1,Win32,59.88023952,,,,,,,2,,3,0.75,5.25,,0,24,24,24,1,25,Charlie,Rej,Participant_Images/66dc48cea9a85fe230c06b5f/66dc48cea9a85fe230c06b5f_Images/66dc48cea9a85fe230c06b5f_Image_13.jpeg,did not like,3.602308302,,,,,,,,,,,,,,,,,,,space,14.8963,,
,,66dc48cea9a85fe230c06b5f,6685aa9113c938e83b4f1ea0,67153dcb8dd6fca1aa159427,2024-10-20_10h36.38.873,WTP_SM_Choice,2022.2.1,Win32,59.88023952,,,space,15.2106,space,11.6436,NAN,,NAN,0.75,5.25,,0,25,25,25,1,26,Sam,Rej,Participant_Images/66dc48cea9a85fe230c06b5f/66dc48cea9a85fe230c06b5f_Images/66dc48cea9a85fe230c06b5f_Image_20.jpeg,did not like,4.106391878,,,,,,,,,,,,,,,,,,,,,,
,,66dc48cea9a85fe230c06b5f,6685aa9113c938e83b4f1ea0,67153dcb8dd6fca1aa159427,2024-10-20_10h36.38.873,WTP_SM_Choice,2022.2.1,Win32,59.88023952,,,,,space,3.714,NAN,,NAN,0.75,5.25,,0,26,26,26,1,27,Sam,Rej,Participant_Images/66dc48cea9a85fe230c06b5f/66dc48cea9a85fe230c06b5f_Images/66dc48cea9a85fe230c06b5f_Image_2.jpeg,did not like,3.799433026,,,,,,,,,,,,,,,,,,,,,,
,,66dc48cea9a85fe230c06b5f,6685aa9113c938e83b4f1ea0,67153dcb8dd6fca1aa159427,2024-10-20_10h36.38.873,WTP_SM_Choice,2022.2.1,Win32,59.88023952,,,,,space,9.6099,NAN,,NAN,0.75,5.25,,0,27,27,27,1,28,Sam,Rej,Participant_Images/66dc48cea9a85fe230c06b5f/66dc48cea9a85fe230c06b5f_Images/66dc48cea9a85fe230c06b5f_Image_6.jpeg,did not like,5.246980764,,,,,,,,,,,,,,,,,,,,,,
,,66dc48cea9a85fe230c06b5f,6685aa9113c938e83b4f1ea0,67153dcb8dd6fca1aa159427,2024-10-20_10h36.38.873,WTP_SM_Choice,2022.2.1,Win32,59.88023952,,,,,space,4.2733,NAN,,NAN,0.75,5.25,,0,28,28,28,1,29,Sam,Rej,Participant_Images/66dc48cea9a85fe230c06b5f/66dc48cea9a85fe230c06b5f_Images/66dc48cea9a85fe230c06b5f_Image_1.jpeg,did not like,3.30081769,,,,,,,,,,,,,,,,,,,,,,
,,66dc48cea9a85fe230c06b5f,6685aa9113c938e83b4f1ea0,67153dcb8dd6fca1aa159427,2024-10-20_10h36.38.873,WTP_SM_Choice,2022.2.1,Win32,59.88023952,,,,,,,,,,,,,,,,,,26,,,,,,space,4.2761,space,7.0492,0.01,2,5.7519,0,0,0,0,1,Play with my kids,Browse apparel shops online,0.01,0.01,4.4,0,,,,
,,66dc48cea9a85fe230c06b5f,6685aa9113c938e83b4f1ea0,67153dcb8dd6fca1aa159427,2024-10-20_10h36.38.873,WTP_SM_Choice,2022.2.1,Win32,59.88023952,,,,,,,,,,,,,,,,,,27,,,,,,,,,,0.02,1,1.7909,0,1,1,1,1,Sleep on the couch,Go to see a movie with friends,0.02,0.01,3.3,1,,,,
,,66dc48cea9a85fe230c06b5f,6685aa9113c938e83b4f1ea0,67153dcb8dd6fca1aa159427,2024-10-20_10h36.38.873,WTP_SM_Choice,2022.2.1,Win32,59.88023952,,,,,,,,,,,,,,,,,,28,,,,,,,,,,0.03,1,4.5227,0,2,2,2,1,Read Tony Robins book on sales and marketing,Go to see a movie with friends,0.03,0.01,3.3,1,,,,
,,66dc48cea9a85fe230c06b5f,6685aa9113c938e83b4f1ea0,67153dcb8dd6fca1aa159427,2024-10-20_10h36.38.873,WTP_SM_Choice,2022.2.1,Win32,59.88023952,,,,,,,,,,,,,,,,,,29,,,,,,,,,,,,,0,3,3,3,1,have a drink at the bar with friends,Read Tony Robins book on sales and marketing,0.04,0.01,4.4,0,,,,
,,66dc48cea9a85fe230c06b5f,6685aa9113c938e83b4f1ea0,67153dcb8dd6fca1aa159427,2024-10-20_10h36.38.873,WTP_SM_Choice,2022.2.1,Win32,59.88023952,,,,,,,,,,,,,,,,,,30,,,,,,,,,,0.05,1,5.7668,0,4,4,4,1,Clean the living room,Go on a date with my partner,0.05,0.01,8.8,1,,,,
,,66dc48cea9a85fe230c06b5f,6685aa9113c938e83b4f1ea0,67153dcb8dd6fca1aa159427,2024-10-20_10h36.38.873,WTP_SM_Choice,2022.2.1,Win32,59.88023952,,,,,,,NAN,,NAN,0.86,5.14,,0,29,29,29,1,30,Sam,Rej,Participant_Images/66dc48cea9a85fe230c06b5f/66dc48cea9a85fe230c06b5f_Images/66dc48cea9a85fe230c06b5f_Image_3.jpeg,liked,1.661473164,,,,,,,,,,,,,,,,,,,,,,
,,66dc48cea9a85fe230c06b5f,6685aa9113c938e83b4f1ea0,67153dcb8dd6fca1aa159427,2024-10-20_10h36.38.873,WTP_SM_Choice,2022.2.1,Win32,59.88023952,,,,,space,6.1896,NAN,,NAN,0.86,5.14,,0,30,30,30,1,31,Sam,Rej,Participant_Images/66dc48cea9a85fe230c06b5f/66dc48cea9a85fe230c06b5f_Images/66dc48cea9a85fe230c06b5f_Image_11.jpeg,liked,3.613205605,,,,,,,,,,,,,,,,,,,,,,
,,66dc48cea9a85fe230c06b5f,6685aa9113c938e83b4f1ea0,67153dcb8dd6fca1aa159427,2024-10-20_10h36.38.873,WTP_SM_Choice,2022.2.1,Win32,59.88023952,,,,,space,14.1902,NAN,,NAN,0.86,5.14,,0,31,31,31,1,32,Sam,Rej,Participant_Images/66dc48cea9a85fe230c06b5f/66dc48cea9a85fe230c06b5f_Images/66dc48cea9a85fe230c06b5f_Image_5.jpeg,did not like,4.988446431,,,,,,,,,,,,,,,,,,,,,,
,,66dc48cea9a85fe230c06b5f,6685aa9113c938e83b4f1ea0,67153dcb8dd6fca1aa159427,2024-10-20_10h36.38.873,WTP_SM_Choice,2022.2.1,Win32,59.88023952,,,,,space,8.6206,NAN,,NAN,0.86,5.14,,0,32,32,32,1,33,Sam,Rej,Participant_Images/66dc48cea9a85fe230c06b5f/66dc48cea9a85fe230c06b5f_Images/66dc48cea9a85fe230c06b5f_Image_23.jpeg,liked,3.470791822,,,,,,,,,,,,,,,,,,,,,,
,,66dc48cea9a85fe230c06b5f,6685aa9113c938e83b4f1ea0,67153dcb8dd6fca1aa159427,2024-10-20_10h36.38.873,WTP_SM_Choice,2022.2.1,Win32,59.88023952,,,,,space,43.4431,NAN,,NAN,0.86,5.14,,0,33,33,33,1,34,Sam,Rej,Participant_Images/66dc48cea9a85fe230c06b5f/66dc48cea9a85fe230c06b5f_Images/66dc48cea9a85fe230c06b5f_Image_8.jpeg,did not like,3.820572462,,,,,,,,,,,,,,,,,,,,,,
,,66dc48cea9a85fe230c06b5f,6685aa9113c938e83b4f1ea0,67153dcb8dd6fca1aa159427,2024-10-20_10h36.38.873,WTP_SM_Choice,2022.2.1,Win32,59.88023952,,,,,,,,,,,,,,,,,,31,,,,,,space,2.3549,space,18.2588,0.01,1,8.8859,0,0,0,0,1,Talk to my mother on video call,Lay bed in my bedroom deep in my thoughts,0.01,0.02,8.8,0,,,,
,,66dc48cea9a85fe230c06b5f,6685aa9113c938e83b4f1ea0,67153dcb8dd6fca1aa159427,2024-10-20_10h36.38.873,WTP_SM_Choice,2022.2.1,Win32,59.88023952,,,,,,,,,,,,,,,,,,32,,,,,,,,,,,,,0,1,1,1,1,Go for a picnic with my family,Sniffing my partners outfits because I miss him,0.02,0.02,1.1,0,,,,
,,66dc48cea9a85fe230c06b5f,6685aa9113c938e83b4f1ea0,67153dcb8dd6fca1aa159427,2024-10-20_10h36.38.873,WTP_SM_Choice,2022.2.1,Win32,59.88023952,,,,,,,,,,,,,,,,,,33,,,,,,,,,,0.03,1,7.1162,0,2,2,2,1,Lay bed in my bedroom deep in my thoughts,Go sight seeing with my friends,0.03,0.02,4.4,1,,,,
,,66dc48cea9a85fe230c06b5f,6685aa9113c938e83b4f1ea0,67153dcb8dd6fca1aa159427,2024-10-20_10h36.38.873,WTP_SM_Choice,2022.2.1,Win32,59.88023952,,,,,,,,,,,,,,,,,,34,,,,,,,,,,,,,0,3,3,3,1,Watch movies with my partner,Sit in the sofa,0.04,0.02,3.3,0,,,,
,,66dc48cea9a85fe230c06b5f,6685aa9113c938e83b4f1ea0,67153dcb8dd6fca1aa159427,2024-10-20_10h36.38.873,WTP_SM_Choice,2022.2.1,Win32,59.88023952,,,,,,,,,,,,,,,,,,35,,,,,,,,,,0.02,2,2.4481,0,4,4,4,1,Sniffing my partners outfits because I miss him,Go to see a movie with friends,0.05,0.02,1.1,1,,,,
,,66dc48cea9a85fe230c06b5f,6685aa9113c938e83b4f1ea0,67153dcb8dd6fca1aa159427,2024-10-20_10h36.38.873,WTP_SM_Choice,2022.2.1,Win32,59.88023952,,,,,,,NAN,,NAN,0.92,5.08,,0,34,34,34,1,35,Sam,Rej,Participant_Images/66dc48cea9a85fe230c06b5f/66dc48cea9a85fe230c06b5f_Images/66dc48cea9a85fe230c06b5f_Image_19.jpeg,did not like,2.455989137,,,,,,,,,,,,,,,,,,,,,,
,,66dc48cea9a85fe230c06b5f,6685aa9113c938e83b4f1ea0,67153dcb8dd6fca1aa159427,2024-10-20_10h36.38.873,WTP_SM_Choice,2022.2.1,Win32,59.88023952,,,,,space,2.3563,NAN,,NAN,0.92,5.08,,0,35,35,35,1,36,Sam,Rej,Participant_Images/66dc48cea9a85fe230c06b5f/66dc48cea9a85fe230c06b5f_Images/66dc48cea9a85fe230c06b5f_Image_22.jpeg,liked,3.79605092,,,,,,,,,,,,,,,,,,,,,,
,,66dc48cea9a85fe230c06b5f,6685aa9113c938e83b4f1ea0,67153dcb8dd6fca1aa159427,2024-10-20_10h36.38.873,WTP_SM_Choice,2022.2.1,Win32,59.88023952,,,,,space,4.5946,NAN,,NAN,0.92,5.08,,0,36,36,36,1,37,Sam,Rej,Participant_Images/66dc48cea9a85fe230c06b5f/66dc48cea9a85fe230c06b5f_Images/66dc48cea9a85fe230c06b5f_Image_24.jpeg,did not like,3.562416326,,,,,,,,,,,,,,,,,,,,,,
,,66dc48cea9a85fe230c06b5f,6685aa9113c938e83b4f1ea0,67153dcb8dd6fca1aa159427,2024-10-20_10h36.38.873,WTP_SM_Choice,2022.2.1,Win32,59.88023952,,,,,space,8.9394,NAN,,NAN,0.92,5.08,,0,37,37,37,1,38,Sam,Rej,Participant_Images/66dc48cea9a85fe230c06b5f/66dc48cea9a85fe230c06b5f_Images/66dc48cea9a85fe230c06b5f_Image_25.jpeg,did not like,2.843822497,,,,,,,,,,,,,,,,,,,,,,
,,66dc48cea9a85fe230c06b5f,6685aa9113c938e83b4f1ea0,67153dcb8dd6fca1aa159427,2024-10-20_10h36.38.873,WTP_SM_Choice,2022.2.1,Win32,59.88023952,,,,,space,9.1148,NAN,,NAN,0.92,5.08,,0,38,38,38,1,39,Sam,Rej,Participant_Images/66dc48cea9a85fe230c06b5f/66dc48cea9a85fe230c06b5f_Images/66dc48cea9a85fe230c06b5f_Image_10.jpeg,did not like,3.546495948,,,,,,,,,,,,,,,,,,,,,,
,,66dc48cea9a85fe230c06b5f,6685aa9113c938e83b4f1ea0,67153dcb8dd6fca1aa159427,2024-10-20_10h36.38.873,WTP_SM_Choice,2022.2.1,Win32,59.88023952,,,,,,,,,,,,,,,,,,36,,,,,,space,23.7498,space,3.5615,0.01,1,2.6974,0,0,0,0,1,Lay bed in my bedroom deep in my thoughts,Travel with my family to a new city,0.01,0.03,3.3,1,,,,
,,66dc48cea9a85fe230c06b5f,6685aa9113c938e83b4f1ea0,67153dcb8dd6fca1aa159427,2024-10-20_10h36.38.873,WTP_SM_Choice,2022.2.1,Win32,59.88023952,,,,,,,,,,,,,,,,,,37,,,,,,,,,,0.02,1,8.2467,0,1,1,1,1,Go for a picnic with my family,Lay bed in my bedroom deep in my thoughts,0.02,0.03,1.1,0,,,,
,,66dc48cea9a85fe230c06b5f,6685aa9113c938e83b4f1ea0,67153dcb8dd6fca1aa159427,2024-10-20_10h36.38.873,WTP_SM_Choice,2022.2.1,Win32,59.88023952,,,,,,,,,,,,,,,,,,38,,,,,,,,,,0.03,2,2.0826,0,2,2,2,1,Go on a date with my partner,Sit in the sofa,0.03,0.03,1.1,0,,,,
,,66dc48cea9a85fe230c06b5f,6685aa9113c938e83b4f1ea0,67153dcb8dd6fca1aa159427,2024-10-20_10h36.38.873,WTP_SM_Choice,2022.2.1,Win32,59.88023952,,,,,,,,,,,,,,,,,,39,,,,,,,,,,0.04,1,1.5965,0,3,3,3,1,Sleep on the couch,Play with my kids,0.04,0.03,3.3,1,,,,
,,66dc48cea9a85fe230c06b5f,6685aa9113c938e83b4f1ea0,67153dcb8dd6fca1aa159427,2024-10-20_10h36.38.873,WTP_SM_Choice,2022.2.1,Win32,59.88023952,,,,,,,,,,,,,,,,,,40,,,,,,,,,,0.05,1,2.3072,0,4,4,4,1,Laugh with my partner,Clean the living room,0.05,0.03,4.4,0,,,,
,,66dc48cea9a85fe230c06b5f,6685aa9113c938e83b4f1ea0,67153dcb8dd6fca1aa159427,2024-10-20_10h36.38.873,WTP_SM_Choice,2022.2.1,Win32,59.88023952,,,,,,,NAN,,NAN,1.07,4.93,,0,39,39,39,1,40,Sam,Rej,Participant_Images/66dc48cea9a85fe230c06b5f/66dc48cea9a85fe230c06b5f_Images/66dc48cea9a85fe230c06b5f_Image_4.jpeg,liked,1.672012706,,,,,,,,,,,,,,,,,,,,,,
,,66dc48cea9a85fe230c06b5f,6685aa9113c938e83b4f1ea0,67153dcb8dd6fca1aa159427,2024-10-20_10h36.38.873,WTP_SM_Choice,2022.2.1,Win32,59.88023952,,,,,space,3.5014,NAN,,NAN,1.07,4.93,,0,40,40,40,1,41,Sam,Rej,Participant_Images/66dc48cea9a85fe230c06b5f/66dc48cea9a85fe230c06b5f_Images/66dc48cea9a85fe230c06b5f_Image_17.jpeg,did not like,4.942172136,,,,,,,,,,,,,,,,,,,,,,
,,66dc48cea9a85fe230c06b5f,6685aa9113c938e83b4f1ea0,67153dcb8dd6fca1aa159427,2024-10-20_10h36.38.873,WTP_SM_Choice,2022.2.1,Win32,59.88023952,,,,,space,28.009,NAN,,NAN,1.07,4.93,,0,41,41,41,1,42,Sam,Rej,Participant_Images/66dc48cea9a85fe230c06b5f/66dc48cea9a85fe230c06b5f_Images/66dc48cea9a85fe230c06b5f_Image_18.jpeg,liked,2.50187214,,,,,,,,,,,,,,,,,,,,,,
,,66dc48cea9a85fe230c06b5f,6685aa9113c938e83b4f1ea0,67153dcb8dd6fca1aa159427,2024-10-20_10h36.38.873,WTP_SM_Choice,2022.2.1,Win32,59.88023952,,,,,space,2.7832,NAN,,NAN,1.07,4.93,,0,42,42,42,1,43,Sam,Rej,Participant_Images/66dc48cea9a85fe230c06b5f/66dc48cea9a85fe230c06b5f_Images/66dc48cea9a85fe230c06b5f_Image_16.jpeg,did not like,2.071164779,,,,,,,,,,,,,,,,,,,,,,
,,66dc48cea9a85fe230c06b5f,6685aa9113c938e83b4f1ea0,67153dcb8dd6fca1aa159427,2024-10-20_10h36.38.873,WTP_SM_Choice,2022.2.1,Win32,59.88023952,,,,,space,1.8753,NAN,,NAN,1.07,4.93,,0,43,43,43,1,44,Sam,Rej,Participant_Images/66dc48cea9a85fe230c06b5f/66dc48cea9a85fe230c06b5f_Images/66dc48cea9a85fe230c06b5f_Image_21.jpeg,did not like,5.336503566,,,,,,,,,,,,,,,,,,,,,,
,,66dc48cea9a85fe230c06b5f,6685aa9113c938e83b4f1ea0,67153dcb8dd6fca1aa159427,2024-10-20_10h36.38.873,WTP_SM_Choice,2022.2.1,Win32,59.88023952,,,,,,,,,,,,,,,,,,41,,,,,,space,0.7293,space,0.6858,0.01,1,1.217,0,0,0,0,1,Go on a date with my partner,Watch a cooking show on social media,0.01,0.04,1.1,0,,,,
,,66dc48cea9a85fe230c06b5f,6685aa9113c938e83b4f1ea0,67153dcb8dd6fca1aa159427,2024-10-20_10h36.38.873,WTP_SM_Choice,2022.2.1,Win32,59.88023952,,,,,,,,,,,,,,,,,,42,,,,,,,,,,0.02,1,0.8824,0,1,1,1,1,Play with my kids,Watch a cooking show on social media,0.02,0.04,3.3,0,,,,
,,66dc48cea9a85fe230c06b5f,6685aa9113c938e83b4f1ea0,67153dcb8dd6fca1aa159427,2024-10-20_10h36.38.873,WTP_SM_Choice,2022.2.1,Win32,59.88023952,,,,,,,,,,,,,,,,,,43,,,,,,,,,,0.03,1,2.5823,0,2,2,2,1,Read a novel on my bed,Go sight seeing with my friends,0.03,0.04,1.1,1,,,,
,,66dc48cea9a85fe230c06b5f,6685aa9113c938e83b4f1ea0,67153dcb8dd6fca1aa159427,2024-10-20_10h36.38.873,WTP_SM_Choice,2022.2.1,Win32,59.88023952,,,,,,,,,,,,,,,,,,44,,,,,,,,,,0.04,1,1.6027,0,3,3,3,1,Sleep on the couch,Go on a date with my partner,0.04,0.04,1.1,1,,,,
,,66dc48cea9a85fe230c06b5f,6685aa9113c938e83b4f1ea0,67153dcb8dd6fca1aa159427,2024-10-20_10h36.38.873,WTP_SM_Choice,2022.2.1,Win32,59.88023952,,,,,,,,,,,,,,,,,,45,,,,,,,,,,0.05,1,4.3752,0,4,4,4,1,Go sight seeing with my friends,Read Tony Robins book on sales and marketing,0.05,0.04,4.4,0,,,,
,,66dc48cea9a85fe230c06b5f,6685aa9113c938e83b4f1ea0,67153dcb8dd6fca1aa159427,2024-10-20_10h36.38.873,WTP_SM_Choice,2022.2.1,Win32,59.88023952,,,,,,,NAN,,NAN,1.22,4.78,,0,44,44,44,1,45,Sam,Rej,Participant_Images/66dc48cea9a85fe230c06b5f/66dc48cea9a85fe230c06b5f_Images/66dc48cea9a85fe230c06b5f_Image_14.jpeg,did not like,2.642157193,,,,,,,,,,,,,,,,,,,,,,
,,66dc48cea9a85fe230c06b5f,6685aa9113c938e83b4f1ea0,67153dcb8dd6fca1aa159427,2024-10-20_10h36.38.873,WTP_SM_Choice,2022.2.1,Win32,59.88023952,,,,,space,12.0455,NAN,,NAN,1.22,4.78,,0,45,45,45,1,46,Sam,Rej,Participant_Images/66dc48cea9a85fe230c06b5f/66dc48cea9a85fe230c06b5f_Images/66dc48cea9a85fe230c06b5f_Image_13.jpeg,liked,4.456234322,,,,,,,,,,,,,,,,,,,,,,
,,66dc48cea9a85fe230c06b5f,6685aa9113c938e83b4f1ea0,67153dcb8dd6fca1aa159427,2024-10-20_10h36.38.873,WTP_SM_Choice,2022.2.1,Win32,59.88023952,,,,,space,1.0463,NAN,,NAN,1.22,4.78,,0,46,46,46,1,47,Sam,Rej,Participant_Images/66dc48cea9a85fe230c06b5f/66dc48cea9a85fe230c06b5f_Images/66dc48cea9a85fe230c06b5f_Image_12.jpeg,did not like,4.438512181,,,,,,,,,,,,,,,,,,,,,,
,,66dc48cea9a85fe230c06b5f,6685aa9113c938e83b4f1ea0,67153dcb8dd6fca1aa159427,2024-10-20_10h36.38.873,WTP_SM_Choice,2022.2.1,Win32,59.88023952,,,,,space,1.6079,NAN,,NAN,1.22,4.78,,0,47,47,47,1,48,Sam,Rej,Participant_Images/66dc48cea9a85fe230c06b5f/66dc48cea9a85fe230c06b5f_Images/66dc48cea9a85fe230c06b5f_Image_9.jpeg,did not like,2.682944783,,,,,,,,,,,,,,,,,,,,,,
,,66dc48cea9a85fe230c06b5f,6685aa9113c938e83b4f1ea0,67153dcb8dd6fca1aa159427,2024-10-20_10h36.38.873,WTP_SM_Choice,2022.2.1,Win32,59.88023952,,,,,space,4.8706,NAN,,NAN,1.22,4.78,,0,48,48,48,1,49,Sam,Rej,Participant_Images/66dc48cea9a85fe230c06b5f/66dc48cea9a85fe230c06b5f_Images/66dc48cea9a85fe230c06b5f_Image_7.jpeg,did not like,4.51984296,,,,,,,,,,,,,,,,,,,,,,
,,66dc48cea9a85fe230c06b5f,6685aa9113c938e83b4f1ea0,67153dcb8dd6fca1aa159427,2024-10-20_10h36.38.873,WTP_SM_Choice,2022.2.1,Win32,59.88023952,,,,,,,,,,,,,,,,,,46,,,,,,space,0.699,space,0.6262,0.01,1,3.7011,0,0,0,0,1,Watch movies with my partner,Listen to music on the bed,0.01,0.05,8.8,0,,,,
,,66dc48cea9a85fe230c06b5f,6685aa9113c938e83b4f1ea0,67153dcb8dd6fca1aa159427,2024-10-20_10h36.38.873,WTP_SM_Choice,2022.2.1,Win32,59.88023952,,,,,,,,,,,,,,,,,,47,,,,,,,,,,0.02,1,3.3633,0,1,1,1,1,Watch movies with my partner,Read a novel on my bed,0.02,0.05,1.1,0,,,,
,,66dc48cea9a85fe230c06b5f,6685aa9113c938e83b4f1ea0,67153dcb8dd6fca1aa159427,2024-10-20_10h36.38.873,WTP_SM_Choice,2022.2.1,Win32,59.88023952,,,,,,,,,,,,,,,,,,48,,,,,,,,,,0.03,1,2.7197,0,2,2,2,1,Sniffing my partners outfits because I miss him,Play with my kids,0.03,0.05,4.4,1,,,,
,,66dc48cea9a85fe230c06b5f,6685aa9113c938e83b4f1ea0,67153dcb8dd6fca1aa159427,2024-10-20_10h36.38.873,WTP_SM_Choice,2022.2.1,Win32,59.88023952,,,,,,,,,,,,,,,,,,49,,,,,,,,,,0.04,1,2.046,0,3,3,3,1,Sit in the sofa,Travel with my family to a new city,0.04,0.05,3.3,1,,,,
,,66dc48cea9a85fe230c06b5f,6685aa9113c938e83b4f1ea0,67153dcb8dd6fca1aa159427,2024-10-20_10h36.38.873,WTP_SM_Choice,2022.2.1,Win32,59.88023952,,,,,,,,,,,,,,,,,,50,,,,,,,,,,0.05,2,4.8786,0,4,4,4,1,Watch movies with my partner,Browse apparel shops online,0.05,0.05,1.1,0,,,,
,,66dc48cea9a85fe230c06b5f,6685aa9113c938e83b4f1ea0,67153dcb8dd6fca1aa159427,2024-10-20_10h36.38.873,WTP_SM_Choice,2022.2.1,Win32,59.88023952,,,,,,,2,,2,1.37,4.63,,0,49,49,49,1,50,Sam,Rej,Participant_Images/66dc48cea9a85fe230c06b5f/66dc48cea9a85fe230c06b5f_Images/66dc48cea9a85fe230c06b5f_Image_15.jpeg,did not like,3.195382774,,,,,,,,,,,,,,,,,,,space,1.0222,,
,,66dc48cea9a85fe230c06b5f,6685aa9113c938e83b4f1ea0,67153dcb8dd6fca1aa159427,2024-10-20_10h36.38.873,WTP_SM_Choice,2022.2.1,Win32,59.88023952,,,space,5.0052,space,0.6379,NAN,,NAN,1.37,4.63,,0,50,50,50,1,51,Riley,Acc,Participant_Images/66dc48cea9a85fe230c06b5f/66dc48cea9a85fe230c06b5f_Images/66dc48cea9a85fe230c06b5f_Image_25.jpeg,liked,1.779333479,,,,,,,,,,,,,,,,,,,,,,
,,66dc48cea9a85fe230c06b5f,6685aa9113c938e83b4f1ea0,67153dcb8dd6fca1aa159427,2024-10-20_10h36.38.873,WTP_SM_Choice,2022.2.1,Win32,59.88023952,,,,,space,0.7322,NAN,,NAN,1.37,4.63,,0,51,51,51,1,52,Riley,Acc,Participant_Images/66dc48cea9a85fe230c06b5f/66dc48cea9a85fe230c06b5f_Images/66dc48cea9a85fe230c06b5f_Image_20.jpeg,liked,4.312468682,,,,,,,,,,,,,,,,,,,,,,
,,66dc48cea9a85fe230c06b5f,6685aa9113c938e83b4f1ea0,67153dcb8dd6fca1aa159427,2024-10-20_10h36.38.873,WTP_SM_Choice,2022.2.1,Win32,59.88023952,,,,,space,0.6993,NAN,,NAN,1.37,4.63,,0,52,52,52,1,53,Riley,Acc,Participant_Images/66dc48cea9a85fe230c06b5f/66dc48cea9a85fe230c06b5f_Images/66dc48cea9a85fe230c06b5f_Image_7.jpeg,did not like,4.940433059,,,,,,,,,,,,,,,,,,,,,,
,,66dc48cea9a85fe230c06b5f,6685aa9113c938e83b4f1ea0,67153dcb8dd6fca1aa159427,2024-10-20_10h36.38.873,WTP_SM_Choice,2022.2.1,Win32,59.88023952,,,,,space,0.427,NAN,,NAN,1.37,4.63,,0,53,53,53,1,54,Riley,Acc,Participant_Images/66dc48cea9a85fe230c06b5f/66dc48cea9a85fe230c06b5f_Images/66dc48cea9a85fe230c06b5f_Image_14.jpeg,did not like,2.7105123,,,,,,,,,,,,,,,,,,,,,,
,,66dc48cea9a85fe230c06b5f,6685aa9113c938e83b4f1ea0,67153dcb8dd6fca1aa159427,2024-10-20_10h36.38.873,WTP_SM_Choice,2022.2.1,Win32,59.88023952,,,,,,,,,,,,,,,,,,51,,,,,,space,0.7482,space,0.6936,0.01,1,3.2959,0,0,0,0,1,have a drink at the bar with friends,Sleep on the couch,0.01,0.01,1.1,0,,,,
,,66dc48cea9a85fe230c06b5f,6685aa9113c938e83b4f1ea0,67153dcb8dd6fca1aa159427,2024-10-20_10h36.38.873,WTP_SM_Choice,2022.2.1,Win32,59.88023952,,,,,,,,,,,,,,,,,,52,,,,,,,,,,0.02,1,2.4278,0,1,1,1,1,Sit in the sofa,have a drink at the bar with friends,0.02,0.01,3.3,1,,,,
,,66dc48cea9a85fe230c06b5f,6685aa9113c938e83b4f1ea0,67153dcb8dd6fca1aa159427,2024-10-20_10h36.38.873,WTP_SM_Choice,2022.2.1,Win32,59.88023952,,,,,,,,,,,,,,,,,,53,,,,,,,,,,0.03,1,1.837,0,2,2,2,1,Browse apparel shops online,Go for a picnic with my family,0.03,0.01,1.1,1,,,,
,,66dc48cea9a85fe230c06b5f,6685aa9113c938e83b4f1ea0,67153dcb8dd6fca1aa159427,2024-10-20_10h36.38.873,WTP_SM_Choice,2022.2.1,Win32,59.88023952,,,,,,,,,,,,,,,,,,54,,,,,,,,,,0.01,2,3.8148,0,3,3,3,1,Browse apparel shops online,have a drink at the bar with friends,0.04,0.01,4.4,1,,,,
,,66dc48cea9a85fe230c06b5f,6685aa9113c938e83b4f1ea0,67153dcb8dd6fca1aa159427,2024-10-20_10h36.38.873,WTP_SM_Choice,2022.2.1,Win32,59.88023952,,,,,,,,,,,,,,,,,,55,,,,,,,,,,0.01,2,4.0373,0,4,4,4,1,Watch movies with my partner,Sleep on the couch,0.05,0.01,1.1,0,,,,
,,66dc48cea9a85fe230c06b5f,6685aa9113c938e83b4f1ea0,67153dcb8dd6fca1aa159427,2024-10-20_10h36.38.873,WTP_SM_Choice,2022.2.1,Win32,59.88023952,,,,,,,NAN,,NAN,1.45,4.55,,0,54,54,54,1,55,Riley,Acc,Participant_Images/66dc48cea9a85fe230c06b5f/66dc48cea9a85fe230c06b5f_Images/66dc48cea9a85fe230c06b5f_Image_8.jpeg,liked,3.602308302,,,,,,,,,,,,,,,,,,,,,,
,,66dc48cea9a85fe230c06b5f,6685aa9113c938e83b4f1ea0,67153dcb8dd6fca1aa159427,2024-10-20_10h36.38.873,WTP_SM_Choice,2022.2.1,Win32,59.88023952,,,,,space,3.2612,NAN,,NAN,1.45,4.55,,0,55,55,55,1,56,Riley,Acc,Participant_Images/66dc48cea9a85fe230c06b5f/66dc48cea9a85fe230c06b5f_Images/66dc48cea9a85fe230c06b5f_Image_15.jpeg,liked,4.106391878,,,,,,,,,,,,,,,,,,,,,,
,,66dc48cea9a85fe230c06b5f,6685aa9113c938e83b4f1ea0,67153dcb8dd6fca1aa159427,2024-10-20_10h36.38.873,WTP_SM_Choice,2022.2.1,Win32,59.88023952,,,,,space,0.511,NAN,,NAN,1.45,4.55,,0,56,56,56,1,57,Riley,Acc,Participant_Images/66dc48cea9a85fe230c06b5f/66dc48cea9a85fe230c06b5f_Images/66dc48cea9a85fe230c06b5f_Image_16.jpeg,did not like,3.799433026,,,,,,,,,,,,,,,,,,,,,,
,,66dc48cea9a85fe230c06b5f,6685aa9113c938e83b4f1ea0,67153dcb8dd6fca1aa159427,2024-10-20_10h36.38.873,WTP_SM_Choice,2022.2.1,Win32,59.88023952,,,,,space,0.7324,NAN,,NAN,1.45,4.55,,0,57,57,57,1,58,Riley,Acc,Participant_Images/66dc48cea9a85fe230c06b5f/66dc48cea9a85fe230c06b5f_Images/66dc48cea9a85fe230c06b5f_Image_17.jpeg,liked,5.246980764,,,,,,,,,,,,,,,,,,,,,,
,,66dc48cea9a85fe230c06b5f,6685aa9113c938e83b4f1ea0,67153dcb8dd6fca1aa159427,2024-10-20_10h36.38.873,WTP_SM_Choice,2022.2.1,Win32,59.88023952,,,,,space,0.908,NAN,,NAN,1.45,4.55,,0,58,58,58,1,59,Riley,Acc,Participant_Images/66dc48cea9a85fe230c06b5f/66dc48cea9a85fe230c06b5f_Images/66dc48cea9a85fe230c06b5f_Image_12.jpeg,liked,3.30081769,,,,,,,,,,,,,,,,,,,,,,
,,66dc48cea9a85fe230c06b5f,6685aa9113c938e83b4f1ea0,67153dcb8dd6fca1aa159427,2024-10-20_10h36.38.873,WTP_SM_Choice,2022.2.1,Win32,59.88023952,,,,,,,,,,,,,,,,,,56,,,,,,space,2.5607,space,0.7306,0.02,2,2.9828,0,0,0,0,1,Travel with my family to a new city,Browse apparel shops online,0.01,0.02,8.8,0,,,,
,,66dc48cea9a85fe230c06b5f,6685aa9113c938e83b4f1ea0,67153dcb8dd6fca1aa159427,2024-10-20_10h36.38.873,WTP_SM_Choice,2022.2.1,Win32,59.88023952,,,,,,,,,,,,,,,,,,57,,,,,,,,,,0.02,1,4.1591,0,1,1,1,1,Talk to my mother on video call,Clean the living room,0.02,0.02,4.4,0,,,,
,,66dc48cea9a85fe230c06b5f,6685aa9113c938e83b4f1ea0,67153dcb8dd6fca1aa159427,2024-10-20_10h36.38.873,WTP_SM_Choice,2022.2.1,Win32,59.88023952,,,,,,,,,,,,,,,,,,58,,,,,,,,,,0.02,2,5.4218,0,2,2,2,1,Lay bed in my bedroom deep in my thoughts,Go to see a movie with friends,0.03,0.02,4.4,1,,,,
,,66dc48cea9a85fe230c06b5f,6685aa9113c938e83b4f1ea0,67153dcb8dd6fca1aa159427,2024-10-20_10h36.38.873,WTP_SM_Choice,2022.2.1,Win32,59.88023952,,,,,,,,,,,,,,,,,,59,,,,,,,,,,0.04,1,1.8421,0,3,3,3,1,Read Tony Robins book on sales and marketing,Play with my kids,0.04,0.02,4.4,1,,,,
,,66dc48cea9a85fe230c06b5f,6685aa9113c938e83b4f1ea0,67153dcb8dd6fca1aa159427,2024-10-20_10h36.38.873,WTP_SM_Choice,2022.2.1,Win32,59.88023952,,,,,,,,,,,,,,,,,,60,,,,,,,,,,0.05,1,4.7188,0,4,4,4,1,have a drink at the bar with friends,Lay bed in my bedroom deep in my thoughts,0.05,0.02,1.1,0,,,,
,,66dc48cea9a85fe230c06b5f,6685aa9113c938e83b4f1ea0,67153dcb8dd6fca1aa159427,2024-10-20_10h36.38.873,WTP_SM_Choice,2022.2.1,Win32,59.88023952,,,,,,,NAN,,NAN,1.6,4.4,,0,59,59,59,1,60,Riley,Acc,Participant_Images/66dc48cea9a85fe230c06b5f/66dc48cea9a85fe230c06b5f_Images/66dc48cea9a85fe230c06b5f_Image_13.jpeg,liked,1.661473164,,,,,,,,,,,,,,,,,,,,,,
,,66dc48cea9a85fe230c06b5f,6685aa9113c938e83b4f1ea0,67153dcb8dd6fca1aa159427,2024-10-20_10h36.38.873,WTP_SM_Choice,2022.2.1,Win32,59.88023952,,,,,space,2.1283,NAN,,NAN,1.6,4.4,,0,60,60,60,1,61,Riley,Acc,Participant_Images/66dc48cea9a85fe230c06b5f/66dc48cea9a85fe230c06b5f_Images/66dc48cea9a85fe230c06b5f_Image_4.jpeg,liked,3.613205605,,,,,,,,,,,,,,,,,,,,,,
,,66dc48cea9a85fe230c06b5f,6685aa9113c938e83b4f1ea0,67153dcb8dd6fca1aa159427,2024-10-20_10h36.38.873,WTP_SM_Choice,2022.2.1,Win32,59.88023952,,,,,space,3.8177,NAN,,NAN,1.6,4.4,,0,61,61,61,1,62,Riley,Acc,Participant_Images/66dc48cea9a85fe230c06b5f/66dc48cea9a85fe230c06b5f_Images/66dc48cea9a85fe230c06b5f_Image_5.jpeg,liked,4.988446431,,,,,,,,,,,,,,,,,,,,,,
,,66dc48cea9a85fe230c06b5f,6685aa9113c938e83b4f1ea0,67153dcb8dd6fca1aa159427,2024-10-20_10h36.38.873,WTP_SM_Choice,2022.2.1,Win32,59.88023952,,,,,space,0.7541,NAN,,NAN,1.6,4.4,,0,62,62,62,1,63,Riley,Acc,Participant_Images/66dc48cea9a85fe230c06b5f/66dc48cea9a85fe230c06b5f_Images/66dc48cea9a85fe230c06b5f_Image_22.jpeg,liked,3.470791822,,,,,,,,,,,,,,,,,,,,,,
,,66dc48cea9a85fe230c06b5f,6685aa9113c938e83b4f1ea0,67153dcb8dd6fca1aa159427,2024-10-20_10h36.38.873,WTP_SM_Choice,2022.2.1,Win32,59.88023952,,,,,space,0.5207,NAN,,NAN,1.6,4.4,,0,63,63,63,1,64,Riley,Acc,Participant_Images/66dc48cea9a85fe230c06b5f/66dc48cea9a85fe230c06b5f_Images/66dc48cea9a85fe230c06b5f_Image_11.jpeg,did not like,3.820572462,,,,,,,,,,,,,,,,,,,,,,
,,66dc48cea9a85fe230c06b5f,6685aa9113c938e83b4f1ea0,67153dcb8dd6fca1aa159427,2024-10-20_10h36.38.873,WTP_SM_Choice,2022.2.1,Win32,59.88023952,,,,,,,,,,,,,,,,,,61,,,,,,space,1.2848,space,0.6794,0.01,1,2.6612,0,0,0,0,1,Go sight seeing with my friends,Watch a cooking show on social media,0.01,0.03,3.3,0,,,,
,,66dc48cea9a85fe230c06b5f,6685aa9113c938e83b4f1ea0,67153dcb8dd6fca1aa159427,2024-10-20_10h36.38.873,WTP_SM_Choice,2022.2.1,Win32,59.88023952,,,,,,,,,,,,,,,,,,62,,,,,,,,,,0.02,1,2.5625,0,1,1,1,1,Lay bed in my bedroom deep in my thoughts,Go on a date with my partner,0.02,0.03,3.3,1,,,,
,,66dc48cea9a85fe230c06b5f,6685aa9113c938e83b4f1ea0,67153dcb8dd6fca1aa159427,2024-10-20_10h36.38.873,WTP_SM_Choice,2022.2.1,Win32,59.88023952,,,,,,,,,,,,,,,,,,63,,,,,,,,,,0.03,1,2.5601,0,2,2,2,1,Play with my kids,Clean the living room,0.03,0.03,3.3,0,,,,
,,66dc48cea9a85fe230c06b5f,6685aa9113c938e83b4f1ea0,67153dcb8dd6fca1aa159427,2024-10-20_10h36.38.873,WTP_SM_Choice,2022.2.1,Win32,59.88023952,,,,,,,,,,,,,,,,,,64,,,,,,,,,,0.03,2,3.0952,0,3,3,3,1,Lay bed in my bedroom deep in my thoughts,Play with my kids,0.04,0.03,1.1,1,,,,
,,66dc48cea9a85fe230c06b5f,6685aa9113c938e83b4f1ea0,67153dcb8dd6fca1aa159427,2024-10-20_10h36.38.873,WTP_SM_Choice,2022.2.1,Win32,59.88023952,,,,,,,,,,,,,,,,,,65,,,,,,,,,,0.05,1,2.356,0,4,4,4,1,Travel with my family to a new city,Read Tony Robins book on sales and marketing,0.05,0.03,1.1,0,,,,
,,66dc48cea9a85fe230c06b5f,6685aa9113c938e83b4f1ea0,67153dcb8dd6fca1aa159427,2024-10-20_10h36.38.873,WTP_SM_Choice,2022.2.1,Win32,59.88023952,,,,,,,NAN,,NAN,1.74,4.26,,0,64,64,64,1,65,Riley,Acc,Participant_Images/66dc48cea9a85fe230c06b5f/66dc48cea9a85fe230c06b5f_Images/66dc48cea9a85fe230c06b5f_Image_1.jpeg,liked,2.455989137,,,,,,,,,,,,,,,,,,,,,,
,,66dc48cea9a85fe230c06b5f,6685aa9113c938e83b4f1ea0,67153dcb8dd6fca1aa159427,2024-10-20_10h36.38.873,WTP_SM_Choice,2022.2.1,Win32,59.88023952,,,,,space,0.7988,NAN,,NAN,1.74,4.26,,0,65,65,65,1,66,Riley,Acc,Participant_Images/66dc48cea9a85fe230c06b5f/66dc48cea9a85fe230c06b5f_Images/66dc48cea9a85fe230c06b5f_Image_23.jpeg,did not like,3.79605092,,,,,,,,,,,,,,,,,,,,,,
,,66dc48cea9a85fe230c06b5f,6685aa9113c938e83b4f1ea0,67153dcb8dd6fca1aa159427,2024-10-20_10h36.38.873,WTP_SM_Choice,2022.2.1,Win32,59.88023952,,,,,space,0.4243,NAN,,NAN,1.74,4.26,,0,66,66,66,1,67,Riley,Acc,Participant_Images/66dc48cea9a85fe230c06b5f/66dc48cea9a85fe230c06b5f_Images/66dc48cea9a85fe230c06b5f_Image_10.jpeg,liked,3.562416326,,,,,,,,,,,,,,,,,,,,,,
,,66dc48cea9a85fe230c06b5f,6685aa9113c938e83b4f1ea0,67153dcb8dd6fca1aa159427,2024-10-20_10h36.38.873,WTP_SM_Choice,2022.2.1,Win32,59.88023952,,,,,space,0.8248,NAN,,NAN,1.74,4.26,,0,67,67,67,1,68,Riley,Acc,Participant_Images/66dc48cea9a85fe230c06b5f/66dc48cea9a85fe230c06b5f_Images/66dc48cea9a85fe230c06b5f_Image_3.jpeg,liked,2.843822497,,,,,,,,,,,,,,,,,,,,,,
,,66dc48cea9a85fe230c06b5f,6685aa9113c938e83b4f1ea0,67153dcb8dd6fca1aa159427,2024-10-20_10h36.38.873,WTP_SM_Choice,2022.2.1,Win32,59.88023952,,,,,space,0.4201,NAN,,NAN,1.74,4.26,,0,68,68,68,1,69,Riley,Acc,Participant_Images/66dc48cea9a85fe230c06b5f/66dc48cea9a85fe230c06b5f_Images/66dc48cea9a85fe230c06b5f_Image_24.jpeg,did not like,3.546495948,,,,,,,,,,,,,,,,,,,,,,
,,66dc48cea9a85fe230c06b5f,6685aa9113c938e83b4f1ea0,67153dcb8dd6fca1aa159427,2024-10-20_10h36.38.873,WTP_SM_Choice,2022.2.1,Win32,59.88023952,,,,,,,,,,,,,,,,,,66,,,,,,space,0.8152,space,0.7715,0.04,2,1.9716,0,0,0,0,1,Go for a picnic with my family,Sit in the sofa,0.01,0.04,1.1,0,,,,
,,66dc48cea9a85fe230c06b5f,6685aa9113c938e83b4f1ea0,67153dcb8dd6fca1aa159427,2024-10-20_10h36.38.873,WTP_SM_Choice,2022.2.1,Win32,59.88023952,,,,,,,,,,,,,,,,,,67,,,,,,,,,,0.02,1,3.4841,0,1,1,1,1,Watch a cooking show on social media,Watch movies with my partner,0.02,0.04,8.8,1,,,,
,,66dc48cea9a85fe230c06b5f,6685aa9113c938e83b4f1ea0,67153dcb8dd6fca1aa159427,2024-10-20_10h36.38.873,WTP_SM_Choice,2022.2.1,Win32,59.88023952,,,,,,,,,,,,,,,,,,68,,,,,,,,,,0.03,1,3.9973,0,2,2,2,1,Sniffing my partners outfits because I miss him,Laugh with my partner,0.03,0.04,4.4,1,,,,
,,66dc48cea9a85fe230c06b5f,6685aa9113c938e83b4f1ea0,67153dcb8dd6fca1aa159427,2024-10-20_10h36.38.873,WTP_SM_Choice,2022.2.1,Win32,59.88023952,,,,,,,,,,,,,,,,,,69,,,,,,,,,,0.04,2,5.6703,0,3,3,3,1,Talk to my mother on video call,Listen to music on the bed,0.04,0.04,1.1,0,,,,
,,66dc48cea9a85fe230c06b5f,6685aa9113c938e83b4f1ea0,67153dcb8dd6fca1aa159427,2024-10-20_10h36.38.873,WTP_SM_Choice,2022.2.1,Win32,59.88023952,,,,,,,,,,,,,,,,,,70,,,,,,,,,,0.04,2,2.4441,0,4,4,4,1,Go for a picnic with my family,Read a novel on my bed,0.05,0.04,1.1,0,,,,
,,66dc48cea9a85fe230c06b5f,6685aa9113c938e83b4f1ea0,67153dcb8dd6fca1aa159427,2024-10-20_10h36.38.873,WTP_SM_Choice,2022.2.1,Win32,59.88023952,,,,,,,NAN,,NAN,1.91,4.09,,0,69,69,69,1,70,Riley,Acc,Participant_Images/66dc48cea9a85fe230c06b5f/66dc48cea9a85fe230c06b5f_Images/66dc48cea9a85fe230c06b5f_Image_6.jpeg,liked,1.672012706,,,,,,,,,,,,,,,,,,,,,,
,,66dc48cea9a85fe230c06b5f,6685aa9113c938e83b4f1ea0,67153dcb8dd6fca1aa159427,2024-10-20_10h36.38.873,WTP_SM_Choice,2022.2.1,Win32,59.88023952,,,,,space,0.9216,NAN,,NAN,1.91,4.09,,0,70,70,70,1,71,Riley,Acc,Participant_Images/66dc48cea9a85fe230c06b5f/66dc48cea9a85fe230c06b5f_Images/66dc48cea9a85fe230c06b5f_Image_9.jpeg,liked,4.942172136,,,,,,,,,,,,,,,,,,,,,,
,,66dc48cea9a85fe230c06b5f,6685aa9113c938e83b4f1ea0,67153dcb8dd6fca1aa159427,2024-10-20_10h36.38.873,WTP_SM_Choice,2022.2.1,Win32,59.88023952,,,,,space,2.0951,NAN,,NAN,1.91,4.09,,0,71,71,71,1,72,Riley,Acc,Participant_Images/66dc48cea9a85fe230c06b5f/66dc48cea9a85fe230c06b5f_Images/66dc48cea9a85fe230c06b5f_Image_21.jpeg,liked,2.50187214,,,,,,,,,,,,,,,,,,,,,,
,,66dc48cea9a85fe230c06b5f,6685aa9113c938e83b4f1ea0,67153dcb8dd6fca1aa159427,2024-10-20_10h36.38.873,WTP_SM_Choice,2022.2.1,Win32,59.88023952,,,,,space,1.2715,NAN,,NAN,1.91,4.09,,0,72,72,72,1,73,Riley,Acc,Participant_Images/66dc48cea9a85fe230c06b5f/66dc48cea9a85fe230c06b5f_Images/66dc48cea9a85fe230c06b5f_Image_19.jpeg,liked,2.071164779,,,,,,,,,,,,,,,,,,,,,,
,,66dc48cea9a85fe230c06b5f,6685aa9113c938e83b4f1ea0,67153dcb8dd6fca1aa159427,2024-10-20_10h36.38.873,WTP_SM_Choice,2022.2.1,Win32,59.88023952,,,,,space,0.8855,NAN,,NAN,1.91,4.09,,0,73,73,73,1,74,Riley,Acc,Participant_Images/66dc48cea9a85fe230c06b5f/66dc48cea9a85fe230c06b5f_Images/66dc48cea9a85fe230c06b5f_Image_2.jpeg,did not like,5.336503566,,,,,,,,,,,,,,,,,,,,,,
,,66dc48cea9a85fe230c06b5f,6685aa9113c938e83b4f1ea0,67153dcb8dd6fca1aa159427,2024-10-20_10h36.38.873,WTP_SM_Choice,2022.2.1,Win32,59.88023952,,,,,,,,,,,,,,,,,,71,,,,,,space,1.3758,space,0.7095,0.05,2,1.6067,0,0,0,0,1,Sit in the sofa,Talk to my mother on video call,0.01,0.05,3.3,1,,,,
,,66dc48cea9a85fe230c06b5f,6685aa9113c938e83b4f1ea0,67153dcb8dd6fca1aa159427,2024-10-20_10h36.38.873,WTP_SM_Choice,2022.2.1,Win32,59.88023952,,,,,,,,,,,,,,,,,,72,,,,,,,,,,0.05,2,3.228,0,1,1,1,1,Read Tony Robins book on sales and marketing,Go for a picnic with my family,0.02,0.05,8.8,1,,,,
,,66dc48cea9a85fe230c06b5f,6685aa9113c938e83b4f1ea0,67153dcb8dd6fca1aa159427,2024-10-20_10h36.38.873,WTP_SM_Choice,2022.2.1,Win32,59.88023952,,,,,,,,,,,,,,,,,,73,,,,,,,,,,0.03,1,2.3878,0,2,2,2,1,Sniffing my partners outfits because I miss him,Go on a date with my partner,0.03,0.05,3.3,1,,,,
,,66dc48cea9a85fe230c06b5f,6685aa9113c938e83b4f1ea0,67153dcb8dd6fca1aa159427,2024-10-20_10h36.38.873,WTP_SM_Choice,2022.2.1,Win32,59.88023952,,,,,,,,,,,,,,,,,,74,,,,,,,,,,0.04,1,3.7173,0,3,3,3,1,Talk to my mother on video call,Browse apparel shops online,0.04,0.05,4.4,0,,,,
,,66dc48cea9a85fe230c06b5f,6685aa9113c938e83b4f1ea0,67153dcb8dd6fca1aa159427,2024-10-20_10h36.38.873,WTP_SM_Choice,2022.2.1,Win32,59.88023952,,,,,,,,,,,,,,,,,,75,,,,,,,,,,0.05,1,2.7541,0,4,4,4,1,Read a novel on my bed,Talk to my mother on video call,0.05,0.05,3.3,1,,,,
,,66dc48cea9a85fe230c06b5f,6685aa9113c938e83b4f1ea0,67153dcb8dd6fca1aa159427,2024-10-20_10h36.38.873,WTP_SM_Choice,2022.2.1,Win32,59.88023952,,,,,,,4,,7,2.13,3.87,,0,74,74,74,1,75,Riley,Acc,Participant_Images/66dc48cea9a85fe230c06b5f/66dc48cea9a85fe230c06b5f_Images/66dc48cea9a85fe230c06b5f_Image_18.jpeg,liked,2.642157193,,,,,,,,,,,,,,,,,,,space,1.1233,,
,,66dc48cea9a85fe230c06b5f,6685aa9113c938e83b4f1ea0,67153dcb8dd6fca1aa159427,2024-10-20_10h36.38.873,WTP_SM_Choice,2022.2.1,Win32,59.88023952,,,space,2.5445,space,1.1668,NAN,,NAN,2.13,3.87,,0,75,75,75,1,76,Alex,Acc,Participant_Images/66dc48cea9a85fe230c06b5f/66dc48cea9a85fe230c06b5f_Images/66dc48cea9a85fe230c06b5f_Image_12.jpeg,liked,4.456234322,,,,,,,,,,,,,,,,,,,,,,
,,66dc48cea9a85fe230c06b5f,6685aa9113c938e83b4f1ea0,67153dcb8dd6fca1aa159427,2024-10-20_10h36.38.873,WTP_SM_Choice,2022.2.1,Win32,59.88023952,,,,,space,0.6566,NAN,,NAN,2.13,3.87,,0,76,76,76,1,77,Alex,Acc,Participant_Images/66dc48cea9a85fe230c06b5f/66dc48cea9a85fe230c06b5f_Images/66dc48cea9a85fe230c06b5f_Image_6.jpeg,did not like,4.438512181,,,,,,,,,,,,,,,,,,,,,,
,,66dc48cea9a85fe230c06b5f,6685aa9113c938e83b4f1ea0,67153dcb8dd6fca1aa159427,2024-10-20_10h36.38.873,WTP_SM_Choice,2022.2.1,Win32,59.88023952,,,,,space,0.725,NAN,,NAN,2.13,3.87,,0,77,77,77,1,78,Alex,Acc,Participant_Images/66dc48cea9a85fe230c06b5f/66dc48cea9a85fe230c06b5f_Images/66dc48cea9a85fe230c06b5f_Image_2.jpeg,liked,2.682944783,,,,,,,,,,,,,,,,,,,,,,
,,66dc48cea9a85fe230c06b5f,6685aa9113c938e83b4f1ea0,67153dcb8dd6fca1aa159427,2024-10-20_10h36.38.873,WTP_SM_Choice,2022.2.1,Win32,59.88023952,,,,,space,0.7528,NAN,,NAN,2.13,3.87,,0,78,78,78,1,79,Alex,Acc,Participant_Images/66dc48cea9a85fe230c06b5f/66dc48cea9a85fe230c06b5f_Images/66dc48cea9a85fe230c06b5f_Image_25.jpeg,liked,4.51984296,,,,,,,,,,,,,,,,,,,,,,
,,66dc48cea9a85fe230c06b5f,6685aa9113c938e83b4f1ea0,67153dcb8dd6fca1aa159427,2024-10-20_10h36.38.873,WTP_SM_Choice,2022.2.1,Win32,59.88023952,,,,,,,,,,,,,,,,,,76,,,,,,space,0.658,space,0.8358,0.01,1,2.5104,0,0,0,0,1,Watch a cooking show on social media,Go for a picnic with my family,0.01,0.01,1.1,1,,,,
,,66dc48cea9a85fe230c06b5f,6685aa9113c938e83b4f1ea0,67153dcb8dd6fca1aa159427,2024-10-20_10h36.38.873,WTP_SM_Choice,2022.2.1,Win32,59.88023952,,,,,,,,,,,,,,,,,,77,,,,,,,,,,0.02,1,2.475,0,1,1,1,1,Clean the living room,Go sight seeing with my friends,0.02,0.01,8.8,1,,,,
,,66dc48cea9a85fe230c06b5f,6685aa9113c938e83b4f1ea0,67153dcb8dd6fca1aa159427,2024-10-20_10h36.38.873,WTP_SM_Choice,2022.2.1,Win32,59.88023952,,,,,,,,,,,,,,,,,,78,,,,,,,,,,0.01,2,4.443,0,2,2,2,1,Laugh with my partner,Read Tony Robins book on sales and marketing,0.03,0.01,1.1,0,,,,
,,66dc48cea9a85fe230c06b5f,6685aa9113c938e83b4f1ea0,67153dcb8dd6fca1aa159427,2024-10-20_10h36.38.873,WTP_SM_Choice,2022.2.1,Win32,59.88023952,,,,,,,,,,,,,,,,,,79,,,,,,,,,,0.04,1,1.8731,0,3,3,3,1,Browse apparel shops online,Go to see a movie with friends,0.04,0.01,1.1,1,,,,
,,66dc48cea9a85fe230c06b5f,6685aa9113c938e83b4f1ea0,67153dcb8dd6fca1aa159427,2024-10-20_10h36.38.873,WTP_SM_Choice,2022.2.1,Win32,59.88023952,,,,,,,,,,,,,,,,,,80,,,,,,,,,,0.05,1,6.8061,0,4,4,4,1,Read Tony Robins book on sales and marketing,Watch movies with my partner,0.05,0.01,4.4,1,,,,
,,66dc48cea9a85fe230c06b5f,6685aa9113c938e83b4f1ea0,67153dcb8dd6fca1aa159427,2024-10-20_10h36.38.873,WTP_SM_Choice,2022.2.1,Win32,59.88023952,,,,,,,NAN,,NAN,2.26,3.74,,0,79,79,79,1,80,Alex,Acc,Participant_Images/66dc48cea9a85fe230c06b5f/66dc48cea9a85fe230c06b5f_Images/66dc48cea9a85fe230c06b5f_Image_8.jpeg,liked,3.195382774,,,,,,,,,,,,,,,,,,,,,,
,,66dc48cea9a85fe230c06b5f,6685aa9113c938e83b4f1ea0,67153dcb8dd6fca1aa159427,2024-10-20_10h36.38.873,WTP_SM_Choice,2022.2.1,Win32,59.88023952,,,,,space,1.2954,NAN,,NAN,2.26,3.74,,0,80,80,80,1,81,Alex,Acc,Participant_Images/66dc48cea9a85fe230c06b5f/66dc48cea9a85fe230c06b5f_Images/66dc48cea9a85fe230c06b5f_Image_18.jpeg,did not like,1.779333479,,,,,,,,,,,,,,,,,,,,,,
,,66dc48cea9a85fe230c06b5f,6685aa9113c938e83b4f1ea0,67153dcb8dd6fca1aa159427,2024-10-20_10h36.38.873,WTP_SM_Choice,2022.2.1,Win32,59.88023952,,,,,space,1.2137,NAN,,NAN,2.26,3.74,,0,81,81,81,1,82,Alex,Acc,Participant_Images/66dc48cea9a85fe230c06b5f/66dc48cea9a85fe230c06b5f_Images/66dc48cea9a85fe230c06b5f_Image_19.jpeg,liked,4.312468682,,,,,,,,,,,,,,,,,,,,,,
,,66dc48cea9a85fe230c06b5f,6685aa9113c938e83b4f1ea0,67153dcb8dd6fca1aa159427,2024-10-20_10h36.38.873,WTP_SM_Choice,2022.2.1,Win32,59.88023952,,,,,space,0.8568,NAN,,NAN,2.26,3.74,,0,82,82,82,1,83,Alex,Acc,Participant_Images/66dc48cea9a85fe230c06b5f/66dc48cea9a85fe230c06b5f_Images/66dc48cea9a85fe230c06b5f_Image_13.jpeg,liked,4.940433059,,,,,,,,,,,,,,,,,,,,,,
,,66dc48cea9a85fe230c06b5f,6685aa9113c938e83b4f1ea0,67153dcb8dd6fca1aa159427,2024-10-20_10h36.38.873,WTP_SM_Choice,2022.2.1,Win32,59.88023952,,,,,space,0.8035,NAN,,NAN,2.26,3.74,,0,83,83,83,1,84,Alex,Acc,Participant_Images/66dc48cea9a85fe230c06b5f/66dc48cea9a85fe230c06b5f_Images/66dc48cea9a85fe230c06b5f_Image_9.jpeg,liked,2.7105123,,,,,,,,,,,,,,,,,,,,,,
,,66dc48cea9a85fe230c06b5f,6685aa9113c938e83b4f1ea0,67153dcb8dd6fca1aa159427,2024-10-20_10h36.38.873,WTP_SM_Choice,2022.2.1,Win32,59.88023952,,,,,,,,,,,,,,,,,,81,,,,,,space,1.1712,space,0.6168,0.02,2,2.0261,0,0,0,0,1,have a drink at the bar with friends,Listen to music on the bed,0.01,0.02,3.3,0,,,,
,,66dc48cea9a85fe230c06b5f,6685aa9113c938e83b4f1ea0,67153dcb8dd6fca1aa159427,2024-10-20_10h36.38.873,WTP_SM_Choice,2022.2.1,Win32,59.88023952,,,,,,,,,,,,,,,,,,82,,,,,,,,,,0.02,1,2.1806,0,1,1,1,1,Read a novel on my bed,Laugh with my partner,0.02,0.02,4.4,1,,,,
,,66dc48cea9a85fe230c06b5f,6685aa9113c938e83b4f1ea0,67153dcb8dd6fca1aa159427,2024-10-20_10h36.38.873,WTP_SM_Choice,2022.2.1,Win32,59.88023952,,,,,,,,,,,,,,,,,,83,,,,,,,,,,0.02,2,5.0054,0,2,2,2,1,have a drink at the bar with friends,Read a novel on my bed,0.03,0.02,1.1,0,,,,
,,66dc48cea9a85fe230c06b5f,6685aa9113c938e83b4f1ea0,67153dcb8dd6fca1aa159427,2024-10-20_10h36.38.873,WTP_SM_Choice,2022.2.1,Win32,59.88023952,,,,,,,,,,,,,,,,,,84,,,,,,,,,,0.02,2,0.8069,0,3,3,3,1,Play with my kids,Read a novel on my bed,0.04,0.02,3.3,0,,,,
,,66dc48cea9a85fe230c06b5f,6685aa9113c938e83b4f1ea0,67153dcb8dd6fca1aa159427,2024-10-20_10h36.38.873,WTP_SM_Choice,2022.2.1,Win32,59.88023952,,,,,,,,,,,,,,,,,,85,,,,,,,,,,0.05,1,3.0997,0,4,4,4,1,Go to see a movie with friends,Listen to music on the bed,0.05,0.02,3.3,0,,,,
,,66dc48cea9a85fe230c06b5f,6685aa9113c938e83b4f1ea0,67153dcb8dd6fca1aa159427,2024-10-20_10h36.38.873,WTP_SM_Choice,2022.2.1,Win32,59.88023952,,,,,,,NAN,,NAN,2.39,3.61,,0,84,84,84,1,85,Alex,Acc,Participant_Images/66dc48cea9a85fe230c06b5f/66dc48cea9a85fe230c06b5f_Images/66dc48cea9a85fe230c06b5f_Image_10.jpeg,did not like,3.602308302,,,,,,,,,,,,,,,,,,,,,,
,,66dc48cea9a85fe230c06b5f,6685aa9113c938e83b4f1ea0,67153dcb8dd6fca1aa159427,2024-10-20_10h36.38.873,WTP_SM_Choice,2022.2.1,Win32,59.88023952,,,,,space,0.9336,NAN,,NAN,2.39,3.61,,0,85,85,85,1,86,Alex,Acc,Participant_Images/66dc48cea9a85fe230c06b5f/66dc48cea9a85fe230c06b5f_Images/66dc48cea9a85fe230c06b5f_Image_20.jpeg,liked,4.106391878,,,,,,,,,,,,,,,,,,,,,,
,,66dc48cea9a85fe230c06b5f,6685aa9113c938e83b4f1ea0,67153dcb8dd6fca1aa159427,2024-10-20_10h36.38.873,WTP_SM_Choice,2022.2.1,Win32,59.88023952,,,,,space,1.1907,NAN,,NAN,2.39,3.61,,0,86,86,86,1,87,Alex,Acc,Participant_Images/66dc48cea9a85fe230c06b5f/66dc48cea9a85fe230c06b5f_Images/66dc48cea9a85fe230c06b5f_Image_17.jpeg,liked,3.799433026,,,,,,,,,,,,,,,,,,,,,,
,,66dc48cea9a85fe230c06b5f,6685aa9113c938e83b4f1ea0,67153dcb8dd6fca1aa159427,2024-10-20_10h36.38.873,WTP_SM_Choice,2022.2.1,Win32,59.88023952,,,,,space,0.7436,NAN,,NAN,2.39,3.61,,0,87,87,87,1,88,Alex,Acc,Participant_Images/66dc48cea9a85fe230c06b5f/66dc48cea9a85fe230c06b5f_Images/66dc48cea9a85fe230c06b5f_Image_14.jpeg,did not like,5.246980764,,,,,,,,,,,,,,,,,,,,,,
,,66dc48cea9a85fe230c06b5f,6685aa9113c938e83b4f1ea0,67153dcb8dd6fca1aa159427,2024-10-20_10h36.38.873,WTP_SM_Choice,2022.2.1,Win32,59.88023952,,,,,space,0.8716,NAN,,NAN,2.39,3.61,,0,88,88,88,1,89,Alex,Acc,Participant_Images/66dc48cea9a85fe230c06b5f/66dc48cea9a85fe230c06b5f_Images/66dc48cea9a85fe230c06b5f_Image_22.jpeg,liked,3.30081769,,,,,,,,,,,,,,,,,,,,,,
,,66dc48cea9a85fe230c06b5f,6685aa9113c938e83b4f1ea0,67153dcb8dd6fca1aa159427,2024-10-20_10h36.38.873,WTP_SM_Choice,2022.2.1,Win32,59.88023952,,,,,,,,,,,,,,,,,,86,,,,,,space,2.766,space,0.7174,0.01,1,0.8302,0,0,0,0,1,Clean the living room,Watch movies with my partner,0.01,0.03,1.1,1,,,,
,,66dc48cea9a85fe230c06b5f,6685aa9113c938e83b4f1ea0,67153dcb8dd6fca1aa159427,2024-10-20_10h36.38.873,WTP_SM_Choice,2022.2.1,Win32,59.88023952,,,,,,,,,,,,,,,,,,87,,,,,,,,,,0.02,1,4.162,0,1,1,1,1,Sleep on the couch,Travel with my family to a new city,0.02,0.03,4.4,1,,,,
,,66dc48cea9a85fe230c06b5f,6685aa9113c938e83b4f1ea0,67153dcb8dd6fca1aa159427,2024-10-20_10h36.38.873,WTP_SM_Choice,2022.2.1,Win32,59.88023952,,,,,,,,,,,,,,,,,,88,,,,,,,,,,0.03,2,2.3821,0,2,2,2,1,Sit in the sofa,Laugh with my partner,0.03,0.03,1.1,1,,,,
,,66dc48cea9a85fe230c06b5f,6685aa9113c938e83b4f1ea0,67153dcb8dd6fca1aa159427,2024-10-20_10h36.38.873,WTP_SM_Choice,2022.2.1,Win32,59.88023952,,,,,,,,,,,,,,,,,,89,,,,,,,,,,0.03,2,2.2822,0,3,3,3,1,Go for a picnic with my family,Sleep on the couch,0.04,0.03,3.3,0,,,,
,,66dc48cea9a85fe230c06b5f,6685aa9113c938e83b4f1ea0,67153dcb8dd6fca1aa159427,2024-10-20_10h36.38.873,WTP_SM_Choice,2022.2.1,Win32,59.88023952,,,,,,,,,,,,,,,,,,90,,,,,,,,,,0.03,2,1.6413,0,4,4,4,1,Listen to music on the bed,Play with my kids,0.05,0.03,8.8,1,,,,
,,66dc48cea9a85fe230c06b5f,6685aa9113c938e83b4f1ea0,67153dcb8dd6fca1aa159427,2024-10-20_10h36.38.873,WTP_SM_Choice,2022.2.1,Win32,59.88023952,,,,,,,NAN,,NAN,2.51,3.49,,0,89,89,89,1,90,Alex,Acc,Participant_Images/66dc48cea9a85fe230c06b5f/66dc48cea9a85fe230c06b5f_Images/66dc48cea9a85fe230c06b5f_Image_1.jpeg,liked,1.661473164,,,,,,,,,,,,,,,,,,,,,,
,,66dc48cea9a85fe230c06b5f,6685aa9113c938e83b4f1ea0,67153dcb8dd6fca1aa159427,2024-10-20_10h36.38.873,WTP_SM_Choice,2022.2.1,Win32,59.88023952,,,,,space,1.451,NAN,,NAN,2.51,3.49,,0,90,90,90,1,91,Alex,Acc,Participant_Images/66dc48cea9a85fe230c06b5f/66dc48cea9a85fe230c06b5f_Images/66dc48cea9a85fe230c06b5f_Image_16.jpeg,liked,3.613205605,,,,,,,,,,,,,,,,,,,,,,
,,66dc48cea9a85fe230c06b5f,6685aa9113c938e83b4f1ea0,67153dcb8dd6fca1aa159427,2024-10-20_10h36.38.873,WTP_SM_Choice,2022.2.1,Win32,59.88023952,,,,,space,0.9641,NAN,,NAN,2.51,3.49,,0,91,91,91,1,92,Alex,Acc,Participant_Images/66dc48cea9a85fe230c06b5f/66dc48cea9a85fe230c06b5f_Images/66dc48cea9a85fe230c06b5f_Image_7.jpeg,liked,4.988446431,,,,,,,,,,,,,,,,,,,,,,
,,66dc48cea9a85fe230c06b5f,6685aa9113c938e83b4f1ea0,67153dcb8dd6fca1aa159427,2024-10-20_10h36.38.873,WTP_SM_Choice,2022.2.1,Win32,59.88023952,,,,,space,0.5782,NAN,,NAN,2.51,3.49,,0,92,92,92,1,93,Alex,Acc,Participant_Images/66dc48cea9a85fe230c06b5f/66dc48cea9a85fe230c06b5f_Images/66dc48cea9a85fe230c06b5f_Image_24.jpeg,liked,3.470791822,,,,,,,,,,,,,,,,,,,,,,
,,66dc48cea9a85fe230c06b5f,6685aa9113c938e83b4f1ea0,67153dcb8dd6fca1aa159427,2024-10-20_10h36.38.873,WTP_SM_Choice,2022.2.1,Win32,59.88023952,,,,,space,1.5623,NAN,,NAN,2.51,3.49,,0,93,93,93,1,94,Alex,Acc,Participant_Images/66dc48cea9a85fe230c06b5f/66dc48cea9a85fe230c06b5f_Images/66dc48cea9a85fe230c06b5f_Image_23.jpeg,did not like,3.820572462,,,,,,,,,,,,,,,,,,,,,,
,,66dc48cea9a85fe230c06b5f,6685aa9113c938e83b4f1ea0,67153dcb8dd6fca1aa159427,2024-10-20_10h36.38.873,WTP_SM_Choice,2022.2.1,Win32,59.88023952,,,,,,,,,,,,,,,,,,91,,,,,,space,4.739,space,0.5816,0.04,2,1.6819,0,0,0,0,1,Go sight seeing with my friends,Sit in the sofa,0.01,0.04,3.3,0,,,,
,,66dc48cea9a85fe230c06b5f,6685aa9113c938e83b4f1ea0,67153dcb8dd6fca1aa159427,2024-10-20_10h36.38.873,WTP_SM_Choice,2022.2.1,Win32,59.88023952,,,,,,,,,,,,,,,,,,92,,,,,,,,,,0.02,1,0.6641,0,1,1,1,1,Clean the living room,Go to see a movie with friends,0.02,0.04,8.8,1,,,,
,,66dc48cea9a85fe230c06b5f,6685aa9113c938e83b4f1ea0,67153dcb8dd6fca1aa159427,2024-10-20_10h36.38.873,WTP_SM_Choice,2022.2.1,Win32,59.88023952,,,,,,,,,,,,,,,,,,93,,,,,,,,,,0.03,1,1.053,0,2,2,2,1,Go sight seeing with my friends,Sniffing my partners outfits because I miss him,0.03,0.04,1.1,0,,,,
,,66dc48cea9a85fe230c06b5f,6685aa9113c938e83b4f1ea0,67153dcb8dd6fca1aa159427,2024-10-20_10h36.38.873,WTP_SM_Choice,2022.2.1,Win32,59.88023952,,,,,,,,,,,,,,,,,,94,,,,,,,,,,0.04,2,2.2408,0,3,3,3,1,Watch a cooking show on social media,Talk to my mother on video call,0.04,0.04,4.4,1,,,,
,,66dc48cea9a85fe230c06b5f,6685aa9113c938e83b4f1ea0,67153dcb8dd6fca1aa159427,2024-10-20_10h36.38.873,WTP_SM_Choice,2022.2.1,Win32,59.88023952,,,,,,,,,,,,,,,,,,95,,,,,,,,,,0.04,2,1.919,0,4,4,4,1,Lay bed in my bedroom deep in my thoughts,Laugh with my partner,0.05,0.04,4.4,1,,,,
,,66dc48cea9a85fe230c06b5f,6685aa9113c938e83b4f1ea0,67153dcb8dd6fca1aa159427,2024-10-20_10h36.38.873,WTP_SM_Choice,2022.2.1,Win32,59.88023952,,,,,,,NAN,,NAN,2.68,3.32,,0,94,94,94,1,95,Alex,Acc,Participant_Images/66dc48cea9a85fe230c06b5f/66dc48cea9a85fe230c06b5f_Images/66dc48cea9a85fe230c06b5f_Image_21.jpeg,liked,2.455989137,,,,,,,,,,,,,,,,,,,,,,
,,66dc48cea9a85fe230c06b5f,6685aa9113c938e83b4f1ea0,67153dcb8dd6fca1aa159427,2024-10-20_10h36.38.873,WTP_SM_Choice,2022.2.1,Win32,59.88023952,,,,,space,5.0577,NAN,,NAN,2.68,3.32,,0,95,95,95,1,96,Alex,Acc,Participant_Images/66dc48cea9a85fe230c06b5f/66dc48cea9a85fe230c06b5f_Images/66dc48cea9a85fe230c06b5f_Image_15.jpeg,liked,3.79605092,,,,,,,,,,,,,,,,,,,,,,
,,66dc48cea9a85fe230c06b5f,6685aa9113c938e83b4f1ea0,67153dcb8dd6fca1aa159427,2024-10-20_10h36.38.873,WTP_SM_Choice,2022.2.1,Win32,59.88023952,,,,,space,0.6727,NAN,,NAN,2.68,3.32,,0,96,96,96,1,97,Alex,Acc,Participant_Images/66dc48cea9a85fe230c06b5f/66dc48cea9a85fe230c06b5f_Images/66dc48cea9a85fe230c06b5f_Image_5.jpeg,did not like,3.562416326,,,,,,,,,,,,,,,,,,,,,,
,,66dc48cea9a85fe230c06b5f,6685aa9113c938e83b4f1ea0,67153dcb8dd6fca1aa159427,2024-10-20_10h36.38.873,WTP_SM_Choice,2022.2.1,Win32,59.88023952,,,,,space,1.2998,NAN,,NAN,2.68,3.32,,0,97,97,97,1,98,Alex,Acc,Participant_Images/66dc48cea9a85fe230c06b5f/66dc48cea9a85fe230c06b5f_Images/66dc48cea9a85fe230c06b5f_Image_3.jpeg,did not like,2.843822497,,,,,,,,,,,,,,,,,,,,,,
,,66dc48cea9a85fe230c06b5f,6685aa9113c938e83b4f1ea0,67153dcb8dd6fca1aa159427,2024-10-20_10h36.38.873,WTP_SM_Choice,2022.2.1,Win32,59.88023952,,,,,space,7.6454,NAN,,NAN,2.68,3.32,,0,98,98,98,1,99,Alex,Acc,Participant_Images/66dc48cea9a85fe230c06b5f/66dc48cea9a85fe230c06b5f_Images/66dc48cea9a85fe230c06b5f_Image_11.jpeg,liked,3.546495948,,,,,,,,,,,,,,,,,,,,,,
,,66dc48cea9a85fe230c06b5f,6685aa9113c938e83b4f1ea0,67153dcb8dd6fca1aa159427,2024-10-20_10h36.38.873,WTP_SM_Choice,2022.2.1,Win32,59.88023952,,,,,,,,,,,,,,,,,,96,,,,,,space,0.6629,space,0.4638,0.05,2,1.7379,0,0,0,0,1,Sniffing my partners outfits because I miss him,Talk to my mother on video call,0.01,0.05,3.3,1,,,,
,,66dc48cea9a85fe230c06b5f,6685aa9113c938e83b4f1ea0,67153dcb8dd6fca1aa159427,2024-10-20_10h36.38.873,WTP_SM_Choice,2022.2.1,Win32,59.88023952,,,,,,,,,,,,,,,,,,97,,,,,,,,,,0.02,1,3.0995,0,1,1,1,1,Go sight seeing with my friends,Sleep on the couch,0.02,0.05,1.1,0,,,,
,,66dc48cea9a85fe230c06b5f,6685aa9113c938e83b4f1ea0,67153dcb8dd6fca1aa159427,2024-10-20_10h36.38.873,WTP_SM_Choice,2022.2.1,Win32,59.88023952,,,,,,,,,,,,,,,,,,98,,,,,,,,,,0.05,2,1.4914,0,2,2,2,1,Go sight seeing with my friends,Listen to music on the bed,0.03,0.05,1.1,0,,,,
,,66dc48cea9a85fe230c06b5f,6685aa9113c938e83b4f1ea0,67153dcb8dd6fca1aa159427,2024-10-20_10h36.38.873,WTP_SM_Choice,2022.2.1,Win32,59.88023952,,,,,,,,,,,,,,,,,,99,,,,,,,,,,0.04,1,1.8826,0,3,3,3,1,Read a novel on my bed,Travel with my family to a new city,0.04,0.05,3.3,1,,,,
,,66dc48cea9a85fe230c06b5f,6685aa9113c938e83b4f1ea0,67153dcb8dd6fca1aa159427,2024-10-20_10h36.38.873,WTP_SM_Choice,2022.2.1,Win32,59.88023952,,,,,,,,,,,,,,,,,,100,,,,,,,,,,0.05,1,1.0213,0,4,4,4,1,Read a novel on my bed,Go on a date with my partner,0.05,0.05,4.4,1,,,,
,,66dc48cea9a85fe230c06b5f,6685aa9113c938e83b4f1ea0,67153dcb8dd6fca1aa159427,2024-10-20_10h36.38.873,WTP_SM_Choice,2022.2.1,Win32,59.88023952,,,,,,,3,,6,2.89,3.11,,0,99,99,99,1,100,Alex,Acc,Participant_Images/66dc48cea9a85fe230c06b5f/66dc48cea9a85fe230c06b5f_Images/66dc48cea9a85fe230c06b5f_Image_4.jpeg,liked,1.672012706,,,,,,,,,,,,,,,,,,,space,2.5756,,
,,66dc48cea9a85fe230c06b5f,6685aa9113c938e83b4f1ea0,67153dcb8dd6fca1aa159427,2024-10-20_10h36.38.873,WTP_SM_Choice,2022.2.1,Win32,59.88023952,,,,,,,,,,,,,,,,,,,,,,,,,,,,,,,,,,,,,,,,,,,,space,5.433
