endwelcomescreen_keys.keys,endwelcomescreen_keys.rt,participant,STUDY_ID,SESSION_ID,date,expName,psychopyVersion,OS,frameRate,endinstructionscreen_keys.keys,endinstructionscreen_keys.rt,endpartnermatch_keys.keys,endpartnermatch_keys.rt,sharenextphoto_key.keys,sharenextphoto_key.rt,salience_rating,key_resp.keys,stress_level,subtract_bonus,TOTAL_TASK_BONUS,stresslevel_keypress.keys,entiretaskloop.thisRepN,entiretaskloop.thisTrialN,entiretaskloop.thisN,entiretaskloop.thisIndex,entiretaskloop.ran,TrialNumber,Partner,Condition,Photos,Feedback,FeedbackWait,WTP_ins_keys1.keys,WTP_ins_keys1.rt,WTP_ins_keys2.keys,WTP_ins_keys2.rt,decision_price,responses.keys,responses.rt,WTPTaskLoop.thisRepN,WTPTaskLoop.thisTrialN,WTPTaskLoop.thisN,WTPTaskLoop.thisIndex,WTPTaskLoop.ran,right,left,leftmoney,rightmoney,WTP_ITI,social_left,Resume_keys.keys,Resume_keys.rt,key_resp.rt,end_screen_keys.keys,end_screen_keys.rt
space,60.3634,66f0a1d13629250f84bc2598,6685aa9113c938e83b4f1ea0,672d0b1ab0dc66c6368a4d23,2024-11-07_13h54.13.270,WTP_SM_Choice,2022.2.1,Win32,11.99040767,,,,,,,,,,,,,,,,,,,,,,,,,,,,,,,,,,,,,,,,,,,,,,
,,66f0a1d13629250f84bc2598,6685aa9113c938e83b4f1ea0,672d0b1ab0dc66c6368a4d23,2024-11-07_13h54.13.270,WTP_SM_Choice,2022.2.1,Win32,11.99040767,space,28.4819,,,,,,,,,,,,,,,,,,,,,,,,,,,,,,,,,,,,,,,,,,,,
,,66f0a1d13629250f84bc2598,6685aa9113c938e83b4f1ea0,672d0b1ab0dc66c6368a4d23,2024-11-07_13h54.13.270,WTP_SM_Choice,2022.2.1,Win32,11.99040767,,,space,2.7571,space,3.9465,NAN,,NAN,0,6,,0,0,0,0,1,1,Charlie,Rej,Participant_Images/66f0a1d13629250f84bc2598/66f0a1d13629250f84bc2598_Images/66f0a1d13629250f84bc2598_Image_2.jpeg,did not like,3.613205605,,,,,,,,,,,,,,,,,,,,,,,
,,66f0a1d13629250f84bc2598,6685aa9113c938e83b4f1ea0,672d0b1ab0dc66c6368a4d23,2024-11-07_13h54.13.270,WTP_SM_Choice,2022.2.1,Win32,11.99040767,,,,,space,0.9799,NAN,,NAN,0,6,,0,1,1,1,1,2,Charlie,Rej,Participant_Images/66f0a1d13629250f84bc2598/66f0a1d13629250f84bc2598_Images/66f0a1d13629250f84bc2598_Image_20.jpeg,did not like,4.988446431,,,,,,,,,,,,,,,,,,,,,,,
,,66f0a1d13629250f84bc2598,6685aa9113c938e83b4f1ea0,672d0b1ab0dc66c6368a4d23,2024-11-07_13h54.13.270,WTP_SM_Choice,2022.2.1,Win32,11.99040767,,,,,space,1.2899,NAN,,NAN,0,6,,0,2,2,2,1,3,Charlie,Rej,Participant_Images/66f0a1d13629250f84bc2598/66f0a1d13629250f84bc2598_Images/66f0a1d13629250f84bc2598_Image_8.jpeg,liked,3.470791822,,,,,,,,,,,,,,,,,,,,,,,
,,66f0a1d13629250f84bc2598,6685aa9113c938e83b4f1ea0,672d0b1ab0dc66c6368a4d23,2024-11-07_13h54.13.270,WTP_SM_Choice,2022.2.1,Win32,11.99040767,,,,,space,0.8339,NAN,,NAN,0,6,,0,3,3,3,1,4,Charlie,Rej,Participant_Images/66f0a1d13629250f84bc2598/66f0a1d13629250f84bc2598_Images/66f0a1d13629250f84bc2598_Image_4.jpeg,liked,3.820572462,,,,,,,,,,,,,,,,,,,,,,,
,,66f0a1d13629250f84bc2598,6685aa9113c938e83b4f1ea0,672d0b1ab0dc66c6368a4d23,2024-11-07_13h54.13.270,WTP_SM_Choice,2022.2.1,Win32,11.99040767,,,,,,,,,,,,,,,,,,1,,,,,,space,31.0459,space,11.8457,0.01,2,4.876,0,0,0,0,1,Talk to my favorite coworker about sports,Put up lights for holidays and watching the joy rise,0.01,0.01,4.4,0,,,,,
,,66f0a1d13629250f84bc2598,6685aa9113c938e83b4f1ea0,672d0b1ab0dc66c6368a4d23,2024-11-07_13h54.13.270,WTP_SM_Choice,2022.2.1,Win32,11.99040767,,,,,,,,,,,,,,,,,,2,,,,,,,,,,0.02,1,8.1379,0,1,1,1,1,Talk to my favorite coworker about sports,Work out in the morning,0.02,0.01,8.8,0,,,,,
,,66f0a1d13629250f84bc2598,6685aa9113c938e83b4f1ea0,672d0b1ab0dc66c6368a4d23,2024-11-07_13h54.13.270,WTP_SM_Choice,2022.2.1,Win32,11.99040767,,,,,,,,,,,,,,,,,,3,,,,,,,,,,0.01,2,8.1752,0,2,2,2,1,Take my friends to new food spots,Play video games on xbox in my room,0.03,0.01,3.3,0,,,,,
,,66f0a1d13629250f84bc2598,6685aa9113c938e83b4f1ea0,672d0b1ab0dc66c6368a4d23,2024-11-07_13h54.13.270,WTP_SM_Choice,2022.2.1,Win32,11.99040767,,,,,,,,,,,,,,,,,,4,,,,,,,,,,0.04,1,4.4494,0,3,3,3,1,Ask questions about controversial topics with friends,Try on new clothes I bought,0.04,0.01,1.1,0,,,,,
,,66f0a1d13629250f84bc2598,6685aa9113c938e83b4f1ea0,672d0b1ab0dc66c6368a4d23,2024-11-07_13h54.13.270,WTP_SM_Choice,2022.2.1,Win32,11.99040767,,,,,,,,,,,,,,,,,,5,,,,,,,,,,0.05,1,5.0268,0,4,4,4,1,Watch Sunday Night football with my family,Make shirts in my studio,0.05,0.01,1.1,0,,,,,
,,66f0a1d13629250f84bc2598,6685aa9113c938e83b4f1ea0,672d0b1ab0dc66c6368a4d23,2024-11-07_13h54.13.270,WTP_SM_Choice,2022.2.1,Win32,11.99040767,,,,,,,NAN,,NAN,0.13,5.87,,0,4,4,4,1,5,Charlie,Rej,Participant_Images/66f0a1d13629250f84bc2598/66f0a1d13629250f84bc2598_Images/66f0a1d13629250f84bc2598_Image_12.jpeg,did not like,2.455989137,,,,,,,,,,,,,,,,,,,,,,,
,,66f0a1d13629250f84bc2598,6685aa9113c938e83b4f1ea0,672d0b1ab0dc66c6368a4d23,2024-11-07_13h54.13.270,WTP_SM_Choice,2022.2.1,Win32,11.99040767,,,,,space,0.9584,NAN,,NAN,0.13,5.87,,0,5,5,5,1,6,Charlie,Rej,Participant_Images/66f0a1d13629250f84bc2598/66f0a1d13629250f84bc2598_Images/66f0a1d13629250f84bc2598_Image_11.jpeg,liked,3.79605092,,,,,,,,,,,,,,,,,,,,,,,
,,66f0a1d13629250f84bc2598,6685aa9113c938e83b4f1ea0,672d0b1ab0dc66c6368a4d23,2024-11-07_13h54.13.270,WTP_SM_Choice,2022.2.1,Win32,11.99040767,,,,,space,0.968,NAN,,NAN,0.13,5.87,,0,6,6,6,1,7,Charlie,Rej,Participant_Images/66f0a1d13629250f84bc2598/66f0a1d13629250f84bc2598_Images/66f0a1d13629250f84bc2598_Image_22.jpeg,did not like,3.562416326,,,,,,,,,,,,,,,,,,,,,,,
,,66f0a1d13629250f84bc2598,6685aa9113c938e83b4f1ea0,672d0b1ab0dc66c6368a4d23,2024-11-07_13h54.13.270,WTP_SM_Choice,2022.2.1,Win32,11.99040767,,,,,space,1.0717,NAN,,NAN,0.13,5.87,,0,7,7,7,1,8,Charlie,Rej,Participant_Images/66f0a1d13629250f84bc2598/66f0a1d13629250f84bc2598_Images/66f0a1d13629250f84bc2598_Image_21.jpeg,did not like,2.843822497,,,,,,,,,,,,,,,,,,,,,,,
,,66f0a1d13629250f84bc2598,6685aa9113c938e83b4f1ea0,672d0b1ab0dc66c6368a4d23,2024-11-07_13h54.13.270,WTP_SM_Choice,2022.2.1,Win32,11.99040767,,,,,space,0.9717,NAN,,NAN,0.13,5.87,,0,8,8,8,1,9,Charlie,Rej,Participant_Images/66f0a1d13629250f84bc2598/66f0a1d13629250f84bc2598_Images/66f0a1d13629250f84bc2598_Image_5.jpeg,liked,3.546495948,,,,,,,,,,,,,,,,,,,,,,,
,,66f0a1d13629250f84bc2598,6685aa9113c938e83b4f1ea0,672d0b1ab0dc66c6368a4d23,2024-11-07_13h54.13.270,WTP_SM_Choice,2022.2.1,Win32,11.99040767,,,,,,,,,,,,,,,,,,6,,,,,,space,13.6476,space,2.6625,0.01,1,3.9954,0,0,0,0,1,Listen to new music,Watch new tv series with my brother,0.01,0.02,3.3,1,,,,,
,,66f0a1d13629250f84bc2598,6685aa9113c938e83b4f1ea0,672d0b1ab0dc66c6368a4d23,2024-11-07_13h54.13.270,WTP_SM_Choice,2022.2.1,Win32,11.99040767,,,,,,,,,,,,,,,,,,7,,,,,,,,,,0.02,2,6.323,0,1,1,1,1,Go to play basketball with my best friend,Run 5 miles every weekend,0.02,0.02,1.1,0,,,,,
,,66f0a1d13629250f84bc2598,6685aa9113c938e83b4f1ea0,672d0b1ab0dc66c6368a4d23,2024-11-07_13h54.13.270,WTP_SM_Choice,2022.2.1,Win32,11.99040767,,,,,,,,,,,,,,,,,,8,,,,,,,,,,0.02,2,2.4837,0,2,2,2,1,Talk to my long distance sister on the phone,Listen to new music,0.03,0.02,1.1,0,,,,,
,,66f0a1d13629250f84bc2598,6685aa9113c938e83b4f1ea0,672d0b1ab0dc66c6368a4d23,2024-11-07_13h54.13.270,WTP_SM_Choice,2022.2.1,Win32,11.99040767,,,,,,,,,,,,,,,,,,9,,,,,,,,,,0.02,2,4.797,0,3,3,3,1,Eat food I have never tried before,Talk to my nephew about school,0.04,0.02,4.4,1,,,,,
,,66f0a1d13629250f84bc2598,6685aa9113c938e83b4f1ea0,672d0b1ab0dc66c6368a4d23,2024-11-07_13h54.13.270,WTP_SM_Choice,2022.2.1,Win32,11.99040767,,,,,,,,,,,,,,,,,,10,,,,,,,,,,0.02,2,4.9069,0,4,4,4,1,Do studies on my computer ,Watch Sunday Night football with my family,0.05,0.02,1.1,1,,,,,
,,66f0a1d13629250f84bc2598,6685aa9113c938e83b4f1ea0,672d0b1ab0dc66c6368a4d23,2024-11-07_13h54.13.270,WTP_SM_Choice,2022.2.1,Win32,11.99040767,,,,,,,NAN,,NAN,0.22,5.78,,0,9,9,9,1,10,Charlie,Rej,Participant_Images/66f0a1d13629250f84bc2598/66f0a1d13629250f84bc2598_Images/66f0a1d13629250f84bc2598_Image_15.jpeg,did not like,1.672012706,,,,,,,,,,,,,,,,,,,,,,,
,,66f0a1d13629250f84bc2598,6685aa9113c938e83b4f1ea0,672d0b1ab0dc66c6368a4d23,2024-11-07_13h54.13.270,WTP_SM_Choice,2022.2.1,Win32,11.99040767,,,,,space,7.0948,NAN,,NAN,0.22,5.78,,0,10,10,10,1,11,Charlie,Rej,Participant_Images/66f0a1d13629250f84bc2598/66f0a1d13629250f84bc2598_Images/66f0a1d13629250f84bc2598_Image_24.jpeg,did not like,4.942172136,,,,,,,,,,,,,,,,,,,,,,,
,,66f0a1d13629250f84bc2598,6685aa9113c938e83b4f1ea0,672d0b1ab0dc66c6368a4d23,2024-11-07_13h54.13.270,WTP_SM_Choice,2022.2.1,Win32,11.99040767,,,,,space,2.0321,NAN,,NAN,0.22,5.78,,0,11,11,11,1,12,Charlie,Rej,Participant_Images/66f0a1d13629250f84bc2598/66f0a1d13629250f84bc2598_Images/66f0a1d13629250f84bc2598_Image_9.jpeg,did not like,2.50187214,,,,,,,,,,,,,,,,,,,,,,,
,,66f0a1d13629250f84bc2598,6685aa9113c938e83b4f1ea0,672d0b1ab0dc66c6368a4d23,2024-11-07_13h54.13.270,WTP_SM_Choice,2022.2.1,Win32,11.99040767,,,,,space,1.3847,NAN,,NAN,0.22,5.78,,0,12,12,12,1,13,Charlie,Rej,Participant_Images/66f0a1d13629250f84bc2598/66f0a1d13629250f84bc2598_Images/66f0a1d13629250f84bc2598_Image_13.jpeg,did not like,2.071164779,,,,,,,,,,,,,,,,,,,,,,,
,,66f0a1d13629250f84bc2598,6685aa9113c938e83b4f1ea0,672d0b1ab0dc66c6368a4d23,2024-11-07_13h54.13.270,WTP_SM_Choice,2022.2.1,Win32,11.99040767,,,,,space,1.082,NAN,,NAN,0.22,5.78,,0,13,13,13,1,14,Charlie,Rej,Participant_Images/66f0a1d13629250f84bc2598/66f0a1d13629250f84bc2598_Images/66f0a1d13629250f84bc2598_Image_7.jpeg,did not like,5.336503566,,,,,,,,,,,,,,,,,,,,,,,
,,66f0a1d13629250f84bc2598,6685aa9113c938e83b4f1ea0,672d0b1ab0dc66c6368a4d23,2024-11-07_13h54.13.270,WTP_SM_Choice,2022.2.1,Win32,11.99040767,,,,,,,,,,,,,,,,,,11,,,,,,space,3.5953,space,3.8811,0.03,2,7.9052,0,0,0,0,1,Do studies on my computer ,Go to outlet stores with my mother,0.01,0.03,3.3,1,,,,,
,,66f0a1d13629250f84bc2598,6685aa9113c938e83b4f1ea0,672d0b1ab0dc66c6368a4d23,2024-11-07_13h54.13.270,WTP_SM_Choice,2022.2.1,Win32,11.99040767,,,,,,,,,,,,,,,,,,12,,,,,,,,,,0.02,1,2.696,0,1,1,1,1,Watch greys anatomy while eating popcorn,Watch new tv series with my brother,0.02,0.03,4.4,1,,,,,
,,66f0a1d13629250f84bc2598,6685aa9113c938e83b4f1ea0,672d0b1ab0dc66c6368a4d23,2024-11-07_13h54.13.270,WTP_SM_Choice,2022.2.1,Win32,11.99040767,,,,,,,,,,,,,,,,,,13,,,,,,,,,,0.03,1,2.0612,0,2,2,2,1,Listen to new music,Bet on parlays for football with one of my brothers,0.03,0.03,1.1,1,,,,,
,,66f0a1d13629250f84bc2598,6685aa9113c938e83b4f1ea0,672d0b1ab0dc66c6368a4d23,2024-11-07_13h54.13.270,WTP_SM_Choice,2022.2.1,Win32,11.99040767,,,,,,,,,,,,,,,,,,14,,,,,,,,,,0.03,2,3.3221,0,3,3,3,1,Put up lights for holidays and watching the joy rise,Go to play basketball with my best friend,0.04,0.03,3.3,1,,,,,
,,66f0a1d13629250f84bc2598,6685aa9113c938e83b4f1ea0,672d0b1ab0dc66c6368a4d23,2024-11-07_13h54.13.270,WTP_SM_Choice,2022.2.1,Win32,11.99040767,,,,,,,,,,,,,,,,,,15,,,,,,,,,,0.05,1,1.94,0,4,4,4,1,Play video games on xbox in my room,Go to play basketball with my best friend,0.05,0.03,4.4,1,,,,,
,,66f0a1d13629250f84bc2598,6685aa9113c938e83b4f1ea0,672d0b1ab0dc66c6368a4d23,2024-11-07_13h54.13.270,WTP_SM_Choice,2022.2.1,Win32,11.99040767,,,,,,,NAN,,NAN,0.38,5.62,,0,14,14,14,1,15,Charlie,Rej,Participant_Images/66f0a1d13629250f84bc2598/66f0a1d13629250f84bc2598_Images/66f0a1d13629250f84bc2598_Image_1.jpeg,did not like,2.642157193,,,,,,,,,,,,,,,,,,,,,,,
,,66f0a1d13629250f84bc2598,6685aa9113c938e83b4f1ea0,672d0b1ab0dc66c6368a4d23,2024-11-07_13h54.13.270,WTP_SM_Choice,2022.2.1,Win32,11.99040767,,,,,space,1.2801,NAN,,NAN,0.38,5.62,,0,15,15,15,1,16,Charlie,Rej,Participant_Images/66f0a1d13629250f84bc2598/66f0a1d13629250f84bc2598_Images/66f0a1d13629250f84bc2598_Image_18.jpeg,did not like,4.456234322,,,,,,,,,,,,,,,,,,,,,,,
,,66f0a1d13629250f84bc2598,6685aa9113c938e83b4f1ea0,672d0b1ab0dc66c6368a4d23,2024-11-07_13h54.13.270,WTP_SM_Choice,2022.2.1,Win32,11.99040767,,,,,space,0.4373,NAN,,NAN,0.38,5.62,,0,16,16,16,1,17,Charlie,Rej,Participant_Images/66f0a1d13629250f84bc2598/66f0a1d13629250f84bc2598_Images/66f0a1d13629250f84bc2598_Image_10.jpeg,did not like,4.438512181,,,,,,,,,,,,,,,,,,,,,,,
,,66f0a1d13629250f84bc2598,6685aa9113c938e83b4f1ea0,672d0b1ab0dc66c6368a4d23,2024-11-07_13h54.13.270,WTP_SM_Choice,2022.2.1,Win32,11.99040767,,,,,space,0.8588,NAN,,NAN,0.38,5.62,,0,17,17,17,1,18,Charlie,Rej,Participant_Images/66f0a1d13629250f84bc2598/66f0a1d13629250f84bc2598_Images/66f0a1d13629250f84bc2598_Image_19.jpeg,liked,2.682944783,,,,,,,,,,,,,,,,,,,,,,,
,,66f0a1d13629250f84bc2598,6685aa9113c938e83b4f1ea0,672d0b1ab0dc66c6368a4d23,2024-11-07_13h54.13.270,WTP_SM_Choice,2022.2.1,Win32,11.99040767,,,,,space,0.5352,NAN,,NAN,0.38,5.62,,0,18,18,18,1,19,Charlie,Rej,Participant_Images/66f0a1d13629250f84bc2598/66f0a1d13629250f84bc2598_Images/66f0a1d13629250f84bc2598_Image_25.jpeg,did not like,4.51984296,,,,,,,,,,,,,,,,,,,,,,,
,,66f0a1d13629250f84bc2598,6685aa9113c938e83b4f1ea0,672d0b1ab0dc66c6368a4d23,2024-11-07_13h54.13.270,WTP_SM_Choice,2022.2.1,Win32,11.99040767,,,,,,,,,,,,,,,,,,16,,,,,,space,4.6388,space,2.7064,0.01,1,3.6858,0,0,0,0,1,Talk to my nephew about school,Watch greys anatomy while eating popcorn,0.01,0.04,1.1,0,,,,,
,,66f0a1d13629250f84bc2598,6685aa9113c938e83b4f1ea0,672d0b1ab0dc66c6368a4d23,2024-11-07_13h54.13.270,WTP_SM_Choice,2022.2.1,Win32,11.99040767,,,,,,,,,,,,,,,,,,17,,,,,,,,,,0.02,1,2.0455,0,1,1,1,1,Put up lights for holidays and watching the joy rise,Go to outlet stores with my mother,0.02,0.04,8.8,1,,,,,
,,66f0a1d13629250f84bc2598,6685aa9113c938e83b4f1ea0,672d0b1ab0dc66c6368a4d23,2024-11-07_13h54.13.270,WTP_SM_Choice,2022.2.1,Win32,11.99040767,,,,,,,,,,,,,,,,,,18,,,,,,,,,,0.04,2,3.0513,0,2,2,2,1,Work out in the morning,Take my friends to new food spots,0.03,0.04,3.3,1,,,,,
,,66f0a1d13629250f84bc2598,6685aa9113c938e83b4f1ea0,672d0b1ab0dc66c6368a4d23,2024-11-07_13h54.13.270,WTP_SM_Choice,2022.2.1,Win32,11.99040767,,,,,,,,,,,,,,,,,,19,,,,,,,,,,0.04,1,2.2751,0,3,3,3,1,Talk to my long distance sister on the phone,Run 5 miles every weekend,0.04,0.04,3.3,0,,,,,
,,66f0a1d13629250f84bc2598,6685aa9113c938e83b4f1ea0,672d0b1ab0dc66c6368a4d23,2024-11-07_13h54.13.270,WTP_SM_Choice,2022.2.1,Win32,11.99040767,,,,,,,,,,,,,,,,,,20,,,,,,,,,,0.04,2,2.7013,0,4,4,4,1,Bet on parlays for football with one of my brothers,Watch greys anatomy while eating popcorn,0.05,0.04,1.1,0,,,,,
,,66f0a1d13629250f84bc2598,6685aa9113c938e83b4f1ea0,672d0b1ab0dc66c6368a4d23,2024-11-07_13h54.13.270,WTP_SM_Choice,2022.2.1,Win32,11.99040767,,,,,,,NAN,,NAN,0.53,5.47,,0,19,19,19,1,20,Charlie,Rej,Participant_Images/66f0a1d13629250f84bc2598/66f0a1d13629250f84bc2598_Images/66f0a1d13629250f84bc2598_Image_6.jpeg,did not like,3.195382774,,,,,,,,,,,,,,,,,,,,,,,
,,66f0a1d13629250f84bc2598,6685aa9113c938e83b4f1ea0,672d0b1ab0dc66c6368a4d23,2024-11-07_13h54.13.270,WTP_SM_Choice,2022.2.1,Win32,11.99040767,,,,,space,6.4033,NAN,,NAN,0.53,5.47,,0,20,20,20,1,21,Charlie,Rej,Participant_Images/66f0a1d13629250f84bc2598/66f0a1d13629250f84bc2598_Images/66f0a1d13629250f84bc2598_Image_3.jpeg,did not like,1.779333479,,,,,,,,,,,,,,,,,,,,,,,
,,66f0a1d13629250f84bc2598,6685aa9113c938e83b4f1ea0,672d0b1ab0dc66c6368a4d23,2024-11-07_13h54.13.270,WTP_SM_Choice,2022.2.1,Win32,11.99040767,,,,,space,0.4378,NAN,,NAN,0.53,5.47,,0,21,21,21,1,22,Charlie,Rej,Participant_Images/66f0a1d13629250f84bc2598/66f0a1d13629250f84bc2598_Images/66f0a1d13629250f84bc2598_Image_23.jpeg,liked,4.312468682,,,,,,,,,,,,,,,,,,,,,,,
,,66f0a1d13629250f84bc2598,6685aa9113c938e83b4f1ea0,672d0b1ab0dc66c6368a4d23,2024-11-07_13h54.13.270,WTP_SM_Choice,2022.2.1,Win32,11.99040767,,,,,space,0.8869,NAN,,NAN,0.53,5.47,,0,22,22,22,1,23,Charlie,Rej,Participant_Images/66f0a1d13629250f84bc2598/66f0a1d13629250f84bc2598_Images/66f0a1d13629250f84bc2598_Image_17.jpeg,liked,4.940433059,,,,,,,,,,,,,,,,,,,,,,,
,,66f0a1d13629250f84bc2598,6685aa9113c938e83b4f1ea0,672d0b1ab0dc66c6368a4d23,2024-11-07_13h54.13.270,WTP_SM_Choice,2022.2.1,Win32,11.99040767,,,,,space,0.661,NAN,,NAN,0.53,5.47,,0,23,23,23,1,24,Charlie,Rej,Participant_Images/66f0a1d13629250f84bc2598/66f0a1d13629250f84bc2598_Images/66f0a1d13629250f84bc2598_Image_14.jpeg,did not like,2.7105123,,,,,,,,,,,,,,,,,,,,,,,
,,66f0a1d13629250f84bc2598,6685aa9113c938e83b4f1ea0,672d0b1ab0dc66c6368a4d23,2024-11-07_13h54.13.270,WTP_SM_Choice,2022.2.1,Win32,11.99040767,,,,,,,,,,,,,,,,,,21,,,,,,space,2.5174,space,0.892,0.01,1,2.999,0,0,0,0,1,Talk to my nephew about school,Make shirts in my studio,0.01,0.05,8.8,0,,,,,
,,66f0a1d13629250f84bc2598,6685aa9113c938e83b4f1ea0,672d0b1ab0dc66c6368a4d23,2024-11-07_13h54.13.270,WTP_SM_Choice,2022.2.1,Win32,11.99040767,,,,,,,,,,,,,,,,,,22,,,,,,,,,,0.02,1,2.412,0,1,1,1,1,Play video games on xbox in my room,Talk to my long distance sister on the phone,0.02,0.05,4.4,1,,,,,
,,66f0a1d13629250f84bc2598,6685aa9113c938e83b4f1ea0,672d0b1ab0dc66c6368a4d23,2024-11-07_13h54.13.270,WTP_SM_Choice,2022.2.1,Win32,11.99040767,,,,,,,,,,,,,,,,,,23,,,,,,,,,,0.05,2,2.8418,0,2,2,2,1,Take my friends to new food spots,Watch greys anatomy while eating popcorn,0.03,0.05,1.1,0,,,,,
,,66f0a1d13629250f84bc2598,6685aa9113c938e83b4f1ea0,672d0b1ab0dc66c6368a4d23,2024-11-07_13h54.13.270,WTP_SM_Choice,2022.2.1,Win32,11.99040767,,,,,,,,,,,,,,,,,,24,,,,,,,,,,0.04,1,2.1447,0,3,3,3,1,Talk to my favorite coworker about sports,Do studies on my computer ,0.04,0.05,4.4,0,,,,,
,,66f0a1d13629250f84bc2598,6685aa9113c938e83b4f1ea0,672d0b1ab0dc66c6368a4d23,2024-11-07_13h54.13.270,WTP_SM_Choice,2022.2.1,Win32,11.99040767,,,,,,,,,,,,,,,,,,25,,,,,,,,,,0.05,2,1.5008,0,4,4,4,1,Work out in the morning,Talk to my long distance sister on the phone,0.05,0.05,3.3,1,,,,,
,,66f0a1d13629250f84bc2598,6685aa9113c938e83b4f1ea0,672d0b1ab0dc66c6368a4d23,2024-11-07_13h54.13.270,WTP_SM_Choice,2022.2.1,Win32,11.99040767,,,,,,,1,space,5,0.7,5.3,,0,24,24,24,1,25,Charlie,Rej,Participant_Images/66f0a1d13629250f84bc2598/66f0a1d13629250f84bc2598_Images/66f0a1d13629250f84bc2598_Image_16.jpeg,did not like,3.602308302,,,,,,,,,,,,,,,,,,,space,1.3043,13.8601,,
,,66f0a1d13629250f84bc2598,6685aa9113c938e83b4f1ea0,672d0b1ab0dc66c6368a4d23,2024-11-07_13h54.13.270,WTP_SM_Choice,2022.2.1,Win32,11.99040767,,,space,2.8835,space,1.3768,NAN,,NAN,0.7,5.3,,0,25,25,25,1,26,Sam,Rej,Participant_Images/66f0a1d13629250f84bc2598/66f0a1d13629250f84bc2598_Images/66f0a1d13629250f84bc2598_Image_16.jpeg,did not like,4.106391878,,,,,,,,,,,,,,,,,,,,,,,
,,66f0a1d13629250f84bc2598,6685aa9113c938e83b4f1ea0,672d0b1ab0dc66c6368a4d23,2024-11-07_13h54.13.270,WTP_SM_Choice,2022.2.1,Win32,11.99040767,,,,,space,0.8627,NAN,,NAN,0.7,5.3,,0,26,26,26,1,27,Sam,Rej,Participant_Images/66f0a1d13629250f84bc2598/66f0a1d13629250f84bc2598_Images/66f0a1d13629250f84bc2598_Image_22.jpeg,did not like,3.799433026,,,,,,,,,,,,,,,,,,,,,,,
,,66f0a1d13629250f84bc2598,6685aa9113c938e83b4f1ea0,672d0b1ab0dc66c6368a4d23,2024-11-07_13h54.13.270,WTP_SM_Choice,2022.2.1,Win32,11.99040767,,,,,space,0.855,NAN,,NAN,0.7,5.3,,0,27,27,27,1,28,Sam,Rej,Participant_Images/66f0a1d13629250f84bc2598/66f0a1d13629250f84bc2598_Images/66f0a1d13629250f84bc2598_Image_17.jpeg,liked,5.246980764,,,,,,,,,,,,,,,,,,,,,,,
,,66f0a1d13629250f84bc2598,6685aa9113c938e83b4f1ea0,672d0b1ab0dc66c6368a4d23,2024-11-07_13h54.13.270,WTP_SM_Choice,2022.2.1,Win32,11.99040767,,,,,space,1.7067,NAN,,NAN,0.7,5.3,,0,28,28,28,1,29,Sam,Rej,Participant_Images/66f0a1d13629250f84bc2598/66f0a1d13629250f84bc2598_Images/66f0a1d13629250f84bc2598_Image_18.jpeg,did not like,3.30081769,,,,,,,,,,,,,,,,,,,,,,,
,,66f0a1d13629250f84bc2598,6685aa9113c938e83b4f1ea0,672d0b1ab0dc66c6368a4d23,2024-11-07_13h54.13.270,WTP_SM_Choice,2022.2.1,Win32,11.99040767,,,,,,,,,,,,,,,,,,26,,,,,,space,1.2889,space,0.8742,0.01,1,0.9708,0,0,0,0,1,Watch new tv series with my brother,Make shirts in my studio,0.01,0.01,4.4,0,,,,,
,,66f0a1d13629250f84bc2598,6685aa9113c938e83b4f1ea0,672d0b1ab0dc66c6368a4d23,2024-11-07_13h54.13.270,WTP_SM_Choice,2022.2.1,Win32,11.99040767,,,,,,,,,,,,,,,,,,27,,,,,,,,,,0.01,2,0.768,0,1,1,1,1,Try on new clothes I bought,Take my friends to new food spots,0.02,0.01,3.3,1,,,,,
,,66f0a1d13629250f84bc2598,6685aa9113c938e83b4f1ea0,672d0b1ab0dc66c6368a4d23,2024-11-07_13h54.13.270,WTP_SM_Choice,2022.2.1,Win32,11.99040767,,,,,,,,,,,,,,,,,,28,,,,,,,,,,0.03,1,0.6653,0,2,2,2,1,Play video games on xbox in my room,Bet on parlays for football with one of my brothers,0.03,0.01,3.3,1,,,,,
,,66f0a1d13629250f84bc2598,6685aa9113c938e83b4f1ea0,672d0b1ab0dc66c6368a4d23,2024-11-07_13h54.13.270,WTP_SM_Choice,2022.2.1,Win32,11.99040767,,,,,,,,,,,,,,,,,,29,,,,,,,,,,0.01,2,0.8733,0,3,3,3,1,Work out in the morning,Bet on parlays for football with one of my brothers,0.04,0.01,4.4,1,,,,,
,,66f0a1d13629250f84bc2598,6685aa9113c938e83b4f1ea0,672d0b1ab0dc66c6368a4d23,2024-11-07_13h54.13.270,WTP_SM_Choice,2022.2.1,Win32,11.99040767,,,,,,,,,,,,,,,,,,30,,,,,,,,,,0.05,1,0.6617,0,4,4,4,1,Listen to new music,Go to outlet stores with my mother,0.05,0.01,8.8,1,,,,,
,,66f0a1d13629250f84bc2598,6685aa9113c938e83b4f1ea0,672d0b1ab0dc66c6368a4d23,2024-11-07_13h54.13.270,WTP_SM_Choice,2022.2.1,Win32,11.99040767,,,,,,,NAN,,NAN,0.81,5.19,,0,29,29,29,1,30,Sam,Rej,Participant_Images/66f0a1d13629250f84bc2598/66f0a1d13629250f84bc2598_Images/66f0a1d13629250f84bc2598_Image_14.jpeg,did not like,1.661473164,,,,,,,,,,,,,,,,,,,,,,,
,,66f0a1d13629250f84bc2598,6685aa9113c938e83b4f1ea0,672d0b1ab0dc66c6368a4d23,2024-11-07_13h54.13.270,WTP_SM_Choice,2022.2.1,Win32,11.99040767,,,,,space,0.3289,NAN,,NAN,0.81,5.19,,0,30,30,30,1,31,Sam,Rej,Participant_Images/66f0a1d13629250f84bc2598/66f0a1d13629250f84bc2598_Images/66f0a1d13629250f84bc2598_Image_2.jpeg,did not like,3.613205605,,,,,,,,,,,,,,,,,,,,,,,
,,66f0a1d13629250f84bc2598,6685aa9113c938e83b4f1ea0,672d0b1ab0dc66c6368a4d23,2024-11-07_13h54.13.270,WTP_SM_Choice,2022.2.1,Win32,11.99040767,,,,,space,0.4394,NAN,,NAN,0.81,5.19,,0,31,31,31,1,32,Sam,Rej,Participant_Images/66f0a1d13629250f84bc2598/66f0a1d13629250f84bc2598_Images/66f0a1d13629250f84bc2598_Image_20.jpeg,did not like,4.988446431,,,,,,,,,,,,,,,,,,,,,,,
,,66f0a1d13629250f84bc2598,6685aa9113c938e83b4f1ea0,672d0b1ab0dc66c6368a4d23,2024-11-07_13h54.13.270,WTP_SM_Choice,2022.2.1,Win32,11.99040767,,,,,space,0.6265,NAN,,NAN,0.81,5.19,,0,32,32,32,1,33,Sam,Rej,Participant_Images/66f0a1d13629250f84bc2598/66f0a1d13629250f84bc2598_Images/66f0a1d13629250f84bc2598_Image_15.jpeg,did not like,3.470791822,,,,,,,,,,,,,,,,,,,,,,,
,,66f0a1d13629250f84bc2598,6685aa9113c938e83b4f1ea0,672d0b1ab0dc66c6368a4d23,2024-11-07_13h54.13.270,WTP_SM_Choice,2022.2.1,Win32,11.99040767,,,,,space,0.8539,NAN,,NAN,0.81,5.19,,0,33,33,33,1,34,Sam,Rej,Participant_Images/66f0a1d13629250f84bc2598/66f0a1d13629250f84bc2598_Images/66f0a1d13629250f84bc2598_Image_23.jpeg,liked,3.820572462,,,,,,,,,,,,,,,,,,,,,,,
,,66f0a1d13629250f84bc2598,6685aa9113c938e83b4f1ea0,672d0b1ab0dc66c6368a4d23,2024-11-07_13h54.13.270,WTP_SM_Choice,2022.2.1,Win32,11.99040767,,,,,,,,,,,,,,,,,,31,,,,,,space,1.3991,space,0.7073,0.01,1,0.6438,0,0,0,0,1,Talk to my long distance sister on the phone,Try on new clothes I bought,0.01,0.02,8.8,0,,,,,
,,66f0a1d13629250f84bc2598,6685aa9113c938e83b4f1ea0,672d0b1ab0dc66c6368a4d23,2024-11-07_13h54.13.270,WTP_SM_Choice,2022.2.1,Win32,11.99040767,,,,,,,,,,,,,,,,,,32,,,,,,,,,,0.02,2,1.1863,0,1,1,1,1,Put up lights for holidays and watching the joy rise,Talk to my nephew about school,0.02,0.02,1.1,1,,,,,
,,66f0a1d13629250f84bc2598,6685aa9113c938e83b4f1ea0,672d0b1ab0dc66c6368a4d23,2024-11-07_13h54.13.270,WTP_SM_Choice,2022.2.1,Win32,11.99040767,,,,,,,,,,,,,,,,,,33,,,,,,,,,,0.03,1,2.0354,0,2,2,2,1,Make shirts in my studio,Go to play basketball with my best friend,0.03,0.02,4.4,1,,,,,
,,66f0a1d13629250f84bc2598,6685aa9113c938e83b4f1ea0,672d0b1ab0dc66c6368a4d23,2024-11-07_13h54.13.270,WTP_SM_Choice,2022.2.1,Win32,11.99040767,,,,,,,,,,,,,,,,,,34,,,,,,,,,,0.02,2,0.8725,0,3,3,3,1,Talk to my nephew about school,Try on new clothes I bought,0.04,0.02,3.3,0,,,,,
,,66f0a1d13629250f84bc2598,6685aa9113c938e83b4f1ea0,672d0b1ab0dc66c6368a4d23,2024-11-07_13h54.13.270,WTP_SM_Choice,2022.2.1,Win32,11.99040767,,,,,,,,,,,,,,,,,,35,,,,,,,,,,0.02,2,2.2201,0,4,4,4,1,Listen to new music,Talk to my nephew about school,0.05,0.02,1.1,1,,,,,
,,66f0a1d13629250f84bc2598,6685aa9113c938e83b4f1ea0,672d0b1ab0dc66c6368a4d23,2024-11-07_13h54.13.270,WTP_SM_Choice,2022.2.1,Win32,11.99040767,,,,,,,NAN,,NAN,0.91,5.09,,0,34,34,34,1,35,Sam,Rej,Participant_Images/66f0a1d13629250f84bc2598/66f0a1d13629250f84bc2598_Images/66f0a1d13629250f84bc2598_Image_6.jpeg,did not like,2.455989137,,,,,,,,,,,,,,,,,,,,,,,
,,66f0a1d13629250f84bc2598,6685aa9113c938e83b4f1ea0,672d0b1ab0dc66c6368a4d23,2024-11-07_13h54.13.270,WTP_SM_Choice,2022.2.1,Win32,11.99040767,,,,,space,0.5417,NAN,,NAN,0.91,5.09,,0,35,35,35,1,36,Sam,Rej,Participant_Images/66f0a1d13629250f84bc2598/66f0a1d13629250f84bc2598_Images/66f0a1d13629250f84bc2598_Image_3.jpeg,did not like,3.79605092,,,,,,,,,,,,,,,,,,,,,,,
,,66f0a1d13629250f84bc2598,6685aa9113c938e83b4f1ea0,672d0b1ab0dc66c6368a4d23,2024-11-07_13h54.13.270,WTP_SM_Choice,2022.2.1,Win32,11.99040767,,,,,space,1.5805,NAN,,NAN,0.91,5.09,,0,36,36,36,1,37,Sam,Rej,Participant_Images/66f0a1d13629250f84bc2598/66f0a1d13629250f84bc2598_Images/66f0a1d13629250f84bc2598_Image_11.jpeg,did not like,3.562416326,,,,,,,,,,,,,,,,,,,,,,,
,,66f0a1d13629250f84bc2598,6685aa9113c938e83b4f1ea0,672d0b1ab0dc66c6368a4d23,2024-11-07_13h54.13.270,WTP_SM_Choice,2022.2.1,Win32,11.99040767,,,,,space,0.9635,NAN,,NAN,0.91,5.09,,0,37,37,37,1,38,Sam,Rej,Participant_Images/66f0a1d13629250f84bc2598/66f0a1d13629250f84bc2598_Images/66f0a1d13629250f84bc2598_Image_8.jpeg,did not like,2.843822497,,,,,,,,,,,,,,,,,,,,,,,
,,66f0a1d13629250f84bc2598,6685aa9113c938e83b4f1ea0,672d0b1ab0dc66c6368a4d23,2024-11-07_13h54.13.270,WTP_SM_Choice,2022.2.1,Win32,11.99040767,,,,,space,0.9684,NAN,,NAN,0.91,5.09,,0,38,38,38,1,39,Sam,Rej,Participant_Images/66f0a1d13629250f84bc2598/66f0a1d13629250f84bc2598_Images/66f0a1d13629250f84bc2598_Image_24.jpeg,liked,3.546495948,,,,,,,,,,,,,,,,,,,,,,,
,,66f0a1d13629250f84bc2598,6685aa9113c938e83b4f1ea0,672d0b1ab0dc66c6368a4d23,2024-11-07_13h54.13.270,WTP_SM_Choice,2022.2.1,Win32,11.99040767,,,,,,,,,,,,,,,,,,36,,,,,,space,1.0567,space,1.8777,0.01,1,2.4675,0,0,0,0,1,Bet on parlays for football with one of my brothers,Make shirts in my studio,0.01,0.03,3.3,0,,,,,
,,66f0a1d13629250f84bc2598,6685aa9113c938e83b4f1ea0,672d0b1ab0dc66c6368a4d23,2024-11-07_13h54.13.270,WTP_SM_Choice,2022.2.1,Win32,11.99040767,,,,,,,,,,,,,,,,,,37,,,,,,,,,,0.03,2,0.9785,0,1,1,1,1,Make shirts in my studio,Ask questions about controversial topics with friends,0.02,0.03,1.1,1,,,,,
,,66f0a1d13629250f84bc2598,6685aa9113c938e83b4f1ea0,672d0b1ab0dc66c6368a4d23,2024-11-07_13h54.13.270,WTP_SM_Choice,2022.2.1,Win32,11.99040767,,,,,,,,,,,,,,,,,,38,,,,,,,,,,0.03,2,1.6161,0,2,2,2,1,Run 5 miles every weekend,Talk to my favorite coworker about sports,0.03,0.03,1.1,1,,,,,
,,66f0a1d13629250f84bc2598,6685aa9113c938e83b4f1ea0,672d0b1ab0dc66c6368a4d23,2024-11-07_13h54.13.270,WTP_SM_Choice,2022.2.1,Win32,11.99040767,,,,,,,,,,,,,,,,,,39,,,,,,,,,,0.03,2,1.9325,0,3,3,3,1,Do studies on my computer ,Bet on parlays for football with one of my brothers,0.04,0.03,3.3,1,,,,,
,,66f0a1d13629250f84bc2598,6685aa9113c938e83b4f1ea0,672d0b1ab0dc66c6368a4d23,2024-11-07_13h54.13.270,WTP_SM_Choice,2022.2.1,Win32,11.99040767,,,,,,,,,,,,,,,,,,40,,,,,,,,,,0.05,1,1.8205,0,4,4,4,1,Run 5 miles every weekend,Go to outlet stores with my mother,0.05,0.03,4.4,1,,,,,
,,66f0a1d13629250f84bc2598,6685aa9113c938e83b4f1ea0,672d0b1ab0dc66c6368a4d23,2024-11-07_13h54.13.270,WTP_SM_Choice,2022.2.1,Win32,11.99040767,,,,,,,NAN,,NAN,1.06,4.94,,0,39,39,39,1,40,Sam,Rej,Participant_Images/66f0a1d13629250f84bc2598/66f0a1d13629250f84bc2598_Images/66f0a1d13629250f84bc2598_Image_4.jpeg,did not like,1.672012706,,,,,,,,,,,,,,,,,,,,,,,
,,66f0a1d13629250f84bc2598,6685aa9113c938e83b4f1ea0,672d0b1ab0dc66c6368a4d23,2024-11-07_13h54.13.270,WTP_SM_Choice,2022.2.1,Win32,11.99040767,,,,,space,1.0613,NAN,,NAN,1.06,4.94,,0,40,40,40,1,41,Sam,Rej,Participant_Images/66f0a1d13629250f84bc2598/66f0a1d13629250f84bc2598_Images/66f0a1d13629250f84bc2598_Image_7.jpeg,liked,4.942172136,,,,,,,,,,,,,,,,,,,,,,,
,,66f0a1d13629250f84bc2598,6685aa9113c938e83b4f1ea0,672d0b1ab0dc66c6368a4d23,2024-11-07_13h54.13.270,WTP_SM_Choice,2022.2.1,Win32,11.99040767,,,,,space,0.6346,NAN,,NAN,1.06,4.94,,0,41,41,41,1,42,Sam,Rej,Participant_Images/66f0a1d13629250f84bc2598/66f0a1d13629250f84bc2598_Images/66f0a1d13629250f84bc2598_Image_21.jpeg,did not like,2.50187214,,,,,,,,,,,,,,,,,,,,,,,
,,66f0a1d13629250f84bc2598,6685aa9113c938e83b4f1ea0,672d0b1ab0dc66c6368a4d23,2024-11-07_13h54.13.270,WTP_SM_Choice,2022.2.1,Win32,11.99040767,,,,,space,0.4299,NAN,,NAN,1.06,4.94,,0,42,42,42,1,43,Sam,Rej,Participant_Images/66f0a1d13629250f84bc2598/66f0a1d13629250f84bc2598_Images/66f0a1d13629250f84bc2598_Image_5.jpeg,did not like,2.071164779,,,,,,,,,,,,,,,,,,,,,,,
,,66f0a1d13629250f84bc2598,6685aa9113c938e83b4f1ea0,672d0b1ab0dc66c6368a4d23,2024-11-07_13h54.13.270,WTP_SM_Choice,2022.2.1,Win32,11.99040767,,,,,space,0.9628,NAN,,NAN,1.06,4.94,,0,43,43,43,1,44,Sam,Rej,Participant_Images/66f0a1d13629250f84bc2598/66f0a1d13629250f84bc2598_Images/66f0a1d13629250f84bc2598_Image_10.jpeg,liked,5.336503566,,,,,,,,,,,,,,,,,,,,,,,
,,66f0a1d13629250f84bc2598,6685aa9113c938e83b4f1ea0,672d0b1ab0dc66c6368a4d23,2024-11-07_13h54.13.270,WTP_SM_Choice,2022.2.1,Win32,11.99040767,,,,,,,,,,,,,,,,,,41,,,,,,space,0.8356,space,0.7914,0.01,1,2.6752,0,0,0,0,1,Try on new clothes I bought,Watch new tv series with my brother,0.01,0.04,1.1,1,,,,,
,,66f0a1d13629250f84bc2598,6685aa9113c938e83b4f1ea0,672d0b1ab0dc66c6368a4d23,2024-11-07_13h54.13.270,WTP_SM_Choice,2022.2.1,Win32,11.99040767,,,,,,,,,,,,,,,,,,42,,,,,,,,,,0.04,2,0.6385,0,1,1,1,1,Eat food I have never tried before,Ask questions about controversial topics with friends,0.02,0.04,3.3,1,,,,,
,,66f0a1d13629250f84bc2598,6685aa9113c938e83b4f1ea0,672d0b1ab0dc66c6368a4d23,2024-11-07_13h54.13.270,WTP_SM_Choice,2022.2.1,Win32,11.99040767,,,,,,,,,,,,,,,,,,43,,,,,,,,,,0.04,2,1.0795,0,2,2,2,1,Bet on parlays for football with one of my brothers,Eat food I have never tried before,0.03,0.04,1.1,0,,,,,
,,66f0a1d13629250f84bc2598,6685aa9113c938e83b4f1ea0,672d0b1ab0dc66c6368a4d23,2024-11-07_13h54.13.270,WTP_SM_Choice,2022.2.1,Win32,11.99040767,,,,,,,,,,,,,,,,,,44,,,,,,,,,,0.04,2,1.9523,0,3,3,3,1,Talk to my favorite coworker about sports,Watch greys anatomy while eating popcorn,0.04,0.04,1.1,0,,,,,
,,66f0a1d13629250f84bc2598,6685aa9113c938e83b4f1ea0,672d0b1ab0dc66c6368a4d23,2024-11-07_13h54.13.270,WTP_SM_Choice,2022.2.1,Win32,11.99040767,,,,,,,,,,,,,,,,,,45,,,,,,,,,,0.04,2,1.814,0,4,4,4,1,Do studies on my computer ,Take my friends to new food spots,0.05,0.04,4.4,1,,,,,
,,66f0a1d13629250f84bc2598,6685aa9113c938e83b4f1ea0,672d0b1ab0dc66c6368a4d23,2024-11-07_13h54.13.270,WTP_SM_Choice,2022.2.1,Win32,11.99040767,,,,,,,NAN,,NAN,1.23,4.77,,0,44,44,44,1,45,Sam,Rej,Participant_Images/66f0a1d13629250f84bc2598/66f0a1d13629250f84bc2598_Images/66f0a1d13629250f84bc2598_Image_12.jpeg,liked,2.642157193,,,,,,,,,,,,,,,,,,,,,,,
,,66f0a1d13629250f84bc2598,6685aa9113c938e83b4f1ea0,672d0b1ab0dc66c6368a4d23,2024-11-07_13h54.13.270,WTP_SM_Choice,2022.2.1,Win32,11.99040767,,,,,space,0.5437,NAN,,NAN,1.23,4.77,,0,45,45,45,1,46,Sam,Rej,Participant_Images/66f0a1d13629250f84bc2598/66f0a1d13629250f84bc2598_Images/66f0a1d13629250f84bc2598_Image_9.jpeg,did not like,4.456234322,,,,,,,,,,,,,,,,,,,,,,,
,,66f0a1d13629250f84bc2598,6685aa9113c938e83b4f1ea0,672d0b1ab0dc66c6368a4d23,2024-11-07_13h54.13.270,WTP_SM_Choice,2022.2.1,Win32,11.99040767,,,,,space,0.6538,NAN,,NAN,1.23,4.77,,0,46,46,46,1,47,Sam,Rej,Participant_Images/66f0a1d13629250f84bc2598/66f0a1d13629250f84bc2598_Images/66f0a1d13629250f84bc2598_Image_1.jpeg,liked,4.438512181,,,,,,,,,,,,,,,,,,,,,,,
,,66f0a1d13629250f84bc2598,6685aa9113c938e83b4f1ea0,672d0b1ab0dc66c6368a4d23,2024-11-07_13h54.13.270,WTP_SM_Choice,2022.2.1,Win32,11.99040767,,,,,space,0.7328,NAN,,NAN,1.23,4.77,,0,47,47,47,1,48,Sam,Rej,Participant_Images/66f0a1d13629250f84bc2598/66f0a1d13629250f84bc2598_Images/66f0a1d13629250f84bc2598_Image_25.jpeg,did not like,2.682944783,,,,,,,,,,,,,,,,,,,,,,,
,,66f0a1d13629250f84bc2598,6685aa9113c938e83b4f1ea0,672d0b1ab0dc66c6368a4d23,2024-11-07_13h54.13.270,WTP_SM_Choice,2022.2.1,Win32,11.99040767,,,,,space,1.078,NAN,,NAN,1.23,4.77,,0,48,48,48,1,49,Sam,Rej,Participant_Images/66f0a1d13629250f84bc2598/66f0a1d13629250f84bc2598_Images/66f0a1d13629250f84bc2598_Image_19.jpeg,did not like,4.51984296,,,,,,,,,,,,,,,,,,,,,,,
,,66f0a1d13629250f84bc2598,6685aa9113c938e83b4f1ea0,672d0b1ab0dc66c6368a4d23,2024-11-07_13h54.13.270,WTP_SM_Choice,2022.2.1,Win32,11.99040767,,,,,,,,,,,,,,,,,,46,,,,,,space,0.696,space,1.8881,0.01,1,3.7586,0,0,0,0,1,Talk to my long distance sister on the phone,Watch greys anatomy while eating popcorn,0.01,0.05,8.8,0,,,,,
,,66f0a1d13629250f84bc2598,6685aa9113c938e83b4f1ea0,672d0b1ab0dc66c6368a4d23,2024-11-07_13h54.13.270,WTP_SM_Choice,2022.2.1,Win32,11.99040767,,,,,,,,,,,,,,,,,,47,,,,,,,,,,0.05,2,2.1723,0,1,1,1,1,Watch Sunday Night football with my family,Play video games on xbox in my room,0.02,0.05,1.1,0,,,,,
,,66f0a1d13629250f84bc2598,6685aa9113c938e83b4f1ea0,672d0b1ab0dc66c6368a4d23,2024-11-07_13h54.13.270,WTP_SM_Choice,2022.2.1,Win32,11.99040767,,,,,,,,,,,,,,,,,,48,,,,,,,,,,0.03,1,1.6077,0,2,2,2,1,Listen to new music,Ask questions about controversial topics with friends,0.03,0.05,4.4,1,,,,,
,,66f0a1d13629250f84bc2598,6685aa9113c938e83b4f1ea0,672d0b1ab0dc66c6368a4d23,2024-11-07_13h54.13.270,WTP_SM_Choice,2022.2.1,Win32,11.99040767,,,,,,,,,,,,,,,,,,49,,,,,,,,,,0.04,1,1.4058,0,3,3,3,1,Watch new tv series with my brother,Do studies on my computer ,0.04,0.05,3.3,0,,,,,
,,66f0a1d13629250f84bc2598,6685aa9113c938e83b4f1ea0,672d0b1ab0dc66c6368a4d23,2024-11-07_13h54.13.270,WTP_SM_Choice,2022.2.1,Win32,11.99040767,,,,,,,,,,,,,,,,,,50,,,,,,,,,,0.05,2,2.2854,0,4,4,4,1,Run 5 miles every weekend,Talk to my nephew about school,0.05,0.05,1.1,1,,,,,
,,66f0a1d13629250f84bc2598,6685aa9113c938e83b4f1ea0,672d0b1ab0dc66c6368a4d23,2024-11-07_13h54.13.270,WTP_SM_Choice,2022.2.1,Win32,11.99040767,,,,,,,3,,9,1.41,4.59,,0,49,49,49,1,50,Sam,Rej,Participant_Images/66f0a1d13629250f84bc2598/66f0a1d13629250f84bc2598_Images/66f0a1d13629250f84bc2598_Image_13.jpeg,did not like,3.195382774,,,,,,,,,,,,,,,,,,,space,1.0772,,,
,,66f0a1d13629250f84bc2598,6685aa9113c938e83b4f1ea0,672d0b1ab0dc66c6368a4d23,2024-11-07_13h54.13.270,WTP_SM_Choice,2022.2.1,Win32,11.99040767,,,space,2.3237,space,0.7557,NAN,,NAN,1.41,4.59,,0,50,50,50,1,51,Riley,Acc,Participant_Images/66f0a1d13629250f84bc2598/66f0a1d13629250f84bc2598_Images/66f0a1d13629250f84bc2598_Image_23.jpeg,liked,1.779333479,,,,,,,,,,,,,,,,,,,,,,,
,,66f0a1d13629250f84bc2598,6685aa9113c938e83b4f1ea0,672d0b1ab0dc66c6368a4d23,2024-11-07_13h54.13.270,WTP_SM_Choice,2022.2.1,Win32,11.99040767,,,,,space,1.4123,NAN,,NAN,1.41,4.59,,0,51,51,51,1,52,Riley,Acc,Participant_Images/66f0a1d13629250f84bc2598/66f0a1d13629250f84bc2598_Images/66f0a1d13629250f84bc2598_Image_16.jpeg,liked,4.312468682,,,,,,,,,,,,,,,,,,,,,,,
,,66f0a1d13629250f84bc2598,6685aa9113c938e83b4f1ea0,672d0b1ab0dc66c6368a4d23,2024-11-07_13h54.13.270,WTP_SM_Choice,2022.2.1,Win32,11.99040767,,,,,space,0.8513,NAN,,NAN,1.41,4.59,,0,52,52,52,1,53,Riley,Acc,Participant_Images/66f0a1d13629250f84bc2598/66f0a1d13629250f84bc2598_Images/66f0a1d13629250f84bc2598_Image_6.jpeg,liked,4.940433059,,,,,,,,,,,,,,,,,,,,,,,
,,66f0a1d13629250f84bc2598,6685aa9113c938e83b4f1ea0,672d0b1ab0dc66c6368a4d23,2024-11-07_13h54.13.270,WTP_SM_Choice,2022.2.1,Win32,11.99040767,,,,,space,0.4443,NAN,,NAN,1.41,4.59,,0,53,53,53,1,54,Riley,Acc,Participant_Images/66f0a1d13629250f84bc2598/66f0a1d13629250f84bc2598_Images/66f0a1d13629250f84bc2598_Image_10.jpeg,liked,2.7105123,,,,,,,,,,,,,,,,,,,,,,,
,,66f0a1d13629250f84bc2598,6685aa9113c938e83b4f1ea0,672d0b1ab0dc66c6368a4d23,2024-11-07_13h54.13.270,WTP_SM_Choice,2022.2.1,Win32,11.99040767,,,,,,,,,,,,,,,,,,51,,,,,,space,1.0541,space,0.903,0.01,2,1.8264,0,0,0,0,1,Play video games on xbox in my room,Ask questions about controversial topics with friends,0.01,0.01,1.1,1,,,,,
,,66f0a1d13629250f84bc2598,6685aa9113c938e83b4f1ea0,672d0b1ab0dc66c6368a4d23,2024-11-07_13h54.13.270,WTP_SM_Choice,2022.2.1,Win32,11.99040767,,,,,,,,,,,,,,,,,,52,,,,,,,,,,0.01,2,0.753,0,1,1,1,1,Go to play basketball with my best friend,Watch greys anatomy while eating popcorn,0.02,0.01,3.3,0,,,,,
,,66f0a1d13629250f84bc2598,6685aa9113c938e83b4f1ea0,672d0b1ab0dc66c6368a4d23,2024-11-07_13h54.13.270,WTP_SM_Choice,2022.2.1,Win32,11.99040767,,,,,,,,,,,,,,,,,,53,,,,,,,,,,0.03,1,1.3925,0,2,2,2,1,Put up lights for holidays and watching the joy rise,Take my friends to new food spots,0.03,0.01,1.1,1,,,,,
,,66f0a1d13629250f84bc2598,6685aa9113c938e83b4f1ea0,672d0b1ab0dc66c6368a4d23,2024-11-07_13h54.13.270,WTP_SM_Choice,2022.2.1,Win32,11.99040767,,,,,,,,,,,,,,,,,,54,,,,,,,,,,0.01,2,2.8958,0,3,3,3,1,Go to play basketball with my best friend,Work out in the morning,0.04,0.01,4.4,0,,,,,
,,66f0a1d13629250f84bc2598,6685aa9113c938e83b4f1ea0,672d0b1ab0dc66c6368a4d23,2024-11-07_13h54.13.270,WTP_SM_Choice,2022.2.1,Win32,11.99040767,,,,,,,,,,,,,,,,,,55,,,,,,,,,,0.05,1,0.8747,0,4,4,4,1,Talk to my favorite coworker about sports,Listen to new music,0.05,0.01,1.1,0,,,,,
,,66f0a1d13629250f84bc2598,6685aa9113c938e83b4f1ea0,672d0b1ab0dc66c6368a4d23,2024-11-07_13h54.13.270,WTP_SM_Choice,2022.2.1,Win32,11.99040767,,,,,,,NAN,,NAN,1.52,4.48,,0,54,54,54,1,55,Riley,Acc,Participant_Images/66f0a1d13629250f84bc2598/66f0a1d13629250f84bc2598_Images/66f0a1d13629250f84bc2598_Image_7.jpeg,did not like,3.602308302,,,,,,,,,,,,,,,,,,,,,,,
,,66f0a1d13629250f84bc2598,6685aa9113c938e83b4f1ea0,672d0b1ab0dc66c6368a4d23,2024-11-07_13h54.13.270,WTP_SM_Choice,2022.2.1,Win32,11.99040767,,,,,space,1.3877,NAN,,NAN,1.52,4.48,,0,55,55,55,1,56,Riley,Acc,Participant_Images/66f0a1d13629250f84bc2598/66f0a1d13629250f84bc2598_Images/66f0a1d13629250f84bc2598_Image_2.jpeg,liked,4.106391878,,,,,,,,,,,,,,,,,,,,,,,
,,66f0a1d13629250f84bc2598,6685aa9113c938e83b4f1ea0,672d0b1ab0dc66c6368a4d23,2024-11-07_13h54.13.270,WTP_SM_Choice,2022.2.1,Win32,11.99040767,,,,,space,4.6671,NAN,,NAN,1.52,4.48,,0,56,56,56,1,57,Riley,Acc,Participant_Images/66f0a1d13629250f84bc2598/66f0a1d13629250f84bc2598_Images/66f0a1d13629250f84bc2598_Image_22.jpeg,liked,3.799433026,,,,,,,,,,,,,,,,,,,,,,,
,,66f0a1d13629250f84bc2598,6685aa9113c938e83b4f1ea0,672d0b1ab0dc66c6368a4d23,2024-11-07_13h54.13.270,WTP_SM_Choice,2022.2.1,Win32,11.99040767,,,,,space,1.0778,NAN,,NAN,1.52,4.48,,0,57,57,57,1,58,Riley,Acc,Participant_Images/66f0a1d13629250f84bc2598/66f0a1d13629250f84bc2598_Images/66f0a1d13629250f84bc2598_Image_5.jpeg,did not like,5.246980764,,,,,,,,,,,,,,,,,,,,,,,
,,66f0a1d13629250f84bc2598,6685aa9113c938e83b4f1ea0,672d0b1ab0dc66c6368a4d23,2024-11-07_13h54.13.270,WTP_SM_Choice,2022.2.1,Win32,11.99040767,,,,,space,0.7651,NAN,,NAN,1.52,4.48,,0,58,58,58,1,59,Riley,Acc,Participant_Images/66f0a1d13629250f84bc2598/66f0a1d13629250f84bc2598_Images/66f0a1d13629250f84bc2598_Image_17.jpeg,did not like,3.30081769,,,,,,,,,,,,,,,,,,,,,,,
,,66f0a1d13629250f84bc2598,6685aa9113c938e83b4f1ea0,672d0b1ab0dc66c6368a4d23,2024-11-07_13h54.13.270,WTP_SM_Choice,2022.2.1,Win32,11.99040767,,,,,,,,,,,,,,,,,,56,,,,,,space,5.0935,space,1.0084,0.01,1,0.8867,0,0,0,0,1,Watch Sunday Night football with my family,Eat food I have never tried before,0.01,0.02,8.8,0,,,,,
,,66f0a1d13629250f84bc2598,6685aa9113c938e83b4f1ea0,672d0b1ab0dc66c6368a4d23,2024-11-07_13h54.13.270,WTP_SM_Choice,2022.2.1,Win32,11.99040767,,,,,,,,,,,,,,,,,,57,,,,,,,,,,0.02,1,1.0864,0,1,1,1,1,Work out in the morning,Watch Sunday Night football with my family,0.02,0.02,4.4,1,,,,,
,,66f0a1d13629250f84bc2598,6685aa9113c938e83b4f1ea0,672d0b1ab0dc66c6368a4d23,2024-11-07_13h54.13.270,WTP_SM_Choice,2022.2.1,Win32,11.99040767,,,,,,,,,,,,,,,,,,58,,,,,,,,,,0.02,2,2.0127,0,2,2,2,1,Listen to new music,Take my friends to new food spots,0.03,0.02,4.4,1,,,,,
,,66f0a1d13629250f84bc2598,6685aa9113c938e83b4f1ea0,672d0b1ab0dc66c6368a4d23,2024-11-07_13h54.13.270,WTP_SM_Choice,2022.2.1,Win32,11.99040767,,,,,,,,,,,,,,,,,,59,,,,,,,,,,0.04,1,1.4249,0,3,3,3,1,Put up lights for holidays and watching the joy rise,Talk to my long distance sister on the phone,0.04,0.02,4.4,1,,,,,
,,66f0a1d13629250f84bc2598,6685aa9113c938e83b4f1ea0,672d0b1ab0dc66c6368a4d23,2024-11-07_13h54.13.270,WTP_SM_Choice,2022.2.1,Win32,11.99040767,,,,,,,,,,,,,,,,,,60,,,,,,,,,,0.05,1,1.9088,0,4,4,4,1,Watch greys anatomy while eating popcorn,Go to outlet stores with my mother,0.05,0.02,1.1,1,,,,,
,,66f0a1d13629250f84bc2598,6685aa9113c938e83b4f1ea0,672d0b1ab0dc66c6368a4d23,2024-11-07_13h54.13.270,WTP_SM_Choice,2022.2.1,Win32,11.99040767,,,,,,,NAN,,NAN,1.66,4.34,,0,59,59,59,1,60,Riley,Acc,Participant_Images/66f0a1d13629250f84bc2598/66f0a1d13629250f84bc2598_Images/66f0a1d13629250f84bc2598_Image_12.jpeg,liked,1.661473164,,,,,,,,,,,,,,,,,,,,,,,
,,66f0a1d13629250f84bc2598,6685aa9113c938e83b4f1ea0,672d0b1ab0dc66c6368a4d23,2024-11-07_13h54.13.270,WTP_SM_Choice,2022.2.1,Win32,11.99040767,,,,,space,0.7351,NAN,,NAN,1.66,4.34,,0,60,60,60,1,61,Riley,Acc,Participant_Images/66f0a1d13629250f84bc2598/66f0a1d13629250f84bc2598_Images/66f0a1d13629250f84bc2598_Image_8.jpeg,liked,3.613205605,,,,,,,,,,,,,,,,,,,,,,,
,,66f0a1d13629250f84bc2598,6685aa9113c938e83b4f1ea0,672d0b1ab0dc66c6368a4d23,2024-11-07_13h54.13.270,WTP_SM_Choice,2022.2.1,Win32,11.99040767,,,,,space,1.1659,NAN,,NAN,1.66,4.34,,0,61,61,61,1,62,Riley,Acc,Participant_Images/66f0a1d13629250f84bc2598/66f0a1d13629250f84bc2598_Images/66f0a1d13629250f84bc2598_Image_24.jpeg,liked,4.988446431,,,,,,,,,,,,,,,,,,,,,,,
,,66f0a1d13629250f84bc2598,6685aa9113c938e83b4f1ea0,672d0b1ab0dc66c6368a4d23,2024-11-07_13h54.13.270,WTP_SM_Choice,2022.2.1,Win32,11.99040767,,,,,space,0.7511,NAN,,NAN,1.66,4.34,,0,62,62,62,1,63,Riley,Acc,Participant_Images/66f0a1d13629250f84bc2598/66f0a1d13629250f84bc2598_Images/66f0a1d13629250f84bc2598_Image_4.jpeg,did not like,3.470791822,,,,,,,,,,,,,,,,,,,,,,,
,,66f0a1d13629250f84bc2598,6685aa9113c938e83b4f1ea0,672d0b1ab0dc66c6368a4d23,2024-11-07_13h54.13.270,WTP_SM_Choice,2022.2.1,Win32,11.99040767,,,,,space,0.5341,NAN,,NAN,1.66,4.34,,0,63,63,63,1,64,Riley,Acc,Participant_Images/66f0a1d13629250f84bc2598/66f0a1d13629250f84bc2598_Images/66f0a1d13629250f84bc2598_Image_15.jpeg,liked,3.820572462,,,,,,,,,,,,,,,,,,,,,,,
,,66f0a1d13629250f84bc2598,6685aa9113c938e83b4f1ea0,672d0b1ab0dc66c6368a4d23,2024-11-07_13h54.13.270,WTP_SM_Choice,2022.2.1,Win32,11.99040767,,,,,,,,,,,,,,,,,,61,,,,,,space,0.6894,space,0.5493,0.01,1,0.5396,0,0,0,0,1,Work out in the morning,Talk to my nephew about school,0.01,0.03,3.3,1,,,,,
,,66f0a1d13629250f84bc2598,6685aa9113c938e83b4f1ea0,672d0b1ab0dc66c6368a4d23,2024-11-07_13h54.13.270,WTP_SM_Choice,2022.2.1,Win32,11.99040767,,,,,,,,,,,,,,,,,,62,,,,,,,,,,0.02,1,1.0677,0,1,1,1,1,Watch new tv series with my brother,Eat food I have never tried before,0.02,0.03,3.3,0,,,,,
,,66f0a1d13629250f84bc2598,6685aa9113c938e83b4f1ea0,672d0b1ab0dc66c6368a4d23,2024-11-07_13h54.13.270,WTP_SM_Choice,2022.2.1,Win32,11.99040767,,,,,,,,,,,,,,,,,,63,,,,,,,,,,0.03,2,1.1757,0,2,2,2,1,Watch Sunday Night football with my family,Listen to new music,0.03,0.03,3.3,0,,,,,
,,66f0a1d13629250f84bc2598,6685aa9113c938e83b4f1ea0,672d0b1ab0dc66c6368a4d23,2024-11-07_13h54.13.270,WTP_SM_Choice,2022.2.1,Win32,11.99040767,,,,,,,,,,,,,,,,,,64,,,,,,,,,,0.04,1,1.5118,0,3,3,3,1,Talk to my long distance sister on the phone,Do studies on my computer ,0.04,0.03,1.1,0,,,,,
,,66f0a1d13629250f84bc2598,6685aa9113c938e83b4f1ea0,672d0b1ab0dc66c6368a4d23,2024-11-07_13h54.13.270,WTP_SM_Choice,2022.2.1,Win32,11.99040767,,,,,,,,,,,,,,,,,,65,,,,,,,,,,0.03,2,1.5015,0,4,4,4,1,Watch new tv series with my brother,Play video games on xbox in my room,0.05,0.03,1.1,0,,,,,
,,66f0a1d13629250f84bc2598,6685aa9113c938e83b4f1ea0,672d0b1ab0dc66c6368a4d23,2024-11-07_13h54.13.270,WTP_SM_Choice,2022.2.1,Win32,11.99040767,,,,,,,NAN,,NAN,1.79,4.21,,0,64,64,64,1,65,Riley,Acc,Participant_Images/66f0a1d13629250f84bc2598/66f0a1d13629250f84bc2598_Images/66f0a1d13629250f84bc2598_Image_3.jpeg,liked,2.455989137,,,,,,,,,,,,,,,,,,,,,,,
,,66f0a1d13629250f84bc2598,6685aa9113c938e83b4f1ea0,672d0b1ab0dc66c6368a4d23,2024-11-07_13h54.13.270,WTP_SM_Choice,2022.2.1,Win32,11.99040767,,,,,space,4.8149,NAN,,NAN,1.79,4.21,,0,65,65,65,1,66,Riley,Acc,Participant_Images/66f0a1d13629250f84bc2598/66f0a1d13629250f84bc2598_Images/66f0a1d13629250f84bc2598_Image_14.jpeg,did not like,3.79605092,,,,,,,,,,,,,,,,,,,,,,,
,,66f0a1d13629250f84bc2598,6685aa9113c938e83b4f1ea0,672d0b1ab0dc66c6368a4d23,2024-11-07_13h54.13.270,WTP_SM_Choice,2022.2.1,Win32,11.99040767,,,,,space,0.6409,NAN,,NAN,1.79,4.21,,0,66,66,66,1,67,Riley,Acc,Participant_Images/66f0a1d13629250f84bc2598/66f0a1d13629250f84bc2598_Images/66f0a1d13629250f84bc2598_Image_20.jpeg,liked,3.562416326,,,,,,,,,,,,,,,,,,,,,,,
,,66f0a1d13629250f84bc2598,6685aa9113c938e83b4f1ea0,672d0b1ab0dc66c6368a4d23,2024-11-07_13h54.13.270,WTP_SM_Choice,2022.2.1,Win32,11.99040767,,,,,space,0.8688,NAN,,NAN,1.79,4.21,,0,67,67,67,1,68,Riley,Acc,Participant_Images/66f0a1d13629250f84bc2598/66f0a1d13629250f84bc2598_Images/66f0a1d13629250f84bc2598_Image_18.jpeg,liked,2.843822497,,,,,,,,,,,,,,,,,,,,,,,
,,66f0a1d13629250f84bc2598,6685aa9113c938e83b4f1ea0,672d0b1ab0dc66c6368a4d23,2024-11-07_13h54.13.270,WTP_SM_Choice,2022.2.1,Win32,11.99040767,,,,,space,0.6544,NAN,,NAN,1.79,4.21,,0,68,68,68,1,69,Riley,Acc,Participant_Images/66f0a1d13629250f84bc2598/66f0a1d13629250f84bc2598_Images/66f0a1d13629250f84bc2598_Image_1.jpeg,liked,3.546495948,,,,,,,,,,,,,,,,,,,,,,,
,,66f0a1d13629250f84bc2598,6685aa9113c938e83b4f1ea0,672d0b1ab0dc66c6368a4d23,2024-11-07_13h54.13.270,WTP_SM_Choice,2022.2.1,Win32,11.99040767,,,,,,,,,,,,,,,,,,66,,,,,,space,50.8281,space,1.1562,0.01,1,0.4616,0,0,0,0,1,Talk to my favorite coworker about sports,Eat food I have never tried before,0.01,0.04,1.1,0,,,,,
,,66f0a1d13629250f84bc2598,6685aa9113c938e83b4f1ea0,672d0b1ab0dc66c6368a4d23,2024-11-07_13h54.13.270,WTP_SM_Choice,2022.2.1,Win32,11.99040767,,,,,,,,,,,,,,,,,,67,,,,,,,,,,0.02,1,1.9603,0,1,1,1,1,Take my friends to new food spots,Make shirts in my studio,0.02,0.04,8.8,0,,,,,
,,66f0a1d13629250f84bc2598,6685aa9113c938e83b4f1ea0,672d0b1ab0dc66c6368a4d23,2024-11-07_13h54.13.270,WTP_SM_Choice,2022.2.1,Win32,11.99040767,,,,,,,,,,,,,,,,,,68,,,,,,,,,,0.04,2,0.8497,0,2,2,2,1,Eat food I have never tried before,Go to outlet stores with my mother,0.03,0.04,4.4,1,,,,,
,,66f0a1d13629250f84bc2598,6685aa9113c938e83b4f1ea0,672d0b1ab0dc66c6368a4d23,2024-11-07_13h54.13.270,WTP_SM_Choice,2022.2.1,Win32,11.99040767,,,,,,,,,,,,,,,,,,69,,,,,,,,,,0.04,1,1.0776,0,3,3,3,1,Listen to new music,Go to play basketball with my best friend,0.04,0.04,1.1,1,,,,,
,,66f0a1d13629250f84bc2598,6685aa9113c938e83b4f1ea0,672d0b1ab0dc66c6368a4d23,2024-11-07_13h54.13.270,WTP_SM_Choice,2022.2.1,Win32,11.99040767,,,,,,,,,,,,,,,,,,70,,,,,,,,,,0.05,1,1.0801,0,4,4,4,1,Talk to my favorite coworker about sports,Make shirts in my studio,0.05,0.04,1.1,0,,,,,
,,66f0a1d13629250f84bc2598,6685aa9113c938e83b4f1ea0,672d0b1ab0dc66c6368a4d23,2024-11-07_13h54.13.270,WTP_SM_Choice,2022.2.1,Win32,11.99040767,,,,,,,NAN,,NAN,1.95,4.05,,0,69,69,69,1,70,Riley,Acc,Participant_Images/66f0a1d13629250f84bc2598/66f0a1d13629250f84bc2598_Images/66f0a1d13629250f84bc2598_Image_11.jpeg,liked,1.672012706,,,,,,,,,,,,,,,,,,,,,,,
,,66f0a1d13629250f84bc2598,6685aa9113c938e83b4f1ea0,672d0b1ab0dc66c6368a4d23,2024-11-07_13h54.13.270,WTP_SM_Choice,2022.2.1,Win32,11.99040767,,,,,space,2.7525,NAN,,NAN,1.95,4.05,,0,70,70,70,1,71,Riley,Acc,Participant_Images/66f0a1d13629250f84bc2598/66f0a1d13629250f84bc2598_Images/66f0a1d13629250f84bc2598_Image_25.jpeg,did not like,4.942172136,,,,,,,,,,,,,,,,,,,,,,,
,,66f0a1d13629250f84bc2598,6685aa9113c938e83b4f1ea0,672d0b1ab0dc66c6368a4d23,2024-11-07_13h54.13.270,WTP_SM_Choice,2022.2.1,Win32,11.99040767,,,,,space,0.6364,NAN,,NAN,1.95,4.05,,0,71,71,71,1,72,Riley,Acc,Participant_Images/66f0a1d13629250f84bc2598/66f0a1d13629250f84bc2598_Images/66f0a1d13629250f84bc2598_Image_9.jpeg,liked,2.50187214,,,,,,,,,,,,,,,,,,,,,,,
,,66f0a1d13629250f84bc2598,6685aa9113c938e83b4f1ea0,672d0b1ab0dc66c6368a4d23,2024-11-07_13h54.13.270,WTP_SM_Choice,2022.2.1,Win32,11.99040767,,,,,space,0.7506,NAN,,NAN,1.95,4.05,,0,72,72,72,1,73,Riley,Acc,Participant_Images/66f0a1d13629250f84bc2598/66f0a1d13629250f84bc2598_Images/66f0a1d13629250f84bc2598_Image_19.jpeg,liked,2.071164779,,,,,,,,,,,,,,,,,,,,,,,
,,66f0a1d13629250f84bc2598,6685aa9113c938e83b4f1ea0,672d0b1ab0dc66c6368a4d23,2024-11-07_13h54.13.270,WTP_SM_Choice,2022.2.1,Win32,11.99040767,,,,,space,0.6559,NAN,,NAN,1.95,4.05,,0,73,73,73,1,74,Riley,Acc,Participant_Images/66f0a1d13629250f84bc2598/66f0a1d13629250f84bc2598_Images/66f0a1d13629250f84bc2598_Image_13.jpeg,liked,5.336503566,,,,,,,,,,,,,,,,,,,,,,,
,,66f0a1d13629250f84bc2598,6685aa9113c938e83b4f1ea0,672d0b1ab0dc66c6368a4d23,2024-11-07_13h54.13.270,WTP_SM_Choice,2022.2.1,Win32,11.99040767,,,,,,,,,,,,,,,,,,71,,,,,,space,0.9299,space,0.5656,0.01,1,1.8165,0,0,0,0,1,Put up lights for holidays and watching the joy rise,Bet on parlays for football with one of my brothers,0.01,0.05,3.3,1,,,,,
,,66f0a1d13629250f84bc2598,6685aa9113c938e83b4f1ea0,672d0b1ab0dc66c6368a4d23,2024-11-07_13h54.13.270,WTP_SM_Choice,2022.2.1,Win32,11.99040767,,,,,,,,,,,,,,,,,,72,,,,,,,,,,0.02,1,5.4469,0,1,1,1,1,Play video games on xbox in my room,Talk to my nephew about school,0.02,0.05,8.8,1,,,,,
,,66f0a1d13629250f84bc2598,6685aa9113c938e83b4f1ea0,672d0b1ab0dc66c6368a4d23,2024-11-07_13h54.13.270,WTP_SM_Choice,2022.2.1,Win32,11.99040767,,,,,,,,,,,,,,,,,,73,,,,,,,,,,0.05,2,1.5176,0,2,2,2,1,Watch new tv series with my brother,Run 5 miles every weekend,0.03,0.05,3.3,0,,,,,
,,66f0a1d13629250f84bc2598,6685aa9113c938e83b4f1ea0,672d0b1ab0dc66c6368a4d23,2024-11-07_13h54.13.270,WTP_SM_Choice,2022.2.1,Win32,11.99040767,,,,,,,,,,,,,,,,,,74,,,,,,,,,,0.05,2,2.0704,0,3,3,3,1,Work out in the morning,Go to outlet stores with my mother,0.04,0.05,4.4,1,,,,,
,,66f0a1d13629250f84bc2598,6685aa9113c938e83b4f1ea0,672d0b1ab0dc66c6368a4d23,2024-11-07_13h54.13.270,WTP_SM_Choice,2022.2.1,Win32,11.99040767,,,,,,,,,,,,,,,,,,75,,,,,,,,,,0.05,2,3.9628,0,4,4,4,1,Ask questions about controversial topics with friends,Run 5 miles every weekend,0.05,0.05,3.3,0,,,,,
,,66f0a1d13629250f84bc2598,6685aa9113c938e83b4f1ea0,672d0b1ab0dc66c6368a4d23,2024-11-07_13h54.13.270,WTP_SM_Choice,2022.2.1,Win32,11.99040767,,,,,,,5,,9,2.13,3.87,,0,74,74,74,1,75,Riley,Acc,Participant_Images/66f0a1d13629250f84bc2598/66f0a1d13629250f84bc2598_Images/66f0a1d13629250f84bc2598_Image_21.jpeg,did not like,2.642157193,,,,,,,,,,,,,,,,,,,space,1.071,,,
,,66f0a1d13629250f84bc2598,6685aa9113c938e83b4f1ea0,672d0b1ab0dc66c6368a4d23,2024-11-07_13h54.13.270,WTP_SM_Choice,2022.2.1,Win32,11.99040767,,,space,1.8176,space,0.4409,NAN,,NAN,2.13,3.87,,0,75,75,75,1,76,Alex,Acc,Participant_Images/66f0a1d13629250f84bc2598/66f0a1d13629250f84bc2598_Images/66f0a1d13629250f84bc2598_Image_7.jpeg,liked,4.456234322,,,,,,,,,,,,,,,,,,,,,,,
,,66f0a1d13629250f84bc2598,6685aa9113c938e83b4f1ea0,672d0b1ab0dc66c6368a4d23,2024-11-07_13h54.13.270,WTP_SM_Choice,2022.2.1,Win32,11.99040767,,,,,space,0.9641,NAN,,NAN,2.13,3.87,,0,76,76,76,1,77,Alex,Acc,Participant_Images/66f0a1d13629250f84bc2598/66f0a1d13629250f84bc2598_Images/66f0a1d13629250f84bc2598_Image_5.jpeg,liked,4.438512181,,,,,,,,,,,,,,,,,,,,,,,
,,66f0a1d13629250f84bc2598,6685aa9113c938e83b4f1ea0,672d0b1ab0dc66c6368a4d23,2024-11-07_13h54.13.270,WTP_SM_Choice,2022.2.1,Win32,11.99040767,,,,,space,0.4386,NAN,,NAN,2.13,3.87,,0,77,77,77,1,78,Alex,Acc,Participant_Images/66f0a1d13629250f84bc2598/66f0a1d13629250f84bc2598_Images/66f0a1d13629250f84bc2598_Image_9.jpeg,did not like,2.682944783,,,,,,,,,,,,,,,,,,,,,,,
,,66f0a1d13629250f84bc2598,6685aa9113c938e83b4f1ea0,672d0b1ab0dc66c6368a4d23,2024-11-07_13h54.13.270,WTP_SM_Choice,2022.2.1,Win32,11.99040767,,,,,space,0.4283,NAN,,NAN,2.13,3.87,,0,78,78,78,1,79,Alex,Acc,Participant_Images/66f0a1d13629250f84bc2598/66f0a1d13629250f84bc2598_Images/66f0a1d13629250f84bc2598_Image_11.jpeg,liked,4.51984296,,,,,,,,,,,,,,,,,,,,,,,
,,66f0a1d13629250f84bc2598,6685aa9113c938e83b4f1ea0,672d0b1ab0dc66c6368a4d23,2024-11-07_13h54.13.270,WTP_SM_Choice,2022.2.1,Win32,11.99040767,,,,,,,,,,,,,,,,,,76,,,,,,space,0.7026,space,0.4351,0.01,1,0.6676,0,0,0,0,1,Ask questions about controversial topics with friends,Do studies on my computer ,0.01,0.01,1.1,0,,,,,
,,66f0a1d13629250f84bc2598,6685aa9113c938e83b4f1ea0,672d0b1ab0dc66c6368a4d23,2024-11-07_13h54.13.270,WTP_SM_Choice,2022.2.1,Win32,11.99040767,,,,,,,,,,,,,,,,,,77,,,,,,,,,,0.01,2,0.8432,0,1,1,1,1,Watch Sunday Night football with my family,Put up lights for holidays and watching the joy rise,0.02,0.01,8.8,0,,,,,
,,66f0a1d13629250f84bc2598,6685aa9113c938e83b4f1ea0,672d0b1ab0dc66c6368a4d23,2024-11-07_13h54.13.270,WTP_SM_Choice,2022.2.1,Win32,11.99040767,,,,,,,,,,,,,,,,,,78,,,,,,,,,,0.03,1,0.7727,0,2,2,2,1,Watch Sunday Night football with my family,Run 5 miles every weekend,0.03,0.01,1.1,0,,,,,
,,66f0a1d13629250f84bc2598,6685aa9113c938e83b4f1ea0,672d0b1ab0dc66c6368a4d23,2024-11-07_13h54.13.270,WTP_SM_Choice,2022.2.1,Win32,11.99040767,,,,,,,,,,,,,,,,,,79,,,,,,,,,,0.01,2,0.9824,0,3,3,3,1,Take my friends to new food spots,Eat food I have never tried before,0.04,0.01,1.1,0,,,,,
,,66f0a1d13629250f84bc2598,6685aa9113c938e83b4f1ea0,672d0b1ab0dc66c6368a4d23,2024-11-07_13h54.13.270,WTP_SM_Choice,2022.2.1,Win32,11.99040767,,,,,,,,,,,,,,,,,,80,,,,,,,,,,0.05,1,0.972,0,4,4,4,1,Watch Sunday Night football with my family,Try on new clothes I bought,0.05,0.01,4.4,0,,,,,
,,66f0a1d13629250f84bc2598,6685aa9113c938e83b4f1ea0,672d0b1ab0dc66c6368a4d23,2024-11-07_13h54.13.270,WTP_SM_Choice,2022.2.1,Win32,11.99040767,,,,,,,NAN,,NAN,2.24,3.76,,0,79,79,79,1,80,Alex,Acc,Participant_Images/66f0a1d13629250f84bc2598/66f0a1d13629250f84bc2598_Images/66f0a1d13629250f84bc2598_Image_2.jpeg,liked,3.195382774,,,,,,,,,,,,,,,,,,,,,,,
,,66f0a1d13629250f84bc2598,6685aa9113c938e83b4f1ea0,672d0b1ab0dc66c6368a4d23,2024-11-07_13h54.13.270,WTP_SM_Choice,2022.2.1,Win32,11.99040767,,,,,space,1.0685,NAN,,NAN,2.24,3.76,,0,80,80,80,1,81,Alex,Acc,Participant_Images/66f0a1d13629250f84bc2598/66f0a1d13629250f84bc2598_Images/66f0a1d13629250f84bc2598_Image_15.jpeg,did not like,1.779333479,,,,,,,,,,,,,,,,,,,,,,,
,,66f0a1d13629250f84bc2598,6685aa9113c938e83b4f1ea0,672d0b1ab0dc66c6368a4d23,2024-11-07_13h54.13.270,WTP_SM_Choice,2022.2.1,Win32,11.99040767,,,,,space,0.764,NAN,,NAN,2.24,3.76,,0,81,81,81,1,82,Alex,Acc,Participant_Images/66f0a1d13629250f84bc2598/66f0a1d13629250f84bc2598_Images/66f0a1d13629250f84bc2598_Image_21.jpeg,liked,4.312468682,,,,,,,,,,,,,,,,,,,,,,,
,,66f0a1d13629250f84bc2598,6685aa9113c938e83b4f1ea0,672d0b1ab0dc66c6368a4d23,2024-11-07_13h54.13.270,WTP_SM_Choice,2022.2.1,Win32,11.99040767,,,,,space,0.523,NAN,,NAN,2.24,3.76,,0,82,82,82,1,83,Alex,Acc,Participant_Images/66f0a1d13629250f84bc2598/66f0a1d13629250f84bc2598_Images/66f0a1d13629250f84bc2598_Image_12.jpeg,liked,4.940433059,,,,,,,,,,,,,,,,,,,,,,,
,,66f0a1d13629250f84bc2598,6685aa9113c938e83b4f1ea0,672d0b1ab0dc66c6368a4d23,2024-11-07_13h54.13.270,WTP_SM_Choice,2022.2.1,Win32,11.99040767,,,,,space,0.9615,NAN,,NAN,2.24,3.76,,0,83,83,83,1,84,Alex,Acc,Participant_Images/66f0a1d13629250f84bc2598/66f0a1d13629250f84bc2598_Images/66f0a1d13629250f84bc2598_Image_18.jpeg,liked,2.7105123,,,,,,,,,,,,,,,,,,,,,,,
,,66f0a1d13629250f84bc2598,6685aa9113c938e83b4f1ea0,672d0b1ab0dc66c6368a4d23,2024-11-07_13h54.13.270,WTP_SM_Choice,2022.2.1,Win32,11.99040767,,,,,,,,,,,,,,,,,,81,,,,,,space,0.7964,space,0.7975,0.01,1,1.0834,0,0,0,0,1,Try on new clothes I bought,Bet on parlays for football with one of my brothers,0.01,0.02,3.3,1,,,,,
,,66f0a1d13629250f84bc2598,6685aa9113c938e83b4f1ea0,672d0b1ab0dc66c6368a4d23,2024-11-07_13h54.13.270,WTP_SM_Choice,2022.2.1,Win32,11.99040767,,,,,,,,,,,,,,,,,,82,,,,,,,,,,0.02,2,1.6171,0,1,1,1,1,Do studies on my computer ,Go to play basketball with my best friend,0.02,0.02,4.4,1,,,,,
,,66f0a1d13629250f84bc2598,6685aa9113c938e83b4f1ea0,672d0b1ab0dc66c6368a4d23,2024-11-07_13h54.13.270,WTP_SM_Choice,2022.2.1,Win32,11.99040767,,,,,,,,,,,,,,,,,,83,,,,,,,,,,0.03,1,1.5108,0,2,2,2,1,Eat food I have never tried before,Go to play basketball with my best friend,0.03,0.02,1.1,1,,,,,
,,66f0a1d13629250f84bc2598,6685aa9113c938e83b4f1ea0,672d0b1ab0dc66c6368a4d23,2024-11-07_13h54.13.270,WTP_SM_Choice,2022.2.1,Win32,11.99040767,,,,,,,,,,,,,,,,,,84,,,,,,,,,,0.02,2,2.1849,0,3,3,3,1,Talk to my long distance sister on the phone,Make shirts in my studio,0.04,0.02,3.3,0,,,,,
,,66f0a1d13629250f84bc2598,6685aa9113c938e83b4f1ea0,672d0b1ab0dc66c6368a4d23,2024-11-07_13h54.13.270,WTP_SM_Choice,2022.2.1,Win32,11.99040767,,,,,,,,,,,,,,,,,,85,,,,,,,,,,0.05,1,7.457,0,4,4,4,1,Bet on parlays for football with one of my brothers,Run 5 miles every weekend,0.05,0.02,3.3,0,,,,,
,,66f0a1d13629250f84bc2598,6685aa9113c938e83b4f1ea0,672d0b1ab0dc66c6368a4d23,2024-11-07_13h54.13.270,WTP_SM_Choice,2022.2.1,Win32,11.99040767,,,,,,,NAN,,NAN,2.37,3.63,,0,84,84,84,1,85,Alex,Acc,Participant_Images/66f0a1d13629250f84bc2598/66f0a1d13629250f84bc2598_Images/66f0a1d13629250f84bc2598_Image_4.jpeg,did not like,3.602308302,,,,,,,,,,,,,,,,,,,,,,,
,,66f0a1d13629250f84bc2598,6685aa9113c938e83b4f1ea0,672d0b1ab0dc66c6368a4d23,2024-11-07_13h54.13.270,WTP_SM_Choice,2022.2.1,Win32,11.99040767,,,,,space,0.4395,NAN,,NAN,2.37,3.63,,0,85,85,85,1,86,Alex,Acc,Participant_Images/66f0a1d13629250f84bc2598/66f0a1d13629250f84bc2598_Images/66f0a1d13629250f84bc2598_Image_14.jpeg,liked,4.106391878,,,,,,,,,,,,,,,,,,,,,,,
,,66f0a1d13629250f84bc2598,6685aa9113c938e83b4f1ea0,672d0b1ab0dc66c6368a4d23,2024-11-07_13h54.13.270,WTP_SM_Choice,2022.2.1,Win32,11.99040767,,,,,space,0.7632,NAN,,NAN,2.37,3.63,,0,86,86,86,1,87,Alex,Acc,Participant_Images/66f0a1d13629250f84bc2598/66f0a1d13629250f84bc2598_Images/66f0a1d13629250f84bc2598_Image_25.jpeg,liked,3.799433026,,,,,,,,,,,,,,,,,,,,,,,
,,66f0a1d13629250f84bc2598,6685aa9113c938e83b4f1ea0,672d0b1ab0dc66c6368a4d23,2024-11-07_13h54.13.270,WTP_SM_Choice,2022.2.1,Win32,11.99040767,,,,,space,0.6503,NAN,,NAN,2.37,3.63,,0,87,87,87,1,88,Alex,Acc,Participant_Images/66f0a1d13629250f84bc2598/66f0a1d13629250f84bc2598_Images/66f0a1d13629250f84bc2598_Image_24.jpeg,liked,5.246980764,,,,,,,,,,,,,,,,,,,,,,,
,,66f0a1d13629250f84bc2598,6685aa9113c938e83b4f1ea0,672d0b1ab0dc66c6368a4d23,2024-11-07_13h54.13.270,WTP_SM_Choice,2022.2.1,Win32,11.99040767,,,,,space,1.1617,NAN,,NAN,2.37,3.63,,0,88,88,88,1,89,Alex,Acc,Participant_Images/66f0a1d13629250f84bc2598/66f0a1d13629250f84bc2598_Images/66f0a1d13629250f84bc2598_Image_3.jpeg,did not like,3.30081769,,,,,,,,,,,,,,,,,,,,,,,
,,66f0a1d13629250f84bc2598,6685aa9113c938e83b4f1ea0,672d0b1ab0dc66c6368a4d23,2024-11-07_13h54.13.270,WTP_SM_Choice,2022.2.1,Win32,11.99040767,,,,,,,,,,,,,,,,,,86,,,,,,space,1.883,space,1.11,0.03,2,2.9484,0,0,0,0,1,Make shirts in my studio,Go to outlet stores with my mother,0.01,0.03,1.1,1,,,,,
,,66f0a1d13629250f84bc2598,6685aa9113c938e83b4f1ea0,672d0b1ab0dc66c6368a4d23,2024-11-07_13h54.13.270,WTP_SM_Choice,2022.2.1,Win32,11.99040767,,,,,,,,,,,,,,,,,,87,,,,,,,,,,0.02,1,1.3124,0,1,1,1,1,Work out in the morning,Ask questions about controversial topics with friends,0.02,0.03,4.4,1,,,,,
,,66f0a1d13629250f84bc2598,6685aa9113c938e83b4f1ea0,672d0b1ab0dc66c6368a4d23,2024-11-07_13h54.13.270,WTP_SM_Choice,2022.2.1,Win32,11.99040767,,,,,,,,,,,,,,,,,,88,,,,,,,,,,0.03,1,1.3115,0,2,2,2,1,Go to outlet stores with my mother,Play video games on xbox in my room,0.03,0.03,1.1,0,,,,,
,,66f0a1d13629250f84bc2598,6685aa9113c938e83b4f1ea0,672d0b1ab0dc66c6368a4d23,2024-11-07_13h54.13.270,WTP_SM_Choice,2022.2.1,Win32,11.99040767,,,,,,,,,,,,,,,,,,89,,,,,,,,,,0.04,1,1.6021,0,3,3,3,1,Run 5 miles every weekend,Take my friends to new food spots,0.04,0.03,3.3,1,,,,,
,,66f0a1d13629250f84bc2598,6685aa9113c938e83b4f1ea0,672d0b1ab0dc66c6368a4d23,2024-11-07_13h54.13.270,WTP_SM_Choice,2022.2.1,Win32,11.99040767,,,,,,,,,,,,,,,,,,90,,,,,,,,,,0.05,1,2.1499,0,4,4,4,1,Talk to my favorite coworker about sports,Try on new clothes I bought,0.05,0.03,8.8,0,,,,,
,,66f0a1d13629250f84bc2598,6685aa9113c938e83b4f1ea0,672d0b1ab0dc66c6368a4d23,2024-11-07_13h54.13.270,WTP_SM_Choice,2022.2.1,Win32,11.99040767,,,,,,,NAN,,NAN,2.54,3.46,,0,89,89,89,1,90,Alex,Acc,Participant_Images/66f0a1d13629250f84bc2598/66f0a1d13629250f84bc2598_Images/66f0a1d13629250f84bc2598_Image_19.jpeg,liked,1.661473164,,,,,,,,,,,,,,,,,,,,,,,
,,66f0a1d13629250f84bc2598,6685aa9113c938e83b4f1ea0,672d0b1ab0dc66c6368a4d23,2024-11-07_13h54.13.270,WTP_SM_Choice,2022.2.1,Win32,11.99040767,,,,,space,1.2231,NAN,,NAN,2.54,3.46,,0,90,90,90,1,91,Alex,Acc,Participant_Images/66f0a1d13629250f84bc2598/66f0a1d13629250f84bc2598_Images/66f0a1d13629250f84bc2598_Image_8.jpeg,did not like,3.613205605,,,,,,,,,,,,,,,,,,,,,,,
,,66f0a1d13629250f84bc2598,6685aa9113c938e83b4f1ea0,672d0b1ab0dc66c6368a4d23,2024-11-07_13h54.13.270,WTP_SM_Choice,2022.2.1,Win32,11.99040767,,,,,space,0.8677,NAN,,NAN,2.54,3.46,,0,91,91,91,1,92,Alex,Acc,Participant_Images/66f0a1d13629250f84bc2598/66f0a1d13629250f84bc2598_Images/66f0a1d13629250f84bc2598_Image_6.jpeg,liked,4.988446431,,,,,,,,,,,,,,,,,,,,,,,
,,66f0a1d13629250f84bc2598,6685aa9113c938e83b4f1ea0,672d0b1ab0dc66c6368a4d23,2024-11-07_13h54.13.270,WTP_SM_Choice,2022.2.1,Win32,11.99040767,,,,,space,0.9775,NAN,,NAN,2.54,3.46,,0,92,92,92,1,93,Alex,Acc,Participant_Images/66f0a1d13629250f84bc2598/66f0a1d13629250f84bc2598_Images/66f0a1d13629250f84bc2598_Image_20.jpeg,did not like,3.470791822,,,,,,,,,,,,,,,,,,,,,,,
,,66f0a1d13629250f84bc2598,6685aa9113c938e83b4f1ea0,672d0b1ab0dc66c6368a4d23,2024-11-07_13h54.13.270,WTP_SM_Choice,2022.2.1,Win32,11.99040767,,,,,space,0.6391,NAN,,NAN,2.54,3.46,,0,93,93,93,1,94,Alex,Acc,Participant_Images/66f0a1d13629250f84bc2598/66f0a1d13629250f84bc2598_Images/66f0a1d13629250f84bc2598_Image_1.jpeg,liked,3.820572462,,,,,,,,,,,,,,,,,,,,,,,
,,66f0a1d13629250f84bc2598,6685aa9113c938e83b4f1ea0,672d0b1ab0dc66c6368a4d23,2024-11-07_13h54.13.270,WTP_SM_Choice,2022.2.1,Win32,11.99040767,,,,,,,,,,,,,,,,,,91,,,,,,space,0.8137,space,0.995,,,,0,0,0,0,1,Try on new clothes I bought,Go to outlet stores with my mother,0.01,0.04,3.3,1,,,,,
,,66f0a1d13629250f84bc2598,6685aa9113c938e83b4f1ea0,672d0b1ab0dc66c6368a4d23,2024-11-07_13h54.13.270,WTP_SM_Choice,2022.2.1,Win32,11.99040767,,,,,,,,,,,,,,,,,,92,,,,,,,,,,0.04,2,1.275,0,1,1,1,1,Play video games on xbox in my room,Talk to my favorite coworker about sports,0.02,0.04,8.8,1,,,,,
,,66f0a1d13629250f84bc2598,6685aa9113c938e83b4f1ea0,672d0b1ab0dc66c6368a4d23,2024-11-07_13h54.13.270,WTP_SM_Choice,2022.2.1,Win32,11.99040767,,,,,,,,,,,,,,,,,,93,,,,,,,,,,0.04,2,1.6011,0,2,2,2,1,Go to play basketball with my best friend,Try on new clothes I bought,0.03,0.04,1.1,0,,,,,
,,66f0a1d13629250f84bc2598,6685aa9113c938e83b4f1ea0,672d0b1ab0dc66c6368a4d23,2024-11-07_13h54.13.270,WTP_SM_Choice,2022.2.1,Win32,11.99040767,,,,,,,,,,,,,,,,,,94,,,,,,,,,,0.04,2,3.81,0,3,3,3,1,Watch new tv series with my brother,Work out in the morning,0.04,0.04,4.4,0,,,,,
,,66f0a1d13629250f84bc2598,6685aa9113c938e83b4f1ea0,672d0b1ab0dc66c6368a4d23,2024-11-07_13h54.13.270,WTP_SM_Choice,2022.2.1,Win32,11.99040767,,,,,,,,,,,,,,,,,,95,,,,,,,,,,0.05,1,1.5201,0,4,4,4,1,Talk to my nephew about school,Do studies on my computer ,0.05,0.04,4.4,0,,,,,
,,66f0a1d13629250f84bc2598,6685aa9113c938e83b4f1ea0,672d0b1ab0dc66c6368a4d23,2024-11-07_13h54.13.270,WTP_SM_Choice,2022.2.1,Win32,11.99040767,,,,,,,NAN,,NAN,2.71,3.29,,0,94,94,94,1,95,Alex,Acc,Participant_Images/66f0a1d13629250f84bc2598/66f0a1d13629250f84bc2598_Images/66f0a1d13629250f84bc2598_Image_16.jpeg,liked,2.455989137,,,,,,,,,,,,,,,,,,,,,,,
,,66f0a1d13629250f84bc2598,6685aa9113c938e83b4f1ea0,672d0b1ab0dc66c6368a4d23,2024-11-07_13h54.13.270,WTP_SM_Choice,2022.2.1,Win32,11.99040767,,,,,space,0.7643,NAN,,NAN,2.71,3.29,,0,95,95,95,1,96,Alex,Acc,Participant_Images/66f0a1d13629250f84bc2598/66f0a1d13629250f84bc2598_Images/66f0a1d13629250f84bc2598_Image_23.jpeg,liked,3.79605092,,,,,,,,,,,,,,,,,,,,,,,
,,66f0a1d13629250f84bc2598,6685aa9113c938e83b4f1ea0,672d0b1ab0dc66c6368a4d23,2024-11-07_13h54.13.270,WTP_SM_Choice,2022.2.1,Win32,11.99040767,,,,,space,0.428,NAN,,NAN,2.71,3.29,,0,96,96,96,1,97,Alex,Acc,Participant_Images/66f0a1d13629250f84bc2598/66f0a1d13629250f84bc2598_Images/66f0a1d13629250f84bc2598_Image_22.jpeg,liked,3.562416326,,,,,,,,,,,,,,,,,,,,,,,
,,66f0a1d13629250f84bc2598,6685aa9113c938e83b4f1ea0,672d0b1ab0dc66c6368a4d23,2024-11-07_13h54.13.270,WTP_SM_Choice,2022.2.1,Win32,11.99040767,,,,,space,0.6438,NAN,,NAN,2.71,3.29,,0,97,97,97,1,98,Alex,Acc,Participant_Images/66f0a1d13629250f84bc2598/66f0a1d13629250f84bc2598_Images/66f0a1d13629250f84bc2598_Image_17.jpeg,liked,2.843822497,,,,,,,,,,,,,,,,,,,,,,,
,,66f0a1d13629250f84bc2598,6685aa9113c938e83b4f1ea0,672d0b1ab0dc66c6368a4d23,2024-11-07_13h54.13.270,WTP_SM_Choice,2022.2.1,Win32,11.99040767,,,,,space,0.7688,NAN,,NAN,2.71,3.29,,0,98,98,98,1,99,Alex,Acc,Participant_Images/66f0a1d13629250f84bc2598/66f0a1d13629250f84bc2598_Images/66f0a1d13629250f84bc2598_Image_10.jpeg,did not like,3.546495948,,,,,,,,,,,,,,,,,,,,,,,
,,66f0a1d13629250f84bc2598,6685aa9113c938e83b4f1ea0,672d0b1ab0dc66c6368a4d23,2024-11-07_13h54.13.270,WTP_SM_Choice,2022.2.1,Win32,11.99040767,,,,,,,,,,,,,,,,,,96,,,,,,space,0.8328,space,0.6684,0.01,1,1.0893,0,0,0,0,1,Talk to my long distance sister on the phone,Eat food I have never tried before,0.01,0.05,3.3,0,,,,,
,,66f0a1d13629250f84bc2598,6685aa9113c938e83b4f1ea0,672d0b1ab0dc66c6368a4d23,2024-11-07_13h54.13.270,WTP_SM_Choice,2022.2.1,Win32,11.99040767,,,,,,,,,,,,,,,,,,97,,,,,,,,,,0.05,2,3.0006,0,1,1,1,1,Ask questions about controversial topics with friends,Put up lights for holidays and watching the joy rise,0.02,0.05,1.1,0,,,,,
,,66f0a1d13629250f84bc2598,6685aa9113c938e83b4f1ea0,672d0b1ab0dc66c6368a4d23,2024-11-07_13h54.13.270,WTP_SM_Choice,2022.2.1,Win32,11.99040767,,,,,,,,,,,,,,,,,,98,,,,,,,,,,0.05,2,2.3648,0,2,2,2,1,Put up lights for holidays and watching the joy rise,Watch new tv series with my brother,0.03,0.05,1.1,1,,,,,
,,66f0a1d13629250f84bc2598,6685aa9113c938e83b4f1ea0,672d0b1ab0dc66c6368a4d23,2024-11-07_13h54.13.270,WTP_SM_Choice,2022.2.1,Win32,11.99040767,,,,,,,,,,,,,,,,,,99,,,,,,,,,,0.04,1,2.8395,0,3,3,3,1,Ask questions about controversial topics with friends,Watch greys anatomy while eating popcorn,0.04,0.05,3.3,0,,,,,
,,66f0a1d13629250f84bc2598,6685aa9113c938e83b4f1ea0,672d0b1ab0dc66c6368a4d23,2024-11-07_13h54.13.270,WTP_SM_Choice,2022.2.1,Win32,11.99040767,,,,,,,,,,,,,,,,,,100,,,,,,,,,,0.05,1,1.8111,0,4,4,4,1,Watch greys anatomy while eating popcorn,Watch Sunday Night football with my family,0.05,0.05,4.4,1,,,,,
,,66f0a1d13629250f84bc2598,6685aa9113c938e83b4f1ea0,672d0b1ab0dc66c6368a4d23,2024-11-07_13h54.13.270,WTP_SM_Choice,2022.2.1,Win32,11.99040767,,,,,,,5,,9,2.91,3.09,,0,99,99,99,1,100,Alex,Acc,Participant_Images/66f0a1d13629250f84bc2598/66f0a1d13629250f84bc2598_Images/66f0a1d13629250f84bc2598_Image_13.jpeg,liked,1.672012706,,,,,,,,,,,,,,,,,,,space,0.7501,,,
,,66f0a1d13629250f84bc2598,6685aa9113c938e83b4f1ea0,672d0b1ab0dc66c6368a4d23,2024-11-07_13h54.13.270,WTP_SM_Choice,2022.2.1,Win32,11.99040767,,,,,,,,,,,,,,,,,,,,,,,,,,,,,,,,,,,,,,,,,,,,,space,3.8857
