endwelcomescreen_keys.keys,endwelcomescreen_keys.rt,participant,date,expName,psychopyVersion,OS,frameRate,endinstructionscreen_keys.keys,endinstructionscreen_keys.rt,endpartnermatch_keys.keys,endpartnermatch_keys.rt,sharenextphoto_key.keys,sharenextphoto_key.rt,salience_rating,key_resp.keys,stress_level,subtract_bonus,TOTAL_TASK_BONUS,stresslevel_keypress.keys,entiretaskloop.thisRepN,entiretaskloop.thisTrialN,entiretaskloop.thisN,entiretaskloop.thisIndex,entiretaskloop.ran,TrialNumber,Partner,Condition,Photos,Feedback,FeedbackWait,WTP_ins_keys1.keys,WTP_ins_keys1.rt,WTP_ins_keys2.keys,WTP_ins_keys2.rt,decision_price,responses.keys,responses.rt,WTPTaskLoop.thisRepN,WTPTaskLoop.thisTrialN,WTPTaskLoop.thisN,WTPTaskLoop.thisIndex,WTPTaskLoop.ran,right,left,leftmoney,rightmoney,WTP_ITI,social_left,Resume_keys.keys,Resume_keys.rt,end_screen_keys.keys,end_screen_keys.rt
space,107.1539,66f0bbf2ad2ccf85f492cbcb,2024-10-21_13h40.57.418,WTP_SM_Choice,2022.2.1,Win32,60.24096386,,,,,,,,,,,,,,,,,,,,,,,,,,,,,,,,,,,,,,,,,,,,,
,,66f0bbf2ad2ccf85f492cbcb,2024-10-21_13h40.57.418,WTP_SM_Choice,2022.2.1,Win32,60.24096386,space,5.6471,,,,,,,,,,,,,,,,,,,,,,,,,,,,,,,,,,,,,,,,,,,
,,66f0bbf2ad2ccf85f492cbcb,2024-10-21_13h40.57.418,WTP_SM_Choice,2022.2.1,Win32,60.24096386,,,space,14.7602,space,0.6982,NAN,,NAN,0,6,,0,0,0,0,1,1,Sam,Rej,Participant_Images/66f0bbf2ad2ccf85f492cbcb/66f0bbf2ad2ccf85f492cbcb_Images/66f0bbf2ad2ccf85f492cbcb_Image_14.jpeg,liked,3.613205605,,,,,,,,,,,,,,,,,,,,,,
,,66f0bbf2ad2ccf85f492cbcb,2024-10-21_13h40.57.418,WTP_SM_Choice,2022.2.1,Win32,60.24096386,,,,,space,0.7023,NAN,,NAN,0,6,,0,1,1,1,1,2,Sam,Rej,Participant_Images/66f0bbf2ad2ccf85f492cbcb/66f0bbf2ad2ccf85f492cbcb_Images/66f0bbf2ad2ccf85f492cbcb_Image_20.jpeg,did not like,4.988446431,,,,,,,,,,,,,,,,,,,,,,
,,66f0bbf2ad2ccf85f492cbcb,2024-10-21_13h40.57.418,WTP_SM_Choice,2022.2.1,Win32,60.24096386,,,,,space,6.6009,NAN,,NAN,0,6,,0,2,2,2,1,3,Sam,Rej,Participant_Images/66f0bbf2ad2ccf85f492cbcb/66f0bbf2ad2ccf85f492cbcb_Images/66f0bbf2ad2ccf85f492cbcb_Image_25.jpeg,liked,3.470791822,,,,,,,,,,,,,,,,,,,,,,
,,66f0bbf2ad2ccf85f492cbcb,2024-10-21_13h40.57.418,WTP_SM_Choice,2022.2.1,Win32,60.24096386,,,,,space,2.9087,NAN,,NAN,0,6,,0,3,3,3,1,4,Sam,Rej,Participant_Images/66f0bbf2ad2ccf85f492cbcb/66f0bbf2ad2ccf85f492cbcb_Images/66f0bbf2ad2ccf85f492cbcb_Image_12.jpeg,did not like,3.820572462,,,,,,,,,,,,,,,,,,,,,,
,,66f0bbf2ad2ccf85f492cbcb,2024-10-21_13h40.57.418,WTP_SM_Choice,2022.2.1,Win32,60.24096386,,,,,,,,,,,,,,,,,,1,,,,,,space,11.059,space,1.7576,0.01,2,6.2024,0,0,0,0,1,Attending a concert with my partner,run,0.01,0.01,4.4,0,,,,
,,66f0bbf2ad2ccf85f492cbcb,2024-10-21_13h40.57.418,WTP_SM_Choice,2022.2.1,Win32,60.24096386,,,,,,,,,,,,,,,,,,2,,,,,,,,,,0.01,2,5.3203,0,1,1,1,1,Have a picnic with my family,Hike to my favorite spots,0.02,0.01,8.8,0,,,,
,,66f0bbf2ad2ccf85f492cbcb,2024-10-21_13h40.57.418,WTP_SM_Choice,2022.2.1,Win32,60.24096386,,,,,,,,,,,,,,,,,,3,,,,,,,,,,,,,0,2,2,2,1,Seeing a movie with my partner,Cook a new recipe,0.03,0.01,3.3,0,,,,
,,66f0bbf2ad2ccf85f492cbcb,2024-10-21_13h40.57.418,WTP_SM_Choice,2022.2.1,Win32,60.24096386,,,,,,,,,,,,,,,,,,4,,,,,,,,,,0.04,1,1.0536,0,3,3,3,1,Listen to my favorite playlist,Go to the bar to have some drinks with friends,0.04,0.01,1.1,1,,,,
,,66f0bbf2ad2ccf85f492cbcb,2024-10-21_13h40.57.418,WTP_SM_Choice,2022.2.1,Win32,60.24096386,,,,,,,,,,,,,,,,,,5,,,,,,,,,,0.01,2,0.7907,0,4,4,4,1,Play fetch with my dogs and teaching them tricks,Seeing a movie with my partner,0.05,0.01,1.1,1,,,,
,,66f0bbf2ad2ccf85f492cbcb,2024-10-21_13h40.57.418,WTP_SM_Choice,2022.2.1,Win32,60.24096386,,,,,,,NAN,,NAN,0.07,5.93,,0,4,4,4,1,5,Sam,Rej,Participant_Images/66f0bbf2ad2ccf85f492cbcb/66f0bbf2ad2ccf85f492cbcb_Images/66f0bbf2ad2ccf85f492cbcb_Image_16.jpeg,did not like,2.455989137,,,,,,,,,,,,,,,,,,,,,,
,,66f0bbf2ad2ccf85f492cbcb,2024-10-21_13h40.57.418,WTP_SM_Choice,2022.2.1,Win32,60.24096386,,,,,space,1.3732,NAN,,NAN,0.07,5.93,,0,5,5,5,1,6,Sam,Rej,Participant_Images/66f0bbf2ad2ccf85f492cbcb/66f0bbf2ad2ccf85f492cbcb_Images/66f0bbf2ad2ccf85f492cbcb_Image_24.jpeg,did not like,3.79605092,,,,,,,,,,,,,,,,,,,,,,
,,66f0bbf2ad2ccf85f492cbcb,2024-10-21_13h40.57.418,WTP_SM_Choice,2022.2.1,Win32,60.24096386,,,,,space,2.494,NAN,,NAN,0.07,5.93,,0,6,6,6,1,7,Sam,Rej,Participant_Images/66f0bbf2ad2ccf85f492cbcb/66f0bbf2ad2ccf85f492cbcb_Images/66f0bbf2ad2ccf85f492cbcb_Image_2.jpeg,did not like,3.562416326,,,,,,,,,,,,,,,,,,,,,,
,,66f0bbf2ad2ccf85f492cbcb,2024-10-21_13h40.57.418,WTP_SM_Choice,2022.2.1,Win32,60.24096386,,,,,space,0.7392,NAN,,NAN,0.07,5.93,,0,7,7,7,1,8,Sam,Rej,Participant_Images/66f0bbf2ad2ccf85f492cbcb/66f0bbf2ad2ccf85f492cbcb_Images/66f0bbf2ad2ccf85f492cbcb_Image_7.jpeg,did not like,2.843822497,,,,,,,,,,,,,,,,,,,,,,
,,66f0bbf2ad2ccf85f492cbcb,2024-10-21_13h40.57.418,WTP_SM_Choice,2022.2.1,Win32,60.24096386,,,,,space,0.7165,NAN,,NAN,0.07,5.93,,0,8,8,8,1,9,Sam,Rej,Participant_Images/66f0bbf2ad2ccf85f492cbcb/66f0bbf2ad2ccf85f492cbcb_Images/66f0bbf2ad2ccf85f492cbcb_Image_4.jpeg,did not like,3.546495948,,,,,,,,,,,,,,,,,,,,,,
,,66f0bbf2ad2ccf85f492cbcb,2024-10-21_13h40.57.418,WTP_SM_Choice,2022.2.1,Win32,60.24096386,,,,,,,,,,,,,,,,,,6,,,,,,space,0.7985,space,10.7287,0.01,1,3.2937,0,0,0,0,1,Read on my bed,Take a camping trip with my partner,0.01,0.02,3.3,1,,,,
,,66f0bbf2ad2ccf85f492cbcb,2024-10-21_13h40.57.418,WTP_SM_Choice,2022.2.1,Win32,60.24096386,,,,,,,,,,,,,,,,,,7,,,,,,,,,,0.02,2,2.3719,0,1,1,1,1,Go sight seeing with my partner,Read on my bed,0.02,0.02,1.1,0,,,,
,,66f0bbf2ad2ccf85f492cbcb,2024-10-21_13h40.57.418,WTP_SM_Choice,2022.2.1,Win32,60.24096386,,,,,,,,,,,,,,,,,,8,,,,,,,,,,0.02,2,2.5165,0,2,2,2,1,Go skiing or ice skating with my partner,run,0.03,0.02,1.1,0,,,,
,,66f0bbf2ad2ccf85f492cbcb,2024-10-21_13h40.57.418,WTP_SM_Choice,2022.2.1,Win32,60.24096386,,,,,,,,,,,,,,,,,,9,,,,,,,,,,0.02,2,3.1487,0,3,3,3,1,Go to the bar to have some drinks with friends,Cook a new recipe,0.04,0.02,4.4,0,,,,
,,66f0bbf2ad2ccf85f492cbcb,2024-10-21_13h40.57.418,WTP_SM_Choice,2022.2.1,Win32,60.24096386,,,,,,,,,,,,,,,,,,10,,,,,,,,,,0.05,1,2.4199,0,4,4,4,1,Have a picnic with my family,Play fetch with my dogs and teaching them tricks,0.05,0.02,1.1,0,,,,
,,66f0bbf2ad2ccf85f492cbcb,2024-10-21_13h40.57.418,WTP_SM_Choice,2022.2.1,Win32,60.24096386,,,,,,,NAN,,NAN,0.19,5.81,,0,9,9,9,1,10,Sam,Rej,Participant_Images/66f0bbf2ad2ccf85f492cbcb/66f0bbf2ad2ccf85f492cbcb_Images/66f0bbf2ad2ccf85f492cbcb_Image_5.jpeg,liked,1.672012706,,,,,,,,,,,,,,,,,,,,,,
,,66f0bbf2ad2ccf85f492cbcb,2024-10-21_13h40.57.418,WTP_SM_Choice,2022.2.1,Win32,60.24096386,,,,,space,0.724,NAN,,NAN,0.19,5.81,,0,10,10,10,1,11,Sam,Rej,Participant_Images/66f0bbf2ad2ccf85f492cbcb/66f0bbf2ad2ccf85f492cbcb_Images/66f0bbf2ad2ccf85f492cbcb_Image_19.jpeg,liked,4.942172136,,,,,,,,,,,,,,,,,,,,,,
,,66f0bbf2ad2ccf85f492cbcb,2024-10-21_13h40.57.418,WTP_SM_Choice,2022.2.1,Win32,60.24096386,,,,,space,1.0809,NAN,,NAN,0.19,5.81,,0,11,11,11,1,12,Sam,Rej,Participant_Images/66f0bbf2ad2ccf85f492cbcb/66f0bbf2ad2ccf85f492cbcb_Images/66f0bbf2ad2ccf85f492cbcb_Image_18.jpeg,did not like,2.50187214,,,,,,,,,,,,,,,,,,,,,,
,,66f0bbf2ad2ccf85f492cbcb,2024-10-21_13h40.57.418,WTP_SM_Choice,2022.2.1,Win32,60.24096386,,,,,space,1.001,NAN,,NAN,0.19,5.81,,0,12,12,12,1,13,Sam,Rej,Participant_Images/66f0bbf2ad2ccf85f492cbcb/66f0bbf2ad2ccf85f492cbcb_Images/66f0bbf2ad2ccf85f492cbcb_Image_17.jpeg,liked,2.071164779,,,,,,,,,,,,,,,,,,,,,,
,,66f0bbf2ad2ccf85f492cbcb,2024-10-21_13h40.57.418,WTP_SM_Choice,2022.2.1,Win32,60.24096386,,,,,space,0.6705,NAN,,NAN,0.19,5.81,,0,13,13,13,1,14,Sam,Rej,Participant_Images/66f0bbf2ad2ccf85f492cbcb/66f0bbf2ad2ccf85f492cbcb_Images/66f0bbf2ad2ccf85f492cbcb_Image_6.jpeg,did not like,5.336503566,,,,,,,,,,,,,,,,,,,,,,
,,66f0bbf2ad2ccf85f492cbcb,2024-10-21_13h40.57.418,WTP_SM_Choice,2022.2.1,Win32,60.24096386,,,,,,,,,,,,,,,,,,11,,,,,,space,1.1709,space,0.7319,0.01,1,3.1887,0,0,0,0,1,Read on my bed,Go skiing or ice skating with my partner,0.01,0.03,3.3,1,,,,
,,66f0bbf2ad2ccf85f492cbcb,2024-10-21_13h40.57.418,WTP_SM_Choice,2022.2.1,Win32,60.24096386,,,,,,,,,,,,,,,,,,12,,,,,,,,,,0.02,1,2.1639,0,1,1,1,1,run,Have a picnic with my family,0.02,0.03,4.4,1,,,,
,,66f0bbf2ad2ccf85f492cbcb,2024-10-21_13h40.57.418,WTP_SM_Choice,2022.2.1,Win32,60.24096386,,,,,,,,,,,,,,,,,,13,,,,,,,,,,0.03,2,2.2112,0,2,2,2,1,Play fetch with my dogs and teaching them tricks,Go to the bar to have some drinks with friends,0.03,0.03,1.1,1,,,,
,,66f0bbf2ad2ccf85f492cbcb,2024-10-21_13h40.57.418,WTP_SM_Choice,2022.2.1,Win32,60.24096386,,,,,,,,,,,,,,,,,,14,,,,,,,,,,0.03,2,5.2408,0,3,3,3,1,Read on my bed,Have a picnic with my family,0.04,0.03,3.3,1,,,,
,,66f0bbf2ad2ccf85f492cbcb,2024-10-21_13h40.57.418,WTP_SM_Choice,2022.2.1,Win32,60.24096386,,,,,,,,,,,,,,,,,,15,,,,,,,,,,0.03,2,2.46,0,4,4,4,1,Take a drive ,Attending a concert with my partner,0.05,0.03,4.4,1,,,,
,,66f0bbf2ad2ccf85f492cbcb,2024-10-21_13h40.57.418,WTP_SM_Choice,2022.2.1,Win32,60.24096386,,,,,,,NAN,,NAN,0.31,5.69,,0,14,14,14,1,15,Sam,Rej,Participant_Images/66f0bbf2ad2ccf85f492cbcb/66f0bbf2ad2ccf85f492cbcb_Images/66f0bbf2ad2ccf85f492cbcb_Image_11.jpeg,did not like,2.642157193,,,,,,,,,,,,,,,,,,,,,,
,,66f0bbf2ad2ccf85f492cbcb,2024-10-21_13h40.57.418,WTP_SM_Choice,2022.2.1,Win32,60.24096386,,,,,space,0.8815,NAN,,NAN,0.31,5.69,,0,15,15,15,1,16,Sam,Rej,Participant_Images/66f0bbf2ad2ccf85f492cbcb/66f0bbf2ad2ccf85f492cbcb_Images/66f0bbf2ad2ccf85f492cbcb_Image_23.jpeg,did not like,4.456234322,,,,,,,,,,,,,,,,,,,,,,
,,66f0bbf2ad2ccf85f492cbcb,2024-10-21_13h40.57.418,WTP_SM_Choice,2022.2.1,Win32,60.24096386,,,,,space,0.7824,NAN,,NAN,0.31,5.69,,0,16,16,16,1,17,Sam,Rej,Participant_Images/66f0bbf2ad2ccf85f492cbcb/66f0bbf2ad2ccf85f492cbcb_Images/66f0bbf2ad2ccf85f492cbcb_Image_10.jpeg,did not like,4.438512181,,,,,,,,,,,,,,,,,,,,,,
,,66f0bbf2ad2ccf85f492cbcb,2024-10-21_13h40.57.418,WTP_SM_Choice,2022.2.1,Win32,60.24096386,,,,,space,0.7107,NAN,,NAN,0.31,5.69,,0,17,17,17,1,18,Sam,Rej,Participant_Images/66f0bbf2ad2ccf85f492cbcb/66f0bbf2ad2ccf85f492cbcb_Images/66f0bbf2ad2ccf85f492cbcb_Image_21.jpeg,did not like,2.682944783,,,,,,,,,,,,,,,,,,,,,,
,,66f0bbf2ad2ccf85f492cbcb,2024-10-21_13h40.57.418,WTP_SM_Choice,2022.2.1,Win32,60.24096386,,,,,space,1.2271,NAN,,NAN,0.31,5.69,,0,18,18,18,1,19,Sam,Rej,Participant_Images/66f0bbf2ad2ccf85f492cbcb/66f0bbf2ad2ccf85f492cbcb_Images/66f0bbf2ad2ccf85f492cbcb_Image_3.jpeg,did not like,4.51984296,,,,,,,,,,,,,,,,,,,,,,
,,66f0bbf2ad2ccf85f492cbcb,2024-10-21_13h40.57.418,WTP_SM_Choice,2022.2.1,Win32,60.24096386,,,,,,,,,,,,,,,,,,16,,,,,,space,0.7423,space,0.6463,0.01,1,4.071,0,0,0,0,1,Take a camping trip with my partner,Go to the beach,0.01,0.04,1.1,0,,,,
,,66f0bbf2ad2ccf85f492cbcb,2024-10-21_13h40.57.418,WTP_SM_Choice,2022.2.1,Win32,60.24096386,,,,,,,,,,,,,,,,,,17,,,,,,,,,,0.02,1,2.5446,0,1,1,1,1,Take a camping trip with my partner,Play fetch with my dogs and teaching them tricks,0.02,0.04,8.8,0,,,,
,,66f0bbf2ad2ccf85f492cbcb,2024-10-21_13h40.57.418,WTP_SM_Choice,2022.2.1,Win32,60.24096386,,,,,,,,,,,,,,,,,,18,,,,,,,,,,0.03,1,4.0181,0,2,2,2,1,Play fetch with my dogs and teaching them tricks,Try out a new restaurant with my partner,0.03,0.04,3.3,1,,,,
,,66f0bbf2ad2ccf85f492cbcb,2024-10-21_13h40.57.418,WTP_SM_Choice,2022.2.1,Win32,60.24096386,,,,,,,,,,,,,,,,,,19,,,,,,,,,,0.04,1,3.3696,0,3,3,3,1,Cook a new recipe,Take a camping trip with my partner,0.04,0.04,3.3,1,,,,
,,66f0bbf2ad2ccf85f492cbcb,2024-10-21_13h40.57.418,WTP_SM_Choice,2022.2.1,Win32,60.24096386,,,,,,,,,,,,,,,,,,20,,,,,,,,,,0.05,1,4.1069,0,4,4,4,1,Watch a game at the stadium,Seeing a movie with my partner,0.05,0.04,1.1,1,,,,
,,66f0bbf2ad2ccf85f492cbcb,2024-10-21_13h40.57.418,WTP_SM_Choice,2022.2.1,Win32,60.24096386,,,,,,,NAN,,NAN,0.46,5.54,,0,19,19,19,1,20,Sam,Rej,Participant_Images/66f0bbf2ad2ccf85f492cbcb/66f0bbf2ad2ccf85f492cbcb_Images/66f0bbf2ad2ccf85f492cbcb_Image_1.jpeg,did not like,3.195382774,,,,,,,,,,,,,,,,,,,,,,
,,66f0bbf2ad2ccf85f492cbcb,2024-10-21_13h40.57.418,WTP_SM_Choice,2022.2.1,Win32,60.24096386,,,,,space,3.5099,NAN,,NAN,0.46,5.54,,0,20,20,20,1,21,Sam,Rej,Participant_Images/66f0bbf2ad2ccf85f492cbcb/66f0bbf2ad2ccf85f492cbcb_Images/66f0bbf2ad2ccf85f492cbcb_Image_8.jpeg,liked,1.779333479,,,,,,,,,,,,,,,,,,,,,,
,,66f0bbf2ad2ccf85f492cbcb,2024-10-21_13h40.57.418,WTP_SM_Choice,2022.2.1,Win32,60.24096386,,,,,space,2.0746,NAN,,NAN,0.46,5.54,,0,21,21,21,1,22,Sam,Rej,Participant_Images/66f0bbf2ad2ccf85f492cbcb/66f0bbf2ad2ccf85f492cbcb_Images/66f0bbf2ad2ccf85f492cbcb_Image_13.jpeg,did not like,4.312468682,,,,,,,,,,,,,,,,,,,,,,
,,66f0bbf2ad2ccf85f492cbcb,2024-10-21_13h40.57.418,WTP_SM_Choice,2022.2.1,Win32,60.24096386,,,,,space,1.8722,NAN,,NAN,0.46,5.54,,0,22,22,22,1,23,Sam,Rej,Participant_Images/66f0bbf2ad2ccf85f492cbcb/66f0bbf2ad2ccf85f492cbcb_Images/66f0bbf2ad2ccf85f492cbcb_Image_22.jpeg,did not like,4.940433059,,,,,,,,,,,,,,,,,,,,,,
,,66f0bbf2ad2ccf85f492cbcb,2024-10-21_13h40.57.418,WTP_SM_Choice,2022.2.1,Win32,60.24096386,,,,,space,3.3809,NAN,,NAN,0.46,5.54,,0,23,23,23,1,24,Sam,Rej,Participant_Images/66f0bbf2ad2ccf85f492cbcb/66f0bbf2ad2ccf85f492cbcb_Images/66f0bbf2ad2ccf85f492cbcb_Image_9.jpeg,did not like,2.7105123,,,,,,,,,,,,,,,,,,,,,,
,,66f0bbf2ad2ccf85f492cbcb,2024-10-21_13h40.57.418,WTP_SM_Choice,2022.2.1,Win32,60.24096386,,,,,,,,,,,,,,,,,,21,,,,,,space,0.598,space,0.5304,0.01,1,2.0785,0,0,0,0,1,Go to the beach,Go skiing or ice skating with my partner,0.01,0.05,8.8,1,,,,
,,66f0bbf2ad2ccf85f492cbcb,2024-10-21_13h40.57.418,WTP_SM_Choice,2022.2.1,Win32,60.24096386,,,,,,,,,,,,,,,,,,22,,,,,,,,,,0.02,1,2.4738,0,1,1,1,1,Watch a game at the stadium,Going for a swim with my friends,0.02,0.05,4.4,1,,,,
,,66f0bbf2ad2ccf85f492cbcb,2024-10-21_13h40.57.418,WTP_SM_Choice,2022.2.1,Win32,60.24096386,,,,,,,,,,,,,,,,,,23,,,,,,,,,,0.05,2,2.9432,0,2,2,2,1,Listen to my favorite playlist,Going for a swim with my friends,0.03,0.05,1.1,1,,,,
,,66f0bbf2ad2ccf85f492cbcb,2024-10-21_13h40.57.418,WTP_SM_Choice,2022.2.1,Win32,60.24096386,,,,,,,,,,,,,,,,,,24,,,,,,,,,,,,,0,3,3,3,1,Go to the beach,Go to the bar to have some drinks with friends,0.04,0.05,4.4,1,,,,
,,66f0bbf2ad2ccf85f492cbcb,2024-10-21_13h40.57.418,WTP_SM_Choice,2022.2.1,Win32,60.24096386,,,,,,,,,,,,,,,,,,25,,,,,,,,,,0.05,2,9.189,0,4,4,4,1,Listen to my favorite playlist,Have a picnic with my family,0.05,0.05,3.3,1,,,,
,,66f0bbf2ad2ccf85f492cbcb,2024-10-21_13h40.57.418,WTP_SM_Choice,2022.2.1,Win32,60.24096386,,,,,,,2,,4,0.59,5.41,,0,24,24,24,1,25,Sam,Rej,Participant_Images/66f0bbf2ad2ccf85f492cbcb/66f0bbf2ad2ccf85f492cbcb_Images/66f0bbf2ad2ccf85f492cbcb_Image_15.jpeg,liked,3.602308302,,,,,,,,,,,,,,,,,,,space,0.9256,,
,,66f0bbf2ad2ccf85f492cbcb,2024-10-21_13h40.57.418,WTP_SM_Choice,2022.2.1,Win32,60.24096386,,,space,2.1689,space,1.21,NAN,,NAN,0.59,5.41,,0,25,25,25,1,26,Riley,Rej,Participant_Images/66f0bbf2ad2ccf85f492cbcb/66f0bbf2ad2ccf85f492cbcb_Images/66f0bbf2ad2ccf85f492cbcb_Image_23.jpeg,did not like,4.106391878,,,,,,,,,,,,,,,,,,,,,,
,,66f0bbf2ad2ccf85f492cbcb,2024-10-21_13h40.57.418,WTP_SM_Choice,2022.2.1,Win32,60.24096386,,,,,space,1.8293,NAN,,NAN,0.59,5.41,,0,26,26,26,1,27,Riley,Rej,Participant_Images/66f0bbf2ad2ccf85f492cbcb/66f0bbf2ad2ccf85f492cbcb_Images/66f0bbf2ad2ccf85f492cbcb_Image_20.jpeg,did not like,3.799433026,,,,,,,,,,,,,,,,,,,,,,
,,66f0bbf2ad2ccf85f492cbcb,2024-10-21_13h40.57.418,WTP_SM_Choice,2022.2.1,Win32,60.24096386,,,,,space,1.1044,NAN,,NAN,0.59,5.41,,0,27,27,27,1,28,Riley,Rej,Participant_Images/66f0bbf2ad2ccf85f492cbcb/66f0bbf2ad2ccf85f492cbcb_Images/66f0bbf2ad2ccf85f492cbcb_Image_1.jpeg,did not like,5.246980764,,,,,,,,,,,,,,,,,,,,,,
,,66f0bbf2ad2ccf85f492cbcb,2024-10-21_13h40.57.418,WTP_SM_Choice,2022.2.1,Win32,60.24096386,,,,,space,0.6563,NAN,,NAN,0.59,5.41,,0,28,28,28,1,29,Riley,Rej,Participant_Images/66f0bbf2ad2ccf85f492cbcb/66f0bbf2ad2ccf85f492cbcb_Images/66f0bbf2ad2ccf85f492cbcb_Image_21.jpeg,liked,3.30081769,,,,,,,,,,,,,,,,,,,,,,
,,66f0bbf2ad2ccf85f492cbcb,2024-10-21_13h40.57.418,WTP_SM_Choice,2022.2.1,Win32,60.24096386,,,,,,,,,,,,,,,,,,26,,,,,,space,0.7448,space,0.674,0.01,1,1.725,0,0,0,0,1,Hike to my favorite spots,Go sight seeing with my partner,0.01,0.01,4.4,1,,,,
,,66f0bbf2ad2ccf85f492cbcb,2024-10-21_13h40.57.418,WTP_SM_Choice,2022.2.1,Win32,60.24096386,,,,,,,,,,,,,,,,,,27,,,,,,,,,,0.02,1,1.3375,0,1,1,1,1,run,Try out a new restaurant with my partner,0.02,0.01,3.3,1,,,,
,,66f0bbf2ad2ccf85f492cbcb,2024-10-21_13h40.57.418,WTP_SM_Choice,2022.2.1,Win32,60.24096386,,,,,,,,,,,,,,,,,,28,,,,,,,,,,0.03,1,2.5579,0,2,2,2,1,Going for a swim with my friends,Take a swim,0.03,0.01,3.3,0,,,,
,,66f0bbf2ad2ccf85f492cbcb,2024-10-21_13h40.57.418,WTP_SM_Choice,2022.2.1,Win32,60.24096386,,,,,,,,,,,,,,,,,,29,,,,,,,,,,0.04,1,2.7105,0,3,3,3,1,Take a camping trip with my partner,Watch a game at the stadium,0.04,0.01,4.4,0,,,,
,,66f0bbf2ad2ccf85f492cbcb,2024-10-21_13h40.57.418,WTP_SM_Choice,2022.2.1,Win32,60.24096386,,,,,,,,,,,,,,,,,,30,,,,,,,,,,0.01,2,6.3517,0,4,4,4,1,Try out a new restaurant with my partner,Take a swim,0.05,0.01,8.8,0,,,,
,,66f0bbf2ad2ccf85f492cbcb,2024-10-21_13h40.57.418,WTP_SM_Choice,2022.2.1,Win32,60.24096386,,,,,,,NAN,,NAN,0.7,5.3,,0,29,29,29,1,30,Riley,Rej,Participant_Images/66f0bbf2ad2ccf85f492cbcb/66f0bbf2ad2ccf85f492cbcb_Images/66f0bbf2ad2ccf85f492cbcb_Image_22.jpeg,liked,1.661473164,,,,,,,,,,,,,,,,,,,,,,
,,66f0bbf2ad2ccf85f492cbcb,2024-10-21_13h40.57.418,WTP_SM_Choice,2022.2.1,Win32,60.24096386,,,,,space,0.4701,NAN,,NAN,0.7,5.3,,0,30,30,30,1,31,Riley,Rej,Participant_Images/66f0bbf2ad2ccf85f492cbcb/66f0bbf2ad2ccf85f492cbcb_Images/66f0bbf2ad2ccf85f492cbcb_Image_6.jpeg,did not like,3.613205605,,,,,,,,,,,,,,,,,,,,,,
,,66f0bbf2ad2ccf85f492cbcb,2024-10-21_13h40.57.418,WTP_SM_Choice,2022.2.1,Win32,60.24096386,,,,,space,0.9325,NAN,,NAN,0.7,5.3,,0,31,31,31,1,32,Riley,Rej,Participant_Images/66f0bbf2ad2ccf85f492cbcb/66f0bbf2ad2ccf85f492cbcb_Images/66f0bbf2ad2ccf85f492cbcb_Image_8.jpeg,did not like,4.988446431,,,,,,,,,,,,,,,,,,,,,,
,,66f0bbf2ad2ccf85f492cbcb,2024-10-21_13h40.57.418,WTP_SM_Choice,2022.2.1,Win32,60.24096386,,,,,space,0.9341,NAN,,NAN,0.7,5.3,,0,32,32,32,1,33,Riley,Rej,Participant_Images/66f0bbf2ad2ccf85f492cbcb/66f0bbf2ad2ccf85f492cbcb_Images/66f0bbf2ad2ccf85f492cbcb_Image_4.jpeg,did not like,3.470791822,,,,,,,,,,,,,,,,,,,,,,
,,66f0bbf2ad2ccf85f492cbcb,2024-10-21_13h40.57.418,WTP_SM_Choice,2022.2.1,Win32,60.24096386,,,,,space,0.95,NAN,,NAN,0.7,5.3,,0,33,33,33,1,34,Riley,Rej,Participant_Images/66f0bbf2ad2ccf85f492cbcb/66f0bbf2ad2ccf85f492cbcb_Images/66f0bbf2ad2ccf85f492cbcb_Image_13.jpeg,liked,3.820572462,,,,,,,,,,,,,,,,,,,,,,
,,66f0bbf2ad2ccf85f492cbcb,2024-10-21_13h40.57.418,WTP_SM_Choice,2022.2.1,Win32,60.24096386,,,,,,,,,,,,,,,,,,31,,,,,,space,0.6668,space,0.6717,0.01,1,4.5154,0,0,0,0,1,Go sight seeing with my partner,Cook a new recipe,0.01,0.02,8.8,0,,,,
,,66f0bbf2ad2ccf85f492cbcb,2024-10-21_13h40.57.418,WTP_SM_Choice,2022.2.1,Win32,60.24096386,,,,,,,,,,,,,,,,,,32,,,,,,,,,,0.02,1,1.8346,0,1,1,1,1,Go to the beach,Go hiking with my partner,0.02,0.02,1.1,1,,,,
,,66f0bbf2ad2ccf85f492cbcb,2024-10-21_13h40.57.418,WTP_SM_Choice,2022.2.1,Win32,60.24096386,,,,,,,,,,,,,,,,,,33,,,,,,,,,,0.02,2,9.1157,0,2,2,2,1,Go sight seeing with my partner,Watch a game at the stadium,0.03,0.02,4.4,0,,,,
,,66f0bbf2ad2ccf85f492cbcb,2024-10-21_13h40.57.418,WTP_SM_Choice,2022.2.1,Win32,60.24096386,,,,,,,,,,,,,,,,,,34,,,,,,,,,,0.02,2,4.6271,0,3,3,3,1,Hike to my favorite spots,Going for a swim with my friends,0.04,0.02,3.3,1,,,,
,,66f0bbf2ad2ccf85f492cbcb,2024-10-21_13h40.57.418,WTP_SM_Choice,2022.2.1,Win32,60.24096386,,,,,,,,,,,,,,,,,,35,,,,,,,,,,0.02,2,4.4966,0,4,4,4,1,Go to the bar to have some drinks with friends,Take a swim,0.05,0.02,1.1,0,,,,
,,66f0bbf2ad2ccf85f492cbcb,2024-10-21_13h40.57.418,WTP_SM_Choice,2022.2.1,Win32,60.24096386,,,,,,,NAN,,NAN,0.79,5.21,,0,34,34,34,1,35,Riley,Rej,Participant_Images/66f0bbf2ad2ccf85f492cbcb/66f0bbf2ad2ccf85f492cbcb_Images/66f0bbf2ad2ccf85f492cbcb_Image_9.jpeg,did not like,2.455989137,,,,,,,,,,,,,,,,,,,,,,
,,66f0bbf2ad2ccf85f492cbcb,2024-10-21_13h40.57.418,WTP_SM_Choice,2022.2.1,Win32,60.24096386,,,,,space,12.3608,NAN,,NAN,0.79,5.21,,0,35,35,35,1,36,Riley,Rej,Participant_Images/66f0bbf2ad2ccf85f492cbcb/66f0bbf2ad2ccf85f492cbcb_Images/66f0bbf2ad2ccf85f492cbcb_Image_3.jpeg,did not like,3.79605092,,,,,,,,,,,,,,,,,,,,,,
,,66f0bbf2ad2ccf85f492cbcb,2024-10-21_13h40.57.418,WTP_SM_Choice,2022.2.1,Win32,60.24096386,,,,,space,5.7922,NAN,,NAN,0.79,5.21,,0,36,36,36,1,37,Riley,Rej,Participant_Images/66f0bbf2ad2ccf85f492cbcb/66f0bbf2ad2ccf85f492cbcb_Images/66f0bbf2ad2ccf85f492cbcb_Image_19.jpeg,liked,3.562416326,,,,,,,,,,,,,,,,,,,,,,
,,66f0bbf2ad2ccf85f492cbcb,2024-10-21_13h40.57.418,WTP_SM_Choice,2022.2.1,Win32,60.24096386,,,,,space,0.5404,NAN,,NAN,0.79,5.21,,0,37,37,37,1,38,Riley,Rej,Participant_Images/66f0bbf2ad2ccf85f492cbcb/66f0bbf2ad2ccf85f492cbcb_Images/66f0bbf2ad2ccf85f492cbcb_Image_24.jpeg,did not like,2.843822497,,,,,,,,,,,,,,,,,,,,,,
,,66f0bbf2ad2ccf85f492cbcb,2024-10-21_13h40.57.418,WTP_SM_Choice,2022.2.1,Win32,60.24096386,,,,,space,5.6094,NAN,,NAN,0.79,5.21,,0,38,38,38,1,39,Riley,Rej,Participant_Images/66f0bbf2ad2ccf85f492cbcb/66f0bbf2ad2ccf85f492cbcb_Images/66f0bbf2ad2ccf85f492cbcb_Image_2.jpeg,liked,3.546495948,,,,,,,,,,,,,,,,,,,,,,
,,66f0bbf2ad2ccf85f492cbcb,2024-10-21_13h40.57.418,WTP_SM_Choice,2022.2.1,Win32,60.24096386,,,,,,,,,,,,,,,,,,36,,,,,,space,1.3142,space,0.532,0.01,1,2.039,0,0,0,0,1,Seeing a movie with my partner,Listen to my favorite playlist,0.01,0.03,3.3,0,,,,
,,66f0bbf2ad2ccf85f492cbcb,2024-10-21_13h40.57.418,WTP_SM_Choice,2022.2.1,Win32,60.24096386,,,,,,,,,,,,,,,,,,37,,,,,,,,,,0.02,1,2.5978,0,1,1,1,1,Go to the bar to have some drinks with friends,Watch a game at the stadium,0.02,0.03,1.1,0,,,,
,,66f0bbf2ad2ccf85f492cbcb,2024-10-21_13h40.57.418,WTP_SM_Choice,2022.2.1,Win32,60.24096386,,,,,,,,,,,,,,,,,,38,,,,,,,,,,0.03,1,1.2308,0,2,2,2,1,Watch a game at the stadium,Have a picnic with my family,0.03,0.03,1.1,1,,,,
,,66f0bbf2ad2ccf85f492cbcb,2024-10-21_13h40.57.418,WTP_SM_Choice,2022.2.1,Win32,60.24096386,,,,,,,,,,,,,,,,,,39,,,,,,,,,,0.04,1,3.2736,0,3,3,3,1,Listen to my favorite playlist,Attending a concert with my partner,0.04,0.03,3.3,1,,,,
,,66f0bbf2ad2ccf85f492cbcb,2024-10-21_13h40.57.418,WTP_SM_Choice,2022.2.1,Win32,60.24096386,,,,,,,,,,,,,,,,,,40,,,,,,,,,,0.05,1,5.0041,0,4,4,4,1,Hike to my favorite spots,Attending a concert with my partner,0.05,0.03,4.4,1,,,,
,,66f0bbf2ad2ccf85f492cbcb,2024-10-21_13h40.57.418,WTP_SM_Choice,2022.2.1,Win32,60.24096386,,,,,,,NAN,,NAN,0.94,5.06,,0,39,39,39,1,40,Riley,Rej,Participant_Images/66f0bbf2ad2ccf85f492cbcb/66f0bbf2ad2ccf85f492cbcb_Images/66f0bbf2ad2ccf85f492cbcb_Image_10.jpeg,did not like,1.672012706,,,,,,,,,,,,,,,,,,,,,,
,,66f0bbf2ad2ccf85f492cbcb,2024-10-21_13h40.57.418,WTP_SM_Choice,2022.2.1,Win32,60.24096386,,,,,space,2.5146,NAN,,NAN,0.94,5.06,,0,40,40,40,1,41,Riley,Rej,Participant_Images/66f0bbf2ad2ccf85f492cbcb/66f0bbf2ad2ccf85f492cbcb_Images/66f0bbf2ad2ccf85f492cbcb_Image_17.jpeg,did not like,4.942172136,,,,,,,,,,,,,,,,,,,,,,
,,66f0bbf2ad2ccf85f492cbcb,2024-10-21_13h40.57.418,WTP_SM_Choice,2022.2.1,Win32,60.24096386,,,,,space,3.861,NAN,,NAN,0.94,5.06,,0,41,41,41,1,42,Riley,Rej,Participant_Images/66f0bbf2ad2ccf85f492cbcb/66f0bbf2ad2ccf85f492cbcb_Images/66f0bbf2ad2ccf85f492cbcb_Image_11.jpeg,did not like,2.50187214,,,,,,,,,,,,,,,,,,,,,,
,,66f0bbf2ad2ccf85f492cbcb,2024-10-21_13h40.57.418,WTP_SM_Choice,2022.2.1,Win32,60.24096386,,,,,space,2.3149,NAN,,NAN,0.94,5.06,,0,42,42,42,1,43,Riley,Rej,Participant_Images/66f0bbf2ad2ccf85f492cbcb/66f0bbf2ad2ccf85f492cbcb_Images/66f0bbf2ad2ccf85f492cbcb_Image_7.jpeg,did not like,2.071164779,,,,,,,,,,,,,,,,,,,,,,
,,66f0bbf2ad2ccf85f492cbcb,2024-10-21_13h40.57.418,WTP_SM_Choice,2022.2.1,Win32,60.24096386,,,,,space,3.2816,NAN,,NAN,0.94,5.06,,0,43,43,43,1,44,Riley,Rej,Participant_Images/66f0bbf2ad2ccf85f492cbcb/66f0bbf2ad2ccf85f492cbcb_Images/66f0bbf2ad2ccf85f492cbcb_Image_25.jpeg,liked,5.336503566,,,,,,,,,,,,,,,,,,,,,,
,,66f0bbf2ad2ccf85f492cbcb,2024-10-21_13h40.57.418,WTP_SM_Choice,2022.2.1,Win32,60.24096386,,,,,,,,,,,,,,,,,,41,,,,,,space,9.4581,space,0.692,0.01,1,2.9566,0,0,0,0,1,Try out a new restaurant with my partner,Hike to my favorite spots,0.01,0.04,1.1,0,,,,
,,66f0bbf2ad2ccf85f492cbcb,2024-10-21_13h40.57.418,WTP_SM_Choice,2022.2.1,Win32,60.24096386,,,,,,,,,,,,,,,,,,42,,,,,,,,,,0.04,2,1.2667,0,1,1,1,1,Go skiing or ice skating with my partner,Cook a new recipe,0.02,0.04,3.3,0,,,,
,,66f0bbf2ad2ccf85f492cbcb,2024-10-21_13h40.57.418,WTP_SM_Choice,2022.2.1,Win32,60.24096386,,,,,,,,,,,,,,,,,,43,,,,,,,,,,0.04,2,8.1156,0,2,2,2,1,Take a drive ,Going for a swim with my friends,0.03,0.04,1.1,1,,,,
,,66f0bbf2ad2ccf85f492cbcb,2024-10-21_13h40.57.418,WTP_SM_Choice,2022.2.1,Win32,60.24096386,,,,,,,,,,,,,,,,,,44,,,,,,,,,,0.04,1,1.8676,0,3,3,3,1,Hike to my favorite spots,Seeing a movie with my partner,0.04,0.04,1.1,1,,,,
,,66f0bbf2ad2ccf85f492cbcb,2024-10-21_13h40.57.418,WTP_SM_Choice,2022.2.1,Win32,60.24096386,,,,,,,,,,,,,,,,,,45,,,,,,,,,,0.05,1,2.7821,0,4,4,4,1,Go hiking with my partner,Take a drive ,0.05,0.04,4.4,0,,,,
,,66f0bbf2ad2ccf85f492cbcb,2024-10-21_13h40.57.418,WTP_SM_Choice,2022.2.1,Win32,60.24096386,,,,,,,NAN,,NAN,1.12,4.88,,0,44,44,44,1,45,Riley,Rej,Participant_Images/66f0bbf2ad2ccf85f492cbcb/66f0bbf2ad2ccf85f492cbcb_Images/66f0bbf2ad2ccf85f492cbcb_Image_16.jpeg,did not like,2.642157193,,,,,,,,,,,,,,,,,,,,,,
,,66f0bbf2ad2ccf85f492cbcb,2024-10-21_13h40.57.418,WTP_SM_Choice,2022.2.1,Win32,60.24096386,,,,,space,3.6351,NAN,,NAN,1.12,4.88,,0,45,45,45,1,46,Riley,Rej,Participant_Images/66f0bbf2ad2ccf85f492cbcb/66f0bbf2ad2ccf85f492cbcb_Images/66f0bbf2ad2ccf85f492cbcb_Image_12.jpeg,did not like,4.456234322,,,,,,,,,,,,,,,,,,,,,,
,,66f0bbf2ad2ccf85f492cbcb,2024-10-21_13h40.57.418,WTP_SM_Choice,2022.2.1,Win32,60.24096386,,,,,space,3.2274,NAN,,NAN,1.12,4.88,,0,46,46,46,1,47,Riley,Rej,Participant_Images/66f0bbf2ad2ccf85f492cbcb/66f0bbf2ad2ccf85f492cbcb_Images/66f0bbf2ad2ccf85f492cbcb_Image_5.jpeg,did not like,4.438512181,,,,,,,,,,,,,,,,,,,,,,
,,66f0bbf2ad2ccf85f492cbcb,2024-10-21_13h40.57.418,WTP_SM_Choice,2022.2.1,Win32,60.24096386,,,,,space,1.2317,NAN,,NAN,1.12,4.88,,0,47,47,47,1,48,Riley,Rej,Participant_Images/66f0bbf2ad2ccf85f492cbcb/66f0bbf2ad2ccf85f492cbcb_Images/66f0bbf2ad2ccf85f492cbcb_Image_18.jpeg,did not like,2.682944783,,,,,,,,,,,,,,,,,,,,,,
,,66f0bbf2ad2ccf85f492cbcb,2024-10-21_13h40.57.418,WTP_SM_Choice,2022.2.1,Win32,60.24096386,,,,,space,0.0496,NAN,,NAN,1.12,4.88,,0,48,48,48,1,49,Riley,Rej,Participant_Images/66f0bbf2ad2ccf85f492cbcb/66f0bbf2ad2ccf85f492cbcb_Images/66f0bbf2ad2ccf85f492cbcb_Image_14.jpeg,liked,4.51984296,,,,,,,,,,,,,,,,,,,,,,
,,66f0bbf2ad2ccf85f492cbcb,2024-10-21_13h40.57.418,WTP_SM_Choice,2022.2.1,Win32,60.24096386,,,,,,,,,,,,,,,,,,46,,,,,,space,0.6525,space,0.4811,0.01,1,1.4314,0,0,0,0,1,Play fetch with my dogs and teaching them tricks,Go hiking with my partner,0.01,0.05,8.8,1,,,,
,,66f0bbf2ad2ccf85f492cbcb,2024-10-21_13h40.57.418,WTP_SM_Choice,2022.2.1,Win32,60.24096386,,,,,,,,,,,,,,,,,,47,,,,,,,,,,0.02,1,1.7863,0,1,1,1,1,Hike to my favorite spots,Go to the bar to have some drinks with friends,0.02,0.05,1.1,1,,,,
,,66f0bbf2ad2ccf85f492cbcb,2024-10-21_13h40.57.418,WTP_SM_Choice,2022.2.1,Win32,60.24096386,,,,,,,,,,,,,,,,,,48,,,,,,,,,,0.05,2,3.166,0,2,2,2,1,Seeing a movie with my partner,run,0.03,0.05,4.4,0,,,,
,,66f0bbf2ad2ccf85f492cbcb,2024-10-21_13h40.57.418,WTP_SM_Choice,2022.2.1,Win32,60.24096386,,,,,,,,,,,,,,,,,,49,,,,,,,,,,0.04,1,0.7563,0,3,3,3,1,run,Go hiking with my partner,0.04,0.05,3.3,1,,,,
,,66f0bbf2ad2ccf85f492cbcb,2024-10-21_13h40.57.418,WTP_SM_Choice,2022.2.1,Win32,60.24096386,,,,,,,,,,,,,,,,,,50,,,,,,,,,,0.05,1,1.3965,0,4,4,4,1,Go hiking with my partner,Read on my bed,0.05,0.05,1.1,0,,,,
,,66f0bbf2ad2ccf85f492cbcb,2024-10-21_13h40.57.418,WTP_SM_Choice,2022.2.1,Win32,60.24096386,,,,,,,3,,6,1.29,4.71,,0,49,49,49,1,50,Riley,Rej,Participant_Images/66f0bbf2ad2ccf85f492cbcb/66f0bbf2ad2ccf85f492cbcb_Images/66f0bbf2ad2ccf85f492cbcb_Image_15.jpeg,did not like,3.195382774,,,,,,,,,,,,,,,,,,,space,2.2943,,
,,66f0bbf2ad2ccf85f492cbcb,2024-10-21_13h40.57.418,WTP_SM_Choice,2022.2.1,Win32,60.24096386,,,space,3.2228,space,7.0849,NAN,,NAN,1.29,4.71,,0,50,50,50,1,51,Charlie,Acc,Participant_Images/66f0bbf2ad2ccf85f492cbcb/66f0bbf2ad2ccf85f492cbcb_Images/66f0bbf2ad2ccf85f492cbcb_Image_13.jpeg,liked,1.779333479,,,,,,,,,,,,,,,,,,,,,,
,,66f0bbf2ad2ccf85f492cbcb,2024-10-21_13h40.57.418,WTP_SM_Choice,2022.2.1,Win32,60.24096386,,,,,space,2.2972,NAN,,NAN,1.29,4.71,,0,51,51,51,1,52,Charlie,Acc,Participant_Images/66f0bbf2ad2ccf85f492cbcb/66f0bbf2ad2ccf85f492cbcb_Images/66f0bbf2ad2ccf85f492cbcb_Image_22.jpeg,liked,4.312468682,,,,,,,,,,,,,,,,,,,,,,
,,66f0bbf2ad2ccf85f492cbcb,2024-10-21_13h40.57.418,WTP_SM_Choice,2022.2.1,Win32,60.24096386,,,,,space,3.8065,NAN,,NAN,1.29,4.71,,0,52,52,52,1,53,Charlie,Acc,Participant_Images/66f0bbf2ad2ccf85f492cbcb/66f0bbf2ad2ccf85f492cbcb_Images/66f0bbf2ad2ccf85f492cbcb_Image_16.jpeg,liked,4.940433059,,,,,,,,,,,,,,,,,,,,,,
,,66f0bbf2ad2ccf85f492cbcb,2024-10-21_13h40.57.418,WTP_SM_Choice,2022.2.1,Win32,60.24096386,,,,,space,0.7483,NAN,,NAN,1.29,4.71,,0,53,53,53,1,54,Charlie,Acc,Participant_Images/66f0bbf2ad2ccf85f492cbcb/66f0bbf2ad2ccf85f492cbcb_Images/66f0bbf2ad2ccf85f492cbcb_Image_5.jpeg,liked,2.7105123,,,,,,,,,,,,,,,,,,,,,,
,,66f0bbf2ad2ccf85f492cbcb,2024-10-21_13h40.57.418,WTP_SM_Choice,2022.2.1,Win32,60.24096386,,,,,,,,,,,,,,,,,,51,,,,,,space,0.6131,space,0.4329,0.01,2,1.5517,0,0,0,0,1,Go to the beach,Have a picnic with my family,0.01,0.01,1.1,1,,,,
,,66f0bbf2ad2ccf85f492cbcb,2024-10-21_13h40.57.418,WTP_SM_Choice,2022.2.1,Win32,60.24096386,,,,,,,,,,,,,,,,,,52,,,,,,,,,,0.01,2,1.2271,0,1,1,1,1,Attending a concert with my partner,Go to the beach,0.02,0.01,3.3,0,,,,
,,66f0bbf2ad2ccf85f492cbcb,2024-10-21_13h40.57.418,WTP_SM_Choice,2022.2.1,Win32,60.24096386,,,,,,,,,,,,,,,,,,53,,,,,,,,,,0.03,1,1.2917,0,2,2,2,1,Cook a new recipe,Going for a swim with my friends,0.03,0.01,1.1,1,,,,
,,66f0bbf2ad2ccf85f492cbcb,2024-10-21_13h40.57.418,WTP_SM_Choice,2022.2.1,Win32,60.24096386,,,,,,,,,,,,,,,,,,54,,,,,,,,,,0.04,1,2.5061,0,3,3,3,1,Watch a game at the stadium,Attending a concert with my partner,0.04,0.01,4.4,1,,,,
,,66f0bbf2ad2ccf85f492cbcb,2024-10-21_13h40.57.418,WTP_SM_Choice,2022.2.1,Win32,60.24096386,,,,,,,,,,,,,,,,,,55,,,,,,,,,,0.01,2,2.2076,0,4,4,4,1,Take a camping trip with my partner,run,0.05,0.01,1.1,0,,,,
,,66f0bbf2ad2ccf85f492cbcb,2024-10-21_13h40.57.418,WTP_SM_Choice,2022.2.1,Win32,60.24096386,,,,,,,NAN,,NAN,1.39,4.61,,0,54,54,54,1,55,Charlie,Acc,Participant_Images/66f0bbf2ad2ccf85f492cbcb/66f0bbf2ad2ccf85f492cbcb_Images/66f0bbf2ad2ccf85f492cbcb_Image_19.jpeg,liked,3.602308302,,,,,,,,,,,,,,,,,,,,,,
,,66f0bbf2ad2ccf85f492cbcb,2024-10-21_13h40.57.418,WTP_SM_Choice,2022.2.1,Win32,60.24096386,,,,,space,0.6262,NAN,,NAN,1.39,4.61,,0,55,55,55,1,56,Charlie,Acc,Participant_Images/66f0bbf2ad2ccf85f492cbcb/66f0bbf2ad2ccf85f492cbcb_Images/66f0bbf2ad2ccf85f492cbcb_Image_23.jpeg,liked,4.106391878,,,,,,,,,,,,,,,,,,,,,,
,,66f0bbf2ad2ccf85f492cbcb,2024-10-21_13h40.57.418,WTP_SM_Choice,2022.2.1,Win32,60.24096386,,,,,space,0.6865,NAN,,NAN,1.39,4.61,,0,56,56,56,1,57,Charlie,Acc,Participant_Images/66f0bbf2ad2ccf85f492cbcb/66f0bbf2ad2ccf85f492cbcb_Images/66f0bbf2ad2ccf85f492cbcb_Image_6.jpeg,liked,3.799433026,,,,,,,,,,,,,,,,,,,,,,
,,66f0bbf2ad2ccf85f492cbcb,2024-10-21_13h40.57.418,WTP_SM_Choice,2022.2.1,Win32,60.24096386,,,,,space,3.1089,NAN,,NAN,1.39,4.61,,0,57,57,57,1,58,Charlie,Acc,Participant_Images/66f0bbf2ad2ccf85f492cbcb/66f0bbf2ad2ccf85f492cbcb_Images/66f0bbf2ad2ccf85f492cbcb_Image_3.jpeg,liked,5.246980764,,,,,,,,,,,,,,,,,,,,,,
,,66f0bbf2ad2ccf85f492cbcb,2024-10-21_13h40.57.418,WTP_SM_Choice,2022.2.1,Win32,60.24096386,,,,,space,23.8275,NAN,,NAN,1.39,4.61,,0,58,58,58,1,59,Charlie,Acc,Participant_Images/66f0bbf2ad2ccf85f492cbcb/66f0bbf2ad2ccf85f492cbcb_Images/66f0bbf2ad2ccf85f492cbcb_Image_15.jpeg,liked,3.30081769,,,,,,,,,,,,,,,,,,,,,,
,,66f0bbf2ad2ccf85f492cbcb,2024-10-21_13h40.57.418,WTP_SM_Choice,2022.2.1,Win32,60.24096386,,,,,,,,,,,,,,,,,,56,,,,,,space,16.6401,space,0.6799,0.01,1,1.7596,0,0,0,0,1,Go sight seeing with my partner,Play fetch with my dogs and teaching them tricks,0.01,0.02,8.8,0,,,,
,,66f0bbf2ad2ccf85f492cbcb,2024-10-21_13h40.57.418,WTP_SM_Choice,2022.2.1,Win32,60.24096386,,,,,,,,,,,,,,,,,,57,,,,,,,,,,0.02,1,5.1939,0,1,1,1,1,Go sight seeing with my partner,Go to the beach,0.02,0.02,4.4,0,,,,
,,66f0bbf2ad2ccf85f492cbcb,2024-10-21_13h40.57.418,WTP_SM_Choice,2022.2.1,Win32,60.24096386,,,,,,,,,,,,,,,,,,58,,,,,,,,,,0.02,2,0.8565,0,2,2,2,1,Go sight seeing with my partner,run,0.03,0.02,4.4,0,,,,
,,66f0bbf2ad2ccf85f492cbcb,2024-10-21_13h40.57.418,WTP_SM_Choice,2022.2.1,Win32,60.24096386,,,,,,,,,,,,,,,,,,59,,,,,,,,,,0.02,2,1.5007,0,3,3,3,1,Seeing a movie with my partner,Take a drive ,0.04,0.02,4.4,0,,,,
,,66f0bbf2ad2ccf85f492cbcb,2024-10-21_13h40.57.418,WTP_SM_Choice,2022.2.1,Win32,60.24096386,,,,,,,,,,,,,,,,,,60,,,,,,,,,,0.02,2,0.9005,0,4,4,4,1,Try out a new restaurant with my partner,Cook a new recipe,0.05,0.02,1.1,0,,,,
,,66f0bbf2ad2ccf85f492cbcb,2024-10-21_13h40.57.418,WTP_SM_Choice,2022.2.1,Win32,60.24096386,,,,,,,NAN,,NAN,1.48,4.52,,0,59,59,59,1,60,Charlie,Acc,Participant_Images/66f0bbf2ad2ccf85f492cbcb/66f0bbf2ad2ccf85f492cbcb_Images/66f0bbf2ad2ccf85f492cbcb_Image_11.jpeg,liked,1.661473164,,,,,,,,,,,,,,,,,,,,,,
,,66f0bbf2ad2ccf85f492cbcb,2024-10-21_13h40.57.418,WTP_SM_Choice,2022.2.1,Win32,60.24096386,,,,,space,0.9461,NAN,,NAN,1.48,4.52,,0,60,60,60,1,61,Charlie,Acc,Participant_Images/66f0bbf2ad2ccf85f492cbcb/66f0bbf2ad2ccf85f492cbcb_Images/66f0bbf2ad2ccf85f492cbcb_Image_1.jpeg,did not like,3.613205605,,,,,,,,,,,,,,,,,,,,,,
,,66f0bbf2ad2ccf85f492cbcb,2024-10-21_13h40.57.418,WTP_SM_Choice,2022.2.1,Win32,60.24096386,,,,,space,0.8982,NAN,,NAN,1.48,4.52,,0,61,61,61,1,62,Charlie,Acc,Participant_Images/66f0bbf2ad2ccf85f492cbcb/66f0bbf2ad2ccf85f492cbcb_Images/66f0bbf2ad2ccf85f492cbcb_Image_4.jpeg,did not like,4.988446431,,,,,,,,,,,,,,,,,,,,,,
,,66f0bbf2ad2ccf85f492cbcb,2024-10-21_13h40.57.418,WTP_SM_Choice,2022.2.1,Win32,60.24096386,,,,,space,0.6746,NAN,,NAN,1.48,4.52,,0,62,62,62,1,63,Charlie,Acc,Participant_Images/66f0bbf2ad2ccf85f492cbcb/66f0bbf2ad2ccf85f492cbcb_Images/66f0bbf2ad2ccf85f492cbcb_Image_25.jpeg,liked,3.470791822,,,,,,,,,,,,,,,,,,,,,,
,,66f0bbf2ad2ccf85f492cbcb,2024-10-21_13h40.57.418,WTP_SM_Choice,2022.2.1,Win32,60.24096386,,,,,space,2.3169,NAN,,NAN,1.48,4.52,,0,63,63,63,1,64,Charlie,Acc,Participant_Images/66f0bbf2ad2ccf85f492cbcb/66f0bbf2ad2ccf85f492cbcb_Images/66f0bbf2ad2ccf85f492cbcb_Image_17.jpeg,liked,3.820572462,,,,,,,,,,,,,,,,,,,,,,
,,66f0bbf2ad2ccf85f492cbcb,2024-10-21_13h40.57.418,WTP_SM_Choice,2022.2.1,Win32,60.24096386,,,,,,,,,,,,,,,,,,61,,,,,,space,0.7838,space,0.8206,0.03,2,0.9936,0,0,0,0,1,Take a camping trip with my partner,Hike to my favorite spots,0.01,0.03,3.3,0,,,,
,,66f0bbf2ad2ccf85f492cbcb,2024-10-21_13h40.57.418,WTP_SM_Choice,2022.2.1,Win32,60.24096386,,,,,,,,,,,,,,,,,,62,,,,,,,,,,0.02,1,0.7644,0,1,1,1,1,Watch a game at the stadium,Go skiing or ice skating with my partner,0.02,0.03,3.3,1,,,,
,,66f0bbf2ad2ccf85f492cbcb,2024-10-21_13h40.57.418,WTP_SM_Choice,2022.2.1,Win32,60.24096386,,,,,,,,,,,,,,,,,,63,,,,,,,,,,0.03,2,1.181,0,2,2,2,1,Attending a concert with my partner,Cook a new recipe,0.03,0.03,3.3,0,,,,
,,66f0bbf2ad2ccf85f492cbcb,2024-10-21_13h40.57.418,WTP_SM_Choice,2022.2.1,Win32,60.24096386,,,,,,,,,,,,,,,,,,64,,,,,,,,,,0.03,2,1.1242,0,3,3,3,1,Seeing a movie with my partner,Read on my bed,0.04,0.03,1.1,0,,,,
,,66f0bbf2ad2ccf85f492cbcb,2024-10-21_13h40.57.418,WTP_SM_Choice,2022.2.1,Win32,60.24096386,,,,,,,,,,,,,,,,,,65,,,,,,,,,,0.03,2,1.2148,0,4,4,4,1,Go to the bar to have some drinks with friends,Read on my bed,0.05,0.03,1.1,0,,,,
,,66f0bbf2ad2ccf85f492cbcb,2024-10-21_13h40.57.418,WTP_SM_Choice,2022.2.1,Win32,60.24096386,,,,,,,NAN,,NAN,1.62,4.38,,0,64,64,64,1,65,Charlie,Acc,Participant_Images/66f0bbf2ad2ccf85f492cbcb/66f0bbf2ad2ccf85f492cbcb_Images/66f0bbf2ad2ccf85f492cbcb_Image_2.jpeg,liked,2.455989137,,,,,,,,,,,,,,,,,,,,,,
,,66f0bbf2ad2ccf85f492cbcb,2024-10-21_13h40.57.418,WTP_SM_Choice,2022.2.1,Win32,60.24096386,,,,,space,5.546,NAN,,NAN,1.62,4.38,,0,65,65,65,1,66,Charlie,Acc,Participant_Images/66f0bbf2ad2ccf85f492cbcb/66f0bbf2ad2ccf85f492cbcb_Images/66f0bbf2ad2ccf85f492cbcb_Image_24.jpeg,did not like,3.79605092,,,,,,,,,,,,,,,,,,,,,,
,,66f0bbf2ad2ccf85f492cbcb,2024-10-21_13h40.57.418,WTP_SM_Choice,2022.2.1,Win32,60.24096386,,,,,space,0.7718,NAN,,NAN,1.62,4.38,,0,66,66,66,1,67,Charlie,Acc,Participant_Images/66f0bbf2ad2ccf85f492cbcb/66f0bbf2ad2ccf85f492cbcb_Images/66f0bbf2ad2ccf85f492cbcb_Image_9.jpeg,did not like,3.562416326,,,,,,,,,,,,,,,,,,,,,,
,,66f0bbf2ad2ccf85f492cbcb,2024-10-21_13h40.57.418,WTP_SM_Choice,2022.2.1,Win32,60.24096386,,,,,space,13.8011,NAN,,NAN,1.62,4.38,,0,67,67,67,1,68,Charlie,Acc,Participant_Images/66f0bbf2ad2ccf85f492cbcb/66f0bbf2ad2ccf85f492cbcb_Images/66f0bbf2ad2ccf85f492cbcb_Image_12.jpeg,did not like,2.843822497,,,,,,,,,,,,,,,,,,,,,,
,,66f0bbf2ad2ccf85f492cbcb,2024-10-21_13h40.57.418,WTP_SM_Choice,2022.2.1,Win32,60.24096386,,,,,space,4.0754,NAN,,NAN,1.62,4.38,,0,68,68,68,1,69,Charlie,Acc,Participant_Images/66f0bbf2ad2ccf85f492cbcb/66f0bbf2ad2ccf85f492cbcb_Images/66f0bbf2ad2ccf85f492cbcb_Image_10.jpeg,liked,3.546495948,,,,,,,,,,,,,,,,,,,,,,
,,66f0bbf2ad2ccf85f492cbcb,2024-10-21_13h40.57.418,WTP_SM_Choice,2022.2.1,Win32,60.24096386,,,,,,,,,,,,,,,,,,66,,,,,,space,0.6316,space,0.5096,0.01,1,0.8156,0,0,0,0,1,Take a drive ,Try out a new restaurant with my partner,0.01,0.04,1.1,1,,,,
,,66f0bbf2ad2ccf85f492cbcb,2024-10-21_13h40.57.418,WTP_SM_Choice,2022.2.1,Win32,60.24096386,,,,,,,,,,,,,,,,,,67,,,,,,,,,,0.02,1,0.8691,0,1,1,1,1,run,Going for a swim with my friends,0.02,0.04,8.8,1,,,,
,,66f0bbf2ad2ccf85f492cbcb,2024-10-21_13h40.57.418,WTP_SM_Choice,2022.2.1,Win32,60.24096386,,,,,,,,,,,,,,,,,,68,,,,,,,,,,0.03,1,1.6874,0,2,2,2,1,Cook a new recipe,Go hiking with my partner,0.03,0.04,4.4,1,,,,
,,66f0bbf2ad2ccf85f492cbcb,2024-10-21_13h40.57.418,WTP_SM_Choice,2022.2.1,Win32,60.24096386,,,,,,,,,,,,,,,,,,69,,,,,,,,,,0.04,1,6.3661,0,3,3,3,1,Watch a game at the stadium,Go hiking with my partner,0.04,0.04,1.1,1,,,,
,,66f0bbf2ad2ccf85f492cbcb,2024-10-21_13h40.57.418,WTP_SM_Choice,2022.2.1,Win32,60.24096386,,,,,,,,,,,,,,,,,,70,,,,,,,,,,0.05,1,9.2228,0,4,4,4,1,Try out a new restaurant with my partner,Listen to my favorite playlist,0.05,0.04,1.1,0,,,,
,,66f0bbf2ad2ccf85f492cbcb,2024-10-21_13h40.57.418,WTP_SM_Choice,2022.2.1,Win32,60.24096386,,,,,,,NAN,,NAN,1.77,4.23,,0,69,69,69,1,70,Charlie,Acc,Participant_Images/66f0bbf2ad2ccf85f492cbcb/66f0bbf2ad2ccf85f492cbcb_Images/66f0bbf2ad2ccf85f492cbcb_Image_18.jpeg,liked,1.672012706,,,,,,,,,,,,,,,,,,,,,,
,,66f0bbf2ad2ccf85f492cbcb,2024-10-21_13h40.57.418,WTP_SM_Choice,2022.2.1,Win32,60.24096386,,,,,space,2.6106,NAN,,NAN,1.77,4.23,,0,70,70,70,1,71,Charlie,Acc,Participant_Images/66f0bbf2ad2ccf85f492cbcb/66f0bbf2ad2ccf85f492cbcb_Images/66f0bbf2ad2ccf85f492cbcb_Image_14.jpeg,did not like,4.942172136,,,,,,,,,,,,,,,,,,,,,,
,,66f0bbf2ad2ccf85f492cbcb,2024-10-21_13h40.57.418,WTP_SM_Choice,2022.2.1,Win32,60.24096386,,,,,space,1.3306,NAN,,NAN,1.77,4.23,,0,71,71,71,1,72,Charlie,Acc,Participant_Images/66f0bbf2ad2ccf85f492cbcb/66f0bbf2ad2ccf85f492cbcb_Images/66f0bbf2ad2ccf85f492cbcb_Image_21.jpeg,did not like,2.50187214,,,,,,,,,,,,,,,,,,,,,,
,,66f0bbf2ad2ccf85f492cbcb,2024-10-21_13h40.57.418,WTP_SM_Choice,2022.2.1,Win32,60.24096386,,,,,space,0.8187,NAN,,NAN,1.77,4.23,,0,72,72,72,1,73,Charlie,Acc,Participant_Images/66f0bbf2ad2ccf85f492cbcb/66f0bbf2ad2ccf85f492cbcb_Images/66f0bbf2ad2ccf85f492cbcb_Image_8.jpeg,liked,2.071164779,,,,,,,,,,,,,,,,,,,,,,
,,66f0bbf2ad2ccf85f492cbcb,2024-10-21_13h40.57.418,WTP_SM_Choice,2022.2.1,Win32,60.24096386,,,,,space,0.7057,NAN,,NAN,1.77,4.23,,0,73,73,73,1,74,Charlie,Acc,Participant_Images/66f0bbf2ad2ccf85f492cbcb/66f0bbf2ad2ccf85f492cbcb_Images/66f0bbf2ad2ccf85f492cbcb_Image_20.jpeg,liked,5.336503566,,,,,,,,,,,,,,,,,,,,,,
,,66f0bbf2ad2ccf85f492cbcb,2024-10-21_13h40.57.418,WTP_SM_Choice,2022.2.1,Win32,60.24096386,,,,,,,,,,,,,,,,,,71,,,,,,space,1.2818,space,0.8331,0.05,2,1.5091,0,0,0,0,1,Play fetch with my dogs and teaching them tricks,Going for a swim with my friends,0.01,0.05,3.3,1,,,,
,,66f0bbf2ad2ccf85f492cbcb,2024-10-21_13h40.57.418,WTP_SM_Choice,2022.2.1,Win32,60.24096386,,,,,,,,,,,,,,,,,,72,,,,,,,,,,0.02,1,2.2642,0,1,1,1,1,Go sight seeing with my partner,Take a drive ,0.02,0.05,8.8,0,,,,
,,66f0bbf2ad2ccf85f492cbcb,2024-10-21_13h40.57.418,WTP_SM_Choice,2022.2.1,Win32,60.24096386,,,,,,,,,,,,,,,,,,73,,,,,,,,,,0.05,2,9.8218,0,2,2,2,1,Go to the beach,Seeing a movie with my partner,0.03,0.05,3.3,1,,,,
,,66f0bbf2ad2ccf85f492cbcb,2024-10-21_13h40.57.418,WTP_SM_Choice,2022.2.1,Win32,60.24096386,,,,,,,,,,,,,,,,,,74,,,,,,,,,,0.04,1,3.0124,0,3,3,3,1,Watch a game at the stadium,Try out a new restaurant with my partner,0.04,0.05,4.4,1,,,,
,,66f0bbf2ad2ccf85f492cbcb,2024-10-21_13h40.57.418,WTP_SM_Choice,2022.2.1,Win32,60.24096386,,,,,,,,,,,,,,,,,,75,,,,,,,,,,0.05,1,1.229,0,4,4,4,1,Take a swim,Have a picnic with my family,0.05,0.05,3.3,1,,,,
,,66f0bbf2ad2ccf85f492cbcb,2024-10-21_13h40.57.418,WTP_SM_Choice,2022.2.1,Win32,60.24096386,,,,,,,4,,7,1.98,4.02,,0,74,74,74,1,75,Charlie,Acc,Participant_Images/66f0bbf2ad2ccf85f492cbcb/66f0bbf2ad2ccf85f492cbcb_Images/66f0bbf2ad2ccf85f492cbcb_Image_7.jpeg,liked,2.642157193,,,,,,,,,,,,,,,,,,,space,0.8047,,
,,66f0bbf2ad2ccf85f492cbcb,2024-10-21_13h40.57.418,WTP_SM_Choice,2022.2.1,Win32,60.24096386,,,space,16.0606,space,1.041,NAN,,NAN,1.98,4.02,,0,75,75,75,1,76,Alex,Acc,Participant_Images/66f0bbf2ad2ccf85f492cbcb/66f0bbf2ad2ccf85f492cbcb_Images/66f0bbf2ad2ccf85f492cbcb_Image_3.jpeg,did not like,4.456234322,,,,,,,,,,,,,,,,,,,,,,
,,66f0bbf2ad2ccf85f492cbcb,2024-10-21_13h40.57.418,WTP_SM_Choice,2022.2.1,Win32,60.24096386,,,,,space,15.7966,NAN,,NAN,1.98,4.02,,0,76,76,76,1,77,Alex,Acc,Participant_Images/66f0bbf2ad2ccf85f492cbcb/66f0bbf2ad2ccf85f492cbcb_Images/66f0bbf2ad2ccf85f492cbcb_Image_8.jpeg,did not like,4.438512181,,,,,,,,,,,,,,,,,,,,,,
,,66f0bbf2ad2ccf85f492cbcb,2024-10-21_13h40.57.418,WTP_SM_Choice,2022.2.1,Win32,60.24096386,,,,,space,4.1952,NAN,,NAN,1.98,4.02,,0,77,77,77,1,78,Alex,Acc,Participant_Images/66f0bbf2ad2ccf85f492cbcb/66f0bbf2ad2ccf85f492cbcb_Images/66f0bbf2ad2ccf85f492cbcb_Image_13.jpeg,did not like,2.682944783,,,,,,,,,,,,,,,,,,,,,,
,,66f0bbf2ad2ccf85f492cbcb,2024-10-21_13h40.57.418,WTP_SM_Choice,2022.2.1,Win32,60.24096386,,,,,space,0.5847,NAN,,NAN,1.98,4.02,,0,78,78,78,1,79,Alex,Acc,Participant_Images/66f0bbf2ad2ccf85f492cbcb/66f0bbf2ad2ccf85f492cbcb_Images/66f0bbf2ad2ccf85f492cbcb_Image_12.jpeg,liked,4.51984296,,,,,,,,,,,,,,,,,,,,,,
,,66f0bbf2ad2ccf85f492cbcb,2024-10-21_13h40.57.418,WTP_SM_Choice,2022.2.1,Win32,60.24096386,,,,,,,,,,,,,,,,,,76,,,,,,space,1.3317,space,0.5911,0.01,1,2.813,0,0,0,0,1,Hike to my favorite spots,Go hiking with my partner,0.01,0.01,1.1,1,,,,
,,66f0bbf2ad2ccf85f492cbcb,2024-10-21_13h40.57.418,WTP_SM_Choice,2022.2.1,Win32,60.24096386,,,,,,,,,,,,,,,,,,77,,,,,,,,,,0.01,2,2.6576,0,1,1,1,1,Go skiing or ice skating with my partner,Take a drive ,0.02,0.01,8.8,0,,,,
,,66f0bbf2ad2ccf85f492cbcb,2024-10-21_13h40.57.418,WTP_SM_Choice,2022.2.1,Win32,60.24096386,,,,,,,,,,,,,,,,,,78,,,,,,,,,,0.01,2,1.3175,0,2,2,2,1,Go to the beach,Going for a swim with my friends,0.03,0.01,1.1,1,,,,
,,66f0bbf2ad2ccf85f492cbcb,2024-10-21_13h40.57.418,WTP_SM_Choice,2022.2.1,Win32,60.24096386,,,,,,,,,,,,,,,,,,79,,,,,,,,,,0.04,1,1.3012,0,3,3,3,1,Attending a concert with my partner,Read on my bed,0.04,0.01,1.1,0,,,,
,,66f0bbf2ad2ccf85f492cbcb,2024-10-21_13h40.57.418,WTP_SM_Choice,2022.2.1,Win32,60.24096386,,,,,,,,,,,,,,,,,,80,,,,,,,,,,0.05,1,1.3185,0,4,4,4,1,Listen to my favorite playlist,Take a camping trip with my partner,0.05,0.01,4.4,1,,,,
,,66f0bbf2ad2ccf85f492cbcb,2024-10-21_13h40.57.418,WTP_SM_Choice,2022.2.1,Win32,60.24096386,,,,,,,NAN,,NAN,2.1,3.9,,0,79,79,79,1,80,Alex,Acc,Participant_Images/66f0bbf2ad2ccf85f492cbcb/66f0bbf2ad2ccf85f492cbcb_Images/66f0bbf2ad2ccf85f492cbcb_Image_7.jpeg,liked,3.195382774,,,,,,,,,,,,,,,,,,,,,,
,,66f0bbf2ad2ccf85f492cbcb,2024-10-21_13h40.57.418,WTP_SM_Choice,2022.2.1,Win32,60.24096386,,,,,space,0.6843,NAN,,NAN,2.1,3.9,,0,80,80,80,1,81,Alex,Acc,Participant_Images/66f0bbf2ad2ccf85f492cbcb/66f0bbf2ad2ccf85f492cbcb_Images/66f0bbf2ad2ccf85f492cbcb_Image_10.jpeg,liked,1.779333479,,,,,,,,,,,,,,,,,,,,,,
,,66f0bbf2ad2ccf85f492cbcb,2024-10-21_13h40.57.418,WTP_SM_Choice,2022.2.1,Win32,60.24096386,,,,,space,0.6015,NAN,,NAN,2.1,3.9,,0,81,81,81,1,82,Alex,Acc,Participant_Images/66f0bbf2ad2ccf85f492cbcb/66f0bbf2ad2ccf85f492cbcb_Images/66f0bbf2ad2ccf85f492cbcb_Image_20.jpeg,liked,4.312468682,,,,,,,,,,,,,,,,,,,,,,
,,66f0bbf2ad2ccf85f492cbcb,2024-10-21_13h40.57.418,WTP_SM_Choice,2022.2.1,Win32,60.24096386,,,,,space,0.3159,NAN,,NAN,2.1,3.9,,0,82,82,82,1,83,Alex,Acc,Participant_Images/66f0bbf2ad2ccf85f492cbcb/66f0bbf2ad2ccf85f492cbcb_Images/66f0bbf2ad2ccf85f492cbcb_Image_9.jpeg,liked,4.940433059,,,,,,,,,,,,,,,,,,,,,,
,,66f0bbf2ad2ccf85f492cbcb,2024-10-21_13h40.57.418,WTP_SM_Choice,2022.2.1,Win32,60.24096386,,,,,space,0.6047,NAN,,NAN,2.1,3.9,,0,83,83,83,1,84,Alex,Acc,Participant_Images/66f0bbf2ad2ccf85f492cbcb/66f0bbf2ad2ccf85f492cbcb_Images/66f0bbf2ad2ccf85f492cbcb_Image_15.jpeg,liked,2.7105123,,,,,,,,,,,,,,,,,,,,,,
,,66f0bbf2ad2ccf85f492cbcb,2024-10-21_13h40.57.418,WTP_SM_Choice,2022.2.1,Win32,60.24096386,,,,,,,,,,,,,,,,,,81,,,,,,space,2.3148,space,0.5755,0.01,1,1.4066,0,0,0,0,1,Cook a new recipe,Have a picnic with my family,0.01,0.02,3.3,1,,,,
,,66f0bbf2ad2ccf85f492cbcb,2024-10-21_13h40.57.418,WTP_SM_Choice,2022.2.1,Win32,60.24096386,,,,,,,,,,,,,,,,,,82,,,,,,,,,,0.02,2,0.151,0,1,1,1,1,Go skiing or ice skating with my partner,Play fetch with my dogs and teaching them tricks,0.02,0.02,4.4,0,,,,
,,66f0bbf2ad2ccf85f492cbcb,2024-10-21_13h40.57.418,WTP_SM_Choice,2022.2.1,Win32,60.24096386,,,,,,,,,,,,,,,,,,83,,,,,,,,,,0.03,1,0.2999,0,2,2,2,1,Attending a concert with my partner,Play fetch with my dogs and teaching them tricks,0.03,0.02,1.1,0,,,,
,,66f0bbf2ad2ccf85f492cbcb,2024-10-21_13h40.57.418,WTP_SM_Choice,2022.2.1,Win32,60.24096386,,,,,,,,,,,,,,,,,,84,,,,,,,,,,0.02,2,9.7416,0,3,3,3,1,Go sight seeing with my partner,Listen to my favorite playlist,0.04,0.02,3.3,0,,,,
,,66f0bbf2ad2ccf85f492cbcb,2024-10-21_13h40.57.418,WTP_SM_Choice,2022.2.1,Win32,60.24096386,,,,,,,,,,,,,,,,,,85,,,,,,,,,,,,,0,4,4,4,1,Going for a swim with my friends,Read on my bed,0.05,0.02,3.3,0,,,,
,,66f0bbf2ad2ccf85f492cbcb,2024-10-21_13h40.57.418,WTP_SM_Choice,2022.2.1,Win32,60.24096386,,,,,,,NAN,,NAN,2.18,3.82,,0,84,84,84,1,85,Alex,Acc,Participant_Images/66f0bbf2ad2ccf85f492cbcb/66f0bbf2ad2ccf85f492cbcb_Images/66f0bbf2ad2ccf85f492cbcb_Image_14.jpeg,did not like,3.602308302,,,,,,,,,,,,,,,,,,,,,,
,,66f0bbf2ad2ccf85f492cbcb,2024-10-21_13h40.57.418,WTP_SM_Choice,2022.2.1,Win32,60.24096386,,,,,space,8.5482,NAN,,NAN,2.18,3.82,,0,85,85,85,1,86,Alex,Acc,Participant_Images/66f0bbf2ad2ccf85f492cbcb/66f0bbf2ad2ccf85f492cbcb_Images/66f0bbf2ad2ccf85f492cbcb_Image_2.jpeg,liked,4.106391878,,,,,,,,,,,,,,,,,,,,,,
,,66f0bbf2ad2ccf85f492cbcb,2024-10-21_13h40.57.418,WTP_SM_Choice,2022.2.1,Win32,60.24096386,,,,,space,0.8885,NAN,,NAN,2.18,3.82,,0,86,86,86,1,87,Alex,Acc,Participant_Images/66f0bbf2ad2ccf85f492cbcb/66f0bbf2ad2ccf85f492cbcb_Images/66f0bbf2ad2ccf85f492cbcb_Image_21.jpeg,liked,3.799433026,,,,,,,,,,,,,,,,,,,,,,
,,66f0bbf2ad2ccf85f492cbcb,2024-10-21_13h40.57.418,WTP_SM_Choice,2022.2.1,Win32,60.24096386,,,,,space,0.8053,NAN,,NAN,2.18,3.82,,0,87,87,87,1,88,Alex,Acc,Participant_Images/66f0bbf2ad2ccf85f492cbcb/66f0bbf2ad2ccf85f492cbcb_Images/66f0bbf2ad2ccf85f492cbcb_Image_19.jpeg,liked,5.246980764,,,,,,,,,,,,,,,,,,,,,,
,,66f0bbf2ad2ccf85f492cbcb,2024-10-21_13h40.57.418,WTP_SM_Choice,2022.2.1,Win32,60.24096386,,,,,space,0.8195,NAN,,NAN,2.18,3.82,,0,88,88,88,1,89,Alex,Acc,Participant_Images/66f0bbf2ad2ccf85f492cbcb/66f0bbf2ad2ccf85f492cbcb_Images/66f0bbf2ad2ccf85f492cbcb_Image_22.jpeg,liked,3.30081769,,,,,,,,,,,,,,,,,,,,,,
,,66f0bbf2ad2ccf85f492cbcb,2024-10-21_13h40.57.418,WTP_SM_Choice,2022.2.1,Win32,60.24096386,,,,,,,,,,,,,,,,,,86,,,,,,space,0.7193,space,0.493,0.01,1,0.9755,0,0,0,0,1,Go sight seeing with my partner,Take a swim,0.01,0.03,1.1,0,,,,
,,66f0bbf2ad2ccf85f492cbcb,2024-10-21_13h40.57.418,WTP_SM_Choice,2022.2.1,Win32,60.24096386,,,,,,,,,,,,,,,,,,87,,,,,,,,,,0.03,2,0.9009,0,1,1,1,1,Go to the bar to have some drinks with friends,Take a drive ,0.02,0.03,4.4,0,,,,
,,66f0bbf2ad2ccf85f492cbcb,2024-10-21_13h40.57.418,WTP_SM_Choice,2022.2.1,Win32,60.24096386,,,,,,,,,,,,,,,,,,88,,,,,,,,,,0.03,1,0.9039,0,2,2,2,1,Take a swim,Go hiking with my partner,0.03,0.03,1.1,1,,,,
,,66f0bbf2ad2ccf85f492cbcb,2024-10-21_13h40.57.418,WTP_SM_Choice,2022.2.1,Win32,60.24096386,,,,,,,,,,,,,,,,,,89,,,,,,,,,,0.04,1,1.2147,0,3,3,3,1,Take a drive ,Have a picnic with my family,0.04,0.03,3.3,1,,,,
,,66f0bbf2ad2ccf85f492cbcb,2024-10-21_13h40.57.418,WTP_SM_Choice,2022.2.1,Win32,60.24096386,,,,,,,,,,,,,,,,,,90,,,,,,,,,,0.05,1,6.531,0,4,4,4,1,Take a swim,Take a camping trip with my partner,0.05,0.03,8.8,1,,,,
,,66f0bbf2ad2ccf85f492cbcb,2024-10-21_13h40.57.418,WTP_SM_Choice,2022.2.1,Win32,60.24096386,,,,,,,NAN,,NAN,2.34,3.66,,0,89,89,89,1,90,Alex,Acc,Participant_Images/66f0bbf2ad2ccf85f492cbcb/66f0bbf2ad2ccf85f492cbcb_Images/66f0bbf2ad2ccf85f492cbcb_Image_18.jpeg,did not like,1.661473164,,,,,,,,,,,,,,,,,,,,,,
,,66f0bbf2ad2ccf85f492cbcb,2024-10-21_13h40.57.418,WTP_SM_Choice,2022.2.1,Win32,60.24096386,,,,,space,10.1139,NAN,,NAN,2.34,3.66,,0,90,90,90,1,91,Alex,Acc,Participant_Images/66f0bbf2ad2ccf85f492cbcb/66f0bbf2ad2ccf85f492cbcb_Images/66f0bbf2ad2ccf85f492cbcb_Image_1.jpeg,liked,3.613205605,,,,,,,,,,,,,,,,,,,,,,
,,66f0bbf2ad2ccf85f492cbcb,2024-10-21_13h40.57.418,WTP_SM_Choice,2022.2.1,Win32,60.24096386,,,,,space,0.6541,NAN,,NAN,2.34,3.66,,0,91,91,91,1,92,Alex,Acc,Participant_Images/66f0bbf2ad2ccf85f492cbcb/66f0bbf2ad2ccf85f492cbcb_Images/66f0bbf2ad2ccf85f492cbcb_Image_24.jpeg,liked,4.988446431,,,,,,,,,,,,,,,,,,,,,,
,,66f0bbf2ad2ccf85f492cbcb,2024-10-21_13h40.57.418,WTP_SM_Choice,2022.2.1,Win32,60.24096386,,,,,space,0.6527,NAN,,NAN,2.34,3.66,,0,92,92,92,1,93,Alex,Acc,Participant_Images/66f0bbf2ad2ccf85f492cbcb/66f0bbf2ad2ccf85f492cbcb_Images/66f0bbf2ad2ccf85f492cbcb_Image_11.jpeg,liked,3.470791822,,,,,,,,,,,,,,,,,,,,,,
,,66f0bbf2ad2ccf85f492cbcb,2024-10-21_13h40.57.418,WTP_SM_Choice,2022.2.1,Win32,60.24096386,,,,,space,25.1554,NAN,,NAN,2.34,3.66,,0,93,93,93,1,94,Alex,Acc,Participant_Images/66f0bbf2ad2ccf85f492cbcb/66f0bbf2ad2ccf85f492cbcb_Images/66f0bbf2ad2ccf85f492cbcb_Image_16.jpeg,did not like,3.820572462,,,,,,,,,,,,,,,,,,,,,,
,,66f0bbf2ad2ccf85f492cbcb,2024-10-21_13h40.57.418,WTP_SM_Choice,2022.2.1,Win32,60.24096386,,,,,,,,,,,,,,,,,,91,,,,,,space,1.3562,space,1.7563,0.04,2,0.8333,0,0,0,0,1,Go skiing or ice skating with my partner,Take a swim,0.01,0.04,3.3,0,,,,
,,66f0bbf2ad2ccf85f492cbcb,2024-10-21_13h40.57.418,WTP_SM_Choice,2022.2.1,Win32,60.24096386,,,,,,,,,,,,,,,,,,92,,,,,,,,,,0.02,1,0.8915,0,1,1,1,1,Go to the bar to have some drinks with friends,run,0.02,0.04,8.8,0,,,,
,,66f0bbf2ad2ccf85f492cbcb,2024-10-21_13h40.57.418,WTP_SM_Choice,2022.2.1,Win32,60.24096386,,,,,,,,,,,,,,,,,,93,,,,,,,,,,0.03,1,7.684,0,2,2,2,1,Take a drive ,Take a camping trip with my partner,0.03,0.04,1.1,1,,,,
,,66f0bbf2ad2ccf85f492cbcb,2024-10-21_13h40.57.418,WTP_SM_Choice,2022.2.1,Win32,60.24096386,,,,,,,,,,,,,,,,,,94,,,,,,,,,,,,,0,3,3,3,1,Try out a new restaurant with my partner,Read on my bed,0.04,0.04,4.4,0,,,,
,,66f0bbf2ad2ccf85f492cbcb,2024-10-21_13h40.57.418,WTP_SM_Choice,2022.2.1,Win32,60.24096386,,,,,,,,,,,,,,,,,,95,,,,,,,,,,0.05,1,5.8934,0,4,4,4,1,Go hiking with my partner,Listen to my favorite playlist,0.05,0.04,4.4,0,,,,
,,66f0bbf2ad2ccf85f492cbcb,2024-10-21_13h40.57.418,WTP_SM_Choice,2022.2.1,Win32,60.24096386,,,,,,,NAN,,NAN,2.48,3.52,,0,94,94,94,1,95,Alex,Acc,Participant_Images/66f0bbf2ad2ccf85f492cbcb/66f0bbf2ad2ccf85f492cbcb_Images/66f0bbf2ad2ccf85f492cbcb_Image_5.jpeg,liked,2.455989137,,,,,,,,,,,,,,,,,,,,,,
,,66f0bbf2ad2ccf85f492cbcb,2024-10-21_13h40.57.418,WTP_SM_Choice,2022.2.1,Win32,60.24096386,,,,,space,1.6462,NAN,,NAN,2.48,3.52,,0,95,95,95,1,96,Alex,Acc,Participant_Images/66f0bbf2ad2ccf85f492cbcb/66f0bbf2ad2ccf85f492cbcb_Images/66f0bbf2ad2ccf85f492cbcb_Image_25.jpeg,did not like,3.79605092,,,,,,,,,,,,,,,,,,,,,,
,,66f0bbf2ad2ccf85f492cbcb,2024-10-21_13h40.57.418,WTP_SM_Choice,2022.2.1,Win32,60.24096386,,,,,space,2.2175,NAN,,NAN,2.48,3.52,,0,96,96,96,1,97,Alex,Acc,Participant_Images/66f0bbf2ad2ccf85f492cbcb/66f0bbf2ad2ccf85f492cbcb_Images/66f0bbf2ad2ccf85f492cbcb_Image_23.jpeg,liked,3.562416326,,,,,,,,,,,,,,,,,,,,,,
,,66f0bbf2ad2ccf85f492cbcb,2024-10-21_13h40.57.418,WTP_SM_Choice,2022.2.1,Win32,60.24096386,,,,,space,0.6516,NAN,,NAN,2.48,3.52,,0,97,97,97,1,98,Alex,Acc,Participant_Images/66f0bbf2ad2ccf85f492cbcb/66f0bbf2ad2ccf85f492cbcb_Images/66f0bbf2ad2ccf85f492cbcb_Image_17.jpeg,liked,2.843822497,,,,,,,,,,,,,,,,,,,,,,
,,66f0bbf2ad2ccf85f492cbcb,2024-10-21_13h40.57.418,WTP_SM_Choice,2022.2.1,Win32,60.24096386,,,,,space,0.8504,NAN,,NAN,2.48,3.52,,0,98,98,98,1,99,Alex,Acc,Participant_Images/66f0bbf2ad2ccf85f492cbcb/66f0bbf2ad2ccf85f492cbcb_Images/66f0bbf2ad2ccf85f492cbcb_Image_4.jpeg,liked,3.546495948,,,,,,,,,,,,,,,,,,,,,,
,,66f0bbf2ad2ccf85f492cbcb,2024-10-21_13h40.57.418,WTP_SM_Choice,2022.2.1,Win32,60.24096386,,,,,,,,,,,,,,,,,,96,,,,,,space,1.3494,space,0.5364,0.05,2,1.0138,0,0,0,0,1,Attending a concert with my partner,Take a swim,0.01,0.05,3.3,0,,,,
,,66f0bbf2ad2ccf85f492cbcb,2024-10-21_13h40.57.418,WTP_SM_Choice,2022.2.1,Win32,60.24096386,,,,,,,,,,,,,,,,,,97,,,,,,,,,,0.02,1,0.8516,0,1,1,1,1,Try out a new restaurant with my partner,Go to the beach,0.02,0.05,1.1,0,,,,
,,66f0bbf2ad2ccf85f492cbcb,2024-10-21_13h40.57.418,WTP_SM_Choice,2022.2.1,Win32,60.24096386,,,,,,,,,,,,,,,,,,98,,,,,,,,,,0.05,2,0.7269,0,2,2,2,1,Go skiing or ice skating with my partner,Listen to my favorite playlist,0.03,0.05,1.1,0,,,,
,,66f0bbf2ad2ccf85f492cbcb,2024-10-21_13h40.57.418,WTP_SM_Choice,2022.2.1,Win32,60.24096386,,,,,,,,,,,,,,,,,,99,,,,,,,,,,0.04,1,0.461,0,3,3,3,1,Hike to my favorite spots,Go skiing or ice skating with my partner,0.04,0.05,3.3,1,,,,
,,66f0bbf2ad2ccf85f492cbcb,2024-10-21_13h40.57.418,WTP_SM_Choice,2022.2.1,Win32,60.24096386,,,,,,,,,,,,,,,,,,100,,,,,,,,,,0.05,1,0.6306,0,4,4,4,1,Take a swim,Seeing a movie with my partner,0.05,0.05,4.4,1,,,,
,,66f0bbf2ad2ccf85f492cbcb,2024-10-21_13h40.57.418,WTP_SM_Choice,2022.2.1,Win32,60.24096386,,,,,,,4,,8,2.69,3.31,,0,99,99,99,1,100,Alex,Acc,Participant_Images/66f0bbf2ad2ccf85f492cbcb/66f0bbf2ad2ccf85f492cbcb_Images/66f0bbf2ad2ccf85f492cbcb_Image_6.jpeg,liked,1.672012706,,,,,,,,,,,,,,,,,,,space,1.0336,,
,,66f0bbf2ad2ccf85f492cbcb,2024-10-21_13h40.57.418,WTP_SM_Choice,2022.2.1,Win32,60.24096386,,,,,,,,,,,,,,,,,,,,,,,,,,,,,,,,,,,,,,,,,,,,space,3.9638
