endwelcomescreen_keys.keys,endwelcomescreen_keys.rt,participant,STUDY_ID,SESSION_ID,date,expName,psychopyVersion,OS,frameRate,endinstructionscreen_keys.keys,endinstructionscreen_keys.rt,endpartnermatch_keys.keys,endpartnermatch_keys.rt,sharenextphoto_key.keys,sharenextphoto_key.rt,salience_rating,key_resp.keys,stress_level,subtract_bonus,TOTAL_TASK_BONUS,stresslevel_keypress.keys,entiretaskloop.thisRepN,entiretaskloop.thisTrialN,entiretaskloop.thisN,entiretaskloop.thisIndex,entiretaskloop.ran,TrialNumber,Partner,Condition,Photos,Feedback,FeedbackWait,WTP_ins_keys1.keys,WTP_ins_keys1.rt,WTP_ins_keys2.keys,WTP_ins_keys2.rt,decision_price,responses.keys,responses.rt,WTPTaskLoop.thisRepN,WTPTaskLoop.thisTrialN,WTPTaskLoop.thisN,WTPTaskLoop.thisIndex,WTPTaskLoop.ran,right,left,leftmoney,rightmoney,WTP_ITI,social_left,Resume_keys.keys,Resume_keys.rt,end_screen_keys.keys,end_screen_keys.rt
space,3.0193,66f16ff603404dbb816cc517,6685aa9113c938e83b4f1ea0,66ff010106ebccb50c806866,2024-10-03_16h45.46.994,WTP_SM_Choice,2022.2.1,Linux x86_64,30.02732487,,,,,,,,,,,,,,,,,,,,,,,,,,,,,,,,,,,,,,,,,,,,,
,,66f16ff603404dbb816cc517,6685aa9113c938e83b4f1ea0,66ff010106ebccb50c806866,2024-10-03_16h45.46.994,WTP_SM_Choice,2022.2.1,Linux x86_64,30.02732487,space,11.3514,,,,,,,,,,,,,,,,,,,,,,,,,,,,,,,,,,,,,,,,,,,
,,66f16ff603404dbb816cc517,6685aa9113c938e83b4f1ea0,66ff010106ebccb50c806866,2024-10-03_16h45.46.994,WTP_SM_Choice,2022.2.1,Linux x86_64,30.02732487,,,space,1.4961,space,0.7523,NAN,,NAN,0,6,,0,0,0,0,1,1,Sam,Acc,Participant_Images/66f16ff603404dbb816cc517/66f16ff603404dbb816cc517_Images/66f16ff603404dbb816cc517_Image_18.jpeg,did not like,3.613205605,,,,,,,,,,,,,,,,,,,,,,
,,66f16ff603404dbb816cc517,6685aa9113c938e83b4f1ea0,66ff010106ebccb50c806866,2024-10-03_16h45.46.994,WTP_SM_Choice,2022.2.1,Linux x86_64,30.02732487,,,,,space,1.2679,NAN,,NAN,0,6,,0,1,1,1,1,2,Sam,Acc,Participant_Images/66f16ff603404dbb816cc517/66f16ff603404dbb816cc517_Images/66f16ff603404dbb816cc517_Image_5.jpeg,liked,4.988446431,,,,,,,,,,,,,,,,,,,,,,
,,66f16ff603404dbb816cc517,6685aa9113c938e83b4f1ea0,66ff010106ebccb50c806866,2024-10-03_16h45.46.994,WTP_SM_Choice,2022.2.1,Linux x86_64,30.02732487,,,,,space,0.8406,NAN,,NAN,0,6,,0,2,2,2,1,3,Sam,Acc,Participant_Images/66f16ff603404dbb816cc517/66f16ff603404dbb816cc517_Images/66f16ff603404dbb816cc517_Image_16.jpeg,liked,3.470791822,,,,,,,,,,,,,,,,,,,,,,
,,66f16ff603404dbb816cc517,6685aa9113c938e83b4f1ea0,66ff010106ebccb50c806866,2024-10-03_16h45.46.994,WTP_SM_Choice,2022.2.1,Linux x86_64,30.02732487,,,,,space,0.6626,NAN,,NAN,0,6,,0,3,3,3,1,4,Sam,Acc,Participant_Images/66f16ff603404dbb816cc517/66f16ff603404dbb816cc517_Images/66f16ff603404dbb816cc517_Image_13.jpeg,liked,3.820572462,,,,,,,,,,,,,,,,,,,,,,
,,66f16ff603404dbb816cc517,6685aa9113c938e83b4f1ea0,66ff010106ebccb50c806866,2024-10-03_16h45.46.994,WTP_SM_Choice,2022.2.1,Linux x86_64,30.02732487,,,,,,,,,,,,,,,,,,1,,,,,,space,7.9425,space,4.6548,0.01,2,3.0687,0,0,0,0,1,Walk along the beach on a fall day,Joke around with sisters on weekend mornings,0.01,0.01,4.4,1,,,,
,,66f16ff603404dbb816cc517,6685aa9113c938e83b4f1ea0,66ff010106ebccb50c806866,2024-10-03_16h45.46.994,WTP_SM_Choice,2022.2.1,Linux x86_64,30.02732487,,,,,,,,,,,,,,,,,,2,,,,,,,,,,0.01,2,2.3731,0,1,1,1,1,Drive in my car with loud music on,Swim in the backyard pool with the kids on hot summer days,0.02,0.01,8.8,1,,,,
,,66f16ff603404dbb816cc517,6685aa9113c938e83b4f1ea0,66ff010106ebccb50c806866,2024-10-03_16h45.46.994,WTP_SM_Choice,2022.2.1,Linux x86_64,30.02732487,,,,,,,,,,,,,,,,,,3,,,,,,,,,,0.03,1,2.5576,0,2,2,2,1,Read a book on my bed in dimly lit bedroom,Take the kids to a park on cool weekend afternoons,0.03,0.01,3.3,1,,,,
,,66f16ff603404dbb816cc517,6685aa9113c938e83b4f1ea0,66ff010106ebccb50c806866,2024-10-03_16h45.46.994,WTP_SM_Choice,2022.2.1,Linux x86_64,30.02732487,,,,,,,,,,,,,,,,,,4,,,,,,,,,,0.01,2,4.2452,0,3,3,3,1,Watch a thunderstorm from the warm of the house,Walk on the beach with friends late at night,0.04,0.01,1.1,1,,,,
,,66f16ff603404dbb816cc517,6685aa9113c938e83b4f1ea0,66ff010106ebccb50c806866,2024-10-03_16h45.46.994,WTP_SM_Choice,2022.2.1,Linux x86_64,30.02732487,,,,,,,,,,,,,,,,,,5,,,,,,,,,,0.01,2,4.2958,0,4,4,4,1,Watch thunderstorms with the kids late in the evenings,Lounge outside on a windy day,0.05,0.01,1.1,0,,,,
,,66f16ff603404dbb816cc517,6685aa9113c938e83b4f1ea0,66ff010106ebccb50c806866,2024-10-03_16h45.46.994,WTP_SM_Choice,2022.2.1,Linux x86_64,30.02732487,,,,,,,NAN,,NAN,0.07,5.93,,0,4,4,4,1,5,Sam,Acc,Participant_Images/66f16ff603404dbb816cc517/66f16ff603404dbb816cc517_Images/66f16ff603404dbb816cc517_Image_4.jpeg,liked,2.455989137,,,,,,,,,,,,,,,,,,,,,,
,,66f16ff603404dbb816cc517,6685aa9113c938e83b4f1ea0,66ff010106ebccb50c806866,2024-10-03_16h45.46.994,WTP_SM_Choice,2022.2.1,Linux x86_64,30.02732487,,,,,space,0.9922,NAN,,NAN,0.07,5.93,,0,5,5,5,1,6,Sam,Acc,Participant_Images/66f16ff603404dbb816cc517/66f16ff603404dbb816cc517_Images/66f16ff603404dbb816cc517_Image_2.jpeg,liked,3.79605092,,,,,,,,,,,,,,,,,,,,,,
,,66f16ff603404dbb816cc517,6685aa9113c938e83b4f1ea0,66ff010106ebccb50c806866,2024-10-03_16h45.46.994,WTP_SM_Choice,2022.2.1,Linux x86_64,30.02732487,,,,,space,1.147,NAN,,NAN,0.07,5.93,,0,6,6,6,1,7,Sam,Acc,Participant_Images/66f16ff603404dbb816cc517/66f16ff603404dbb816cc517_Images/66f16ff603404dbb816cc517_Image_24.jpeg,liked,3.562416326,,,,,,,,,,,,,,,,,,,,,,
,,66f16ff603404dbb816cc517,6685aa9113c938e83b4f1ea0,66ff010106ebccb50c806866,2024-10-03_16h45.46.994,WTP_SM_Choice,2022.2.1,Linux x86_64,30.02732487,,,,,space,0.5252,NAN,,NAN,0.07,5.93,,0,7,7,7,1,8,Sam,Acc,Participant_Images/66f16ff603404dbb816cc517/66f16ff603404dbb816cc517_Images/66f16ff603404dbb816cc517_Image_1.jpeg,liked,2.843822497,,,,,,,,,,,,,,,,,,,,,,
,,66f16ff603404dbb816cc517,6685aa9113c938e83b4f1ea0,66ff010106ebccb50c806866,2024-10-03_16h45.46.994,WTP_SM_Choice,2022.2.1,Linux x86_64,30.02732487,,,,,space,0.6065,NAN,,NAN,0.07,5.93,,0,8,8,8,1,9,Sam,Acc,Participant_Images/66f16ff603404dbb816cc517/66f16ff603404dbb816cc517_Images/66f16ff603404dbb816cc517_Image_25.jpeg,liked,3.546495948,,,,,,,,,,,,,,,,,,,,,,
,,66f16ff603404dbb816cc517,6685aa9113c938e83b4f1ea0,66ff010106ebccb50c806866,2024-10-03_16h45.46.994,WTP_SM_Choice,2022.2.1,Linux x86_64,30.02732487,,,,,,,,,,,,,,,,,,6,,,,,,space,9.0625,space,6.022,0.01,1,1.6627,0,0,0,0,1,Enjoy a movie late on saturday nights with boyfriend,Walk along the beach on a fall day,0.01,0.02,3.3,0,,,,
,,66f16ff603404dbb816cc517,6685aa9113c938e83b4f1ea0,66ff010106ebccb50c806866,2024-10-03_16h45.46.994,WTP_SM_Choice,2022.2.1,Linux x86_64,30.02732487,,,,,,,,,,,,,,,,,,7,,,,,,,,,,0.02,1,4.2162,0,1,1,1,1,Lounge outside on a windy day,Enjoy a movie late on saturday nights with boyfriend,0.02,0.02,1.1,1,,,,
,,66f16ff603404dbb816cc517,6685aa9113c938e83b4f1ea0,66ff010106ebccb50c806866,2024-10-03_16h45.46.994,WTP_SM_Choice,2022.2.1,Linux x86_64,30.02732487,,,,,,,,,,,,,,,,,,8,,,,,,,,,,0.02,2,1.8205,0,2,2,2,1,Walk along the beach on a fall day,Make breakfast on sunday mornings with the kids,0.03,0.02,1.1,1,,,,
,,66f16ff603404dbb816cc517,6685aa9113c938e83b4f1ea0,66ff010106ebccb50c806866,2024-10-03_16h45.46.994,WTP_SM_Choice,2022.2.1,Linux x86_64,30.02732487,,,,,,,,,,,,,,,,,,9,,,,,,,,,,0.02,2,2.1699,0,3,3,3,1,Go to walmart and browsing the clearance aisle,Walk on the beach with friends late at night,0.04,0.02,4.4,1,,,,
,,66f16ff603404dbb816cc517,6685aa9113c938e83b4f1ea0,66ff010106ebccb50c806866,2024-10-03_16h45.46.994,WTP_SM_Choice,2022.2.1,Linux x86_64,30.02732487,,,,,,,,,,,,,,,,,,10,,,,,,,,,,0.02,2,1.5018,0,4,4,4,1,Watch tv on a rainy day in my living room,Joke around with sisters on weekend mornings,0.05,0.02,1.1,1,,,,
,,66f16ff603404dbb816cc517,6685aa9113c938e83b4f1ea0,66ff010106ebccb50c806866,2024-10-03_16h45.46.994,WTP_SM_Choice,2022.2.1,Linux x86_64,30.02732487,,,,,,,NAN,,NAN,0.16,5.84,,0,9,9,9,1,10,Sam,Acc,Participant_Images/66f16ff603404dbb816cc517/66f16ff603404dbb816cc517_Images/66f16ff603404dbb816cc517_Image_21.jpeg,liked,1.672012706,,,,,,,,,,,,,,,,,,,,,,
,,66f16ff603404dbb816cc517,6685aa9113c938e83b4f1ea0,66ff010106ebccb50c806866,2024-10-03_16h45.46.994,WTP_SM_Choice,2022.2.1,Linux x86_64,30.02732487,,,,,space,1.4889,NAN,,NAN,0.16,5.84,,0,10,10,10,1,11,Sam,Acc,Participant_Images/66f16ff603404dbb816cc517/66f16ff603404dbb816cc517_Images/66f16ff603404dbb816cc517_Image_23.jpeg,did not like,4.942172136,,,,,,,,,,,,,,,,,,,,,,
,,66f16ff603404dbb816cc517,6685aa9113c938e83b4f1ea0,66ff010106ebccb50c806866,2024-10-03_16h45.46.994,WTP_SM_Choice,2022.2.1,Linux x86_64,30.02732487,,,,,space,0.7876,NAN,,NAN,0.16,5.84,,0,11,11,11,1,12,Sam,Acc,Participant_Images/66f16ff603404dbb816cc517/66f16ff603404dbb816cc517_Images/66f16ff603404dbb816cc517_Image_3.jpeg,did not like,2.50187214,,,,,,,,,,,,,,,,,,,,,,
,,66f16ff603404dbb816cc517,6685aa9113c938e83b4f1ea0,66ff010106ebccb50c806866,2024-10-03_16h45.46.994,WTP_SM_Choice,2022.2.1,Linux x86_64,30.02732487,,,,,space,1.0146,NAN,,NAN,0.16,5.84,,0,12,12,12,1,13,Sam,Acc,Participant_Images/66f16ff603404dbb816cc517/66f16ff603404dbb816cc517_Images/66f16ff603404dbb816cc517_Image_11.jpeg,liked,2.071164779,,,,,,,,,,,,,,,,,,,,,,
,,66f16ff603404dbb816cc517,6685aa9113c938e83b4f1ea0,66ff010106ebccb50c806866,2024-10-03_16h45.46.994,WTP_SM_Choice,2022.2.1,Linux x86_64,30.02732487,,,,,space,0.8096,NAN,,NAN,0.16,5.84,,0,13,13,13,1,14,Sam,Acc,Participant_Images/66f16ff603404dbb816cc517/66f16ff603404dbb816cc517_Images/66f16ff603404dbb816cc517_Image_8.jpeg,liked,5.336503566,,,,,,,,,,,,,,,,,,,,,,
,,66f16ff603404dbb816cc517,6685aa9113c938e83b4f1ea0,66ff010106ebccb50c806866,2024-10-03_16h45.46.994,WTP_SM_Choice,2022.2.1,Linux x86_64,30.02732487,,,,,,,,,,,,,,,,,,11,,,,,,space,5.8866,space,2.4357,0.01,1,1.9813,0,0,0,0,1,Dance while cleaning the kitchen,Make dinner in the early evenings on weekdays with boyfriend,0.01,0.03,3.3,1,,,,
,,66f16ff603404dbb816cc517,6685aa9113c938e83b4f1ea0,66ff010106ebccb50c806866,2024-10-03_16h45.46.994,WTP_SM_Choice,2022.2.1,Linux x86_64,30.02732487,,,,,,,,,,,,,,,,,,12,,,,,,,,,,0.02,1,1.6146,0,1,1,1,1,Make dinner in the early evenings on weekdays with boyfriend,Watch a thunderstorm from the warm of the house,0.02,0.03,4.4,0,,,,
,,66f16ff603404dbb816cc517,6685aa9113c938e83b4f1ea0,66ff010106ebccb50c806866,2024-10-03_16h45.46.994,WTP_SM_Choice,2022.2.1,Linux x86_64,30.02732487,,,,,,,,,,,,,,,,,,13,,,,,,,,,,0.03,2,3.6801,0,2,2,2,1,Playing soccer outside with kids on school days,Dress up in my bedroom,0.03,0.03,1.1,0,,,,
,,66f16ff603404dbb816cc517,6685aa9113c938e83b4f1ea0,66ff010106ebccb50c806866,2024-10-03_16h45.46.994,WTP_SM_Choice,2022.2.1,Linux x86_64,30.02732487,,,,,,,,,,,,,,,,,,14,,,,,,,,,,0.03,2,1.6875,0,3,3,3,1,Dress up in my bedroom,Joke around with sisters on weekend mornings,0.04,0.03,3.3,1,,,,
,,66f16ff603404dbb816cc517,6685aa9113c938e83b4f1ea0,66ff010106ebccb50c806866,2024-10-03_16h45.46.994,WTP_SM_Choice,2022.2.1,Linux x86_64,30.02732487,,,,,,,,,,,,,,,,,,15,,,,,,,,,,0.03,2,1.4161,0,4,4,4,1,Walk on the beach with friends late at night,Lounge outside on a windy day,0.05,0.03,4.4,0,,,,
,,66f16ff603404dbb816cc517,6685aa9113c938e83b4f1ea0,66ff010106ebccb50c806866,2024-10-03_16h45.46.994,WTP_SM_Choice,2022.2.1,Linux x86_64,30.02732487,,,,,,,NAN,,NAN,0.28,5.72,,0,14,14,14,1,15,Sam,Acc,Participant_Images/66f16ff603404dbb816cc517/66f16ff603404dbb816cc517_Images/66f16ff603404dbb816cc517_Image_10.jpeg,liked,2.642157193,,,,,,,,,,,,,,,,,,,,,,
,,66f16ff603404dbb816cc517,6685aa9113c938e83b4f1ea0,66ff010106ebccb50c806866,2024-10-03_16h45.46.994,WTP_SM_Choice,2022.2.1,Linux x86_64,30.02732487,,,,,space,0.6033,NAN,,NAN,0.28,5.72,,0,15,15,15,1,16,Sam,Acc,Participant_Images/66f16ff603404dbb816cc517/66f16ff603404dbb816cc517_Images/66f16ff603404dbb816cc517_Image_6.jpeg,liked,4.456234322,,,,,,,,,,,,,,,,,,,,,,
,,66f16ff603404dbb816cc517,6685aa9113c938e83b4f1ea0,66ff010106ebccb50c806866,2024-10-03_16h45.46.994,WTP_SM_Choice,2022.2.1,Linux x86_64,30.02732487,,,,,space,0.7932,NAN,,NAN,0.28,5.72,,0,16,16,16,1,17,Sam,Acc,Participant_Images/66f16ff603404dbb816cc517/66f16ff603404dbb816cc517_Images/66f16ff603404dbb816cc517_Image_9.jpeg,liked,4.438512181,,,,,,,,,,,,,,,,,,,,,,
,,66f16ff603404dbb816cc517,6685aa9113c938e83b4f1ea0,66ff010106ebccb50c806866,2024-10-03_16h45.46.994,WTP_SM_Choice,2022.2.1,Linux x86_64,30.02732487,,,,,space,0.5947,NAN,,NAN,0.28,5.72,,0,17,17,17,1,18,Sam,Acc,Participant_Images/66f16ff603404dbb816cc517/66f16ff603404dbb816cc517_Images/66f16ff603404dbb816cc517_Image_12.jpeg,did not like,2.682944783,,,,,,,,,,,,,,,,,,,,,,
,,66f16ff603404dbb816cc517,6685aa9113c938e83b4f1ea0,66ff010106ebccb50c806866,2024-10-03_16h45.46.994,WTP_SM_Choice,2022.2.1,Linux x86_64,30.02732487,,,,,space,2.4542,NAN,,NAN,0.28,5.72,,0,18,18,18,1,19,Sam,Acc,Participant_Images/66f16ff603404dbb816cc517/66f16ff603404dbb816cc517_Images/66f16ff603404dbb816cc517_Image_7.jpeg,did not like,4.51984296,,,,,,,,,,,,,,,,,,,,,,
,,66f16ff603404dbb816cc517,6685aa9113c938e83b4f1ea0,66ff010106ebccb50c806866,2024-10-03_16h45.46.994,WTP_SM_Choice,2022.2.1,Linux x86_64,30.02732487,,,,,,,,,,,,,,,,,,16,,,,,,space,4.007,space,1.6162,0.01,1,1.0885,0,0,0,0,1,Have dinner with family on weekday evenings,Dress up in my bedroom,0.01,0.04,1.1,0,,,,
,,66f16ff603404dbb816cc517,6685aa9113c938e83b4f1ea0,66ff010106ebccb50c806866,2024-10-03_16h45.46.994,WTP_SM_Choice,2022.2.1,Linux x86_64,30.02732487,,,,,,,,,,,,,,,,,,17,,,,,,,,,,0.02,1,1.1844,0,1,1,1,1,Watch tv on a rainy day in my living room,Playing soccer outside with kids on school days,0.02,0.04,8.8,1,,,,
,,66f16ff603404dbb816cc517,6685aa9113c938e83b4f1ea0,66ff010106ebccb50c806866,2024-10-03_16h45.46.994,WTP_SM_Choice,2022.2.1,Linux x86_64,30.02732487,,,,,,,,,,,,,,,,,,18,,,,,,,,,,0.03,1,1.4804,0,2,2,2,1,Make dinner in the early evenings on weekdays with boyfriend,Take pictures in my backyard,0.03,0.04,3.3,0,,,,
,,66f16ff603404dbb816cc517,6685aa9113c938e83b4f1ea0,66ff010106ebccb50c806866,2024-10-03_16h45.46.994,WTP_SM_Choice,2022.2.1,Linux x86_64,30.02732487,,,,,,,,,,,,,,,,,,19,,,,,,,,,,0.04,2,1.7593,0,3,3,3,1,Joke around with sisters on weekend mornings,Lounge outside on a windy day,0.04,0.04,3.3,0,,,,
,,66f16ff603404dbb816cc517,6685aa9113c938e83b4f1ea0,66ff010106ebccb50c806866,2024-10-03_16h45.46.994,WTP_SM_Choice,2022.2.1,Linux x86_64,30.02732487,,,,,,,,,,,,,,,,,,20,,,,,,,,,,0.04,2,1.1787,0,4,4,4,1,Read a book on my bed in dimly lit bedroom,Watch thunderstorms with the kids late in the evenings,0.05,0.04,1.1,1,,,,
,,66f16ff603404dbb816cc517,6685aa9113c938e83b4f1ea0,66ff010106ebccb50c806866,2024-10-03_16h45.46.994,WTP_SM_Choice,2022.2.1,Linux x86_64,30.02732487,,,,,,,NAN,,NAN,0.42,5.58,,0,19,19,19,1,20,Sam,Acc,Participant_Images/66f16ff603404dbb816cc517/66f16ff603404dbb816cc517_Images/66f16ff603404dbb816cc517_Image_14.jpeg,liked,3.195382774,,,,,,,,,,,,,,,,,,,,,,
,,66f16ff603404dbb816cc517,6685aa9113c938e83b4f1ea0,66ff010106ebccb50c806866,2024-10-03_16h45.46.994,WTP_SM_Choice,2022.2.1,Linux x86_64,30.02732487,,,,,space,0.5405,NAN,,NAN,0.42,5.58,,0,20,20,20,1,21,Sam,Acc,Participant_Images/66f16ff603404dbb816cc517/66f16ff603404dbb816cc517_Images/66f16ff603404dbb816cc517_Image_15.jpeg,did not like,1.779333479,,,,,,,,,,,,,,,,,,,,,,
,,66f16ff603404dbb816cc517,6685aa9113c938e83b4f1ea0,66ff010106ebccb50c806866,2024-10-03_16h45.46.994,WTP_SM_Choice,2022.2.1,Linux x86_64,30.02732487,,,,,space,0.5045,NAN,,NAN,0.42,5.58,,0,21,21,21,1,22,Sam,Acc,Participant_Images/66f16ff603404dbb816cc517/66f16ff603404dbb816cc517_Images/66f16ff603404dbb816cc517_Image_19.jpeg,liked,4.312468682,,,,,,,,,,,,,,,,,,,,,,
,,66f16ff603404dbb816cc517,6685aa9113c938e83b4f1ea0,66ff010106ebccb50c806866,2024-10-03_16h45.46.994,WTP_SM_Choice,2022.2.1,Linux x86_64,30.02732487,,,,,space,0.8031,NAN,,NAN,0.42,5.58,,0,22,22,22,1,23,Sam,Acc,Participant_Images/66f16ff603404dbb816cc517/66f16ff603404dbb816cc517_Images/66f16ff603404dbb816cc517_Image_20.jpeg,did not like,4.940433059,,,,,,,,,,,,,,,,,,,,,,
,,66f16ff603404dbb816cc517,6685aa9113c938e83b4f1ea0,66ff010106ebccb50c806866,2024-10-03_16h45.46.994,WTP_SM_Choice,2022.2.1,Linux x86_64,30.02732487,,,,,space,1.1588,NAN,,NAN,0.42,5.58,,0,23,23,23,1,24,Sam,Acc,Participant_Images/66f16ff603404dbb816cc517/66f16ff603404dbb816cc517_Images/66f16ff603404dbb816cc517_Image_17.jpeg,liked,2.7105123,,,,,,,,,,,,,,,,,,,,,,
,,66f16ff603404dbb816cc517,6685aa9113c938e83b4f1ea0,66ff010106ebccb50c806866,2024-10-03_16h45.46.994,WTP_SM_Choice,2022.2.1,Linux x86_64,30.02732487,,,,,,,,,,,,,,,,,,21,,,,,,space,4.8028,space,2.5753,0.01,1,0.9673,0,0,0,0,1,Walk on the beach with friends late at night,Watch tv on a rainy day in my living room,0.01,0.05,8.8,0,,,,
,,66f16ff603404dbb816cc517,6685aa9113c938e83b4f1ea0,66ff010106ebccb50c806866,2024-10-03_16h45.46.994,WTP_SM_Choice,2022.2.1,Linux x86_64,30.02732487,,,,,,,,,,,,,,,,,,22,,,,,,,,,,0.02,1,1.1272,0,1,1,1,1,Enjoy a movie late on saturday nights with boyfriend,Watch a thunderstorm from the warm of the house,0.02,0.05,4.4,0,,,,
,,66f16ff603404dbb816cc517,6685aa9113c938e83b4f1ea0,66ff010106ebccb50c806866,2024-10-03_16h45.46.994,WTP_SM_Choice,2022.2.1,Linux x86_64,30.02732487,,,,,,,,,,,,,,,,,,23,,,,,,,,,,0.03,1,1.1356,0,2,2,2,1,Watch a thunderstorm from the warm of the house,Watch thunderstorms with the kids late in the evenings,0.03,0.05,1.1,1,,,,
,,66f16ff603404dbb816cc517,6685aa9113c938e83b4f1ea0,66ff010106ebccb50c806866,2024-10-03_16h45.46.994,WTP_SM_Choice,2022.2.1,Linux x86_64,30.02732487,,,,,,,,,,,,,,,,,,24,,,,,,,,,,0.04,1,1.3428,0,3,3,3,1,Watch a thunderstorm from the warm of the house,Swim in the backyard pool with the kids on hot summer days,0.04,0.05,4.4,1,,,,
,,66f16ff603404dbb816cc517,6685aa9113c938e83b4f1ea0,66ff010106ebccb50c806866,2024-10-03_16h45.46.994,WTP_SM_Choice,2022.2.1,Linux x86_64,30.02732487,,,,,,,,,,,,,,,,,,25,,,,,,,,,,0.05,1,1.7876,0,4,4,4,1,Make breakfast on sunday mornings with the kids,Lounge outside on a windy day,0.05,0.05,3.3,0,,,,
,,66f16ff603404dbb816cc517,6685aa9113c938e83b4f1ea0,66ff010106ebccb50c806866,2024-10-03_16h45.46.994,WTP_SM_Choice,2022.2.1,Linux x86_64,30.02732487,,,,,,,4,,5,0.57,5.43,,0,24,24,24,1,25,Sam,Acc,Participant_Images/66f16ff603404dbb816cc517/66f16ff603404dbb816cc517_Images/66f16ff603404dbb816cc517_Image_22.jpeg,liked,3.602308302,,,,,,,,,,,,,,,,,,,space,0.576,,
,,66f16ff603404dbb816cc517,6685aa9113c938e83b4f1ea0,66ff010106ebccb50c806866,2024-10-03_16h45.46.994,WTP_SM_Choice,2022.2.1,Linux x86_64,30.02732487,,,space,1.5566,space,0.5702,NAN,,NAN,0.57,5.43,,0,25,25,25,1,26,Riley,Acc,Participant_Images/66f16ff603404dbb816cc517/66f16ff603404dbb816cc517_Images/66f16ff603404dbb816cc517_Image_7.jpeg,liked,4.106391878,,,,,,,,,,,,,,,,,,,,,,
,,66f16ff603404dbb816cc517,6685aa9113c938e83b4f1ea0,66ff010106ebccb50c806866,2024-10-03_16h45.46.994,WTP_SM_Choice,2022.2.1,Linux x86_64,30.02732487,,,,,space,0.4739,NAN,,NAN,0.57,5.43,,0,26,26,26,1,27,Riley,Acc,Participant_Images/66f16ff603404dbb816cc517/66f16ff603404dbb816cc517_Images/66f16ff603404dbb816cc517_Image_24.jpeg,liked,3.799433026,,,,,,,,,,,,,,,,,,,,,,
,,66f16ff603404dbb816cc517,6685aa9113c938e83b4f1ea0,66ff010106ebccb50c806866,2024-10-03_16h45.46.994,WTP_SM_Choice,2022.2.1,Linux x86_64,30.02732487,,,,,space,0.6438,NAN,,NAN,0.57,5.43,,0,27,27,27,1,28,Riley,Acc,Participant_Images/66f16ff603404dbb816cc517/66f16ff603404dbb816cc517_Images/66f16ff603404dbb816cc517_Image_1.jpeg,liked,5.246980764,,,,,,,,,,,,,,,,,,,,,,
,,66f16ff603404dbb816cc517,6685aa9113c938e83b4f1ea0,66ff010106ebccb50c806866,2024-10-03_16h45.46.994,WTP_SM_Choice,2022.2.1,Linux x86_64,30.02732487,,,,,space,0.8844,NAN,,NAN,0.57,5.43,,0,28,28,28,1,29,Riley,Acc,Participant_Images/66f16ff603404dbb816cc517/66f16ff603404dbb816cc517_Images/66f16ff603404dbb816cc517_Image_9.jpeg,liked,3.30081769,,,,,,,,,,,,,,,,,,,,,,
,,66f16ff603404dbb816cc517,6685aa9113c938e83b4f1ea0,66ff010106ebccb50c806866,2024-10-03_16h45.46.994,WTP_SM_Choice,2022.2.1,Linux x86_64,30.02732487,,,,,,,,,,,,,,,,,,26,,,,,,space,1.7717,space,0.9539,0.01,2,1.0542,0,0,0,0,1,Dance while cleaning the kitchen,Have dinner with family on weekday evenings,0.01,0.01,4.4,1,,,,
,,66f16ff603404dbb816cc517,6685aa9113c938e83b4f1ea0,66ff010106ebccb50c806866,2024-10-03_16h45.46.994,WTP_SM_Choice,2022.2.1,Linux x86_64,30.02732487,,,,,,,,,,,,,,,,,,27,,,,,,,,,,0.01,2,1.2255,0,1,1,1,1,Walk along the beach on a fall day,Swim in the backyard pool with the kids on hot summer days,0.02,0.01,3.3,1,,,,
,,66f16ff603404dbb816cc517,6685aa9113c938e83b4f1ea0,66ff010106ebccb50c806866,2024-10-03_16h45.46.994,WTP_SM_Choice,2022.2.1,Linux x86_64,30.02732487,,,,,,,,,,,,,,,,,,28,,,,,,,,,,0.01,2,1.0161,0,2,2,2,1,Take the kids to a park on cool weekend afternoons,Walk along the beach on a fall day,0.03,0.01,3.3,0,,,,
,,66f16ff603404dbb816cc517,6685aa9113c938e83b4f1ea0,66ff010106ebccb50c806866,2024-10-03_16h45.46.994,WTP_SM_Choice,2022.2.1,Linux x86_64,30.02732487,,,,,,,,,,,,,,,,,,29,,,,,,,,,,0.01,2,0.885,0,3,3,3,1,Dress up in my bedroom,Enjoy a movie late on saturday nights with boyfriend,0.04,0.01,4.4,1,,,,
,,66f16ff603404dbb816cc517,6685aa9113c938e83b4f1ea0,66ff010106ebccb50c806866,2024-10-03_16h45.46.994,WTP_SM_Choice,2022.2.1,Linux x86_64,30.02732487,,,,,,,,,,,,,,,,,,30,,,,,,,,,,0.01,2,1.286,0,4,4,4,1,Go to walmart and browsing the clearance aisle,Enjoy a movie late on saturday nights with boyfriend,0.05,0.01,8.8,1,,,,
,,66f16ff603404dbb816cc517,6685aa9113c938e83b4f1ea0,66ff010106ebccb50c806866,2024-10-03_16h45.46.994,WTP_SM_Choice,2022.2.1,Linux x86_64,30.02732487,,,,,,,NAN,,NAN,0.62,5.38,,0,29,29,29,1,30,Riley,Acc,Participant_Images/66f16ff603404dbb816cc517/66f16ff603404dbb816cc517_Images/66f16ff603404dbb816cc517_Image_22.jpeg,liked,1.661473164,,,,,,,,,,,,,,,,,,,,,,
,,66f16ff603404dbb816cc517,6685aa9113c938e83b4f1ea0,66ff010106ebccb50c806866,2024-10-03_16h45.46.994,WTP_SM_Choice,2022.2.1,Linux x86_64,30.02732487,,,,,space,0.6926,NAN,,NAN,0.62,5.38,,0,30,30,30,1,31,Riley,Acc,Participant_Images/66f16ff603404dbb816cc517/66f16ff603404dbb816cc517_Images/66f16ff603404dbb816cc517_Image_3.jpeg,liked,3.613205605,,,,,,,,,,,,,,,,,,,,,,
,,66f16ff603404dbb816cc517,6685aa9113c938e83b4f1ea0,66ff010106ebccb50c806866,2024-10-03_16h45.46.994,WTP_SM_Choice,2022.2.1,Linux x86_64,30.02732487,,,,,space,1.1867,NAN,,NAN,0.62,5.38,,0,31,31,31,1,32,Riley,Acc,Participant_Images/66f16ff603404dbb816cc517/66f16ff603404dbb816cc517_Images/66f16ff603404dbb816cc517_Image_23.jpeg,liked,4.988446431,,,,,,,,,,,,,,,,,,,,,,
,,66f16ff603404dbb816cc517,6685aa9113c938e83b4f1ea0,66ff010106ebccb50c806866,2024-10-03_16h45.46.994,WTP_SM_Choice,2022.2.1,Linux x86_64,30.02732487,,,,,space,1.6411,NAN,,NAN,0.62,5.38,,0,32,32,32,1,33,Riley,Acc,Participant_Images/66f16ff603404dbb816cc517/66f16ff603404dbb816cc517_Images/66f16ff603404dbb816cc517_Image_19.jpeg,liked,3.470791822,,,,,,,,,,,,,,,,,,,,,,
,,66f16ff603404dbb816cc517,6685aa9113c938e83b4f1ea0,66ff010106ebccb50c806866,2024-10-03_16h45.46.994,WTP_SM_Choice,2022.2.1,Linux x86_64,30.02732487,,,,,space,0.7336,NAN,,NAN,0.62,5.38,,0,33,33,33,1,34,Riley,Acc,Participant_Images/66f16ff603404dbb816cc517/66f16ff603404dbb816cc517_Images/66f16ff603404dbb816cc517_Image_14.jpeg,liked,3.820572462,,,,,,,,,,,,,,,,,,,,,,
,,66f16ff603404dbb816cc517,6685aa9113c938e83b4f1ea0,66ff010106ebccb50c806866,2024-10-03_16h45.46.994,WTP_SM_Choice,2022.2.1,Linux x86_64,30.02732487,,,,,,,,,,,,,,,,,,31,,,,,,space,7.5285,space,0.6764,0.01,1,0.9485,0,0,0,0,1,Enjoy a movie late on saturday nights with boyfriend,Watch tv on a rainy day in my living room,0.01,0.02,8.8,0,,,,
,,66f16ff603404dbb816cc517,6685aa9113c938e83b4f1ea0,66ff010106ebccb50c806866,2024-10-03_16h45.46.994,WTP_SM_Choice,2022.2.1,Linux x86_64,30.02732487,,,,,,,,,,,,,,,,,,32,,,,,,,,,,0.02,2,2.5927,0,1,1,1,1,Lounge outside on a windy day,Have dinner with family on weekday evenings,0.02,0.02,1.1,1,,,,
,,66f16ff603404dbb816cc517,6685aa9113c938e83b4f1ea0,66ff010106ebccb50c806866,2024-10-03_16h45.46.994,WTP_SM_Choice,2022.2.1,Linux x86_64,30.02732487,,,,,,,,,,,,,,,,,,33,,,,,,,,,,0.02,2,1.2583,0,2,2,2,1,Enjoy a movie late on saturday nights with boyfriend,Read a book on my bed in dimly lit bedroom,0.03,0.02,4.4,0,,,,
,,66f16ff603404dbb816cc517,6685aa9113c938e83b4f1ea0,66ff010106ebccb50c806866,2024-10-03_16h45.46.994,WTP_SM_Choice,2022.2.1,Linux x86_64,30.02732487,,,,,,,,,,,,,,,,,,34,,,,,,,,,,0.02,2,1.0219,0,3,3,3,1,Watch thunderstorms with the kids late in the evenings,Take pictures in my backyard,0.04,0.02,3.3,0,,,,
,,66f16ff603404dbb816cc517,6685aa9113c938e83b4f1ea0,66ff010106ebccb50c806866,2024-10-03_16h45.46.994,WTP_SM_Choice,2022.2.1,Linux x86_64,30.02732487,,,,,,,,,,,,,,,,,,35,,,,,,,,,,0.02,2,1.0249,0,4,4,4,1,Take pictures in my backyard,Make breakfast on sunday mornings with the kids,0.05,0.02,1.1,1,,,,
,,66f16ff603404dbb816cc517,6685aa9113c938e83b4f1ea0,66ff010106ebccb50c806866,2024-10-03_16h45.46.994,WTP_SM_Choice,2022.2.1,Linux x86_64,30.02732487,,,,,,,NAN,,NAN,0.71,5.29,,0,34,34,34,1,35,Riley,Acc,Participant_Images/66f16ff603404dbb816cc517/66f16ff603404dbb816cc517_Images/66f16ff603404dbb816cc517_Image_21.jpeg,liked,2.455989137,,,,,,,,,,,,,,,,,,,,,,
,,66f16ff603404dbb816cc517,6685aa9113c938e83b4f1ea0,66ff010106ebccb50c806866,2024-10-03_16h45.46.994,WTP_SM_Choice,2022.2.1,Linux x86_64,30.02732487,,,,,space,3.3351,NAN,,NAN,0.71,5.29,,0,35,35,35,1,36,Riley,Acc,Participant_Images/66f16ff603404dbb816cc517/66f16ff603404dbb816cc517_Images/66f16ff603404dbb816cc517_Image_8.jpeg,did not like,3.79605092,,,,,,,,,,,,,,,,,,,,,,
,,66f16ff603404dbb816cc517,6685aa9113c938e83b4f1ea0,66ff010106ebccb50c806866,2024-10-03_16h45.46.994,WTP_SM_Choice,2022.2.1,Linux x86_64,30.02732487,,,,,space,2.4684,NAN,,NAN,0.71,5.29,,0,36,36,36,1,37,Riley,Acc,Participant_Images/66f16ff603404dbb816cc517/66f16ff603404dbb816cc517_Images/66f16ff603404dbb816cc517_Image_2.jpeg,did not like,3.562416326,,,,,,,,,,,,,,,,,,,,,,
,,66f16ff603404dbb816cc517,6685aa9113c938e83b4f1ea0,66ff010106ebccb50c806866,2024-10-03_16h45.46.994,WTP_SM_Choice,2022.2.1,Linux x86_64,30.02732487,,,,,space,3.6545,NAN,,NAN,0.71,5.29,,0,37,37,37,1,38,Riley,Acc,Participant_Images/66f16ff603404dbb816cc517/66f16ff603404dbb816cc517_Images/66f16ff603404dbb816cc517_Image_10.jpeg,liked,2.843822497,,,,,,,,,,,,,,,,,,,,,,
,,66f16ff603404dbb816cc517,6685aa9113c938e83b4f1ea0,66ff010106ebccb50c806866,2024-10-03_16h45.46.994,WTP_SM_Choice,2022.2.1,Linux x86_64,30.02732487,,,,,space,2.4045,NAN,,NAN,0.71,5.29,,0,38,38,38,1,39,Riley,Acc,Participant_Images/66f16ff603404dbb816cc517/66f16ff603404dbb816cc517_Images/66f16ff603404dbb816cc517_Image_12.jpeg,liked,3.546495948,,,,,,,,,,,,,,,,,,,,,,
,,66f16ff603404dbb816cc517,6685aa9113c938e83b4f1ea0,66ff010106ebccb50c806866,2024-10-03_16h45.46.994,WTP_SM_Choice,2022.2.1,Linux x86_64,30.02732487,,,,,,,,,,,,,,,,,,36,,,,,,space,4.9318,space,1.5444,0.01,1,1.2202,0,0,0,0,1,Take the kids to a park on cool weekend afternoons,Watch a thunderstorm from the warm of the house,0.01,0.03,3.3,0,,,,
,,66f16ff603404dbb816cc517,6685aa9113c938e83b4f1ea0,66ff010106ebccb50c806866,2024-10-03_16h45.46.994,WTP_SM_Choice,2022.2.1,Linux x86_64,30.02732487,,,,,,,,,,,,,,,,,,37,,,,,,,,,,0.02,1,1.3259,0,1,1,1,1,Swim in the backyard pool with the kids on hot summer days,Dance while cleaning the kitchen,0.02,0.03,1.1,0,,,,
,,66f16ff603404dbb816cc517,6685aa9113c938e83b4f1ea0,66ff010106ebccb50c806866,2024-10-03_16h45.46.994,WTP_SM_Choice,2022.2.1,Linux x86_64,30.02732487,,,,,,,,,,,,,,,,,,38,,,,,,,,,,0.03,2,2.0908,0,2,2,2,1,Drive in my car with loud music on,Watch thunderstorms with the kids late in the evenings,0.03,0.03,1.1,1,,,,
,,66f16ff603404dbb816cc517,6685aa9113c938e83b4f1ea0,66ff010106ebccb50c806866,2024-10-03_16h45.46.994,WTP_SM_Choice,2022.2.1,Linux x86_64,30.02732487,,,,,,,,,,,,,,,,,,39,,,,,,,,,,0.03,2,1.0044,0,3,3,3,1,Joke around with sisters on weekend mornings,Read a book on my bed in dimly lit bedroom,0.04,0.03,3.3,0,,,,
,,66f16ff603404dbb816cc517,6685aa9113c938e83b4f1ea0,66ff010106ebccb50c806866,2024-10-03_16h45.46.994,WTP_SM_Choice,2022.2.1,Linux x86_64,30.02732487,,,,,,,,,,,,,,,,,,40,,,,,,,,,,0.03,2,1.0718,0,4,4,4,1,Take the kids to a park on cool weekend afternoons,Lounge outside on a windy day,0.05,0.03,4.4,0,,,,
,,66f16ff603404dbb816cc517,6685aa9113c938e83b4f1ea0,66ff010106ebccb50c806866,2024-10-03_16h45.46.994,WTP_SM_Choice,2022.2.1,Linux x86_64,30.02732487,,,,,,,NAN,,NAN,0.83,5.17,,0,39,39,39,1,40,Riley,Acc,Participant_Images/66f16ff603404dbb816cc517/66f16ff603404dbb816cc517_Images/66f16ff603404dbb816cc517_Image_15.jpeg,liked,1.672012706,,,,,,,,,,,,,,,,,,,,,,
,,66f16ff603404dbb816cc517,6685aa9113c938e83b4f1ea0,66ff010106ebccb50c806866,2024-10-03_16h45.46.994,WTP_SM_Choice,2022.2.1,Linux x86_64,30.02732487,,,,,space,0.9635,NAN,,NAN,0.83,5.17,,0,40,40,40,1,41,Riley,Acc,Participant_Images/66f16ff603404dbb816cc517/66f16ff603404dbb816cc517_Images/66f16ff603404dbb816cc517_Image_4.jpeg,liked,4.942172136,,,,,,,,,,,,,,,,,,,,,,
,,66f16ff603404dbb816cc517,6685aa9113c938e83b4f1ea0,66ff010106ebccb50c806866,2024-10-03_16h45.46.994,WTP_SM_Choice,2022.2.1,Linux x86_64,30.02732487,,,,,space,0.7347,NAN,,NAN,0.83,5.17,,0,41,41,41,1,42,Riley,Acc,Participant_Images/66f16ff603404dbb816cc517/66f16ff603404dbb816cc517_Images/66f16ff603404dbb816cc517_Image_17.jpeg,liked,2.50187214,,,,,,,,,,,,,,,,,,,,,,
,,66f16ff603404dbb816cc517,6685aa9113c938e83b4f1ea0,66ff010106ebccb50c806866,2024-10-03_16h45.46.994,WTP_SM_Choice,2022.2.1,Linux x86_64,30.02732487,,,,,space,0.6069,NAN,,NAN,0.83,5.17,,0,42,42,42,1,43,Riley,Acc,Participant_Images/66f16ff603404dbb816cc517/66f16ff603404dbb816cc517_Images/66f16ff603404dbb816cc517_Image_11.jpeg,liked,2.071164779,,,,,,,,,,,,,,,,,,,,,,
,,66f16ff603404dbb816cc517,6685aa9113c938e83b4f1ea0,66ff010106ebccb50c806866,2024-10-03_16h45.46.994,WTP_SM_Choice,2022.2.1,Linux x86_64,30.02732487,,,,,space,1.0857,NAN,,NAN,0.83,5.17,,0,43,43,43,1,44,Riley,Acc,Participant_Images/66f16ff603404dbb816cc517/66f16ff603404dbb816cc517_Images/66f16ff603404dbb816cc517_Image_13.jpeg,did not like,5.336503566,,,,,,,,,,,,,,,,,,,,,,
,,66f16ff603404dbb816cc517,6685aa9113c938e83b4f1ea0,66ff010106ebccb50c806866,2024-10-03_16h45.46.994,WTP_SM_Choice,2022.2.1,Linux x86_64,30.02732487,,,,,,,,,,,,,,,,,,41,,,,,,space,1.6655,space,6.4566,0.01,1,1.561,0,0,0,0,1,Make dinner in the early evenings on weekdays with boyfriend,Lounge outside on a windy day,0.01,0.04,1.1,0,,,,
,,66f16ff603404dbb816cc517,6685aa9113c938e83b4f1ea0,66ff010106ebccb50c806866,2024-10-03_16h45.46.994,WTP_SM_Choice,2022.2.1,Linux x86_64,30.02732487,,,,,,,,,,,,,,,,,,42,,,,,,,,,,0.02,1,1.4158,0,1,1,1,1,Enjoy a movie late on saturday nights with boyfriend,Take pictures in my backyard,0.02,0.04,3.3,0,,,,
,,66f16ff603404dbb816cc517,6685aa9113c938e83b4f1ea0,66ff010106ebccb50c806866,2024-10-03_16h45.46.994,WTP_SM_Choice,2022.2.1,Linux x86_64,30.02732487,,,,,,,,,,,,,,,,,,43,,,,,,,,,,0.03,1,0.895,0,2,2,2,1,Watch thunderstorms with the kids late in the evenings,Dress up in my bedroom,0.03,0.04,1.1,0,,,,
,,66f16ff603404dbb816cc517,6685aa9113c938e83b4f1ea0,66ff010106ebccb50c806866,2024-10-03_16h45.46.994,WTP_SM_Choice,2022.2.1,Linux x86_64,30.02732487,,,,,,,,,,,,,,,,,,44,,,,,,,,,,0.04,2,2.0788,0,3,3,3,1,Watch a thunderstorm from the warm of the house,Make breakfast on sunday mornings with the kids,0.04,0.04,1.1,1,,,,
,,66f16ff603404dbb816cc517,6685aa9113c938e83b4f1ea0,66ff010106ebccb50c806866,2024-10-03_16h45.46.994,WTP_SM_Choice,2022.2.1,Linux x86_64,30.02732487,,,,,,,,,,,,,,,,,,45,,,,,,,,,,0.04,2,1.3136,0,4,4,4,1,Swim in the backyard pool with the kids on hot summer days,Read a book on my bed in dimly lit bedroom,0.05,0.04,4.4,0,,,,
,,66f16ff603404dbb816cc517,6685aa9113c938e83b4f1ea0,66ff010106ebccb50c806866,2024-10-03_16h45.46.994,WTP_SM_Choice,2022.2.1,Linux x86_64,30.02732487,,,,,,,NAN,,NAN,0.97,5.03,,0,44,44,44,1,45,Riley,Acc,Participant_Images/66f16ff603404dbb816cc517/66f16ff603404dbb816cc517_Images/66f16ff603404dbb816cc517_Image_5.jpeg,did not like,2.642157193,,,,,,,,,,,,,,,,,,,,,,
,,66f16ff603404dbb816cc517,6685aa9113c938e83b4f1ea0,66ff010106ebccb50c806866,2024-10-03_16h45.46.994,WTP_SM_Choice,2022.2.1,Linux x86_64,30.02732487,,,,,space,1.2638,NAN,,NAN,0.97,5.03,,0,45,45,45,1,46,Riley,Acc,Participant_Images/66f16ff603404dbb816cc517/66f16ff603404dbb816cc517_Images/66f16ff603404dbb816cc517_Image_20.jpeg,liked,4.456234322,,,,,,,,,,,,,,,,,,,,,,
,,66f16ff603404dbb816cc517,6685aa9113c938e83b4f1ea0,66ff010106ebccb50c806866,2024-10-03_16h45.46.994,WTP_SM_Choice,2022.2.1,Linux x86_64,30.02732487,,,,,space,2.9392,NAN,,NAN,0.97,5.03,,0,46,46,46,1,47,Riley,Acc,Participant_Images/66f16ff603404dbb816cc517/66f16ff603404dbb816cc517_Images/66f16ff603404dbb816cc517_Image_6.jpeg,liked,4.438512181,,,,,,,,,,,,,,,,,,,,,,
,,66f16ff603404dbb816cc517,6685aa9113c938e83b4f1ea0,66ff010106ebccb50c806866,2024-10-03_16h45.46.994,WTP_SM_Choice,2022.2.1,Linux x86_64,30.02732487,,,,,space,0.7694,NAN,,NAN,0.97,5.03,,0,47,47,47,1,48,Riley,Acc,Participant_Images/66f16ff603404dbb816cc517/66f16ff603404dbb816cc517_Images/66f16ff603404dbb816cc517_Image_25.jpeg,did not like,2.682944783,,,,,,,,,,,,,,,,,,,,,,
,,66f16ff603404dbb816cc517,6685aa9113c938e83b4f1ea0,66ff010106ebccb50c806866,2024-10-03_16h45.46.994,WTP_SM_Choice,2022.2.1,Linux x86_64,30.02732487,,,,,space,3.9073,NAN,,NAN,0.97,5.03,,0,48,48,48,1,49,Riley,Acc,Participant_Images/66f16ff603404dbb816cc517/66f16ff603404dbb816cc517_Images/66f16ff603404dbb816cc517_Image_16.jpeg,did not like,4.51984296,,,,,,,,,,,,,,,,,,,,,,
,,66f16ff603404dbb816cc517,6685aa9113c938e83b4f1ea0,66ff010106ebccb50c806866,2024-10-03_16h45.46.994,WTP_SM_Choice,2022.2.1,Linux x86_64,30.02732487,,,,,,,,,,,,,,,,,,46,,,,,,space,1.3355,space,1.0627,0.01,1,0.7734,0,0,0,0,1,Go to walmart and browsing the clearance aisle,Make breakfast on sunday mornings with the kids,0.01,0.05,8.8,1,,,,
,,66f16ff603404dbb816cc517,6685aa9113c938e83b4f1ea0,66ff010106ebccb50c806866,2024-10-03_16h45.46.994,WTP_SM_Choice,2022.2.1,Linux x86_64,30.02732487,,,,,,,,,,,,,,,,,,47,,,,,,,,,,0.02,1,0.9916,0,1,1,1,1,Drive in my car with loud music on,Make breakfast on sunday mornings with the kids,0.02,0.05,1.1,1,,,,
,,66f16ff603404dbb816cc517,6685aa9113c938e83b4f1ea0,66ff010106ebccb50c806866,2024-10-03_16h45.46.994,WTP_SM_Choice,2022.2.1,Linux x86_64,30.02732487,,,,,,,,,,,,,,,,,,48,,,,,,,,,,0.03,1,1.0806,0,2,2,2,1,Watch a thunderstorm from the warm of the house,Joke around with sisters on weekend mornings,0.03,0.05,4.4,1,,,,
,,66f16ff603404dbb816cc517,6685aa9113c938e83b4f1ea0,66ff010106ebccb50c806866,2024-10-03_16h45.46.994,WTP_SM_Choice,2022.2.1,Linux x86_64,30.02732487,,,,,,,,,,,,,,,,,,49,,,,,,,,,,0.04,1,1.0332,0,3,3,3,1,Walk on the beach with friends late at night,Dance while cleaning the kitchen,0.04,0.05,3.3,0,,,,
,,66f16ff603404dbb816cc517,6685aa9113c938e83b4f1ea0,66ff010106ebccb50c806866,2024-10-03_16h45.46.994,WTP_SM_Choice,2022.2.1,Linux x86_64,30.02732487,,,,,,,,,,,,,,,,,,50,,,,,,,,,,0.05,2,1.6309,0,4,4,4,1,Go to walmart and browsing the clearance aisle,Playing soccer outside with kids on school days,0.05,0.05,1.1,1,,,,
,,66f16ff603404dbb816cc517,6685aa9113c938e83b4f1ea0,66ff010106ebccb50c806866,2024-10-03_16h45.46.994,WTP_SM_Choice,2022.2.1,Linux x86_64,30.02732487,,,,,,,3,,6,1.12,4.88,,0,49,49,49,1,50,Riley,Acc,Participant_Images/66f16ff603404dbb816cc517/66f16ff603404dbb816cc517_Images/66f16ff603404dbb816cc517_Image_18.jpeg,did not like,3.195382774,,,,,,,,,,,,,,,,,,,space,0.8256,,
,,66f16ff603404dbb816cc517,6685aa9113c938e83b4f1ea0,66ff010106ebccb50c806866,2024-10-03_16h45.46.994,WTP_SM_Choice,2022.2.1,Linux x86_64,30.02732487,,,space,0.8041,space,0.8245,NAN,,NAN,1.12,4.88,,0,50,50,50,1,51,Alex,Rej,Participant_Images/66f16ff603404dbb816cc517/66f16ff603404dbb816cc517_Images/66f16ff603404dbb816cc517_Image_24.jpeg,did not like,1.779333479,,,,,,,,,,,,,,,,,,,,,,
,,66f16ff603404dbb816cc517,6685aa9113c938e83b4f1ea0,66ff010106ebccb50c806866,2024-10-03_16h45.46.994,WTP_SM_Choice,2022.2.1,Linux x86_64,30.02732487,,,,,space,2.1232,NAN,,NAN,1.12,4.88,,0,51,51,51,1,52,Alex,Rej,Participant_Images/66f16ff603404dbb816cc517/66f16ff603404dbb816cc517_Images/66f16ff603404dbb816cc517_Image_3.jpeg,did not like,4.312468682,,,,,,,,,,,,,,,,,,,,,,
,,66f16ff603404dbb816cc517,6685aa9113c938e83b4f1ea0,66ff010106ebccb50c806866,2024-10-03_16h45.46.994,WTP_SM_Choice,2022.2.1,Linux x86_64,30.02732487,,,,,space,2.6769,NAN,,NAN,1.12,4.88,,0,52,52,52,1,53,Alex,Rej,Participant_Images/66f16ff603404dbb816cc517/66f16ff603404dbb816cc517_Images/66f16ff603404dbb816cc517_Image_13.jpeg,did not like,4.940433059,,,,,,,,,,,,,,,,,,,,,,
,,66f16ff603404dbb816cc517,6685aa9113c938e83b4f1ea0,66ff010106ebccb50c806866,2024-10-03_16h45.46.994,WTP_SM_Choice,2022.2.1,Linux x86_64,30.02732487,,,,,space,1.0479,NAN,,NAN,1.12,4.88,,0,53,53,53,1,54,Alex,Rej,Participant_Images/66f16ff603404dbb816cc517/66f16ff603404dbb816cc517_Images/66f16ff603404dbb816cc517_Image_4.jpeg,did not like,2.7105123,,,,,,,,,,,,,,,,,,,,,,
,,66f16ff603404dbb816cc517,6685aa9113c938e83b4f1ea0,66ff010106ebccb50c806866,2024-10-03_16h45.46.994,WTP_SM_Choice,2022.2.1,Linux x86_64,30.02732487,,,,,,,,,,,,,,,,,,51,,,,,,space,0.8204,space,0.7119,0.01,1,0.6744,0,0,0,0,1,Walk along the beach on a fall day,Watch thunderstorms with the kids late in the evenings,0.01,0.01,1.1,1,,,,
,,66f16ff603404dbb816cc517,6685aa9113c938e83b4f1ea0,66ff010106ebccb50c806866,2024-10-03_16h45.46.994,WTP_SM_Choice,2022.2.1,Linux x86_64,30.02732487,,,,,,,,,,,,,,,,,,52,,,,,,,,,,0.02,1,0.963,0,1,1,1,1,Playing soccer outside with kids on school days,Drive in my car with loud music on,0.02,0.01,3.3,0,,,,
,,66f16ff603404dbb816cc517,6685aa9113c938e83b4f1ea0,66ff010106ebccb50c806866,2024-10-03_16h45.46.994,WTP_SM_Choice,2022.2.1,Linux x86_64,30.02732487,,,,,,,,,,,,,,,,,,53,,,,,,,,,,0.01,2,0.9946,0,2,2,2,1,Take the kids to a park on cool weekend afternoons,Dress up in my bedroom,0.03,0.01,1.1,0,,,,
,,66f16ff603404dbb816cc517,6685aa9113c938e83b4f1ea0,66ff010106ebccb50c806866,2024-10-03_16h45.46.994,WTP_SM_Choice,2022.2.1,Linux x86_64,30.02732487,,,,,,,,,,,,,,,,,,54,,,,,,,,,,0.01,2,0.9827,0,3,3,3,1,Make breakfast on sunday mornings with the kids,Read a book on my bed in dimly lit bedroom,0.04,0.01,4.4,0,,,,
,,66f16ff603404dbb816cc517,6685aa9113c938e83b4f1ea0,66ff010106ebccb50c806866,2024-10-03_16h45.46.994,WTP_SM_Choice,2022.2.1,Linux x86_64,30.02732487,,,,,,,,,,,,,,,,,,55,,,,,,,,,,0.01,2,1.1227,0,4,4,4,1,Go to walmart and browsing the clearance aisle,Have dinner with family on weekday evenings,0.05,0.01,1.1,1,,,,
,,66f16ff603404dbb816cc517,6685aa9113c938e83b4f1ea0,66ff010106ebccb50c806866,2024-10-03_16h45.46.994,WTP_SM_Choice,2022.2.1,Linux x86_64,30.02732487,,,,,,,NAN,,NAN,1.18,4.82,,0,54,54,54,1,55,Alex,Rej,Participant_Images/66f16ff603404dbb816cc517/66f16ff603404dbb816cc517_Images/66f16ff603404dbb816cc517_Image_2.jpeg,did not like,3.602308302,,,,,,,,,,,,,,,,,,,,,,
,,66f16ff603404dbb816cc517,6685aa9113c938e83b4f1ea0,66ff010106ebccb50c806866,2024-10-03_16h45.46.994,WTP_SM_Choice,2022.2.1,Linux x86_64,30.02732487,,,,,space,0.9573,NAN,,NAN,1.18,4.82,,0,55,55,55,1,56,Alex,Rej,Participant_Images/66f16ff603404dbb816cc517/66f16ff603404dbb816cc517_Images/66f16ff603404dbb816cc517_Image_9.jpeg,did not like,4.106391878,,,,,,,,,,,,,,,,,,,,,,
,,66f16ff603404dbb816cc517,6685aa9113c938e83b4f1ea0,66ff010106ebccb50c806866,2024-10-03_16h45.46.994,WTP_SM_Choice,2022.2.1,Linux x86_64,30.02732487,,,,,space,2.6472,NAN,,NAN,1.18,4.82,,0,56,56,56,1,57,Alex,Rej,Participant_Images/66f16ff603404dbb816cc517/66f16ff603404dbb816cc517_Images/66f16ff603404dbb816cc517_Image_14.jpeg,liked,3.799433026,,,,,,,,,,,,,,,,,,,,,,
,,66f16ff603404dbb816cc517,6685aa9113c938e83b4f1ea0,66ff010106ebccb50c806866,2024-10-03_16h45.46.994,WTP_SM_Choice,2022.2.1,Linux x86_64,30.02732487,,,,,space,2.5909,NAN,,NAN,1.18,4.82,,0,57,57,57,1,58,Alex,Rej,Participant_Images/66f16ff603404dbb816cc517/66f16ff603404dbb816cc517_Images/66f16ff603404dbb816cc517_Image_20.jpeg,did not like,5.246980764,,,,,,,,,,,,,,,,,,,,,,
,,66f16ff603404dbb816cc517,6685aa9113c938e83b4f1ea0,66ff010106ebccb50c806866,2024-10-03_16h45.46.994,WTP_SM_Choice,2022.2.1,Linux x86_64,30.02732487,,,,,space,0.561,NAN,,NAN,1.18,4.82,,0,58,58,58,1,59,Alex,Rej,Participant_Images/66f16ff603404dbb816cc517/66f16ff603404dbb816cc517_Images/66f16ff603404dbb816cc517_Image_15.jpeg,did not like,3.30081769,,,,,,,,,,,,,,,,,,,,,,
,,66f16ff603404dbb816cc517,6685aa9113c938e83b4f1ea0,66ff010106ebccb50c806866,2024-10-03_16h45.46.994,WTP_SM_Choice,2022.2.1,Linux x86_64,30.02732487,,,,,,,,,,,,,,,,,,56,,,,,,space,0.8021,space,0.649,0.01,1,0.9388,0,0,0,0,1,Watch a thunderstorm from the warm of the house,Playing soccer outside with kids on school days,0.01,0.02,8.8,1,,,,
,,66f16ff603404dbb816cc517,6685aa9113c938e83b4f1ea0,66ff010106ebccb50c806866,2024-10-03_16h45.46.994,WTP_SM_Choice,2022.2.1,Linux x86_64,30.02732487,,,,,,,,,,,,,,,,,,57,,,,,,,,,,0.02,1,4.6182,0,1,1,1,1,Make dinner in the early evenings on weekdays with boyfriend,Drive in my car with loud music on,0.02,0.02,4.4,0,,,,
,,66f16ff603404dbb816cc517,6685aa9113c938e83b4f1ea0,66ff010106ebccb50c806866,2024-10-03_16h45.46.994,WTP_SM_Choice,2022.2.1,Linux x86_64,30.02732487,,,,,,,,,,,,,,,,,,58,,,,,,,,,,0.02,2,1.7956,0,2,2,2,1,Have dinner with family on weekday evenings,Walk along the beach on a fall day,0.03,0.02,4.4,0,,,,
,,66f16ff603404dbb816cc517,6685aa9113c938e83b4f1ea0,66ff010106ebccb50c806866,2024-10-03_16h45.46.994,WTP_SM_Choice,2022.2.1,Linux x86_64,30.02732487,,,,,,,,,,,,,,,,,,59,,,,,,,,,,0.02,2,1.1583,0,3,3,3,1,Dance while cleaning the kitchen,Joke around with sisters on weekend mornings,0.04,0.02,4.4,1,,,,
,,66f16ff603404dbb816cc517,6685aa9113c938e83b4f1ea0,66ff010106ebccb50c806866,2024-10-03_16h45.46.994,WTP_SM_Choice,2022.2.1,Linux x86_64,30.02732487,,,,,,,,,,,,,,,,,,60,,,,,,,,,,0.02,2,1.0673,0,4,4,4,1,Have dinner with family on weekday evenings,Read a book on my bed in dimly lit bedroom,0.05,0.02,1.1,0,,,,
,,66f16ff603404dbb816cc517,6685aa9113c938e83b4f1ea0,66ff010106ebccb50c806866,2024-10-03_16h45.46.994,WTP_SM_Choice,2022.2.1,Linux x86_64,30.02732487,,,,,,,NAN,,NAN,1.27,4.73,,0,59,59,59,1,60,Alex,Rej,Participant_Images/66f16ff603404dbb816cc517/66f16ff603404dbb816cc517_Images/66f16ff603404dbb816cc517_Image_23.jpeg,did not like,1.661473164,,,,,,,,,,,,,,,,,,,,,,
,,66f16ff603404dbb816cc517,6685aa9113c938e83b4f1ea0,66ff010106ebccb50c806866,2024-10-03_16h45.46.994,WTP_SM_Choice,2022.2.1,Linux x86_64,30.02732487,,,,,space,0.9123,NAN,,NAN,1.27,4.73,,0,60,60,60,1,61,Alex,Rej,Participant_Images/66f16ff603404dbb816cc517/66f16ff603404dbb816cc517_Images/66f16ff603404dbb816cc517_Image_21.jpeg,did not like,3.613205605,,,,,,,,,,,,,,,,,,,,,,
,,66f16ff603404dbb816cc517,6685aa9113c938e83b4f1ea0,66ff010106ebccb50c806866,2024-10-03_16h45.46.994,WTP_SM_Choice,2022.2.1,Linux x86_64,30.02732487,,,,,space,0.7381,NAN,,NAN,1.27,4.73,,0,61,61,61,1,62,Alex,Rej,Participant_Images/66f16ff603404dbb816cc517/66f16ff603404dbb816cc517_Images/66f16ff603404dbb816cc517_Image_6.jpeg,liked,4.988446431,,,,,,,,,,,,,,,,,,,,,,
,,66f16ff603404dbb816cc517,6685aa9113c938e83b4f1ea0,66ff010106ebccb50c806866,2024-10-03_16h45.46.994,WTP_SM_Choice,2022.2.1,Linux x86_64,30.02732487,,,,,space,2.5691,NAN,,NAN,1.27,4.73,,0,62,62,62,1,63,Alex,Rej,Participant_Images/66f16ff603404dbb816cc517/66f16ff603404dbb816cc517_Images/66f16ff603404dbb816cc517_Image_1.jpeg,liked,3.470791822,,,,,,,,,,,,,,,,,,,,,,
,,66f16ff603404dbb816cc517,6685aa9113c938e83b4f1ea0,66ff010106ebccb50c806866,2024-10-03_16h45.46.994,WTP_SM_Choice,2022.2.1,Linux x86_64,30.02732487,,,,,space,0.7872,NAN,,NAN,1.27,4.73,,0,63,63,63,1,64,Alex,Rej,Participant_Images/66f16ff603404dbb816cc517/66f16ff603404dbb816cc517_Images/66f16ff603404dbb816cc517_Image_25.jpeg,did not like,3.820572462,,,,,,,,,,,,,,,,,,,,,,
,,66f16ff603404dbb816cc517,6685aa9113c938e83b4f1ea0,66ff010106ebccb50c806866,2024-10-03_16h45.46.994,WTP_SM_Choice,2022.2.1,Linux x86_64,30.02732487,,,,,,,,,,,,,,,,,,61,,,,,,space,1.0158,space,0.5148,0.01,1,1.0824,0,0,0,0,1,Lounge outside on a windy day,Swim in the backyard pool with the kids on hot summer days,0.01,0.03,3.3,1,,,,
,,66f16ff603404dbb816cc517,6685aa9113c938e83b4f1ea0,66ff010106ebccb50c806866,2024-10-03_16h45.46.994,WTP_SM_Choice,2022.2.1,Linux x86_64,30.02732487,,,,,,,,,,,,,,,,,,62,,,,,,,,,,0.02,1,0.9564,0,1,1,1,1,Dance while cleaning the kitchen,Take the kids to a park on cool weekend afternoons,0.02,0.03,3.3,1,,,,
,,66f16ff603404dbb816cc517,6685aa9113c938e83b4f1ea0,66ff010106ebccb50c806866,2024-10-03_16h45.46.994,WTP_SM_Choice,2022.2.1,Linux x86_64,30.02732487,,,,,,,,,,,,,,,,,,63,,,,,,,,,,0.03,2,2.2381,0,2,2,2,1,Dance while cleaning the kitchen,Playing soccer outside with kids on school days,0.03,0.03,3.3,1,,,,
,,66f16ff603404dbb816cc517,6685aa9113c938e83b4f1ea0,66ff010106ebccb50c806866,2024-10-03_16h45.46.994,WTP_SM_Choice,2022.2.1,Linux x86_64,30.02732487,,,,,,,,,,,,,,,,,,64,,,,,,,,,,0.03,2,2.2929,0,3,3,3,1,Drive in my car with loud music on,Take the kids to a park on cool weekend afternoons,0.04,0.03,1.1,1,,,,
,,66f16ff603404dbb816cc517,6685aa9113c938e83b4f1ea0,66ff010106ebccb50c806866,2024-10-03_16h45.46.994,WTP_SM_Choice,2022.2.1,Linux x86_64,30.02732487,,,,,,,,,,,,,,,,,,65,,,,,,,,,,0.03,2,1.3336,0,4,4,4,1,Make dinner in the early evenings on weekdays with boyfriend,Go to walmart and browsing the clearance aisle,0.05,0.03,1.1,0,,,,
,,66f16ff603404dbb816cc517,6685aa9113c938e83b4f1ea0,66ff010106ebccb50c806866,2024-10-03_16h45.46.994,WTP_SM_Choice,2022.2.1,Linux x86_64,30.02732487,,,,,,,NAN,,NAN,1.39,4.61,,0,64,64,64,1,65,Alex,Rej,Participant_Images/66f16ff603404dbb816cc517/66f16ff603404dbb816cc517_Images/66f16ff603404dbb816cc517_Image_8.jpeg,liked,2.455989137,,,,,,,,,,,,,,,,,,,,,,
,,66f16ff603404dbb816cc517,6685aa9113c938e83b4f1ea0,66ff010106ebccb50c806866,2024-10-03_16h45.46.994,WTP_SM_Choice,2022.2.1,Linux x86_64,30.02732487,,,,,space,1.5954,NAN,,NAN,1.39,4.61,,0,65,65,65,1,66,Alex,Rej,Participant_Images/66f16ff603404dbb816cc517/66f16ff603404dbb816cc517_Images/66f16ff603404dbb816cc517_Image_7.jpeg,did not like,3.79605092,,,,,,,,,,,,,,,,,,,,,,
,,66f16ff603404dbb816cc517,6685aa9113c938e83b4f1ea0,66ff010106ebccb50c806866,2024-10-03_16h45.46.994,WTP_SM_Choice,2022.2.1,Linux x86_64,30.02732487,,,,,space,1.0451,NAN,,NAN,1.39,4.61,,0,66,66,66,1,67,Alex,Rej,Participant_Images/66f16ff603404dbb816cc517/66f16ff603404dbb816cc517_Images/66f16ff603404dbb816cc517_Image_22.jpeg,liked,3.562416326,,,,,,,,,,,,,,,,,,,,,,
,,66f16ff603404dbb816cc517,6685aa9113c938e83b4f1ea0,66ff010106ebccb50c806866,2024-10-03_16h45.46.994,WTP_SM_Choice,2022.2.1,Linux x86_64,30.02732487,,,,,space,0.6696,NAN,,NAN,1.39,4.61,,0,67,67,67,1,68,Alex,Rej,Participant_Images/66f16ff603404dbb816cc517/66f16ff603404dbb816cc517_Images/66f16ff603404dbb816cc517_Image_10.jpeg,did not like,2.843822497,,,,,,,,,,,,,,,,,,,,,,
,,66f16ff603404dbb816cc517,6685aa9113c938e83b4f1ea0,66ff010106ebccb50c806866,2024-10-03_16h45.46.994,WTP_SM_Choice,2022.2.1,Linux x86_64,30.02732487,,,,,space,0.5786,NAN,,NAN,1.39,4.61,,0,68,68,68,1,69,Alex,Rej,Participant_Images/66f16ff603404dbb816cc517/66f16ff603404dbb816cc517_Images/66f16ff603404dbb816cc517_Image_5.jpeg,did not like,3.546495948,,,,,,,,,,,,,,,,,,,,,,
,,66f16ff603404dbb816cc517,6685aa9113c938e83b4f1ea0,66ff010106ebccb50c806866,2024-10-03_16h45.46.994,WTP_SM_Choice,2022.2.1,Linux x86_64,30.02732487,,,,,,,,,,,,,,,,,,66,,,,,,space,0.6498,space,0.5195,0.01,1,0.9287,0,0,0,0,1,Joke around with sisters on weekend mornings,Drive in my car with loud music on,0.01,0.04,1.1,0,,,,
,,66f16ff603404dbb816cc517,6685aa9113c938e83b4f1ea0,66ff010106ebccb50c806866,2024-10-03_16h45.46.994,WTP_SM_Choice,2022.2.1,Linux x86_64,30.02732487,,,,,,,,,,,,,,,,,,67,,,,,,,,,,0.02,1,0.8958,0,1,1,1,1,Walk on the beach with friends late at night,Walk along the beach on a fall day,0.02,0.04,8.8,0,,,,
,,66f16ff603404dbb816cc517,6685aa9113c938e83b4f1ea0,66ff010106ebccb50c806866,2024-10-03_16h45.46.994,WTP_SM_Choice,2022.2.1,Linux x86_64,30.02732487,,,,,,,,,,,,,,,,,,68,,,,,,,,,,0.03,1,1.0954,0,2,2,2,1,Make dinner in the early evenings on weekdays with boyfriend,Dress up in my bedroom,0.03,0.04,4.4,0,,,,
,,66f16ff603404dbb816cc517,6685aa9113c938e83b4f1ea0,66ff010106ebccb50c806866,2024-10-03_16h45.46.994,WTP_SM_Choice,2022.2.1,Linux x86_64,30.02732487,,,,,,,,,,,,,,,,,,69,,,,,,,,,,0.04,1,2.4302,0,3,3,3,1,Swim in the backyard pool with the kids on hot summer days,Go to walmart and browsing the clearance aisle,0.04,0.04,1.1,0,,,,
,,66f16ff603404dbb816cc517,6685aa9113c938e83b4f1ea0,66ff010106ebccb50c806866,2024-10-03_16h45.46.994,WTP_SM_Choice,2022.2.1,Linux x86_64,30.02732487,,,,,,,,,,,,,,,,,,70,,,,,,,,,,0.04,2,0.9869,0,4,4,4,1,Have dinner with family on weekday evenings,Watch tv on a rainy day in my living room,0.05,0.04,1.1,0,,,,
,,66f16ff603404dbb816cc517,6685aa9113c938e83b4f1ea0,66ff010106ebccb50c806866,2024-10-03_16h45.46.994,WTP_SM_Choice,2022.2.1,Linux x86_64,30.02732487,,,,,,,NAN,,NAN,1.53,4.47,,0,69,69,69,1,70,Alex,Rej,Participant_Images/66f16ff603404dbb816cc517/66f16ff603404dbb816cc517_Images/66f16ff603404dbb816cc517_Image_12.jpeg,liked,1.672012706,,,,,,,,,,,,,,,,,,,,,,
,,66f16ff603404dbb816cc517,6685aa9113c938e83b4f1ea0,66ff010106ebccb50c806866,2024-10-03_16h45.46.994,WTP_SM_Choice,2022.2.1,Linux x86_64,30.02732487,,,,,space,1.2645,NAN,,NAN,1.53,4.47,,0,70,70,70,1,71,Alex,Rej,Participant_Images/66f16ff603404dbb816cc517/66f16ff603404dbb816cc517_Images/66f16ff603404dbb816cc517_Image_16.jpeg,did not like,4.942172136,,,,,,,,,,,,,,,,,,,,,,
,,66f16ff603404dbb816cc517,6685aa9113c938e83b4f1ea0,66ff010106ebccb50c806866,2024-10-03_16h45.46.994,WTP_SM_Choice,2022.2.1,Linux x86_64,30.02732487,,,,,space,2.042,NAN,,NAN,1.53,4.47,,0,71,71,71,1,72,Alex,Rej,Participant_Images/66f16ff603404dbb816cc517/66f16ff603404dbb816cc517_Images/66f16ff603404dbb816cc517_Image_17.jpeg,did not like,2.50187214,,,,,,,,,,,,,,,,,,,,,,
,,66f16ff603404dbb816cc517,6685aa9113c938e83b4f1ea0,66ff010106ebccb50c806866,2024-10-03_16h45.46.994,WTP_SM_Choice,2022.2.1,Linux x86_64,30.02732487,,,,,space,1.468,NAN,,NAN,1.53,4.47,,0,72,72,72,1,73,Alex,Rej,Participant_Images/66f16ff603404dbb816cc517/66f16ff603404dbb816cc517_Images/66f16ff603404dbb816cc517_Image_11.jpeg,liked,2.071164779,,,,,,,,,,,,,,,,,,,,,,
,,66f16ff603404dbb816cc517,6685aa9113c938e83b4f1ea0,66ff010106ebccb50c806866,2024-10-03_16h45.46.994,WTP_SM_Choice,2022.2.1,Linux x86_64,30.02732487,,,,,space,9.2449,NAN,,NAN,1.53,4.47,,0,73,73,73,1,74,Alex,Rej,Participant_Images/66f16ff603404dbb816cc517/66f16ff603404dbb816cc517_Images/66f16ff603404dbb816cc517_Image_19.jpeg,did not like,5.336503566,,,,,,,,,,,,,,,,,,,,,,
,,66f16ff603404dbb816cc517,6685aa9113c938e83b4f1ea0,66ff010106ebccb50c806866,2024-10-03_16h45.46.994,WTP_SM_Choice,2022.2.1,Linux x86_64,30.02732487,,,,,,,,,,,,,,,,,,71,,,,,,space,5.4886,space,3.1193,0.01,1,1.677,0,0,0,0,1,Joke around with sisters on weekend mornings,Go to walmart and browsing the clearance aisle,0.01,0.05,3.3,0,,,,
,,66f16ff603404dbb816cc517,6685aa9113c938e83b4f1ea0,66ff010106ebccb50c806866,2024-10-03_16h45.46.994,WTP_SM_Choice,2022.2.1,Linux x86_64,30.02732487,,,,,,,,,,,,,,,,,,72,,,,,,,,,,0.02,1,6.126,0,1,1,1,1,Dress up in my bedroom,Walk on the beach with friends late at night,0.02,0.05,8.8,1,,,,
,,66f16ff603404dbb816cc517,6685aa9113c938e83b4f1ea0,66ff010106ebccb50c806866,2024-10-03_16h45.46.994,WTP_SM_Choice,2022.2.1,Linux x86_64,30.02732487,,,,,,,,,,,,,,,,,,73,,,,,,,,,,0.03,1,1.8645,0,2,2,2,1,Take pictures in my backyard,Joke around with sisters on weekend mornings,0.03,0.05,3.3,1,,,,
,,66f16ff603404dbb816cc517,6685aa9113c938e83b4f1ea0,66ff010106ebccb50c806866,2024-10-03_16h45.46.994,WTP_SM_Choice,2022.2.1,Linux x86_64,30.02732487,,,,,,,,,,,,,,,,,,74,,,,,,,,,,0.04,1,1.8486,0,3,3,3,1,Take pictures in my backyard,Take the kids to a park on cool weekend afternoons,0.04,0.05,4.4,1,,,,
,,66f16ff603404dbb816cc517,6685aa9113c938e83b4f1ea0,66ff010106ebccb50c806866,2024-10-03_16h45.46.994,WTP_SM_Choice,2022.2.1,Linux x86_64,30.02732487,,,,,,,,,,,,,,,,,,75,,,,,,,,,,0.05,2,5.0268,0,4,4,4,1,Have dinner with family on weekday evenings,Take pictures in my backyard,0.05,0.05,3.3,0,,,,
,,66f16ff603404dbb816cc517,6685aa9113c938e83b4f1ea0,66ff010106ebccb50c806866,2024-10-03_16h45.46.994,WTP_SM_Choice,2022.2.1,Linux x86_64,30.02732487,,,,,,,2,,6,1.68,4.32,,0,74,74,74,1,75,Alex,Rej,Participant_Images/66f16ff603404dbb816cc517/66f16ff603404dbb816cc517_Images/66f16ff603404dbb816cc517_Image_18.jpeg,did not like,2.642157193,,,,,,,,,,,,,,,,,,,space,3.3451,,
,,66f16ff603404dbb816cc517,6685aa9113c938e83b4f1ea0,66ff010106ebccb50c806866,2024-10-03_16h45.46.994,WTP_SM_Choice,2022.2.1,Linux x86_64,30.02732487,,,space,5.0809,space,3.7633,NAN,,NAN,1.68,4.32,,0,75,75,75,1,76,Charlie,Rej,Participant_Images/66f16ff603404dbb816cc517/66f16ff603404dbb816cc517_Images/66f16ff603404dbb816cc517_Image_22.jpeg,liked,4.456234322,,,,,,,,,,,,,,,,,,,,,,
,,66f16ff603404dbb816cc517,6685aa9113c938e83b4f1ea0,66ff010106ebccb50c806866,2024-10-03_16h45.46.994,WTP_SM_Choice,2022.2.1,Linux x86_64,30.02732487,,,,,space,5.2183,NAN,,NAN,1.68,4.32,,0,76,76,76,1,77,Charlie,Rej,Participant_Images/66f16ff603404dbb816cc517/66f16ff603404dbb816cc517_Images/66f16ff603404dbb816cc517_Image_16.jpeg,liked,4.438512181,,,,,,,,,,,,,,,,,,,,,,
,,66f16ff603404dbb816cc517,6685aa9113c938e83b4f1ea0,66ff010106ebccb50c806866,2024-10-03_16h45.46.994,WTP_SM_Choice,2022.2.1,Linux x86_64,30.02732487,,,,,space,1.1028,NAN,,NAN,1.68,4.32,,0,77,77,77,1,78,Charlie,Rej,Participant_Images/66f16ff603404dbb816cc517/66f16ff603404dbb816cc517_Images/66f16ff603404dbb816cc517_Image_12.jpeg,did not like,2.682944783,,,,,,,,,,,,,,,,,,,,,,
,,66f16ff603404dbb816cc517,6685aa9113c938e83b4f1ea0,66ff010106ebccb50c806866,2024-10-03_16h45.46.994,WTP_SM_Choice,2022.2.1,Linux x86_64,30.02732487,,,,,space,0.2477,NAN,,NAN,1.68,4.32,,0,78,78,78,1,79,Charlie,Rej,Participant_Images/66f16ff603404dbb816cc517/66f16ff603404dbb816cc517_Images/66f16ff603404dbb816cc517_Image_3.jpeg,did not like,4.51984296,,,,,,,,,,,,,,,,,,,,,,
,,66f16ff603404dbb816cc517,6685aa9113c938e83b4f1ea0,66ff010106ebccb50c806866,2024-10-03_16h45.46.994,WTP_SM_Choice,2022.2.1,Linux x86_64,30.02732487,,,,,,,,,,,,,,,,,,76,,,,,,space,2.9217,space,0.7302,0.01,2,1.8162,0,0,0,0,1,Dress up in my bedroom,Make breakfast on sunday mornings with the kids,0.01,0.01,1.1,1,,,,
,,66f16ff603404dbb816cc517,6685aa9113c938e83b4f1ea0,66ff010106ebccb50c806866,2024-10-03_16h45.46.994,WTP_SM_Choice,2022.2.1,Linux x86_64,30.02732487,,,,,,,,,,,,,,,,,,77,,,,,,,,,,0.01,2,1.8569,0,1,1,1,1,Playing soccer outside with kids on school days,Read a book on my bed in dimly lit bedroom,0.02,0.01,8.8,0,,,,
,,66f16ff603404dbb816cc517,6685aa9113c938e83b4f1ea0,66ff010106ebccb50c806866,2024-10-03_16h45.46.994,WTP_SM_Choice,2022.2.1,Linux x86_64,30.02732487,,,,,,,,,,,,,,,,,,78,,,,,,,,,,0.01,2,0.9869,0,2,2,2,1,Dance while cleaning the kitchen,Watch thunderstorms with the kids late in the evenings,0.03,0.01,1.1,1,,,,
,,66f16ff603404dbb816cc517,6685aa9113c938e83b4f1ea0,66ff010106ebccb50c806866,2024-10-03_16h45.46.994,WTP_SM_Choice,2022.2.1,Linux x86_64,30.02732487,,,,,,,,,,,,,,,,,,79,,,,,,,,,,0.01,2,0.7393,0,3,3,3,1,Playing soccer outside with kids on school days,Take pictures in my backyard,0.04,0.01,1.1,0,,,,
,,66f16ff603404dbb816cc517,6685aa9113c938e83b4f1ea0,66ff010106ebccb50c806866,2024-10-03_16h45.46.994,WTP_SM_Choice,2022.2.1,Linux x86_64,30.02732487,,,,,,,,,,,,,,,,,,80,,,,,,,,,,0.01,2,0.8629,0,4,4,4,1,Take pictures in my backyard,Swim in the backyard pool with the kids on hot summer days,0.05,0.01,4.4,1,,,,
,,66f16ff603404dbb816cc517,6685aa9113c938e83b4f1ea0,66ff010106ebccb50c806866,2024-10-03_16h45.46.994,WTP_SM_Choice,2022.2.1,Linux x86_64,30.02732487,,,,,,,NAN,,NAN,1.73,4.27,,0,79,79,79,1,80,Charlie,Rej,Participant_Images/66f16ff603404dbb816cc517/66f16ff603404dbb816cc517_Images/66f16ff603404dbb816cc517_Image_2.jpeg,did not like,3.195382774,,,,,,,,,,,,,,,,,,,,,,
,,66f16ff603404dbb816cc517,6685aa9113c938e83b4f1ea0,66ff010106ebccb50c806866,2024-10-03_16h45.46.994,WTP_SM_Choice,2022.2.1,Linux x86_64,30.02732487,,,,,space,1.1955,NAN,,NAN,1.73,4.27,,0,80,80,80,1,81,Charlie,Rej,Participant_Images/66f16ff603404dbb816cc517/66f16ff603404dbb816cc517_Images/66f16ff603404dbb816cc517_Image_10.jpeg,did not like,1.779333479,,,,,,,,,,,,,,,,,,,,,,
,,66f16ff603404dbb816cc517,6685aa9113c938e83b4f1ea0,66ff010106ebccb50c806866,2024-10-03_16h45.46.994,WTP_SM_Choice,2022.2.1,Linux x86_64,30.02732487,,,,,space,0.7671,NAN,,NAN,1.73,4.27,,0,81,81,81,1,82,Charlie,Rej,Participant_Images/66f16ff603404dbb816cc517/66f16ff603404dbb816cc517_Images/66f16ff603404dbb816cc517_Image_17.jpeg,liked,4.312468682,,,,,,,,,,,,,,,,,,,,,,
,,66f16ff603404dbb816cc517,6685aa9113c938e83b4f1ea0,66ff010106ebccb50c806866,2024-10-03_16h45.46.994,WTP_SM_Choice,2022.2.1,Linux x86_64,30.02732487,,,,,space,0.6366,NAN,,NAN,1.73,4.27,,0,82,82,82,1,83,Charlie,Rej,Participant_Images/66f16ff603404dbb816cc517/66f16ff603404dbb816cc517_Images/66f16ff603404dbb816cc517_Image_19.jpeg,did not like,4.940433059,,,,,,,,,,,,,,,,,,,,,,
,,66f16ff603404dbb816cc517,6685aa9113c938e83b4f1ea0,66ff010106ebccb50c806866,2024-10-03_16h45.46.994,WTP_SM_Choice,2022.2.1,Linux x86_64,30.02732487,,,,,space,0.7592,NAN,,NAN,1.73,4.27,,0,83,83,83,1,84,Charlie,Rej,Participant_Images/66f16ff603404dbb816cc517/66f16ff603404dbb816cc517_Images/66f16ff603404dbb816cc517_Image_23.jpeg,did not like,2.7105123,,,,,,,,,,,,,,,,,,,,,,
,,66f16ff603404dbb816cc517,6685aa9113c938e83b4f1ea0,66ff010106ebccb50c806866,2024-10-03_16h45.46.994,WTP_SM_Choice,2022.2.1,Linux x86_64,30.02732487,,,,,,,,,,,,,,,,,,81,,,,,,space,0.9858,space,0.7252,0.01,1,0.8369,0,0,0,0,1,Walk on the beach with friends late at night,Drive in my car with loud music on,0.01,0.02,3.3,0,,,,
,,66f16ff603404dbb816cc517,6685aa9113c938e83b4f1ea0,66ff010106ebccb50c806866,2024-10-03_16h45.46.994,WTP_SM_Choice,2022.2.1,Linux x86_64,30.02732487,,,,,,,,,,,,,,,,,,82,,,,,,,,,,0.02,2,4.7178,0,1,1,1,1,Make dinner in the early evenings on weekdays with boyfriend,Read a book on my bed in dimly lit bedroom,0.02,0.02,4.4,0,,,,
,,66f16ff603404dbb816cc517,6685aa9113c938e83b4f1ea0,66ff010106ebccb50c806866,2024-10-03_16h45.46.994,WTP_SM_Choice,2022.2.1,Linux x86_64,30.02732487,,,,,,,,,,,,,,,,,,83,,,,,,,,,,0.02,2,1.5624,0,2,2,2,1,Read a book on my bed in dimly lit bedroom,Walk on the beach with friends late at night,0.03,0.02,1.1,1,,,,
,,66f16ff603404dbb816cc517,6685aa9113c938e83b4f1ea0,66ff010106ebccb50c806866,2024-10-03_16h45.46.994,WTP_SM_Choice,2022.2.1,Linux x86_64,30.02732487,,,,,,,,,,,,,,,,,,84,,,,,,,,,,0.02,2,0.8945,0,3,3,3,1,Enjoy a movie late on saturday nights with boyfriend,Dance while cleaning the kitchen,0.04,0.02,3.3,0,,,,
,,66f16ff603404dbb816cc517,6685aa9113c938e83b4f1ea0,66ff010106ebccb50c806866,2024-10-03_16h45.46.994,WTP_SM_Choice,2022.2.1,Linux x86_64,30.02732487,,,,,,,,,,,,,,,,,,85,,,,,,,,,,0.02,2,0.8352,0,4,4,4,1,Go to walmart and browsing the clearance aisle,Take the kids to a park on cool weekend afternoons,0.05,0.02,3.3,1,,,,
,,66f16ff603404dbb816cc517,6685aa9113c938e83b4f1ea0,66ff010106ebccb50c806866,2024-10-03_16h45.46.994,WTP_SM_Choice,2022.2.1,Linux x86_64,30.02732487,,,,,,,NAN,,NAN,1.82,4.18,,0,84,84,84,1,85,Charlie,Rej,Participant_Images/66f16ff603404dbb816cc517/66f16ff603404dbb816cc517_Images/66f16ff603404dbb816cc517_Image_13.jpeg,did not like,3.602308302,,,,,,,,,,,,,,,,,,,,,,
,,66f16ff603404dbb816cc517,6685aa9113c938e83b4f1ea0,66ff010106ebccb50c806866,2024-10-03_16h45.46.994,WTP_SM_Choice,2022.2.1,Linux x86_64,30.02732487,,,,,space,3.5321,NAN,,NAN,1.82,4.18,,0,85,85,85,1,86,Charlie,Rej,Participant_Images/66f16ff603404dbb816cc517/66f16ff603404dbb816cc517_Images/66f16ff603404dbb816cc517_Image_20.jpeg,did not like,4.106391878,,,,,,,,,,,,,,,,,,,,,,
,,66f16ff603404dbb816cc517,6685aa9113c938e83b4f1ea0,66ff010106ebccb50c806866,2024-10-03_16h45.46.994,WTP_SM_Choice,2022.2.1,Linux x86_64,30.02732487,,,,,space,0.8673,NAN,,NAN,1.82,4.18,,0,86,86,86,1,87,Charlie,Rej,Participant_Images/66f16ff603404dbb816cc517/66f16ff603404dbb816cc517_Images/66f16ff603404dbb816cc517_Image_21.jpeg,liked,3.799433026,,,,,,,,,,,,,,,,,,,,,,
,,66f16ff603404dbb816cc517,6685aa9113c938e83b4f1ea0,66ff010106ebccb50c806866,2024-10-03_16h45.46.994,WTP_SM_Choice,2022.2.1,Linux x86_64,30.02732487,,,,,space,0.5651,NAN,,NAN,1.82,4.18,,0,87,87,87,1,88,Charlie,Rej,Participant_Images/66f16ff603404dbb816cc517/66f16ff603404dbb816cc517_Images/66f16ff603404dbb816cc517_Image_6.jpeg,did not like,5.246980764,,,,,,,,,,,,,,,,,,,,,,
,,66f16ff603404dbb816cc517,6685aa9113c938e83b4f1ea0,66ff010106ebccb50c806866,2024-10-03_16h45.46.994,WTP_SM_Choice,2022.2.1,Linux x86_64,30.02732487,,,,,space,1.1766,NAN,,NAN,1.82,4.18,,0,88,88,88,1,89,Charlie,Rej,Participant_Images/66f16ff603404dbb816cc517/66f16ff603404dbb816cc517_Images/66f16ff603404dbb816cc517_Image_8.jpeg,did not like,3.30081769,,,,,,,,,,,,,,,,,,,,,,
,,66f16ff603404dbb816cc517,6685aa9113c938e83b4f1ea0,66ff010106ebccb50c806866,2024-10-03_16h45.46.994,WTP_SM_Choice,2022.2.1,Linux x86_64,30.02732487,,,,,,,,,,,,,,,,,,86,,,,,,space,1.0679,space,0.9382,0.01,1,0.887,0,0,0,0,1,Dance while cleaning the kitchen,Make breakfast on sunday mornings with the kids,0.01,0.03,1.1,1,,,,
,,66f16ff603404dbb816cc517,6685aa9113c938e83b4f1ea0,66ff010106ebccb50c806866,2024-10-03_16h45.46.994,WTP_SM_Choice,2022.2.1,Linux x86_64,30.02732487,,,,,,,,,,,,,,,,,,87,,,,,,,,,,0.02,1,1.4385,0,1,1,1,1,Drive in my car with loud music on,Have dinner with family on weekday evenings,0.02,0.03,4.4,1,,,,
,,66f16ff603404dbb816cc517,6685aa9113c938e83b4f1ea0,66ff010106ebccb50c806866,2024-10-03_16h45.46.994,WTP_SM_Choice,2022.2.1,Linux x86_64,30.02732487,,,,,,,,,,,,,,,,,,88,,,,,,,,,,0.03,1,2.3881,0,2,2,2,1,Make breakfast on sunday mornings with the kids,Watch tv on a rainy day in my living room,0.03,0.03,1.1,0,,,,
,,66f16ff603404dbb816cc517,6685aa9113c938e83b4f1ea0,66ff010106ebccb50c806866,2024-10-03_16h45.46.994,WTP_SM_Choice,2022.2.1,Linux x86_64,30.02732487,,,,,,,,,,,,,,,,,,89,,,,,,,,,,0.03,2,1.0378,0,3,3,3,1,Watch tv on a rainy day in my living room,Make dinner in the early evenings on weekdays with boyfriend,0.04,0.03,3.3,1,,,,
,,66f16ff603404dbb816cc517,6685aa9113c938e83b4f1ea0,66ff010106ebccb50c806866,2024-10-03_16h45.46.994,WTP_SM_Choice,2022.2.1,Linux x86_64,30.02732487,,,,,,,,,,,,,,,,,,90,,,,,,,,,,0.03,2,0.9292,0,4,4,4,1,Watch tv on a rainy day in my living room,Take the kids to a park on cool weekend afternoons,0.05,0.03,8.8,1,,,,
,,66f16ff603404dbb816cc517,6685aa9113c938e83b4f1ea0,66ff010106ebccb50c806866,2024-10-03_16h45.46.994,WTP_SM_Choice,2022.2.1,Linux x86_64,30.02732487,,,,,,,NAN,,NAN,1.94,4.06,,0,89,89,89,1,90,Charlie,Rej,Participant_Images/66f16ff603404dbb816cc517/66f16ff603404dbb816cc517_Images/66f16ff603404dbb816cc517_Image_5.jpeg,did not like,1.661473164,,,,,,,,,,,,,,,,,,,,,,
,,66f16ff603404dbb816cc517,6685aa9113c938e83b4f1ea0,66ff010106ebccb50c806866,2024-10-03_16h45.46.994,WTP_SM_Choice,2022.2.1,Linux x86_64,30.02732487,,,,,space,0.8365,NAN,,NAN,1.94,4.06,,0,90,90,90,1,91,Charlie,Rej,Participant_Images/66f16ff603404dbb816cc517/66f16ff603404dbb816cc517_Images/66f16ff603404dbb816cc517_Image_1.jpeg,did not like,3.613205605,,,,,,,,,,,,,,,,,,,,,,
,,66f16ff603404dbb816cc517,6685aa9113c938e83b4f1ea0,66ff010106ebccb50c806866,2024-10-03_16h45.46.994,WTP_SM_Choice,2022.2.1,Linux x86_64,30.02732487,,,,,space,0.6145,NAN,,NAN,1.94,4.06,,0,91,91,91,1,92,Charlie,Rej,Participant_Images/66f16ff603404dbb816cc517/66f16ff603404dbb816cc517_Images/66f16ff603404dbb816cc517_Image_7.jpeg,did not like,4.988446431,,,,,,,,,,,,,,,,,,,,,,
,,66f16ff603404dbb816cc517,6685aa9113c938e83b4f1ea0,66ff010106ebccb50c806866,2024-10-03_16h45.46.994,WTP_SM_Choice,2022.2.1,Linux x86_64,30.02732487,,,,,space,1.0191,NAN,,NAN,1.94,4.06,,0,92,92,92,1,93,Charlie,Rej,Participant_Images/66f16ff603404dbb816cc517/66f16ff603404dbb816cc517_Images/66f16ff603404dbb816cc517_Image_4.jpeg,did not like,3.470791822,,,,,,,,,,,,,,,,,,,,,,
,,66f16ff603404dbb816cc517,6685aa9113c938e83b4f1ea0,66ff010106ebccb50c806866,2024-10-03_16h45.46.994,WTP_SM_Choice,2022.2.1,Linux x86_64,30.02732487,,,,,space,0.6649,NAN,,NAN,1.94,4.06,,0,93,93,93,1,94,Charlie,Rej,Participant_Images/66f16ff603404dbb816cc517/66f16ff603404dbb816cc517_Images/66f16ff603404dbb816cc517_Image_15.jpeg,liked,3.820572462,,,,,,,,,,,,,,,,,,,,,,
,,66f16ff603404dbb816cc517,6685aa9113c938e83b4f1ea0,66ff010106ebccb50c806866,2024-10-03_16h45.46.994,WTP_SM_Choice,2022.2.1,Linux x86_64,30.02732487,,,,,,,,,,,,,,,,,,91,,,,,,space,1.0009,space,1.2195,0.01,1,0.7764,0,0,0,0,1,Make dinner in the early evenings on weekdays with boyfriend,Walk along the beach on a fall day,0.01,0.04,3.3,0,,,,
,,66f16ff603404dbb816cc517,6685aa9113c938e83b4f1ea0,66ff010106ebccb50c806866,2024-10-03_16h45.46.994,WTP_SM_Choice,2022.2.1,Linux x86_64,30.02732487,,,,,,,,,,,,,,,,,,92,,,,,,,,,,0.02,1,1.0048,0,1,1,1,1,Swim in the backyard pool with the kids on hot summer days,Dress up in my bedroom,0.02,0.04,8.8,0,,,,
,,66f16ff603404dbb816cc517,6685aa9113c938e83b4f1ea0,66ff010106ebccb50c806866,2024-10-03_16h45.46.994,WTP_SM_Choice,2022.2.1,Linux x86_64,30.02732487,,,,,,,,,,,,,,,,,,93,,,,,,,,,,0.03,1,1.0885,0,2,2,2,1,Watch a thunderstorm from the warm of the house,Have dinner with family on weekday evenings,0.03,0.04,1.1,1,,,,
,,66f16ff603404dbb816cc517,6685aa9113c938e83b4f1ea0,66ff010106ebccb50c806866,2024-10-03_16h45.46.994,WTP_SM_Choice,2022.2.1,Linux x86_64,30.02732487,,,,,,,,,,,,,,,,,,94,,,,,,,,,,0.04,2,1.7475,0,3,3,3,1,Walk on the beach with friends late at night,Take pictures in my backyard,0.04,0.04,4.4,0,,,,
,,66f16ff603404dbb816cc517,6685aa9113c938e83b4f1ea0,66ff010106ebccb50c806866,2024-10-03_16h45.46.994,WTP_SM_Choice,2022.2.1,Linux x86_64,30.02732487,,,,,,,,,,,,,,,,,,95,,,,,,,,,,0.04,2,1.0925,0,4,4,4,1,Swim in the backyard pool with the kids on hot summer days,Watch tv on a rainy day in my living room,0.05,0.04,4.4,0,,,,
,,66f16ff603404dbb816cc517,6685aa9113c938e83b4f1ea0,66ff010106ebccb50c806866,2024-10-03_16h45.46.994,WTP_SM_Choice,2022.2.1,Linux x86_64,30.02732487,,,,,,,NAN,,NAN,2.08,3.92,,0,94,94,94,1,95,Charlie,Rej,Participant_Images/66f16ff603404dbb816cc517/66f16ff603404dbb816cc517_Images/66f16ff603404dbb816cc517_Image_18.jpeg,did not like,2.455989137,,,,,,,,,,,,,,,,,,,,,,
,,66f16ff603404dbb816cc517,6685aa9113c938e83b4f1ea0,66ff010106ebccb50c806866,2024-10-03_16h45.46.994,WTP_SM_Choice,2022.2.1,Linux x86_64,30.02732487,,,,,space,1.1863,NAN,,NAN,2.08,3.92,,0,95,95,95,1,96,Charlie,Rej,Participant_Images/66f16ff603404dbb816cc517/66f16ff603404dbb816cc517_Images/66f16ff603404dbb816cc517_Image_25.jpeg,liked,3.79605092,,,,,,,,,,,,,,,,,,,,,,
,,66f16ff603404dbb816cc517,6685aa9113c938e83b4f1ea0,66ff010106ebccb50c806866,2024-10-03_16h45.46.994,WTP_SM_Choice,2022.2.1,Linux x86_64,30.02732487,,,,,space,1.3955,NAN,,NAN,2.08,3.92,,0,96,96,96,1,97,Charlie,Rej,Participant_Images/66f16ff603404dbb816cc517/66f16ff603404dbb816cc517_Images/66f16ff603404dbb816cc517_Image_9.jpeg,did not like,3.562416326,,,,,,,,,,,,,,,,,,,,,,
,,66f16ff603404dbb816cc517,6685aa9113c938e83b4f1ea0,66ff010106ebccb50c806866,2024-10-03_16h45.46.994,WTP_SM_Choice,2022.2.1,Linux x86_64,30.02732487,,,,,space,0.9576,NAN,,NAN,2.08,3.92,,0,97,97,97,1,98,Charlie,Rej,Participant_Images/66f16ff603404dbb816cc517/66f16ff603404dbb816cc517_Images/66f16ff603404dbb816cc517_Image_24.jpeg,did not like,2.843822497,,,,,,,,,,,,,,,,,,,,,,
,,66f16ff603404dbb816cc517,6685aa9113c938e83b4f1ea0,66ff010106ebccb50c806866,2024-10-03_16h45.46.994,WTP_SM_Choice,2022.2.1,Linux x86_64,30.02732487,,,,,space,0.6721,NAN,,NAN,2.08,3.92,,0,98,98,98,1,99,Charlie,Rej,Participant_Images/66f16ff603404dbb816cc517/66f16ff603404dbb816cc517_Images/66f16ff603404dbb816cc517_Image_11.jpeg,liked,3.546495948,,,,,,,,,,,,,,,,,,,,,,
,,66f16ff603404dbb816cc517,6685aa9113c938e83b4f1ea0,66ff010106ebccb50c806866,2024-10-03_16h45.46.994,WTP_SM_Choice,2022.2.1,Linux x86_64,30.02732487,,,,,,,,,,,,,,,,,,96,,,,,,space,0.8783,space,2.1621,0.01,1,0.9926,0,0,0,0,1,Watch thunderstorms with the kids late in the evenings,Watch tv on a rainy day in my living room,0.01,0.05,3.3,0,,,,
,,66f16ff603404dbb816cc517,6685aa9113c938e83b4f1ea0,66ff010106ebccb50c806866,2024-10-03_16h45.46.994,WTP_SM_Choice,2022.2.1,Linux x86_64,30.02732487,,,,,,,,,,,,,,,,,,97,,,,,,,,,,0.02,1,0.7724,0,1,1,1,1,Go to walmart and browsing the clearance aisle,Watch thunderstorms with the kids late in the evenings,0.02,0.05,1.1,1,,,,
,,66f16ff603404dbb816cc517,6685aa9113c938e83b4f1ea0,66ff010106ebccb50c806866,2024-10-03_16h45.46.994,WTP_SM_Choice,2022.2.1,Linux x86_64,30.02732487,,,,,,,,,,,,,,,,,,98,,,,,,,,,,0.03,1,1.2553,0,2,2,2,1,Enjoy a movie late on saturday nights with boyfriend,Drive in my car with loud music on,0.03,0.05,1.1,0,,,,
,,66f16ff603404dbb816cc517,6685aa9113c938e83b4f1ea0,66ff010106ebccb50c806866,2024-10-03_16h45.46.994,WTP_SM_Choice,2022.2.1,Linux x86_64,30.02732487,,,,,,,,,,,,,,,,,,99,,,,,,,,,,0.04,1,1.3667,0,3,3,3,1,Walk along the beach on a fall day,Playing soccer outside with kids on school days,0.04,0.05,3.3,1,,,,
,,66f16ff603404dbb816cc517,6685aa9113c938e83b4f1ea0,66ff010106ebccb50c806866,2024-10-03_16h45.46.994,WTP_SM_Choice,2022.2.1,Linux x86_64,30.02732487,,,,,,,,,,,,,,,,,,100,,,,,,,,,,0.05,2,1.2531,0,4,4,4,1,Lounge outside on a windy day,Playing soccer outside with kids on school days,0.05,0.05,4.4,1,,,,
,,66f16ff603404dbb816cc517,6685aa9113c938e83b4f1ea0,66ff010106ebccb50c806866,2024-10-03_16h45.46.994,WTP_SM_Choice,2022.2.1,Linux x86_64,30.02732487,,,,,,,2,,6,2.23,3.77,,0,99,99,99,1,100,Charlie,Rej,Participant_Images/66f16ff603404dbb816cc517/66f16ff603404dbb816cc517_Images/66f16ff603404dbb816cc517_Image_14.jpeg,did not like,1.672012706,,,,,,,,,,,,,,,,,,,space,0.9781,,
,,66f16ff603404dbb816cc517,6685aa9113c938e83b4f1ea0,66ff010106ebccb50c806866,2024-10-03_16h45.46.994,WTP_SM_Choice,2022.2.1,Linux x86_64,30.02732487,,,,,,,,,,,,,,,,,,,,,,,,,,,,,,,,,,,,,,,,,,,,space,3.088
