endwelcomescreen_keys.keys,endwelcomescreen_keys.rt,participant,STUDY_ID,SESSION_ID,date,expName,psychopyVersion,OS,frameRate,endinstructionscreen_keys.keys,endinstructionscreen_keys.rt,endpartnermatch_keys.keys,endpartnermatch_keys.rt,sharenextphoto_key.keys,sharenextphoto_key.rt,salience_rating,key_resp.keys,stress_level,subtract_bonus,TOTAL_TASK_BONUS,stresslevel_keypress.keys,entiretaskloop.thisRepN,entiretaskloop.thisTrialN,entiretaskloop.thisN,entiretaskloop.thisIndex,entiretaskloop.ran,TrialNumber,Partner,Condition,Photos,Feedback,FeedbackWait,WTP_ins_keys1.keys,WTP_ins_keys1.rt,WTP_ins_keys2.keys,WTP_ins_keys2.rt,responses.keys,WTPTaskLoop.thisRepN,WTPTaskLoop.thisTrialN,WTPTaskLoop.thisN,WTPTaskLoop.thisIndex,WTPTaskLoop.ran,right,left,leftmoney,rightmoney,WTP_ITI,social_left,Resume_keys.keys,decision_price,responses.rt,Resume_keys.rt,end_screen_keys.keys,end_screen_keys.rt
space,2.08,66f2946d0e3eeda7aa13eaa7,6685aa9113c938e83b4f1ea0,671c5d5f2c200a509db2303f,2024-10-25_23h09.42.051,WTP_SM_Choice,2022.2.1,Win32,75.18796992,,,,,,,,,,,,,,,,,,,,,,,,,,,,,,,,,,,,,,,,,,,,,
,,66f2946d0e3eeda7aa13eaa7,6685aa9113c938e83b4f1ea0,671c5d5f2c200a509db2303f,2024-10-25_23h09.42.051,WTP_SM_Choice,2022.2.1,Win32,75.18796992,space,1.4805,,,,,,,,,,,,,,,,,,,,,,,,,,,,,,,,,,,,,,,,,,,
,,66f2946d0e3eeda7aa13eaa7,6685aa9113c938e83b4f1ea0,671c5d5f2c200a509db2303f,2024-10-25_23h09.42.051,WTP_SM_Choice,2022.2.1,Win32,75.18796992,,,space,1.7212,space,0.8667,NAN,,NAN,0,6,,0,0,0,0,1,1,Sam,Rej,Participant_Images/66f2946d0e3eeda7aa13eaa7/66f2946d0e3eeda7aa13eaa7_Images/66f2946d0e3eeda7aa13eaa7_Image_6.jpeg,did not like,3.613205605,,,,,,,,,,,,,,,,,,,,,,
,,66f2946d0e3eeda7aa13eaa7,6685aa9113c938e83b4f1ea0,671c5d5f2c200a509db2303f,2024-10-25_23h09.42.051,WTP_SM_Choice,2022.2.1,Win32,75.18796992,,,,,space,0.5144,NAN,,NAN,0,6,,0,1,1,1,1,2,Sam,Rej,Participant_Images/66f2946d0e3eeda7aa13eaa7/66f2946d0e3eeda7aa13eaa7_Images/66f2946d0e3eeda7aa13eaa7_Image_2.jpeg,did not like,4.988446431,,,,,,,,,,,,,,,,,,,,,,
,,66f2946d0e3eeda7aa13eaa7,6685aa9113c938e83b4f1ea0,671c5d5f2c200a509db2303f,2024-10-25_23h09.42.051,WTP_SM_Choice,2022.2.1,Win32,75.18796992,,,,,space,0.4081,NAN,,NAN,0,6,,0,2,2,2,1,3,Sam,Rej,Participant_Images/66f2946d0e3eeda7aa13eaa7/66f2946d0e3eeda7aa13eaa7_Images/66f2946d0e3eeda7aa13eaa7_Image_7.jpeg,did not like,3.470791822,,,,,,,,,,,,,,,,,,,,,,
,,66f2946d0e3eeda7aa13eaa7,6685aa9113c938e83b4f1ea0,671c5d5f2c200a509db2303f,2024-10-25_23h09.42.051,WTP_SM_Choice,2022.2.1,Win32,75.18796992,,,,,space,0.5538,NAN,,NAN,0,6,,0,3,3,3,1,4,Sam,Rej,Participant_Images/66f2946d0e3eeda7aa13eaa7/66f2946d0e3eeda7aa13eaa7_Images/66f2946d0e3eeda7aa13eaa7_Image_10.jpeg,liked,3.820572462,,,,,,,,,,,,,,,,,,,,,,
,,66f2946d0e3eeda7aa13eaa7,6685aa9113c938e83b4f1ea0,671c5d5f2c200a509db2303f,2024-10-25_23h09.42.051,WTP_SM_Choice,2022.2.1,Win32,75.18796992,,,,,,,,,,,,,,,,,,1,,,,,,space,0.2713,space,0.3109,,0,0,0,0,1,Eat out with my friends,Go out to parties downtown,0.01,0.01,4.4,0,,,,,,
,,66f2946d0e3eeda7aa13eaa7,6685aa9113c938e83b4f1ea0,671c5d5f2c200a509db2303f,2024-10-25_23h09.42.051,WTP_SM_Choice,2022.2.1,Win32,75.18796992,,,,,,,,,,,,,,,,,,2,,,,,,,,,,,0,1,1,1,1,Work out with my friends,Eat at amazing restaurants with friends,0.02,0.01,8.8,0,,,,,,
,,66f2946d0e3eeda7aa13eaa7,6685aa9113c938e83b4f1ea0,671c5d5f2c200a509db2303f,2024-10-25_23h09.42.051,WTP_SM_Choice,2022.2.1,Win32,75.18796992,,,,,,,,,,,,,,,,,,3,,,,,,,,,,,0,2,2,2,1,Eat out with my friends,Go on vacations with my family,0.03,0.01,3.3,0,,,,,,
,,66f2946d0e3eeda7aa13eaa7,6685aa9113c938e83b4f1ea0,671c5d5f2c200a509db2303f,2024-10-25_23h09.42.051,WTP_SM_Choice,2022.2.1,Win32,75.18796992,,,,,,,,,,,,,,,,,,4,,,,,,,,,,,0,3,3,3,1,Drink and party with high school friends,Watch rain fall by myself,0.04,0.01,1.1,0,,,,,,
,,66f2946d0e3eeda7aa13eaa7,6685aa9113c938e83b4f1ea0,671c5d5f2c200a509db2303f,2024-10-25_23h09.42.051,WTP_SM_Choice,2022.2.1,Win32,75.18796992,,,,,,,,,,,,,,,,,,5,,,,,,,,,,,0,4,4,4,1,Eat at amazing restaurants with friends,Help my brothers with questions and stuff,0.05,0.01,1.1,1,,,,,,
,,66f2946d0e3eeda7aa13eaa7,6685aa9113c938e83b4f1ea0,671c5d5f2c200a509db2303f,2024-10-25_23h09.42.051,WTP_SM_Choice,2022.2.1,Win32,75.18796992,,,,,,,NAN,,NAN,0,6,,0,4,4,4,1,5,Sam,Rej,Participant_Images/66f2946d0e3eeda7aa13eaa7/66f2946d0e3eeda7aa13eaa7_Images/66f2946d0e3eeda7aa13eaa7_Image_13.jpeg,did not like,2.455989137,,,,,,,,,,,,,,,,,,,,,,
,,66f2946d0e3eeda7aa13eaa7,6685aa9113c938e83b4f1ea0,671c5d5f2c200a509db2303f,2024-10-25_23h09.42.051,WTP_SM_Choice,2022.2.1,Win32,75.18796992,,,,,space,0.9521,NAN,,NAN,0,6,,0,5,5,5,1,6,Sam,Rej,Participant_Images/66f2946d0e3eeda7aa13eaa7/66f2946d0e3eeda7aa13eaa7_Images/66f2946d0e3eeda7aa13eaa7_Image_12.jpeg,did not like,3.79605092,,,,,,,,,,,,,,,,,,,,,,
,,66f2946d0e3eeda7aa13eaa7,6685aa9113c938e83b4f1ea0,671c5d5f2c200a509db2303f,2024-10-25_23h09.42.051,WTP_SM_Choice,2022.2.1,Win32,75.18796992,,,,,space,1.0466,NAN,,NAN,0,6,,0,6,6,6,1,7,Sam,Rej,Participant_Images/66f2946d0e3eeda7aa13eaa7/66f2946d0e3eeda7aa13eaa7_Images/66f2946d0e3eeda7aa13eaa7_Image_19.jpeg,did not like,3.562416326,,,,,,,,,,,,,,,,,,,,,,
,,66f2946d0e3eeda7aa13eaa7,6685aa9113c938e83b4f1ea0,671c5d5f2c200a509db2303f,2024-10-25_23h09.42.051,WTP_SM_Choice,2022.2.1,Win32,75.18796992,,,,,space,12.5394,NAN,,NAN,0,6,,0,7,7,7,1,8,Sam,Rej,Participant_Images/66f2946d0e3eeda7aa13eaa7/66f2946d0e3eeda7aa13eaa7_Images/66f2946d0e3eeda7aa13eaa7_Image_4.jpeg,liked,2.843822497,,,,,,,,,,,,,,,,,,,,,,
,,66f2946d0e3eeda7aa13eaa7,6685aa9113c938e83b4f1ea0,671c5d5f2c200a509db2303f,2024-10-25_23h09.42.051,WTP_SM_Choice,2022.2.1,Win32,75.18796992,,,,,space,0.9356,NAN,,NAN,0,6,,0,8,8,8,1,9,Sam,Rej,Participant_Images/66f2946d0e3eeda7aa13eaa7/66f2946d0e3eeda7aa13eaa7_Images/66f2946d0e3eeda7aa13eaa7_Image_21.jpeg,did not like,3.546495948,,,,,,,,,,,,,,,,,,,,,,
,,66f2946d0e3eeda7aa13eaa7,6685aa9113c938e83b4f1ea0,671c5d5f2c200a509db2303f,2024-10-25_23h09.42.051,WTP_SM_Choice,2022.2.1,Win32,75.18796992,,,,,,,,,,,,,,,,,,6,,,,,,space,0.3585,space,3.621,1,0,0,0,0,1,Go on vacations with my family,Help my brothers with questions and stuff,0.01,0.02,3.3,1,,0.01,5.6319,,,
,,66f2946d0e3eeda7aa13eaa7,6685aa9113c938e83b4f1ea0,671c5d5f2c200a509db2303f,2024-10-25_23h09.42.051,WTP_SM_Choice,2022.2.1,Win32,75.18796992,,,,,,,,,,,,,,,,,,7,,,,,,,,,,2,0,1,1,1,1,Help my brothers with questions and stuff,Go to the gym in the mornings,0.02,0.02,1.1,0,,0.02,2.1222,,,
,,66f2946d0e3eeda7aa13eaa7,6685aa9113c938e83b4f1ea0,671c5d5f2c200a509db2303f,2024-10-25_23h09.42.051,WTP_SM_Choice,2022.2.1,Win32,75.18796992,,,,,,,,,,,,,,,,,,8,,,,,,,,,,1,0,2,2,2,1,Do club activities with my clubmates,Go on vacations with my family,0.03,0.02,1.1,0,,0.03,0.9742,,,
,,66f2946d0e3eeda7aa13eaa7,6685aa9113c938e83b4f1ea0,671c5d5f2c200a509db2303f,2024-10-25_23h09.42.051,WTP_SM_Choice,2022.2.1,Win32,75.18796992,,,,,,,,,,,,,,,,,,9,,,,,,,,,,1,0,3,3,3,1,Go out to parties downtown,Do club activities with my clubmates,0.04,0.02,4.4,1,,0.04,1.0893,,,
,,66f2946d0e3eeda7aa13eaa7,6685aa9113c938e83b4f1ea0,671c5d5f2c200a509db2303f,2024-10-25_23h09.42.051,WTP_SM_Choice,2022.2.1,Win32,75.18796992,,,,,,,,,,,,,,,,,,10,,,,,,,,,,1,0,4,4,4,1,Talk to my mom and grandparents over the phone,Go on vacations with my family,0.05,0.02,1.1,0,,0.05,0.8423,,,
,,66f2946d0e3eeda7aa13eaa7,6685aa9113c938e83b4f1ea0,671c5d5f2c200a509db2303f,2024-10-25_23h09.42.051,WTP_SM_Choice,2022.2.1,Win32,75.18796992,,,,,,,NAN,,NAN,0.15,5.85,,0,9,9,9,1,10,Sam,Rej,Participant_Images/66f2946d0e3eeda7aa13eaa7/66f2946d0e3eeda7aa13eaa7_Images/66f2946d0e3eeda7aa13eaa7_Image_22.jpeg,did not like,1.672012706,,,,,,,,,,,,,,,,,,,,,,
,,66f2946d0e3eeda7aa13eaa7,6685aa9113c938e83b4f1ea0,671c5d5f2c200a509db2303f,2024-10-25_23h09.42.051,WTP_SM_Choice,2022.2.1,Win32,75.18796992,,,,,space,7.9619,NAN,,NAN,0.15,5.85,,0,10,10,10,1,11,Sam,Rej,Participant_Images/66f2946d0e3eeda7aa13eaa7/66f2946d0e3eeda7aa13eaa7_Images/66f2946d0e3eeda7aa13eaa7_Image_9.jpeg,liked,4.942172136,,,,,,,,,,,,,,,,,,,,,,
,,66f2946d0e3eeda7aa13eaa7,6685aa9113c938e83b4f1ea0,671c5d5f2c200a509db2303f,2024-10-25_23h09.42.051,WTP_SM_Choice,2022.2.1,Win32,75.18796992,,,,,space,0.8584,NAN,,NAN,0.15,5.85,,0,11,11,11,1,12,Sam,Rej,Participant_Images/66f2946d0e3eeda7aa13eaa7/66f2946d0e3eeda7aa13eaa7_Images/66f2946d0e3eeda7aa13eaa7_Image_1.jpeg,did not like,2.50187214,,,,,,,,,,,,,,,,,,,,,,
,,66f2946d0e3eeda7aa13eaa7,6685aa9113c938e83b4f1ea0,671c5d5f2c200a509db2303f,2024-10-25_23h09.42.051,WTP_SM_Choice,2022.2.1,Win32,75.18796992,,,,,space,0.821,NAN,,NAN,0.15,5.85,,0,12,12,12,1,13,Sam,Rej,Participant_Images/66f2946d0e3eeda7aa13eaa7/66f2946d0e3eeda7aa13eaa7_Images/66f2946d0e3eeda7aa13eaa7_Image_14.jpeg,did not like,2.071164779,,,,,,,,,,,,,,,,,,,,,,
,,66f2946d0e3eeda7aa13eaa7,6685aa9113c938e83b4f1ea0,671c5d5f2c200a509db2303f,2024-10-25_23h09.42.051,WTP_SM_Choice,2022.2.1,Win32,75.18796992,,,,,space,0.6668,NAN,,NAN,0.15,5.85,,0,13,13,13,1,14,Sam,Rej,Participant_Images/66f2946d0e3eeda7aa13eaa7/66f2946d0e3eeda7aa13eaa7_Images/66f2946d0e3eeda7aa13eaa7_Image_17.jpeg,liked,5.336503566,,,,,,,,,,,,,,,,,,,,,,
,,66f2946d0e3eeda7aa13eaa7,6685aa9113c938e83b4f1ea0,671c5d5f2c200a509db2303f,2024-10-25_23h09.42.051,WTP_SM_Choice,2022.2.1,Win32,75.18796992,,,,,,,,,,,,,,,,,,11,,,,,,space,2.3346,space,0.6839,2,0,0,0,0,1,Help my brothers with questions and stuff,Read in my comfy bed,0.01,0.03,3.3,0,,0.03,1.2175,,,
,,66f2946d0e3eeda7aa13eaa7,6685aa9113c938e83b4f1ea0,671c5d5f2c200a509db2303f,2024-10-25_23h09.42.051,WTP_SM_Choice,2022.2.1,Win32,75.18796992,,,,,,,,,,,,,,,,,,12,,,,,,,,,,2,0,1,1,1,1,Go to work on cold days,Help my brothers with questions and stuff,0.02,0.03,4.4,1,,0.03,0.8189,,,
,,66f2946d0e3eeda7aa13eaa7,6685aa9113c938e83b4f1ea0,671c5d5f2c200a509db2303f,2024-10-25_23h09.42.051,WTP_SM_Choice,2022.2.1,Win32,75.18796992,,,,,,,,,,,,,,,,,,13,,,,,,,,,,2,0,2,2,2,1,Game with friends in my room,Game with my boys,0.03,0.03,1.1,1,,0.03,1.0585,,,
,,66f2946d0e3eeda7aa13eaa7,6685aa9113c938e83b4f1ea0,671c5d5f2c200a509db2303f,2024-10-25_23h09.42.051,WTP_SM_Choice,2022.2.1,Win32,75.18796992,,,,,,,,,,,,,,,,,,14,,,,,,,,,,1,0,3,3,3,1,Eat at amazing restaurants with friends,Drink and party with high school friends,0.04,0.03,3.3,1,,0.04,1.0265,,,
,,66f2946d0e3eeda7aa13eaa7,6685aa9113c938e83b4f1ea0,671c5d5f2c200a509db2303f,2024-10-25_23h09.42.051,WTP_SM_Choice,2022.2.1,Win32,75.18796992,,,,,,,,,,,,,,,,,,15,,,,,,,,,,1,0,4,4,4,1,Go out to parties downtown,Work out with my friends,0.05,0.03,4.4,1,,0.05,0.9078,,,
,,66f2946d0e3eeda7aa13eaa7,6685aa9113c938e83b4f1ea0,671c5d5f2c200a509db2303f,2024-10-25_23h09.42.051,WTP_SM_Choice,2022.2.1,Win32,75.18796992,,,,,,,NAN,,NAN,0.33,5.67,,0,14,14,14,1,15,Sam,Rej,Participant_Images/66f2946d0e3eeda7aa13eaa7/66f2946d0e3eeda7aa13eaa7_Images/66f2946d0e3eeda7aa13eaa7_Image_18.jpeg,liked,2.642157193,,,,,,,,,,,,,,,,,,,,,,
,,66f2946d0e3eeda7aa13eaa7,6685aa9113c938e83b4f1ea0,671c5d5f2c200a509db2303f,2024-10-25_23h09.42.051,WTP_SM_Choice,2022.2.1,Win32,75.18796992,,,,,space,0.7684,NAN,,NAN,0.33,5.67,,0,15,15,15,1,16,Sam,Rej,Participant_Images/66f2946d0e3eeda7aa13eaa7/66f2946d0e3eeda7aa13eaa7_Images/66f2946d0e3eeda7aa13eaa7_Image_25.jpeg,did not like,4.456234322,,,,,,,,,,,,,,,,,,,,,,
,,66f2946d0e3eeda7aa13eaa7,6685aa9113c938e83b4f1ea0,671c5d5f2c200a509db2303f,2024-10-25_23h09.42.051,WTP_SM_Choice,2022.2.1,Win32,75.18796992,,,,,space,0.7732,NAN,,NAN,0.33,5.67,,0,16,16,16,1,17,Sam,Rej,Participant_Images/66f2946d0e3eeda7aa13eaa7/66f2946d0e3eeda7aa13eaa7_Images/66f2946d0e3eeda7aa13eaa7_Image_23.jpeg,did not like,4.438512181,,,,,,,,,,,,,,,,,,,,,,
,,66f2946d0e3eeda7aa13eaa7,6685aa9113c938e83b4f1ea0,671c5d5f2c200a509db2303f,2024-10-25_23h09.42.051,WTP_SM_Choice,2022.2.1,Win32,75.18796992,,,,,space,0.5773,NAN,,NAN,0.33,5.67,,0,17,17,17,1,18,Sam,Rej,Participant_Images/66f2946d0e3eeda7aa13eaa7/66f2946d0e3eeda7aa13eaa7_Images/66f2946d0e3eeda7aa13eaa7_Image_15.jpeg,did not like,2.682944783,,,,,,,,,,,,,,,,,,,,,,
,,66f2946d0e3eeda7aa13eaa7,6685aa9113c938e83b4f1ea0,671c5d5f2c200a509db2303f,2024-10-25_23h09.42.051,WTP_SM_Choice,2022.2.1,Win32,75.18796992,,,,,space,0.9149,NAN,,NAN,0.33,5.67,,0,18,18,18,1,19,Sam,Rej,Participant_Images/66f2946d0e3eeda7aa13eaa7/66f2946d0e3eeda7aa13eaa7_Images/66f2946d0e3eeda7aa13eaa7_Image_5.jpeg,did not like,4.51984296,,,,,,,,,,,,,,,,,,,,,,
,,66f2946d0e3eeda7aa13eaa7,6685aa9113c938e83b4f1ea0,671c5d5f2c200a509db2303f,2024-10-25_23h09.42.051,WTP_SM_Choice,2022.2.1,Win32,75.18796992,,,,,,,,,,,,,,,,,,16,,,,,,space,1.1137,space,0.5447,2,0,0,0,0,1,Go on mini road trips with high school friends,Read in my comfy bed,0.01,0.04,1.1,0,,0.04,0.9654,,,
,,66f2946d0e3eeda7aa13eaa7,6685aa9113c938e83b4f1ea0,671c5d5f2c200a509db2303f,2024-10-25_23h09.42.051,WTP_SM_Choice,2022.2.1,Win32,75.18796992,,,,,,,,,,,,,,,,,,17,,,,,,,,,,2,0,1,1,1,1,Play sports with my boys,Relax and watch a show or movie,0.02,0.04,8.8,0,,0.04,0.9159,,,
,,66f2946d0e3eeda7aa13eaa7,6685aa9113c938e83b4f1ea0,671c5d5f2c200a509db2303f,2024-10-25_23h09.42.051,WTP_SM_Choice,2022.2.1,Win32,75.18796992,,,,,,,,,,,,,,,,,,18,,,,,,,,,,2,0,2,2,2,1,Go on mini road trips with high school friends,Go out to parties downtown,0.03,0.04,3.3,0,,0.04,0.986,,,
,,66f2946d0e3eeda7aa13eaa7,6685aa9113c938e83b4f1ea0,671c5d5f2c200a509db2303f,2024-10-25_23h09.42.051,WTP_SM_Choice,2022.2.1,Win32,75.18796992,,,,,,,,,,,,,,,,,,19,,,,,,,,,,1,0,3,3,3,1,Spend time with my girlfriend,Watch rain fall by myself,0.04,0.04,3.3,0,,0.04,0.8956,,,
,,66f2946d0e3eeda7aa13eaa7,6685aa9113c938e83b4f1ea0,671c5d5f2c200a509db2303f,2024-10-25_23h09.42.051,WTP_SM_Choice,2022.2.1,Win32,75.18796992,,,,,,,,,,,,,,,,,,20,,,,,,,,,,1,0,4,4,4,1,Drink and party with high school friends,Relax and watch a show or movie,0.05,0.04,1.1,0,,0.05,0.7919,,,
,,66f2946d0e3eeda7aa13eaa7,6685aa9113c938e83b4f1ea0,671c5d5f2c200a509db2303f,2024-10-25_23h09.42.051,WTP_SM_Choice,2022.2.1,Win32,75.18796992,,,,,,,NAN,,NAN,0.54,5.46,,0,19,19,19,1,20,Sam,Rej,Participant_Images/66f2946d0e3eeda7aa13eaa7/66f2946d0e3eeda7aa13eaa7_Images/66f2946d0e3eeda7aa13eaa7_Image_20.jpeg,did not like,3.195382774,,,,,,,,,,,,,,,,,,,,,,
,,66f2946d0e3eeda7aa13eaa7,6685aa9113c938e83b4f1ea0,671c5d5f2c200a509db2303f,2024-10-25_23h09.42.051,WTP_SM_Choice,2022.2.1,Win32,75.18796992,,,,,space,0.6728,NAN,,NAN,0.54,5.46,,0,20,20,20,1,21,Sam,Rej,Participant_Images/66f2946d0e3eeda7aa13eaa7/66f2946d0e3eeda7aa13eaa7_Images/66f2946d0e3eeda7aa13eaa7_Image_8.jpeg,did not like,1.779333479,,,,,,,,,,,,,,,,,,,,,,
,,66f2946d0e3eeda7aa13eaa7,6685aa9113c938e83b4f1ea0,671c5d5f2c200a509db2303f,2024-10-25_23h09.42.051,WTP_SM_Choice,2022.2.1,Win32,75.18796992,,,,,space,0.5604,NAN,,NAN,0.54,5.46,,0,21,21,21,1,22,Sam,Rej,Participant_Images/66f2946d0e3eeda7aa13eaa7/66f2946d0e3eeda7aa13eaa7_Images/66f2946d0e3eeda7aa13eaa7_Image_11.jpeg,liked,4.312468682,,,,,,,,,,,,,,,,,,,,,,
,,66f2946d0e3eeda7aa13eaa7,6685aa9113c938e83b4f1ea0,671c5d5f2c200a509db2303f,2024-10-25_23h09.42.051,WTP_SM_Choice,2022.2.1,Win32,75.18796992,,,,,space,1.1472,NAN,,NAN,0.54,5.46,,0,22,22,22,1,23,Sam,Rej,Participant_Images/66f2946d0e3eeda7aa13eaa7/66f2946d0e3eeda7aa13eaa7_Images/66f2946d0e3eeda7aa13eaa7_Image_24.jpeg,did not like,4.940433059,,,,,,,,,,,,,,,,,,,,,,
,,66f2946d0e3eeda7aa13eaa7,6685aa9113c938e83b4f1ea0,671c5d5f2c200a509db2303f,2024-10-25_23h09.42.051,WTP_SM_Choice,2022.2.1,Win32,75.18796992,,,,,space,0.0047,NAN,,NAN,0.54,5.46,,0,23,23,23,1,24,Sam,Rej,Participant_Images/66f2946d0e3eeda7aa13eaa7/66f2946d0e3eeda7aa13eaa7_Images/66f2946d0e3eeda7aa13eaa7_Image_16.jpeg,did not like,2.7105123,,,,,,,,,,,,,,,,,,,,,,
,,66f2946d0e3eeda7aa13eaa7,6685aa9113c938e83b4f1ea0,671c5d5f2c200a509db2303f,2024-10-25_23h09.42.051,WTP_SM_Choice,2022.2.1,Win32,75.18796992,,,,,,,,,,,,,,,,,,21,,,,,,space,0.5467,space,0.7578,2,0,0,0,0,1,Eat at amazing restaurants with friends,Spend time with my girlfriend,0.01,0.05,8.8,1,,0.05,0.8269,,,
,,66f2946d0e3eeda7aa13eaa7,6685aa9113c938e83b4f1ea0,671c5d5f2c200a509db2303f,2024-10-25_23h09.42.051,WTP_SM_Choice,2022.2.1,Win32,75.18796992,,,,,,,,,,,,,,,,,,22,,,,,,,,,,2,0,1,1,1,1,Game with friends in my room,Spend time with my girlfriend,0.02,0.05,4.4,1,,0.05,0.9108,,,
,,66f2946d0e3eeda7aa13eaa7,6685aa9113c938e83b4f1ea0,671c5d5f2c200a509db2303f,2024-10-25_23h09.42.051,WTP_SM_Choice,2022.2.1,Win32,75.18796992,,,,,,,,,,,,,,,,,,23,,,,,,,,,,2,0,2,2,2,1,Drink and party with high school friends,Go to work on cold days,0.03,0.05,1.1,0,,0.05,0.9828,,,
,,66f2946d0e3eeda7aa13eaa7,6685aa9113c938e83b4f1ea0,671c5d5f2c200a509db2303f,2024-10-25_23h09.42.051,WTP_SM_Choice,2022.2.1,Win32,75.18796992,,,,,,,,,,,,,,,,,,24,,,,,,,,,,2,0,3,3,3,1,Go to the gym in the mornings,Go on mini road trips with high school friends,0.04,0.05,4.4,1,,0.05,1.5007,,,
,,66f2946d0e3eeda7aa13eaa7,6685aa9113c938e83b4f1ea0,671c5d5f2c200a509db2303f,2024-10-25_23h09.42.051,WTP_SM_Choice,2022.2.1,Win32,75.18796992,,,,,,,,,,,,,,,,,,25,,,,,,,,,,1,0,4,4,4,1,Game with my boys,Go on vacations with my family,0.05,0.05,3.3,0,,0.05,1.1103,,,
,,66f2946d0e3eeda7aa13eaa7,6685aa9113c938e83b4f1ea0,671c5d5f2c200a509db2303f,2024-10-25_23h09.42.051,WTP_SM_Choice,2022.2.1,Win32,75.18796992,,,,,,,2,,7,0.79,5.21,,0,24,24,24,1,25,Sam,Rej,Participant_Images/66f2946d0e3eeda7aa13eaa7/66f2946d0e3eeda7aa13eaa7_Images/66f2946d0e3eeda7aa13eaa7_Image_3.jpeg,liked,3.602308302,,,,,,,,,,,,,,,,,space,,,0.8184,,
,,66f2946d0e3eeda7aa13eaa7,6685aa9113c938e83b4f1ea0,671c5d5f2c200a509db2303f,2024-10-25_23h09.42.051,WTP_SM_Choice,2022.2.1,Win32,75.18796992,,,space,1.507,space,1.4088,NAN,,NAN,0.79,5.21,,0,25,25,25,1,26,Alex,Acc,Participant_Images/66f2946d0e3eeda7aa13eaa7/66f2946d0e3eeda7aa13eaa7_Images/66f2946d0e3eeda7aa13eaa7_Image_15.jpeg,liked,4.106391878,,,,,,,,,,,,,,,,,,,,,,
,,66f2946d0e3eeda7aa13eaa7,6685aa9113c938e83b4f1ea0,671c5d5f2c200a509db2303f,2024-10-25_23h09.42.051,WTP_SM_Choice,2022.2.1,Win32,75.18796992,,,,,space,1.0492,NAN,,NAN,0.79,5.21,,0,26,26,26,1,27,Alex,Acc,Participant_Images/66f2946d0e3eeda7aa13eaa7/66f2946d0e3eeda7aa13eaa7_Images/66f2946d0e3eeda7aa13eaa7_Image_17.jpeg,liked,3.799433026,,,,,,,,,,,,,,,,,,,,,,
,,66f2946d0e3eeda7aa13eaa7,6685aa9113c938e83b4f1ea0,671c5d5f2c200a509db2303f,2024-10-25_23h09.42.051,WTP_SM_Choice,2022.2.1,Win32,75.18796992,,,,,space,1.4295,NAN,,NAN,0.79,5.21,,0,27,27,27,1,28,Alex,Acc,Participant_Images/66f2946d0e3eeda7aa13eaa7/66f2946d0e3eeda7aa13eaa7_Images/66f2946d0e3eeda7aa13eaa7_Image_23.jpeg,liked,5.246980764,,,,,,,,,,,,,,,,,,,,,,
,,66f2946d0e3eeda7aa13eaa7,6685aa9113c938e83b4f1ea0,671c5d5f2c200a509db2303f,2024-10-25_23h09.42.051,WTP_SM_Choice,2022.2.1,Win32,75.18796992,,,,,space,1.1836,NAN,,NAN,0.79,5.21,,0,28,28,28,1,29,Alex,Acc,Participant_Images/66f2946d0e3eeda7aa13eaa7/66f2946d0e3eeda7aa13eaa7_Images/66f2946d0e3eeda7aa13eaa7_Image_21.jpeg,liked,3.30081769,,,,,,,,,,,,,,,,,,,,,,
,,66f2946d0e3eeda7aa13eaa7,6685aa9113c938e83b4f1ea0,671c5d5f2c200a509db2303f,2024-10-25_23h09.42.051,WTP_SM_Choice,2022.2.1,Win32,75.18796992,,,,,,,,,,,,,,,,,,26,,,,,,space,0.4239,space,0.6501,1,0,0,0,0,1,Spend time with my girlfriend,Read in my comfy bed,0.01,0.01,4.4,0,,0.01,1.1787,,,
,,66f2946d0e3eeda7aa13eaa7,6685aa9113c938e83b4f1ea0,671c5d5f2c200a509db2303f,2024-10-25_23h09.42.051,WTP_SM_Choice,2022.2.1,Win32,75.18796992,,,,,,,,,,,,,,,,,,27,,,,,,,,,,1,0,1,1,1,1,Eat at amazing restaurants with friends,Eat out with my friends,0.02,0.01,3.3,1,,0.02,0.9964,,,
,,66f2946d0e3eeda7aa13eaa7,6685aa9113c938e83b4f1ea0,671c5d5f2c200a509db2303f,2024-10-25_23h09.42.051,WTP_SM_Choice,2022.2.1,Win32,75.18796992,,,,,,,,,,,,,,,,,,28,,,,,,,,,,1,0,2,2,2,1,Talk to my mom and grandparents over the phone,Go to work on cold days,0.03,0.01,3.3,0,,0.03,1.0104,,,
,,66f2946d0e3eeda7aa13eaa7,6685aa9113c938e83b4f1ea0,671c5d5f2c200a509db2303f,2024-10-25_23h09.42.051,WTP_SM_Choice,2022.2.1,Win32,75.18796992,,,,,,,,,,,,,,,,,,29,,,,,,,,,,1,0,3,3,3,1,Read in my comfy bed,Eat out with my friends,0.04,0.01,4.4,1,,0.04,0.8163,,,
,,66f2946d0e3eeda7aa13eaa7,6685aa9113c938e83b4f1ea0,671c5d5f2c200a509db2303f,2024-10-25_23h09.42.051,WTP_SM_Choice,2022.2.1,Win32,75.18796992,,,,,,,,,,,,,,,,,,30,,,,,,,,,,1,0,4,4,4,1,Spend time with my girlfriend,Go to the gym in the mornings,0.05,0.01,8.8,0,,0.05,2.3575,,,
,,66f2946d0e3eeda7aa13eaa7,6685aa9113c938e83b4f1ea0,671c5d5f2c200a509db2303f,2024-10-25_23h09.42.051,WTP_SM_Choice,2022.2.1,Win32,75.18796992,,,,,,,NAN,,NAN,0.94,5.06,,0,29,29,29,1,30,Alex,Acc,Participant_Images/66f2946d0e3eeda7aa13eaa7/66f2946d0e3eeda7aa13eaa7_Images/66f2946d0e3eeda7aa13eaa7_Image_22.jpeg,liked,1.661473164,,,,,,,,,,,,,,,,,,,,,,
,,66f2946d0e3eeda7aa13eaa7,6685aa9113c938e83b4f1ea0,671c5d5f2c200a509db2303f,2024-10-25_23h09.42.051,WTP_SM_Choice,2022.2.1,Win32,75.18796992,,,,,space,3.0951,NAN,,NAN,0.94,5.06,,0,30,30,30,1,31,Alex,Acc,Participant_Images/66f2946d0e3eeda7aa13eaa7/66f2946d0e3eeda7aa13eaa7_Images/66f2946d0e3eeda7aa13eaa7_Image_11.jpeg,liked,3.613205605,,,,,,,,,,,,,,,,,,,,,,
,,66f2946d0e3eeda7aa13eaa7,6685aa9113c938e83b4f1ea0,671c5d5f2c200a509db2303f,2024-10-25_23h09.42.051,WTP_SM_Choice,2022.2.1,Win32,75.18796992,,,,,space,0.746,NAN,,NAN,0.94,5.06,,0,31,31,31,1,32,Alex,Acc,Participant_Images/66f2946d0e3eeda7aa13eaa7/66f2946d0e3eeda7aa13eaa7_Images/66f2946d0e3eeda7aa13eaa7_Image_4.jpeg,liked,4.988446431,,,,,,,,,,,,,,,,,,,,,,
,,66f2946d0e3eeda7aa13eaa7,6685aa9113c938e83b4f1ea0,671c5d5f2c200a509db2303f,2024-10-25_23h09.42.051,WTP_SM_Choice,2022.2.1,Win32,75.18796992,,,,,space,0.7915,NAN,,NAN,0.94,5.06,,0,32,32,32,1,33,Alex,Acc,Participant_Images/66f2946d0e3eeda7aa13eaa7/66f2946d0e3eeda7aa13eaa7_Images/66f2946d0e3eeda7aa13eaa7_Image_12.jpeg,liked,3.470791822,,,,,,,,,,,,,,,,,,,,,,
,,66f2946d0e3eeda7aa13eaa7,6685aa9113c938e83b4f1ea0,671c5d5f2c200a509db2303f,2024-10-25_23h09.42.051,WTP_SM_Choice,2022.2.1,Win32,75.18796992,,,,,space,6.3559,NAN,,NAN,0.94,5.06,,0,33,33,33,1,34,Alex,Acc,Participant_Images/66f2946d0e3eeda7aa13eaa7/66f2946d0e3eeda7aa13eaa7_Images/66f2946d0e3eeda7aa13eaa7_Image_2.jpeg,liked,3.820572462,,,,,,,,,,,,,,,,,,,,,,
,,66f2946d0e3eeda7aa13eaa7,6685aa9113c938e83b4f1ea0,671c5d5f2c200a509db2303f,2024-10-25_23h09.42.051,WTP_SM_Choice,2022.2.1,Win32,75.18796992,,,,,,,,,,,,,,,,,,31,,,,,,space,2.7914,space,0.5379,2,0,0,0,0,1,Drink and party with high school friends,Read in my comfy bed,0.01,0.02,8.8,0,,0.02,0.8343,,,
,,66f2946d0e3eeda7aa13eaa7,6685aa9113c938e83b4f1ea0,671c5d5f2c200a509db2303f,2024-10-25_23h09.42.051,WTP_SM_Choice,2022.2.1,Win32,75.18796992,,,,,,,,,,,,,,,,,,32,,,,,,,,,,2,0,1,1,1,1,Relax and watch a show or movie,Do club activities with my clubmates,0.02,0.02,1.1,1,,0.02,1.2782,,,
,,66f2946d0e3eeda7aa13eaa7,6685aa9113c938e83b4f1ea0,671c5d5f2c200a509db2303f,2024-10-25_23h09.42.051,WTP_SM_Choice,2022.2.1,Win32,75.18796992,,,,,,,,,,,,,,,,,,33,,,,,,,,,,1,0,2,2,2,1,Spend time with my girlfriend,Relax and watch a show or movie,0.03,0.02,4.4,0,,0.03,1.0424,,,
,,66f2946d0e3eeda7aa13eaa7,6685aa9113c938e83b4f1ea0,671c5d5f2c200a509db2303f,2024-10-25_23h09.42.051,WTP_SM_Choice,2022.2.1,Win32,75.18796992,,,,,,,,,,,,,,,,,,34,,,,,,,,,,1,0,3,3,3,1,Help my brothers with questions and stuff,Go out to parties downtown,0.04,0.02,3.3,0,,0.04,0.8571,,,
,,66f2946d0e3eeda7aa13eaa7,6685aa9113c938e83b4f1ea0,671c5d5f2c200a509db2303f,2024-10-25_23h09.42.051,WTP_SM_Choice,2022.2.1,Win32,75.18796992,,,,,,,,,,,,,,,,,,35,,,,,,,,,,1,0,4,4,4,1,Work out with my friends,Go to work on cold days,0.05,0.02,1.1,0,,0.05,1.048,,,
,,66f2946d0e3eeda7aa13eaa7,6685aa9113c938e83b4f1ea0,671c5d5f2c200a509db2303f,2024-10-25_23h09.42.051,WTP_SM_Choice,2022.2.1,Win32,75.18796992,,,,,,,NAN,,NAN,1.1,4.9,,0,34,34,34,1,35,Alex,Acc,Participant_Images/66f2946d0e3eeda7aa13eaa7/66f2946d0e3eeda7aa13eaa7_Images/66f2946d0e3eeda7aa13eaa7_Image_5.jpeg,liked,2.455989137,,,,,,,,,,,,,,,,,,,,,,
,,66f2946d0e3eeda7aa13eaa7,6685aa9113c938e83b4f1ea0,671c5d5f2c200a509db2303f,2024-10-25_23h09.42.051,WTP_SM_Choice,2022.2.1,Win32,75.18796992,,,,,space,0.483,NAN,,NAN,1.1,4.9,,0,35,35,35,1,36,Alex,Acc,Participant_Images/66f2946d0e3eeda7aa13eaa7/66f2946d0e3eeda7aa13eaa7_Images/66f2946d0e3eeda7aa13eaa7_Image_7.jpeg,liked,3.79605092,,,,,,,,,,,,,,,,,,,,,,
,,66f2946d0e3eeda7aa13eaa7,6685aa9113c938e83b4f1ea0,671c5d5f2c200a509db2303f,2024-10-25_23h09.42.051,WTP_SM_Choice,2022.2.1,Win32,75.18796992,,,,,space,4.1448,NAN,,NAN,1.1,4.9,,0,36,36,36,1,37,Alex,Acc,Participant_Images/66f2946d0e3eeda7aa13eaa7/66f2946d0e3eeda7aa13eaa7_Images/66f2946d0e3eeda7aa13eaa7_Image_6.jpeg,did not like,3.562416326,,,,,,,,,,,,,,,,,,,,,,
,,66f2946d0e3eeda7aa13eaa7,6685aa9113c938e83b4f1ea0,671c5d5f2c200a509db2303f,2024-10-25_23h09.42.051,WTP_SM_Choice,2022.2.1,Win32,75.18796992,,,,,space,1.7295,NAN,,NAN,1.1,4.9,,0,37,37,37,1,38,Alex,Acc,Participant_Images/66f2946d0e3eeda7aa13eaa7/66f2946d0e3eeda7aa13eaa7_Images/66f2946d0e3eeda7aa13eaa7_Image_25.jpeg,did not like,2.843822497,,,,,,,,,,,,,,,,,,,,,,
,,66f2946d0e3eeda7aa13eaa7,6685aa9113c938e83b4f1ea0,671c5d5f2c200a509db2303f,2024-10-25_23h09.42.051,WTP_SM_Choice,2022.2.1,Win32,75.18796992,,,,,space,0.7258,NAN,,NAN,1.1,4.9,,0,38,38,38,1,39,Alex,Acc,Participant_Images/66f2946d0e3eeda7aa13eaa7/66f2946d0e3eeda7aa13eaa7_Images/66f2946d0e3eeda7aa13eaa7_Image_10.jpeg,liked,3.546495948,,,,,,,,,,,,,,,,,,,,,,
,,66f2946d0e3eeda7aa13eaa7,6685aa9113c938e83b4f1ea0,671c5d5f2c200a509db2303f,2024-10-25_23h09.42.051,WTP_SM_Choice,2022.2.1,Win32,75.18796992,,,,,,,,,,,,,,,,,,36,,,,,,space,0.4867,space,0.547,2,0,0,0,0,1,Drink and party with high school friends,Go to the gym in the mornings,0.01,0.03,3.3,0,,0.03,0.8984,,,
,,66f2946d0e3eeda7aa13eaa7,6685aa9113c938e83b4f1ea0,671c5d5f2c200a509db2303f,2024-10-25_23h09.42.051,WTP_SM_Choice,2022.2.1,Win32,75.18796992,,,,,,,,,,,,,,,,,,37,,,,,,,,,,2,0,1,1,1,1,Eat out with my friends,Go to the gym in the mornings,0.02,0.03,1.1,0,,0.03,1.2572,,,
,,66f2946d0e3eeda7aa13eaa7,6685aa9113c938e83b4f1ea0,671c5d5f2c200a509db2303f,2024-10-25_23h09.42.051,WTP_SM_Choice,2022.2.1,Win32,75.18796992,,,,,,,,,,,,,,,,,,38,,,,,,,,,,1,0,2,2,2,1,Take pictures of amazing views or moments,Drink and party with high school friends,0.03,0.03,1.1,1,,0.03,1.1256,,,
,,66f2946d0e3eeda7aa13eaa7,6685aa9113c938e83b4f1ea0,671c5d5f2c200a509db2303f,2024-10-25_23h09.42.051,WTP_SM_Choice,2022.2.1,Win32,75.18796992,,,,,,,,,,,,,,,,,,39,,,,,,,,,,1,0,3,3,3,1,Read in my comfy bed,Play sports with my boys,0.04,0.03,3.3,1,,0.04,1.0024,,,
,,66f2946d0e3eeda7aa13eaa7,6685aa9113c938e83b4f1ea0,671c5d5f2c200a509db2303f,2024-10-25_23h09.42.051,WTP_SM_Choice,2022.2.1,Win32,75.18796992,,,,,,,,,,,,,,,,,,40,,,,,,,,,,1,0,4,4,4,1,Do club activities with my clubmates,Go to the gym in the mornings,0.05,0.03,4.4,0,,0.05,0.9063,,,
,,66f2946d0e3eeda7aa13eaa7,6685aa9113c938e83b4f1ea0,671c5d5f2c200a509db2303f,2024-10-25_23h09.42.051,WTP_SM_Choice,2022.2.1,Win32,75.18796992,,,,,,,NAN,,NAN,1.28,4.72,,0,39,39,39,1,40,Alex,Acc,Participant_Images/66f2946d0e3eeda7aa13eaa7/66f2946d0e3eeda7aa13eaa7_Images/66f2946d0e3eeda7aa13eaa7_Image_3.jpeg,liked,1.672012706,,,,,,,,,,,,,,,,,,,,,,
,,66f2946d0e3eeda7aa13eaa7,6685aa9113c938e83b4f1ea0,671c5d5f2c200a509db2303f,2024-10-25_23h09.42.051,WTP_SM_Choice,2022.2.1,Win32,75.18796992,,,,,space,1.1679,NAN,,NAN,1.28,4.72,,0,40,40,40,1,41,Alex,Acc,Participant_Images/66f2946d0e3eeda7aa13eaa7/66f2946d0e3eeda7aa13eaa7_Images/66f2946d0e3eeda7aa13eaa7_Image_1.jpeg,did not like,4.942172136,,,,,,,,,,,,,,,,,,,,,,
,,66f2946d0e3eeda7aa13eaa7,6685aa9113c938e83b4f1ea0,671c5d5f2c200a509db2303f,2024-10-25_23h09.42.051,WTP_SM_Choice,2022.2.1,Win32,75.18796992,,,,,space,0.7059,NAN,,NAN,1.28,4.72,,0,41,41,41,1,42,Alex,Acc,Participant_Images/66f2946d0e3eeda7aa13eaa7/66f2946d0e3eeda7aa13eaa7_Images/66f2946d0e3eeda7aa13eaa7_Image_16.jpeg,liked,2.50187214,,,,,,,,,,,,,,,,,,,,,,
,,66f2946d0e3eeda7aa13eaa7,6685aa9113c938e83b4f1ea0,671c5d5f2c200a509db2303f,2024-10-25_23h09.42.051,WTP_SM_Choice,2022.2.1,Win32,75.18796992,,,,,space,1.1462,NAN,,NAN,1.28,4.72,,0,42,42,42,1,43,Alex,Acc,Participant_Images/66f2946d0e3eeda7aa13eaa7/66f2946d0e3eeda7aa13eaa7_Images/66f2946d0e3eeda7aa13eaa7_Image_24.jpeg,did not like,2.071164779,,,,,,,,,,,,,,,,,,,,,,
,,66f2946d0e3eeda7aa13eaa7,6685aa9113c938e83b4f1ea0,671c5d5f2c200a509db2303f,2024-10-25_23h09.42.051,WTP_SM_Choice,2022.2.1,Win32,75.18796992,,,,,space,5.6545,NAN,,NAN,1.28,4.72,,0,43,43,43,1,44,Alex,Acc,Participant_Images/66f2946d0e3eeda7aa13eaa7/66f2946d0e3eeda7aa13eaa7_Images/66f2946d0e3eeda7aa13eaa7_Image_8.jpeg,liked,5.336503566,,,,,,,,,,,,,,,,,,,,,,
,,66f2946d0e3eeda7aa13eaa7,6685aa9113c938e83b4f1ea0,671c5d5f2c200a509db2303f,2024-10-25_23h09.42.051,WTP_SM_Choice,2022.2.1,Win32,75.18796992,,,,,,,,,,,,,,,,,,41,,,,,,space,2.7949,space,0.6587,2,0,0,0,0,1,Talk to my mom and grandparents over the phone,Take pictures of amazing views or moments,0.01,0.04,1.1,0,,0.04,1.0149,,,
,,66f2946d0e3eeda7aa13eaa7,6685aa9113c938e83b4f1ea0,671c5d5f2c200a509db2303f,2024-10-25_23h09.42.051,WTP_SM_Choice,2022.2.1,Win32,75.18796992,,,,,,,,,,,,,,,,,,42,,,,,,,,,,2,0,1,1,1,1,Drink and party with high school friends,Game with friends in my room,0.02,0.04,3.3,0,,0.04,0.8419,,,
,,66f2946d0e3eeda7aa13eaa7,6685aa9113c938e83b4f1ea0,671c5d5f2c200a509db2303f,2024-10-25_23h09.42.051,WTP_SM_Choice,2022.2.1,Win32,75.18796992,,,,,,,,,,,,,,,,,,43,,,,,,,,,,2,0,2,2,2,1,Drink and party with high school friends,Go out to parties downtown,0.03,0.04,1.1,0,,0.04,1.1328,,,
,,66f2946d0e3eeda7aa13eaa7,6685aa9113c938e83b4f1ea0,671c5d5f2c200a509db2303f,2024-10-25_23h09.42.051,WTP_SM_Choice,2022.2.1,Win32,75.18796992,,,,,,,,,,,,,,,,,,44,,,,,,,,,,1,0,3,3,3,1,Talk to my mom and grandparents over the phone,Relax and watch a show or movie,0.04,0.04,1.1,0,,0.04,1.2208,,,
,,66f2946d0e3eeda7aa13eaa7,6685aa9113c938e83b4f1ea0,671c5d5f2c200a509db2303f,2024-10-25_23h09.42.051,WTP_SM_Choice,2022.2.1,Win32,75.18796992,,,,,,,,,,,,,,,,,,45,,,,,,,,,,1,0,4,4,4,1,Eat out with my friends,Go to work on cold days,0.05,0.04,4.4,0,,0.05,0.8826,,,
,,66f2946d0e3eeda7aa13eaa7,6685aa9113c938e83b4f1ea0,671c5d5f2c200a509db2303f,2024-10-25_23h09.42.051,WTP_SM_Choice,2022.2.1,Win32,75.18796992,,,,,,,NAN,,NAN,1.49,4.51,,0,44,44,44,1,45,Alex,Acc,Participant_Images/66f2946d0e3eeda7aa13eaa7/66f2946d0e3eeda7aa13eaa7_Images/66f2946d0e3eeda7aa13eaa7_Image_14.jpeg,did not like,2.642157193,,,,,,,,,,,,,,,,,,,,,,
,,66f2946d0e3eeda7aa13eaa7,6685aa9113c938e83b4f1ea0,671c5d5f2c200a509db2303f,2024-10-25_23h09.42.051,WTP_SM_Choice,2022.2.1,Win32,75.18796992,,,,,space,0.9148,NAN,,NAN,1.49,4.51,,0,45,45,45,1,46,Alex,Acc,Participant_Images/66f2946d0e3eeda7aa13eaa7/66f2946d0e3eeda7aa13eaa7_Images/66f2946d0e3eeda7aa13eaa7_Image_9.jpeg,liked,4.456234322,,,,,,,,,,,,,,,,,,,,,,
,,66f2946d0e3eeda7aa13eaa7,6685aa9113c938e83b4f1ea0,671c5d5f2c200a509db2303f,2024-10-25_23h09.42.051,WTP_SM_Choice,2022.2.1,Win32,75.18796992,,,,,space,3.0171,NAN,,NAN,1.49,4.51,,0,46,46,46,1,47,Alex,Acc,Participant_Images/66f2946d0e3eeda7aa13eaa7/66f2946d0e3eeda7aa13eaa7_Images/66f2946d0e3eeda7aa13eaa7_Image_20.jpeg,did not like,4.438512181,,,,,,,,,,,,,,,,,,,,,,
,,66f2946d0e3eeda7aa13eaa7,6685aa9113c938e83b4f1ea0,671c5d5f2c200a509db2303f,2024-10-25_23h09.42.051,WTP_SM_Choice,2022.2.1,Win32,75.18796992,,,,,space,0.7388,NAN,,NAN,1.49,4.51,,0,47,47,47,1,48,Alex,Acc,Participant_Images/66f2946d0e3eeda7aa13eaa7/66f2946d0e3eeda7aa13eaa7_Images/66f2946d0e3eeda7aa13eaa7_Image_19.jpeg,did not like,2.682944783,,,,,,,,,,,,,,,,,,,,,,
,,66f2946d0e3eeda7aa13eaa7,6685aa9113c938e83b4f1ea0,671c5d5f2c200a509db2303f,2024-10-25_23h09.42.051,WTP_SM_Choice,2022.2.1,Win32,75.18796992,,,,,space,0.4968,NAN,,NAN,1.49,4.51,,0,48,48,48,1,49,Alex,Acc,Participant_Images/66f2946d0e3eeda7aa13eaa7/66f2946d0e3eeda7aa13eaa7_Images/66f2946d0e3eeda7aa13eaa7_Image_18.jpeg,liked,4.51984296,,,,,,,,,,,,,,,,,,,,,,
,,66f2946d0e3eeda7aa13eaa7,6685aa9113c938e83b4f1ea0,671c5d5f2c200a509db2303f,2024-10-25_23h09.42.051,WTP_SM_Choice,2022.2.1,Win32,75.18796992,,,,,,,,,,,,,,,,,,46,,,,,,space,1.0573,space,0.4165,2,0,0,0,0,1,Drink and party with high school friends,Go on vacations with my family,0.01,0.05,8.8,0,,0.05,0.8429,,,
,,66f2946d0e3eeda7aa13eaa7,6685aa9113c938e83b4f1ea0,671c5d5f2c200a509db2303f,2024-10-25_23h09.42.051,WTP_SM_Choice,2022.2.1,Win32,75.18796992,,,,,,,,,,,,,,,,,,47,,,,,,,,,,2,0,1,1,1,1,Watch rain fall by myself,Eat out with my friends,0.02,0.05,1.1,1,,0.05,0.9154,,,
,,66f2946d0e3eeda7aa13eaa7,6685aa9113c938e83b4f1ea0,671c5d5f2c200a509db2303f,2024-10-25_23h09.42.051,WTP_SM_Choice,2022.2.1,Win32,75.18796992,,,,,,,,,,,,,,,,,,48,,,,,,,,,,2,0,2,2,2,1,Take pictures of amazing views or moments,Help my brothers with questions and stuff,0.03,0.05,4.4,1,,0.05,3.1689,,,
,,66f2946d0e3eeda7aa13eaa7,6685aa9113c938e83b4f1ea0,671c5d5f2c200a509db2303f,2024-10-25_23h09.42.051,WTP_SM_Choice,2022.2.1,Win32,75.18796992,,,,,,,,,,,,,,,,,,49,,,,,,,,,,2,0,3,3,3,1,Game with friends in my room,Talk to my mom and grandparents over the phone,0.04,0.05,3.3,1,,0.05,1.2105,,,
,,66f2946d0e3eeda7aa13eaa7,6685aa9113c938e83b4f1ea0,671c5d5f2c200a509db2303f,2024-10-25_23h09.42.051,WTP_SM_Choice,2022.2.1,Win32,75.18796992,,,,,,,,,,,,,,,,,,50,,,,,,,,,,2,0,4,4,4,1,Go to work on cold days,Play sports with my boys,0.05,0.05,1.1,1,,0.05,1.8519,,,
,,66f2946d0e3eeda7aa13eaa7,6685aa9113c938e83b4f1ea0,671c5d5f2c200a509db2303f,2024-10-25_23h09.42.051,WTP_SM_Choice,2022.2.1,Win32,75.18796992,,,,,,,3,,4,1.74,4.26,,0,49,49,49,1,50,Alex,Acc,Participant_Images/66f2946d0e3eeda7aa13eaa7/66f2946d0e3eeda7aa13eaa7_Images/66f2946d0e3eeda7aa13eaa7_Image_13.jpeg,liked,3.195382774,,,,,,,,,,,,,,,,,space,,,0.7224,,
,,66f2946d0e3eeda7aa13eaa7,6685aa9113c938e83b4f1ea0,671c5d5f2c200a509db2303f,2024-10-25_23h09.42.051,WTP_SM_Choice,2022.2.1,Win32,75.18796992,,,space,0.4808,space,0.1149,NAN,,NAN,1.74,4.26,,0,50,50,50,1,51,Charlie,Rej,Participant_Images/66f2946d0e3eeda7aa13eaa7/66f2946d0e3eeda7aa13eaa7_Images/66f2946d0e3eeda7aa13eaa7_Image_2.jpeg,did not like,1.779333479,,,,,,,,,,,,,,,,,,,,,,
,,66f2946d0e3eeda7aa13eaa7,6685aa9113c938e83b4f1ea0,671c5d5f2c200a509db2303f,2024-10-25_23h09.42.051,WTP_SM_Choice,2022.2.1,Win32,75.18796992,,,,,space,0.6858,NAN,,NAN,1.74,4.26,,0,51,51,51,1,52,Charlie,Rej,Participant_Images/66f2946d0e3eeda7aa13eaa7/66f2946d0e3eeda7aa13eaa7_Images/66f2946d0e3eeda7aa13eaa7_Image_9.jpeg,liked,4.312468682,,,,,,,,,,,,,,,,,,,,,,
,,66f2946d0e3eeda7aa13eaa7,6685aa9113c938e83b4f1ea0,671c5d5f2c200a509db2303f,2024-10-25_23h09.42.051,WTP_SM_Choice,2022.2.1,Win32,75.18796992,,,,,space,1.9167,NAN,,NAN,1.74,4.26,,0,52,52,52,1,53,Charlie,Rej,Participant_Images/66f2946d0e3eeda7aa13eaa7/66f2946d0e3eeda7aa13eaa7_Images/66f2946d0e3eeda7aa13eaa7_Image_24.jpeg,did not like,4.940433059,,,,,,,,,,,,,,,,,,,,,,
,,66f2946d0e3eeda7aa13eaa7,6685aa9113c938e83b4f1ea0,671c5d5f2c200a509db2303f,2024-10-25_23h09.42.051,WTP_SM_Choice,2022.2.1,Win32,75.18796992,,,,,space,3.0098,NAN,,NAN,1.74,4.26,,0,53,53,53,1,54,Charlie,Rej,Participant_Images/66f2946d0e3eeda7aa13eaa7/66f2946d0e3eeda7aa13eaa7_Images/66f2946d0e3eeda7aa13eaa7_Image_6.jpeg,liked,2.7105123,,,,,,,,,,,,,,,,,,,,,,
,,66f2946d0e3eeda7aa13eaa7,6685aa9113c938e83b4f1ea0,671c5d5f2c200a509db2303f,2024-10-25_23h09.42.051,WTP_SM_Choice,2022.2.1,Win32,75.18796992,,,,,,,,,,,,,,,,,,51,,,,,,space,29.6257,space,0.5771,1,0,0,0,0,1,Go to the gym in the mornings,Talk to my mom and grandparents over the phone,0.01,0.01,1.1,1,,0.01,1.0443,,,
,,66f2946d0e3eeda7aa13eaa7,6685aa9113c938e83b4f1ea0,671c5d5f2c200a509db2303f,2024-10-25_23h09.42.051,WTP_SM_Choice,2022.2.1,Win32,75.18796992,,,,,,,,,,,,,,,,,,52,,,,,,,,,,1,0,1,1,1,1,Game with friends in my room,Go on mini road trips with high school friends,0.02,0.01,3.3,1,,0.02,0.915,,,
,,66f2946d0e3eeda7aa13eaa7,6685aa9113c938e83b4f1ea0,671c5d5f2c200a509db2303f,2024-10-25_23h09.42.051,WTP_SM_Choice,2022.2.1,Win32,75.18796992,,,,,,,,,,,,,,,,,,53,,,,,,,,,,1,0,2,2,2,1,Eat at amazing restaurants with friends,Go on mini road trips with high school friends,0.03,0.01,1.1,1,,0.03,0.7138,,,
,,66f2946d0e3eeda7aa13eaa7,6685aa9113c938e83b4f1ea0,671c5d5f2c200a509db2303f,2024-10-25_23h09.42.051,WTP_SM_Choice,2022.2.1,Win32,75.18796992,,,,,,,,,,,,,,,,,,54,,,,,,,,,,1,0,3,3,3,1,Eat out with my friends,Relax and watch a show or movie,0.04,0.01,4.4,0,,0.04,0.8647,,,
,,66f2946d0e3eeda7aa13eaa7,6685aa9113c938e83b4f1ea0,671c5d5f2c200a509db2303f,2024-10-25_23h09.42.051,WTP_SM_Choice,2022.2.1,Win32,75.18796992,,,,,,,,,,,,,,,,,,55,,,,,,,,,,1,0,4,4,4,1,Go on mini road trips with high school friends,Watch rain fall by myself,0.05,0.01,1.1,0,,0.05,0.6744,,,
,,66f2946d0e3eeda7aa13eaa7,6685aa9113c938e83b4f1ea0,671c5d5f2c200a509db2303f,2024-10-25_23h09.42.051,WTP_SM_Choice,2022.2.1,Win32,75.18796992,,,,,,,NAN,,NAN,1.89,4.11,,0,54,54,54,1,55,Charlie,Rej,Participant_Images/66f2946d0e3eeda7aa13eaa7/66f2946d0e3eeda7aa13eaa7_Images/66f2946d0e3eeda7aa13eaa7_Image_4.jpeg,did not like,3.602308302,,,,,,,,,,,,,,,,,,,,,,
,,66f2946d0e3eeda7aa13eaa7,6685aa9113c938e83b4f1ea0,671c5d5f2c200a509db2303f,2024-10-25_23h09.42.051,WTP_SM_Choice,2022.2.1,Win32,75.18796992,,,,,space,2.4994,NAN,,NAN,1.89,4.11,,0,55,55,55,1,56,Charlie,Rej,Participant_Images/66f2946d0e3eeda7aa13eaa7/66f2946d0e3eeda7aa13eaa7_Images/66f2946d0e3eeda7aa13eaa7_Image_15.jpeg,did not like,4.106391878,,,,,,,,,,,,,,,,,,,,,,
,,66f2946d0e3eeda7aa13eaa7,6685aa9113c938e83b4f1ea0,671c5d5f2c200a509db2303f,2024-10-25_23h09.42.051,WTP_SM_Choice,2022.2.1,Win32,75.18796992,,,,,space,0.9872,NAN,,NAN,1.89,4.11,,0,56,56,56,1,57,Charlie,Rej,Participant_Images/66f2946d0e3eeda7aa13eaa7/66f2946d0e3eeda7aa13eaa7_Images/66f2946d0e3eeda7aa13eaa7_Image_12.jpeg,did not like,3.799433026,,,,,,,,,,,,,,,,,,,,,,
,,66f2946d0e3eeda7aa13eaa7,6685aa9113c938e83b4f1ea0,671c5d5f2c200a509db2303f,2024-10-25_23h09.42.051,WTP_SM_Choice,2022.2.1,Win32,75.18796992,,,,,space,1.522,NAN,,NAN,1.89,4.11,,0,57,57,57,1,58,Charlie,Rej,Participant_Images/66f2946d0e3eeda7aa13eaa7/66f2946d0e3eeda7aa13eaa7_Images/66f2946d0e3eeda7aa13eaa7_Image_20.jpeg,did not like,5.246980764,,,,,,,,,,,,,,,,,,,,,,
,,66f2946d0e3eeda7aa13eaa7,6685aa9113c938e83b4f1ea0,671c5d5f2c200a509db2303f,2024-10-25_23h09.42.051,WTP_SM_Choice,2022.2.1,Win32,75.18796992,,,,,space,9.4376,NAN,,NAN,1.89,4.11,,0,58,58,58,1,59,Charlie,Rej,Participant_Images/66f2946d0e3eeda7aa13eaa7/66f2946d0e3eeda7aa13eaa7_Images/66f2946d0e3eeda7aa13eaa7_Image_8.jpeg,did not like,3.30081769,,,,,,,,,,,,,,,,,,,,,,
,,66f2946d0e3eeda7aa13eaa7,6685aa9113c938e83b4f1ea0,671c5d5f2c200a509db2303f,2024-10-25_23h09.42.051,WTP_SM_Choice,2022.2.1,Win32,75.18796992,,,,,,,,,,,,,,,,,,56,,,,,,space,0.7667,space,0.6182,2,0,0,0,0,1,Game with my boys,Go out to parties downtown,0.01,0.02,8.8,0,,0.02,0.8559,,,
,,66f2946d0e3eeda7aa13eaa7,6685aa9113c938e83b4f1ea0,671c5d5f2c200a509db2303f,2024-10-25_23h09.42.051,WTP_SM_Choice,2022.2.1,Win32,75.18796992,,,,,,,,,,,,,,,,,,57,,,,,,,,,,1,0,1,1,1,1,Do club activities with my clubmates,Watch rain fall by myself,0.02,0.02,4.4,0,,0.02,1.0741,,,
,,66f2946d0e3eeda7aa13eaa7,6685aa9113c938e83b4f1ea0,671c5d5f2c200a509db2303f,2024-10-25_23h09.42.051,WTP_SM_Choice,2022.2.1,Win32,75.18796992,,,,,,,,,,,,,,,,,,58,,,,,,,,,,1,0,2,2,2,1,Relax and watch a show or movie,Help my brothers with questions and stuff,0.03,0.02,4.4,1,,0.03,1.0475,,,
,,66f2946d0e3eeda7aa13eaa7,6685aa9113c938e83b4f1ea0,671c5d5f2c200a509db2303f,2024-10-25_23h09.42.051,WTP_SM_Choice,2022.2.1,Win32,75.18796992,,,,,,,,,,,,,,,,,,59,,,,,,,,,,1,0,3,3,3,1,Go on vacations with my family,Spend time with my girlfriend,0.04,0.02,4.4,1,,0.04,1.3791,,,
,,66f2946d0e3eeda7aa13eaa7,6685aa9113c938e83b4f1ea0,671c5d5f2c200a509db2303f,2024-10-25_23h09.42.051,WTP_SM_Choice,2022.2.1,Win32,75.18796992,,,,,,,,,,,,,,,,,,60,,,,,,,,,,1,0,4,4,4,1,Take pictures of amazing views or moments,Go on mini road trips with high school friends,0.05,0.02,1.1,1,,0.05,0.8107,,,
,,66f2946d0e3eeda7aa13eaa7,6685aa9113c938e83b4f1ea0,671c5d5f2c200a509db2303f,2024-10-25_23h09.42.051,WTP_SM_Choice,2022.2.1,Win32,75.18796992,,,,,,,NAN,,NAN,2.05,3.95,,0,59,59,59,1,60,Charlie,Rej,Participant_Images/66f2946d0e3eeda7aa13eaa7/66f2946d0e3eeda7aa13eaa7_Images/66f2946d0e3eeda7aa13eaa7_Image_17.jpeg,did not like,1.661473164,,,,,,,,,,,,,,,,,,,,,,
,,66f2946d0e3eeda7aa13eaa7,6685aa9113c938e83b4f1ea0,671c5d5f2c200a509db2303f,2024-10-25_23h09.42.051,WTP_SM_Choice,2022.2.1,Win32,75.18796992,,,,,space,0.0823,NAN,,NAN,2.05,3.95,,0,60,60,60,1,61,Charlie,Rej,Participant_Images/66f2946d0e3eeda7aa13eaa7/66f2946d0e3eeda7aa13eaa7_Images/66f2946d0e3eeda7aa13eaa7_Image_10.jpeg,liked,3.613205605,,,,,,,,,,,,,,,,,,,,,,
,,66f2946d0e3eeda7aa13eaa7,6685aa9113c938e83b4f1ea0,671c5d5f2c200a509db2303f,2024-10-25_23h09.42.051,WTP_SM_Choice,2022.2.1,Win32,75.18796992,,,,,space,0.8179,NAN,,NAN,2.05,3.95,,0,61,61,61,1,62,Charlie,Rej,Participant_Images/66f2946d0e3eeda7aa13eaa7/66f2946d0e3eeda7aa13eaa7_Images/66f2946d0e3eeda7aa13eaa7_Image_13.jpeg,liked,4.988446431,,,,,,,,,,,,,,,,,,,,,,
,,66f2946d0e3eeda7aa13eaa7,6685aa9113c938e83b4f1ea0,671c5d5f2c200a509db2303f,2024-10-25_23h09.42.051,WTP_SM_Choice,2022.2.1,Win32,75.18796992,,,,,space,2.7103,NAN,,NAN,2.05,3.95,,0,62,62,62,1,63,Charlie,Rej,Participant_Images/66f2946d0e3eeda7aa13eaa7/66f2946d0e3eeda7aa13eaa7_Images/66f2946d0e3eeda7aa13eaa7_Image_5.jpeg,did not like,3.470791822,,,,,,,,,,,,,,,,,,,,,,
,,66f2946d0e3eeda7aa13eaa7,6685aa9113c938e83b4f1ea0,671c5d5f2c200a509db2303f,2024-10-25_23h09.42.051,WTP_SM_Choice,2022.2.1,Win32,75.18796992,,,,,space,0.6748,NAN,,NAN,2.05,3.95,,0,63,63,63,1,64,Charlie,Rej,Participant_Images/66f2946d0e3eeda7aa13eaa7/66f2946d0e3eeda7aa13eaa7_Images/66f2946d0e3eeda7aa13eaa7_Image_16.jpeg,did not like,3.820572462,,,,,,,,,,,,,,,,,,,,,,
,,66f2946d0e3eeda7aa13eaa7,6685aa9113c938e83b4f1ea0,671c5d5f2c200a509db2303f,2024-10-25_23h09.42.051,WTP_SM_Choice,2022.2.1,Win32,75.18796992,,,,,,,,,,,,,,,,,,61,,,,,,space,0.7745,space,0.638,2,0,0,0,0,1,Go on vacations with my family,Play sports with my boys,0.01,0.03,3.3,1,,0.03,0.9558,,,
,,66f2946d0e3eeda7aa13eaa7,6685aa9113c938e83b4f1ea0,671c5d5f2c200a509db2303f,2024-10-25_23h09.42.051,WTP_SM_Choice,2022.2.1,Win32,75.18796992,,,,,,,,,,,,,,,,,,62,,,,,,,,,,2,0,1,1,1,1,Go on vacations with my family,Work out with my friends,0.02,0.03,3.3,1,,0.03,0.9297,,,
,,66f2946d0e3eeda7aa13eaa7,6685aa9113c938e83b4f1ea0,671c5d5f2c200a509db2303f,2024-10-25_23h09.42.051,WTP_SM_Choice,2022.2.1,Win32,75.18796992,,,,,,,,,,,,,,,,,,63,,,,,,,,,,1,0,2,2,2,1,Work out with my friends,Take pictures of amazing views or moments,0.03,0.03,3.3,0,,0.03,1.1052,,,
,,66f2946d0e3eeda7aa13eaa7,6685aa9113c938e83b4f1ea0,671c5d5f2c200a509db2303f,2024-10-25_23h09.42.051,WTP_SM_Choice,2022.2.1,Win32,75.18796992,,,,,,,,,,,,,,,,,,64,,,,,,,,,,1,0,3,3,3,1,Talk to my mom and grandparents over the phone,Watch rain fall by myself,0.04,0.03,1.1,0,,0.04,0.8133,,,
,,66f2946d0e3eeda7aa13eaa7,6685aa9113c938e83b4f1ea0,671c5d5f2c200a509db2303f,2024-10-25_23h09.42.051,WTP_SM_Choice,2022.2.1,Win32,75.18796992,,,,,,,,,,,,,,,,,,65,,,,,,,,,,1,0,4,4,4,1,Relax and watch a show or movie,Go on mini road trips with high school friends,0.05,0.03,1.1,1,,0.05,9.5542,,,
,,66f2946d0e3eeda7aa13eaa7,6685aa9113c938e83b4f1ea0,671c5d5f2c200a509db2303f,2024-10-25_23h09.42.051,WTP_SM_Choice,2022.2.1,Win32,75.18796992,,,,,,,NAN,,NAN,2.23,3.77,,0,64,64,64,1,65,Charlie,Rej,Participant_Images/66f2946d0e3eeda7aa13eaa7/66f2946d0e3eeda7aa13eaa7_Images/66f2946d0e3eeda7aa13eaa7_Image_3.jpeg,did not like,2.455989137,,,,,,,,,,,,,,,,,,,,,,
,,66f2946d0e3eeda7aa13eaa7,6685aa9113c938e83b4f1ea0,671c5d5f2c200a509db2303f,2024-10-25_23h09.42.051,WTP_SM_Choice,2022.2.1,Win32,75.18796992,,,,,space,1.3806,NAN,,NAN,2.23,3.77,,0,65,65,65,1,66,Charlie,Rej,Participant_Images/66f2946d0e3eeda7aa13eaa7/66f2946d0e3eeda7aa13eaa7_Images/66f2946d0e3eeda7aa13eaa7_Image_14.jpeg,did not like,3.79605092,,,,,,,,,,,,,,,,,,,,,,
,,66f2946d0e3eeda7aa13eaa7,6685aa9113c938e83b4f1ea0,671c5d5f2c200a509db2303f,2024-10-25_23h09.42.051,WTP_SM_Choice,2022.2.1,Win32,75.18796992,,,,,space,5.5003,NAN,,NAN,2.23,3.77,,0,66,66,66,1,67,Charlie,Rej,Participant_Images/66f2946d0e3eeda7aa13eaa7/66f2946d0e3eeda7aa13eaa7_Images/66f2946d0e3eeda7aa13eaa7_Image_23.jpeg,liked,3.562416326,,,,,,,,,,,,,,,,,,,,,,
,,66f2946d0e3eeda7aa13eaa7,6685aa9113c938e83b4f1ea0,671c5d5f2c200a509db2303f,2024-10-25_23h09.42.051,WTP_SM_Choice,2022.2.1,Win32,75.18796992,,,,,space,1.363,NAN,,NAN,2.23,3.77,,0,67,67,67,1,68,Charlie,Rej,Participant_Images/66f2946d0e3eeda7aa13eaa7/66f2946d0e3eeda7aa13eaa7_Images/66f2946d0e3eeda7aa13eaa7_Image_22.jpeg,did not like,2.843822497,,,,,,,,,,,,,,,,,,,,,,
,,66f2946d0e3eeda7aa13eaa7,6685aa9113c938e83b4f1ea0,671c5d5f2c200a509db2303f,2024-10-25_23h09.42.051,WTP_SM_Choice,2022.2.1,Win32,75.18796992,,,,,space,2.2897,NAN,,NAN,2.23,3.77,,0,68,68,68,1,69,Charlie,Rej,Participant_Images/66f2946d0e3eeda7aa13eaa7/66f2946d0e3eeda7aa13eaa7_Images/66f2946d0e3eeda7aa13eaa7_Image_25.jpeg,liked,3.546495948,,,,,,,,,,,,,,,,,,,,,,
,,66f2946d0e3eeda7aa13eaa7,6685aa9113c938e83b4f1ea0,671c5d5f2c200a509db2303f,2024-10-25_23h09.42.051,WTP_SM_Choice,2022.2.1,Win32,75.18796992,,,,,,,,,,,,,,,,,,66,,,,,,space,0.6727,space,1.163,2,0,0,0,0,1,Go out to parties downtown,Talk to my mom and grandparents over the phone,0.01,0.04,1.1,1,,0.04,0.7582,,,
,,66f2946d0e3eeda7aa13eaa7,6685aa9113c938e83b4f1ea0,671c5d5f2c200a509db2303f,2024-10-25_23h09.42.051,WTP_SM_Choice,2022.2.1,Win32,75.18796992,,,,,,,,,,,,,,,,,,67,,,,,,,,,,2,0,1,1,1,1,Watch rain fall by myself,Game with my boys,0.02,0.04,8.8,1,,0.04,1.2629,,,
,,66f2946d0e3eeda7aa13eaa7,6685aa9113c938e83b4f1ea0,671c5d5f2c200a509db2303f,2024-10-25_23h09.42.051,WTP_SM_Choice,2022.2.1,Win32,75.18796992,,,,,,,,,,,,,,,,,,68,,,,,,,,,,2,0,2,2,2,1,Spend time with my girlfriend,Take pictures of amazing views or moments,0.03,0.04,4.4,0,,0.04,0.8857,,,
,,66f2946d0e3eeda7aa13eaa7,6685aa9113c938e83b4f1ea0,671c5d5f2c200a509db2303f,2024-10-25_23h09.42.051,WTP_SM_Choice,2022.2.1,Win32,75.18796992,,,,,,,,,,,,,,,,,,69,,,,,,,,,,1,0,3,3,3,1,Read in my comfy bed,Game with my boys,0.04,0.04,1.1,1,,0.04,1.1916,,,
,,66f2946d0e3eeda7aa13eaa7,6685aa9113c938e83b4f1ea0,671c5d5f2c200a509db2303f,2024-10-25_23h09.42.051,WTP_SM_Choice,2022.2.1,Win32,75.18796992,,,,,,,,,,,,,,,,,,70,,,,,,,,,,1,0,4,4,4,1,Go to work on cold days,Game with my boys,0.05,0.04,1.1,1,,0.05,1.1048,,,
,,66f2946d0e3eeda7aa13eaa7,6685aa9113c938e83b4f1ea0,671c5d5f2c200a509db2303f,2024-10-25_23h09.42.051,WTP_SM_Choice,2022.2.1,Win32,75.18796992,,,,,,,NAN,,NAN,2.44,3.56,,0,69,69,69,1,70,Charlie,Rej,Participant_Images/66f2946d0e3eeda7aa13eaa7/66f2946d0e3eeda7aa13eaa7_Images/66f2946d0e3eeda7aa13eaa7_Image_11.jpeg,did not like,1.672012706,,,,,,,,,,,,,,,,,,,,,,
,,66f2946d0e3eeda7aa13eaa7,6685aa9113c938e83b4f1ea0,671c5d5f2c200a509db2303f,2024-10-25_23h09.42.051,WTP_SM_Choice,2022.2.1,Win32,75.18796992,,,,,space,0.8608,NAN,,NAN,2.44,3.56,,0,70,70,70,1,71,Charlie,Rej,Participant_Images/66f2946d0e3eeda7aa13eaa7/66f2946d0e3eeda7aa13eaa7_Images/66f2946d0e3eeda7aa13eaa7_Image_1.jpeg,did not like,4.942172136,,,,,,,,,,,,,,,,,,,,,,
,,66f2946d0e3eeda7aa13eaa7,6685aa9113c938e83b4f1ea0,671c5d5f2c200a509db2303f,2024-10-25_23h09.42.051,WTP_SM_Choice,2022.2.1,Win32,75.18796992,,,,,space,1.0552,NAN,,NAN,2.44,3.56,,0,71,71,71,1,72,Charlie,Rej,Participant_Images/66f2946d0e3eeda7aa13eaa7/66f2946d0e3eeda7aa13eaa7_Images/66f2946d0e3eeda7aa13eaa7_Image_19.jpeg,did not like,2.50187214,,,,,,,,,,,,,,,,,,,,,,
,,66f2946d0e3eeda7aa13eaa7,6685aa9113c938e83b4f1ea0,671c5d5f2c200a509db2303f,2024-10-25_23h09.42.051,WTP_SM_Choice,2022.2.1,Win32,75.18796992,,,,,space,3.0739,NAN,,NAN,2.44,3.56,,0,72,72,72,1,73,Charlie,Rej,Participant_Images/66f2946d0e3eeda7aa13eaa7/66f2946d0e3eeda7aa13eaa7_Images/66f2946d0e3eeda7aa13eaa7_Image_18.jpeg,liked,2.071164779,,,,,,,,,,,,,,,,,,,,,,
,,66f2946d0e3eeda7aa13eaa7,6685aa9113c938e83b4f1ea0,671c5d5f2c200a509db2303f,2024-10-25_23h09.42.051,WTP_SM_Choice,2022.2.1,Win32,75.18796992,,,,,space,9.6372,NAN,,NAN,2.44,3.56,,0,73,73,73,1,74,Charlie,Rej,Participant_Images/66f2946d0e3eeda7aa13eaa7/66f2946d0e3eeda7aa13eaa7_Images/66f2946d0e3eeda7aa13eaa7_Image_21.jpeg,did not like,5.336503566,,,,,,,,,,,,,,,,,,,,,,
,,66f2946d0e3eeda7aa13eaa7,6685aa9113c938e83b4f1ea0,671c5d5f2c200a509db2303f,2024-10-25_23h09.42.051,WTP_SM_Choice,2022.2.1,Win32,75.18796992,,,,,,,,,,,,,,,,,,71,,,,,,space,3.7616,space,0.6126,2,0,0,0,0,1,Go on vacations with my family,Go on mini road trips with high school friends,0.01,0.05,3.3,1,,0.05,0.8358,,,
,,66f2946d0e3eeda7aa13eaa7,6685aa9113c938e83b4f1ea0,671c5d5f2c200a509db2303f,2024-10-25_23h09.42.051,WTP_SM_Choice,2022.2.1,Win32,75.18796992,,,,,,,,,,,,,,,,,,72,,,,,,,,,,2,0,1,1,1,1,Read in my comfy bed,Do club activities with my clubmates,0.02,0.05,8.8,1,,0.05,2.1183,,,
,,66f2946d0e3eeda7aa13eaa7,6685aa9113c938e83b4f1ea0,671c5d5f2c200a509db2303f,2024-10-25_23h09.42.051,WTP_SM_Choice,2022.2.1,Win32,75.18796992,,,,,,,,,,,,,,,,,,73,,,,,,,,,,2,0,2,2,2,1,Watch rain fall by myself,Help my brothers with questions and stuff,0.03,0.05,3.3,1,,0.05,0.8037,,,
,,66f2946d0e3eeda7aa13eaa7,6685aa9113c938e83b4f1ea0,671c5d5f2c200a509db2303f,2024-10-25_23h09.42.051,WTP_SM_Choice,2022.2.1,Win32,75.18796992,,,,,,,,,,,,,,,,,,74,,,,,,,,,,2,0,3,3,3,1,Go to work on cold days,Do club activities with my clubmates,0.04,0.05,4.4,1,,0.05,2.3481,,,
,,66f2946d0e3eeda7aa13eaa7,6685aa9113c938e83b4f1ea0,671c5d5f2c200a509db2303f,2024-10-25_23h09.42.051,WTP_SM_Choice,2022.2.1,Win32,75.18796992,,,,,,,,,,,,,,,,,,75,,,,,,,,,,2,0,4,4,4,1,Game with friends in my room,Do club activities with my clubmates,0.05,0.05,3.3,1,,0.05,1.5027,,,
,,66f2946d0e3eeda7aa13eaa7,6685aa9113c938e83b4f1ea0,671c5d5f2c200a509db2303f,2024-10-25_23h09.42.051,WTP_SM_Choice,2022.2.1,Win32,75.18796992,,,,,,,2,,6,2.69,3.31,,0,74,74,74,1,75,Charlie,Rej,Participant_Images/66f2946d0e3eeda7aa13eaa7/66f2946d0e3eeda7aa13eaa7_Images/66f2946d0e3eeda7aa13eaa7_Image_7.jpeg,did not like,2.642157193,,,,,,,,,,,,,,,,,space,,,3.8388,,
,,66f2946d0e3eeda7aa13eaa7,6685aa9113c938e83b4f1ea0,671c5d5f2c200a509db2303f,2024-10-25_23h09.42.051,WTP_SM_Choice,2022.2.1,Win32,75.18796992,,,space,5.6852,space,1.6008,NAN,,NAN,2.69,3.31,,0,75,75,75,1,76,Riley,Acc,Participant_Images/66f2946d0e3eeda7aa13eaa7/66f2946d0e3eeda7aa13eaa7_Images/66f2946d0e3eeda7aa13eaa7_Image_8.jpeg,did not like,4.456234322,,,,,,,,,,,,,,,,,,,,,,
,,66f2946d0e3eeda7aa13eaa7,6685aa9113c938e83b4f1ea0,671c5d5f2c200a509db2303f,2024-10-25_23h09.42.051,WTP_SM_Choice,2022.2.1,Win32,75.18796992,,,,,space,2.0567,NAN,,NAN,2.69,3.31,,0,76,76,76,1,77,Riley,Acc,Participant_Images/66f2946d0e3eeda7aa13eaa7/66f2946d0e3eeda7aa13eaa7_Images/66f2946d0e3eeda7aa13eaa7_Image_25.jpeg,liked,4.438512181,,,,,,,,,,,,,,,,,,,,,,
,,66f2946d0e3eeda7aa13eaa7,6685aa9113c938e83b4f1ea0,671c5d5f2c200a509db2303f,2024-10-25_23h09.42.051,WTP_SM_Choice,2022.2.1,Win32,75.18796992,,,,,space,0.863,NAN,,NAN,2.69,3.31,,0,77,77,77,1,78,Riley,Acc,Participant_Images/66f2946d0e3eeda7aa13eaa7/66f2946d0e3eeda7aa13eaa7_Images/66f2946d0e3eeda7aa13eaa7_Image_23.jpeg,liked,2.682944783,,,,,,,,,,,,,,,,,,,,,,
,,66f2946d0e3eeda7aa13eaa7,6685aa9113c938e83b4f1ea0,671c5d5f2c200a509db2303f,2024-10-25_23h09.42.051,WTP_SM_Choice,2022.2.1,Win32,75.18796992,,,,,space,1.2692,NAN,,NAN,2.69,3.31,,0,78,78,78,1,79,Riley,Acc,Participant_Images/66f2946d0e3eeda7aa13eaa7/66f2946d0e3eeda7aa13eaa7_Images/66f2946d0e3eeda7aa13eaa7_Image_9.jpeg,liked,4.51984296,,,,,,,,,,,,,,,,,,,,,,
,,66f2946d0e3eeda7aa13eaa7,6685aa9113c938e83b4f1ea0,671c5d5f2c200a509db2303f,2024-10-25_23h09.42.051,WTP_SM_Choice,2022.2.1,Win32,75.18796992,,,,,,,,,,,,,,,,,,76,,,,,,space,1.0525,space,0.6821,1,0,0,0,0,1,Eat out with my friends,Game with friends in my room,0.01,0.01,1.1,0,,0.01,2.6362,,,
,,66f2946d0e3eeda7aa13eaa7,6685aa9113c938e83b4f1ea0,671c5d5f2c200a509db2303f,2024-10-25_23h09.42.051,WTP_SM_Choice,2022.2.1,Win32,75.18796992,,,,,,,,,,,,,,,,,,77,,,,,,,,,,1,0,1,1,1,1,Eat at amazing restaurants with friends,Game with my boys,0.02,0.01,8.8,1,,0.02,0.8921,,,
,,66f2946d0e3eeda7aa13eaa7,6685aa9113c938e83b4f1ea0,671c5d5f2c200a509db2303f,2024-10-25_23h09.42.051,WTP_SM_Choice,2022.2.1,Win32,75.18796992,,,,,,,,,,,,,,,,,,78,,,,,,,,,,1,0,2,2,2,1,Game with friends in my room,Play sports with my boys,0.03,0.01,1.1,1,,0.03,0.86,,,
,,66f2946d0e3eeda7aa13eaa7,6685aa9113c938e83b4f1ea0,671c5d5f2c200a509db2303f,2024-10-25_23h09.42.051,WTP_SM_Choice,2022.2.1,Win32,75.18796992,,,,,,,,,,,,,,,,,,79,,,,,,,,,,1,0,3,3,3,1,Go out to parties downtown,Spend time with my girlfriend,0.04,0.01,1.1,1,,0.04,1.1354,,,
,,66f2946d0e3eeda7aa13eaa7,6685aa9113c938e83b4f1ea0,671c5d5f2c200a509db2303f,2024-10-25_23h09.42.051,WTP_SM_Choice,2022.2.1,Win32,75.18796992,,,,,,,,,,,,,,,,,,80,,,,,,,,,,1,0,4,4,4,1,Eat out with my friends,Take pictures of amazing views or moments,0.05,0.01,4.4,0,,0.05,0.6573,,,
,,66f2946d0e3eeda7aa13eaa7,6685aa9113c938e83b4f1ea0,671c5d5f2c200a509db2303f,2024-10-25_23h09.42.051,WTP_SM_Choice,2022.2.1,Win32,75.18796992,,,,,,,NAN,,NAN,2.84,3.16,,0,79,79,79,1,80,Riley,Acc,Participant_Images/66f2946d0e3eeda7aa13eaa7/66f2946d0e3eeda7aa13eaa7_Images/66f2946d0e3eeda7aa13eaa7_Image_6.jpeg,liked,3.195382774,,,,,,,,,,,,,,,,,,,,,,
,,66f2946d0e3eeda7aa13eaa7,6685aa9113c938e83b4f1ea0,671c5d5f2c200a509db2303f,2024-10-25_23h09.42.051,WTP_SM_Choice,2022.2.1,Win32,75.18796992,,,,,space,0.6541,NAN,,NAN,2.84,3.16,,0,80,80,80,1,81,Riley,Acc,Participant_Images/66f2946d0e3eeda7aa13eaa7/66f2946d0e3eeda7aa13eaa7_Images/66f2946d0e3eeda7aa13eaa7_Image_16.jpeg,liked,1.779333479,,,,,,,,,,,,,,,,,,,,,,
,,66f2946d0e3eeda7aa13eaa7,6685aa9113c938e83b4f1ea0,671c5d5f2c200a509db2303f,2024-10-25_23h09.42.051,WTP_SM_Choice,2022.2.1,Win32,75.18796992,,,,,space,0.7915,NAN,,NAN,2.84,3.16,,0,81,81,81,1,82,Riley,Acc,Participant_Images/66f2946d0e3eeda7aa13eaa7/66f2946d0e3eeda7aa13eaa7_Images/66f2946d0e3eeda7aa13eaa7_Image_2.jpeg,liked,4.312468682,,,,,,,,,,,,,,,,,,,,,,
,,66f2946d0e3eeda7aa13eaa7,6685aa9113c938e83b4f1ea0,671c5d5f2c200a509db2303f,2024-10-25_23h09.42.051,WTP_SM_Choice,2022.2.1,Win32,75.18796992,,,,,space,0.7455,NAN,,NAN,2.84,3.16,,0,82,82,82,1,83,Riley,Acc,Participant_Images/66f2946d0e3eeda7aa13eaa7/66f2946d0e3eeda7aa13eaa7_Images/66f2946d0e3eeda7aa13eaa7_Image_7.jpeg,liked,4.940433059,,,,,,,,,,,,,,,,,,,,,,
,,66f2946d0e3eeda7aa13eaa7,6685aa9113c938e83b4f1ea0,671c5d5f2c200a509db2303f,2024-10-25_23h09.42.051,WTP_SM_Choice,2022.2.1,Win32,75.18796992,,,,,space,0.8939,NAN,,NAN,2.84,3.16,,0,83,83,83,1,84,Riley,Acc,Participant_Images/66f2946d0e3eeda7aa13eaa7/66f2946d0e3eeda7aa13eaa7_Images/66f2946d0e3eeda7aa13eaa7_Image_12.jpeg,did not like,2.7105123,,,,,,,,,,,,,,,,,,,,,,
,,66f2946d0e3eeda7aa13eaa7,6685aa9113c938e83b4f1ea0,671c5d5f2c200a509db2303f,2024-10-25_23h09.42.051,WTP_SM_Choice,2022.2.1,Win32,75.18796992,,,,,,,,,,,,,,,,,,81,,,,,,space,0.858,space,0.7893,2,0,0,0,0,1,Go to work on cold days,Go on mini road trips with high school friends,0.01,0.02,3.3,1,,0.02,0.9593,,,
,,66f2946d0e3eeda7aa13eaa7,6685aa9113c938e83b4f1ea0,671c5d5f2c200a509db2303f,2024-10-25_23h09.42.051,WTP_SM_Choice,2022.2.1,Win32,75.18796992,,,,,,,,,,,,,,,,,,82,,,,,,,,,,1,0,1,1,1,1,Take pictures of amazing views or moments,Play sports with my boys,0.02,0.02,4.4,1,,0.02,1.0423,,,
,,66f2946d0e3eeda7aa13eaa7,6685aa9113c938e83b4f1ea0,671c5d5f2c200a509db2303f,2024-10-25_23h09.42.051,WTP_SM_Choice,2022.2.1,Win32,75.18796992,,,,,,,,,,,,,,,,,,83,,,,,,,,,,1,0,2,2,2,1,Talk to my mom and grandparents over the phone,Eat at amazing restaurants with friends,0.03,0.02,1.1,0,,0.03,0.8504,,,
,,66f2946d0e3eeda7aa13eaa7,6685aa9113c938e83b4f1ea0,671c5d5f2c200a509db2303f,2024-10-25_23h09.42.051,WTP_SM_Choice,2022.2.1,Win32,75.18796992,,,,,,,,,,,,,,,,,,84,,,,,,,,,,1,0,3,3,3,1,Work out with my friends,Relax and watch a show or movie,0.04,0.02,3.3,0,,0.04,0.8533,,,
,,66f2946d0e3eeda7aa13eaa7,6685aa9113c938e83b4f1ea0,671c5d5f2c200a509db2303f,2024-10-25_23h09.42.051,WTP_SM_Choice,2022.2.1,Win32,75.18796992,,,,,,,,,,,,,,,,,,85,,,,,,,,,,1,0,4,4,4,1,Work out with my friends,Game with friends in my room,0.05,0.02,3.3,0,,0.05,0.5516,,,
,,66f2946d0e3eeda7aa13eaa7,6685aa9113c938e83b4f1ea0,671c5d5f2c200a509db2303f,2024-10-25_23h09.42.051,WTP_SM_Choice,2022.2.1,Win32,75.18796992,,,,,,,NAN,,NAN,3,3,,0,84,84,84,1,85,Riley,Acc,Participant_Images/66f2946d0e3eeda7aa13eaa7/66f2946d0e3eeda7aa13eaa7_Images/66f2946d0e3eeda7aa13eaa7_Image_5.jpeg,liked,3.602308302,,,,,,,,,,,,,,,,,,,,,,
,,66f2946d0e3eeda7aa13eaa7,6685aa9113c938e83b4f1ea0,671c5d5f2c200a509db2303f,2024-10-25_23h09.42.051,WTP_SM_Choice,2022.2.1,Win32,75.18796992,,,,,space,0.7299,NAN,,NAN,3,3,,0,85,85,85,1,86,Riley,Acc,Participant_Images/66f2946d0e3eeda7aa13eaa7/66f2946d0e3eeda7aa13eaa7_Images/66f2946d0e3eeda7aa13eaa7_Image_14.jpeg,liked,4.106391878,,,,,,,,,,,,,,,,,,,,,,
,,66f2946d0e3eeda7aa13eaa7,6685aa9113c938e83b4f1ea0,671c5d5f2c200a509db2303f,2024-10-25_23h09.42.051,WTP_SM_Choice,2022.2.1,Win32,75.18796992,,,,,space,0.8115,NAN,,NAN,3,3,,0,86,86,86,1,87,Riley,Acc,Participant_Images/66f2946d0e3eeda7aa13eaa7/66f2946d0e3eeda7aa13eaa7_Images/66f2946d0e3eeda7aa13eaa7_Image_21.jpeg,liked,3.799433026,,,,,,,,,,,,,,,,,,,,,,
,,66f2946d0e3eeda7aa13eaa7,6685aa9113c938e83b4f1ea0,671c5d5f2c200a509db2303f,2024-10-25_23h09.42.051,WTP_SM_Choice,2022.2.1,Win32,75.18796992,,,,,space,2.9875,NAN,,NAN,3,3,,0,87,87,87,1,88,Riley,Acc,Participant_Images/66f2946d0e3eeda7aa13eaa7/66f2946d0e3eeda7aa13eaa7_Images/66f2946d0e3eeda7aa13eaa7_Image_4.jpeg,did not like,5.246980764,,,,,,,,,,,,,,,,,,,,,,
,,66f2946d0e3eeda7aa13eaa7,6685aa9113c938e83b4f1ea0,671c5d5f2c200a509db2303f,2024-10-25_23h09.42.051,WTP_SM_Choice,2022.2.1,Win32,75.18796992,,,,,space,4.0525,NAN,,NAN,3,3,,0,88,88,88,1,89,Riley,Acc,Participant_Images/66f2946d0e3eeda7aa13eaa7/66f2946d0e3eeda7aa13eaa7_Images/66f2946d0e3eeda7aa13eaa7_Image_3.jpeg,liked,3.30081769,,,,,,,,,,,,,,,,,,,,,,
,,66f2946d0e3eeda7aa13eaa7,6685aa9113c938e83b4f1ea0,671c5d5f2c200a509db2303f,2024-10-25_23h09.42.051,WTP_SM_Choice,2022.2.1,Win32,75.18796992,,,,,,,,,,,,,,,,,,86,,,,,,space,0.8951,space,0.4882,2,0,0,0,0,1,Play sports with my boys,Watch rain fall by myself,0.01,0.03,1.1,0,,0.03,0.9557,,,
,,66f2946d0e3eeda7aa13eaa7,6685aa9113c938e83b4f1ea0,671c5d5f2c200a509db2303f,2024-10-25_23h09.42.051,WTP_SM_Choice,2022.2.1,Win32,75.18796992,,,,,,,,,,,,,,,,,,87,,,,,,,,,,2,0,1,1,1,1,Go out to parties downtown,Play sports with my boys,0.02,0.03,4.4,1,,0.03,0.8314,,,
,,66f2946d0e3eeda7aa13eaa7,6685aa9113c938e83b4f1ea0,671c5d5f2c200a509db2303f,2024-10-25_23h09.42.051,WTP_SM_Choice,2022.2.1,Win32,75.18796992,,,,,,,,,,,,,,,,,,88,,,,,,,,,,1,0,2,2,2,1,Read in my comfy bed,Talk to my mom and grandparents over the phone,0.03,0.03,1.1,1,,0.03,1.1354,,,
,,66f2946d0e3eeda7aa13eaa7,6685aa9113c938e83b4f1ea0,671c5d5f2c200a509db2303f,2024-10-25_23h09.42.051,WTP_SM_Choice,2022.2.1,Win32,75.18796992,,,,,,,,,,,,,,,,,,89,,,,,,,,,,1,0,3,3,3,1,Game with my boys,Relax and watch a show or movie,0.04,0.03,3.3,0,,0.04,1.0347,,,
,,66f2946d0e3eeda7aa13eaa7,6685aa9113c938e83b4f1ea0,671c5d5f2c200a509db2303f,2024-10-25_23h09.42.051,WTP_SM_Choice,2022.2.1,Win32,75.18796992,,,,,,,,,,,,,,,,,,90,,,,,,,,,,1,0,4,4,4,1,Eat at amazing restaurants with friends,Do club activities with my clubmates,0.05,0.03,8.8,1,,0.05,0.9922,,,
,,66f2946d0e3eeda7aa13eaa7,6685aa9113c938e83b4f1ea0,671c5d5f2c200a509db2303f,2024-10-25_23h09.42.051,WTP_SM_Choice,2022.2.1,Win32,75.18796992,,,,,,,NAN,,NAN,3.18,2.82,,0,89,89,89,1,90,Riley,Acc,Participant_Images/66f2946d0e3eeda7aa13eaa7/66f2946d0e3eeda7aa13eaa7_Images/66f2946d0e3eeda7aa13eaa7_Image_13.jpeg,liked,1.661473164,,,,,,,,,,,,,,,,,,,,,,
,,66f2946d0e3eeda7aa13eaa7,6685aa9113c938e83b4f1ea0,671c5d5f2c200a509db2303f,2024-10-25_23h09.42.051,WTP_SM_Choice,2022.2.1,Win32,75.18796992,,,,,space,0.7626,NAN,,NAN,3.18,2.82,,0,90,90,90,1,91,Riley,Acc,Participant_Images/66f2946d0e3eeda7aa13eaa7/66f2946d0e3eeda7aa13eaa7_Images/66f2946d0e3eeda7aa13eaa7_Image_20.jpeg,liked,3.613205605,,,,,,,,,,,,,,,,,,,,,,
,,66f2946d0e3eeda7aa13eaa7,6685aa9113c938e83b4f1ea0,671c5d5f2c200a509db2303f,2024-10-25_23h09.42.051,WTP_SM_Choice,2022.2.1,Win32,75.18796992,,,,,space,0.7476,NAN,,NAN,3.18,2.82,,0,91,91,91,1,92,Riley,Acc,Participant_Images/66f2946d0e3eeda7aa13eaa7/66f2946d0e3eeda7aa13eaa7_Images/66f2946d0e3eeda7aa13eaa7_Image_10.jpeg,liked,4.988446431,,,,,,,,,,,,,,,,,,,,,,
,,66f2946d0e3eeda7aa13eaa7,6685aa9113c938e83b4f1ea0,671c5d5f2c200a509db2303f,2024-10-25_23h09.42.051,WTP_SM_Choice,2022.2.1,Win32,75.18796992,,,,,space,2.0141,NAN,,NAN,3.18,2.82,,0,92,92,92,1,93,Riley,Acc,Participant_Images/66f2946d0e3eeda7aa13eaa7/66f2946d0e3eeda7aa13eaa7_Images/66f2946d0e3eeda7aa13eaa7_Image_19.jpeg,liked,3.470791822,,,,,,,,,,,,,,,,,,,,,,
,,66f2946d0e3eeda7aa13eaa7,6685aa9113c938e83b4f1ea0,671c5d5f2c200a509db2303f,2024-10-25_23h09.42.051,WTP_SM_Choice,2022.2.1,Win32,75.18796992,,,,,space,0.8798,NAN,,NAN,3.18,2.82,,0,93,93,93,1,94,Riley,Acc,Participant_Images/66f2946d0e3eeda7aa13eaa7/66f2946d0e3eeda7aa13eaa7_Images/66f2946d0e3eeda7aa13eaa7_Image_17.jpeg,liked,3.820572462,,,,,,,,,,,,,,,,,,,,,,
,,66f2946d0e3eeda7aa13eaa7,6685aa9113c938e83b4f1ea0,671c5d5f2c200a509db2303f,2024-10-25_23h09.42.051,WTP_SM_Choice,2022.2.1,Win32,75.18796992,,,,,,,,,,,,,,,,,,91,,,,,,space,0.9248,space,0.4858,2,0,0,0,0,1,Go to the gym in the mornings,Play sports with my boys,0.01,0.04,3.3,1,,0.04,0.8457,,,
,,66f2946d0e3eeda7aa13eaa7,6685aa9113c938e83b4f1ea0,671c5d5f2c200a509db2303f,2024-10-25_23h09.42.051,WTP_SM_Choice,2022.2.1,Win32,75.18796992,,,,,,,,,,,,,,,,,,92,,,,,,,,,,2,0,1,1,1,1,Go to the gym in the mornings,Work out with my friends,0.02,0.04,8.8,1,,0.04,0.8209,,,
,,66f2946d0e3eeda7aa13eaa7,6685aa9113c938e83b4f1ea0,671c5d5f2c200a509db2303f,2024-10-25_23h09.42.051,WTP_SM_Choice,2022.2.1,Win32,75.18796992,,,,,,,,,,,,,,,,,,93,,,,,,,,,,2,0,2,2,2,1,Go to the gym in the mornings,Game with my boys,0.03,0.04,1.1,1,,0.04,0.9539,,,
,,66f2946d0e3eeda7aa13eaa7,6685aa9113c938e83b4f1ea0,671c5d5f2c200a509db2303f,2024-10-25_23h09.42.051,WTP_SM_Choice,2022.2.1,Win32,75.18796992,,,,,,,,,,,,,,,,,,94,,,,,,,,,,1,0,3,3,3,1,Eat at amazing restaurants with friends,Play sports with my boys,0.04,0.04,4.4,1,,0.04,1.2324,,,
,,66f2946d0e3eeda7aa13eaa7,6685aa9113c938e83b4f1ea0,671c5d5f2c200a509db2303f,2024-10-25_23h09.42.051,WTP_SM_Choice,2022.2.1,Win32,75.18796992,,,,,,,,,,,,,,,,,,95,,,,,,,,,,1,0,4,4,4,1,Do club activities with my clubmates,Take pictures of amazing views or moments,0.05,0.04,4.4,0,,0.05,1.0083,,,
,,66f2946d0e3eeda7aa13eaa7,6685aa9113c938e83b4f1ea0,671c5d5f2c200a509db2303f,2024-10-25_23h09.42.051,WTP_SM_Choice,2022.2.1,Win32,75.18796992,,,,,,,NAN,,NAN,3.39,2.61,,0,94,94,94,1,95,Riley,Acc,Participant_Images/66f2946d0e3eeda7aa13eaa7/66f2946d0e3eeda7aa13eaa7_Images/66f2946d0e3eeda7aa13eaa7_Image_1.jpeg,did not like,2.455989137,,,,,,,,,,,,,,,,,,,,,,
,,66f2946d0e3eeda7aa13eaa7,6685aa9113c938e83b4f1ea0,671c5d5f2c200a509db2303f,2024-10-25_23h09.42.051,WTP_SM_Choice,2022.2.1,Win32,75.18796992,,,,,space,0.9164,NAN,,NAN,3.39,2.61,,0,95,95,95,1,96,Riley,Acc,Participant_Images/66f2946d0e3eeda7aa13eaa7/66f2946d0e3eeda7aa13eaa7_Images/66f2946d0e3eeda7aa13eaa7_Image_18.jpeg,liked,3.79605092,,,,,,,,,,,,,,,,,,,,,,
,,66f2946d0e3eeda7aa13eaa7,6685aa9113c938e83b4f1ea0,671c5d5f2c200a509db2303f,2024-10-25_23h09.42.051,WTP_SM_Choice,2022.2.1,Win32,75.18796992,,,,,space,2.3327,NAN,,NAN,3.39,2.61,,0,96,96,96,1,97,Riley,Acc,Participant_Images/66f2946d0e3eeda7aa13eaa7/66f2946d0e3eeda7aa13eaa7_Images/66f2946d0e3eeda7aa13eaa7_Image_24.jpeg,did not like,3.562416326,,,,,,,,,,,,,,,,,,,,,,
,,66f2946d0e3eeda7aa13eaa7,6685aa9113c938e83b4f1ea0,671c5d5f2c200a509db2303f,2024-10-25_23h09.42.051,WTP_SM_Choice,2022.2.1,Win32,75.18796992,,,,,space,0.8049,NAN,,NAN,3.39,2.61,,0,97,97,97,1,98,Riley,Acc,Participant_Images/66f2946d0e3eeda7aa13eaa7/66f2946d0e3eeda7aa13eaa7_Images/66f2946d0e3eeda7aa13eaa7_Image_15.jpeg,did not like,2.843822497,,,,,,,,,,,,,,,,,,,,,,
,,66f2946d0e3eeda7aa13eaa7,6685aa9113c938e83b4f1ea0,671c5d5f2c200a509db2303f,2024-10-25_23h09.42.051,WTP_SM_Choice,2022.2.1,Win32,75.18796992,,,,,space,0.9744,NAN,,NAN,3.39,2.61,,0,98,98,98,1,99,Riley,Acc,Participant_Images/66f2946d0e3eeda7aa13eaa7/66f2946d0e3eeda7aa13eaa7_Images/66f2946d0e3eeda7aa13eaa7_Image_22.jpeg,liked,3.546495948,,,,,,,,,,,,,,,,,,,,,,
,,66f2946d0e3eeda7aa13eaa7,6685aa9113c938e83b4f1ea0,671c5d5f2c200a509db2303f,2024-10-25_23h09.42.051,WTP_SM_Choice,2022.2.1,Win32,75.18796992,,,,,,,,,,,,,,,,,,96,,,,,,space,1.0063,space,0.4164,2,0,0,0,0,1,Work out with my friends,Read in my comfy bed,0.01,0.05,3.3,0,,0.05,0.7785,,,
,,66f2946d0e3eeda7aa13eaa7,6685aa9113c938e83b4f1ea0,671c5d5f2c200a509db2303f,2024-10-25_23h09.42.051,WTP_SM_Choice,2022.2.1,Win32,75.18796992,,,,,,,,,,,,,,,,,,97,,,,,,,,,,2,0,1,1,1,1,Work out with my friends,Watch rain fall by myself,0.02,0.05,1.1,0,,0.05,0.9907,,,
,,66f2946d0e3eeda7aa13eaa7,6685aa9113c938e83b4f1ea0,671c5d5f2c200a509db2303f,2024-10-25_23h09.42.051,WTP_SM_Choice,2022.2.1,Win32,75.18796992,,,,,,,,,,,,,,,,,,98,,,,,,,,,,2,0,2,2,2,1,Help my brothers with questions and stuff,Game with friends in my room,0.03,0.05,1.1,0,,0.05,0.9467,,,
,,66f2946d0e3eeda7aa13eaa7,6685aa9113c938e83b4f1ea0,671c5d5f2c200a509db2303f,2024-10-25_23h09.42.051,WTP_SM_Choice,2022.2.1,Win32,75.18796992,,,,,,,,,,,,,,,,,,99,,,,,,,,,,2,0,3,3,3,1,Go to work on cold days,Spend time with my girlfriend,0.04,0.05,3.3,1,,0.05,1.0194,,,
,,66f2946d0e3eeda7aa13eaa7,6685aa9113c938e83b4f1ea0,671c5d5f2c200a509db2303f,2024-10-25_23h09.42.051,WTP_SM_Choice,2022.2.1,Win32,75.18796992,,,,,,,,,,,,,,,,,,100,,,,,,,,,,1,0,4,4,4,1,Game with my boys,Take pictures of amazing views or moments,0.05,0.05,4.4,0,,0.05,0.7951,,,
,,66f2946d0e3eeda7aa13eaa7,6685aa9113c938e83b4f1ea0,671c5d5f2c200a509db2303f,2024-10-25_23h09.42.051,WTP_SM_Choice,2022.2.1,Win32,75.18796992,,,,,,,4,,3,3.64,2.36,,0,99,99,99,1,100,Riley,Acc,Participant_Images/66f2946d0e3eeda7aa13eaa7/66f2946d0e3eeda7aa13eaa7_Images/66f2946d0e3eeda7aa13eaa7_Image_11.jpeg,did not like,1.672012706,,,,,,,,,,,,,,,,,space,,,1.1281,,
,,66f2946d0e3eeda7aa13eaa7,6685aa9113c938e83b4f1ea0,671c5d5f2c200a509db2303f,2024-10-25_23h09.42.051,WTP_SM_Choice,2022.2.1,Win32,75.18796992,,,,,,,,,,,,,,,,,,,,,,,,,,,,,,,,,,,,,,,,,,,,space,1.6518
