endwelcomescreen_keys.keys,endwelcomescreen_keys.rt,participant,STUDY_ID,SESSION_ID,date,expName,psychopyVersion,OS,frameRate,endinstructionscreen_keys.keys,endinstructionscreen_keys.rt,endpartnermatch_keys.keys,endpartnermatch_keys.rt,sharenextphoto_key.keys,sharenextphoto_key.rt,salience_rating,key_resp.keys,stress_level,subtract_bonus,TOTAL_TASK_BONUS,stresslevel_keypress.keys,entiretaskloop.thisRepN,entiretaskloop.thisTrialN,entiretaskloop.thisN,entiretaskloop.thisIndex,entiretaskloop.ran,TrialNumber,Partner,Condition,Photos,Feedback,FeedbackWait,WTP_ins_keys1.keys,WTP_ins_keys1.rt,WTP_ins_keys2.keys,WTP_ins_keys2.rt,responses.keys,WTPTaskLoop.thisRepN,WTPTaskLoop.thisTrialN,WTPTaskLoop.thisN,WTPTaskLoop.thisIndex,WTPTaskLoop.ran,right,left,leftmoney,rightmoney,WTP_ITI,social_left,decision_price,responses.rt,Resume_keys.keys,Resume_keys.rt,end_screen_keys.keys,end_screen_keys.rt
space,1.532,66f42a85953065aa4cc9d751,6685aa9113c938e83b4f1ea0,672cff813996c0838e5526fe,2024-11-07_12h00.52.154,WTP_SM_Choice,2022.2.1,MacIntel,119.9040767,,,,,,,,,,,,,,,,,,,,,,,,,,,,,,,,,,,,,,,,,,,,,
,,66f42a85953065aa4cc9d751,6685aa9113c938e83b4f1ea0,672cff813996c0838e5526fe,2024-11-07_12h00.52.154,WTP_SM_Choice,2022.2.1,MacIntel,119.9040767,space,5.041,,,,,,,,,,,,,,,,,,,,,,,,,,,,,,,,,,,,,,,,,,,
,,66f42a85953065aa4cc9d751,6685aa9113c938e83b4f1ea0,672cff813996c0838e5526fe,2024-11-07_12h00.52.154,WTP_SM_Choice,2022.2.1,MacIntel,119.9040767,,,space,1.612,space,1.149,NAN,,NAN,0,6,,0,0,0,0,1,1,Charlie,Acc,Participant_Images/66f42a85953065aa4cc9d751/66f42a85953065aa4cc9d751_Images/66f42a85953065aa4cc9d751_Image_7.jpeg,did not like,3.613205605,,,,,,,,,,,,,,,,,,,,,,
,,66f42a85953065aa4cc9d751,6685aa9113c938e83b4f1ea0,672cff813996c0838e5526fe,2024-11-07_12h00.52.154,WTP_SM_Choice,2022.2.1,MacIntel,119.9040767,,,,,space,1.58,NAN,,NAN,0,6,,0,1,1,1,1,2,Charlie,Acc,Participant_Images/66f42a85953065aa4cc9d751/66f42a85953065aa4cc9d751_Images/66f42a85953065aa4cc9d751_Image_1.jpeg,liked,4.988446431,,,,,,,,,,,,,,,,,,,,,,
,,66f42a85953065aa4cc9d751,6685aa9113c938e83b4f1ea0,672cff813996c0838e5526fe,2024-11-07_12h00.52.154,WTP_SM_Choice,2022.2.1,MacIntel,119.9040767,,,,,space,0.649,NAN,,NAN,0,6,,0,2,2,2,1,3,Charlie,Acc,Participant_Images/66f42a85953065aa4cc9d751/66f42a85953065aa4cc9d751_Images/66f42a85953065aa4cc9d751_Image_15.jpeg,liked,3.470791822,,,,,,,,,,,,,,,,,,,,,,
,,66f42a85953065aa4cc9d751,6685aa9113c938e83b4f1ea0,672cff813996c0838e5526fe,2024-11-07_12h00.52.154,WTP_SM_Choice,2022.2.1,MacIntel,119.9040767,,,,,space,0.79,NAN,,NAN,0,6,,0,3,3,3,1,4,Charlie,Acc,Participant_Images/66f42a85953065aa4cc9d751/66f42a85953065aa4cc9d751_Images/66f42a85953065aa4cc9d751_Image_21.jpeg,liked,3.820572462,,,,,,,,,,,,,,,,,,,,,,
,,66f42a85953065aa4cc9d751,6685aa9113c938e83b4f1ea0,672cff813996c0838e5526fe,2024-11-07_12h00.52.154,WTP_SM_Choice,2022.2.1,MacIntel,119.9040767,,,,,,,,,,,,,,,,,,1,,,,,,space,0.314,space,4.864,,0,0,0,0,1,Do prolific studies,Bake with my friends,0.01,0.01,4.4,1,,,,,,
,,66f42a85953065aa4cc9d751,6685aa9113c938e83b4f1ea0,672cff813996c0838e5526fe,2024-11-07_12h00.52.154,WTP_SM_Choice,2022.2.1,MacIntel,119.9040767,,,,,,,,,,,,,,,,,,2,,,,,,,,,,1,0,1,1,1,1,Bake with my friends,Browse the trader joes website,0.02,0.01,8.8,0,0.02,6.941,,,,
,,66f42a85953065aa4cc9d751,6685aa9113c938e83b4f1ea0,672cff813996c0838e5526fe,2024-11-07_12h00.52.154,WTP_SM_Choice,2022.2.1,MacIntel,119.9040767,,,,,,,,,,,,,,,,,,3,,,,,,,,,,1,0,2,2,2,1,Eat sweets,Do homework together with my boyfriend,0.03,0.01,3.3,1,0.03,1.188,,,,
,,66f42a85953065aa4cc9d751,6685aa9113c938e83b4f1ea0,672cff813996c0838e5526fe,2024-11-07_12h00.52.154,WTP_SM_Choice,2022.2.1,MacIntel,119.9040767,,,,,,,,,,,,,,,,,,4,,,,,,,,,,1,0,3,3,3,1,Knit in my bed,Call my sister on facetime,0.04,0.01,1.1,1,0.04,3.077,,,,
,,66f42a85953065aa4cc9d751,6685aa9113c938e83b4f1ea0,672cff813996c0838e5526fe,2024-11-07_12h00.52.154,WTP_SM_Choice,2022.2.1,MacIntel,119.9040767,,,,,,,,,,,,,,,,,,5,,,,,,,,,,1,0,4,4,4,1,Buy things for my friends,Fold my clothes,0.05,0.01,1.1,0,0.05,3.012,,,,
,,66f42a85953065aa4cc9d751,6685aa9113c938e83b4f1ea0,672cff813996c0838e5526fe,2024-11-07_12h00.52.154,WTP_SM_Choice,2022.2.1,MacIntel,119.9040767,,,,,,,NAN,,NAN,0.14,5.86,,0,4,4,4,1,5,Charlie,Acc,Participant_Images/66f42a85953065aa4cc9d751/66f42a85953065aa4cc9d751_Images/66f42a85953065aa4cc9d751_Image_17.jpeg,liked,2.455989137,,,,,,,,,,,,,,,,,,,,,,
,,66f42a85953065aa4cc9d751,6685aa9113c938e83b4f1ea0,672cff813996c0838e5526fe,2024-11-07_12h00.52.154,WTP_SM_Choice,2022.2.1,MacIntel,119.9040767,,,,,space,0.661,NAN,,NAN,0.14,5.86,,0,5,5,5,1,6,Charlie,Acc,Participant_Images/66f42a85953065aa4cc9d751/66f42a85953065aa4cc9d751_Images/66f42a85953065aa4cc9d751_Image_13.jpeg,liked,3.79605092,,,,,,,,,,,,,,,,,,,,,,
,,66f42a85953065aa4cc9d751,6685aa9113c938e83b4f1ea0,672cff813996c0838e5526fe,2024-11-07_12h00.52.154,WTP_SM_Choice,2022.2.1,MacIntel,119.9040767,,,,,space,0.551,NAN,,NAN,0.14,5.86,,0,6,6,6,1,7,Charlie,Acc,Participant_Images/66f42a85953065aa4cc9d751/66f42a85953065aa4cc9d751_Images/66f42a85953065aa4cc9d751_Image_11.jpeg,liked,3.562416326,,,,,,,,,,,,,,,,,,,,,,
,,66f42a85953065aa4cc9d751,6685aa9113c938e83b4f1ea0,672cff813996c0838e5526fe,2024-11-07_12h00.52.154,WTP_SM_Choice,2022.2.1,MacIntel,119.9040767,,,,,space,0.544,NAN,,NAN,0.14,5.86,,0,7,7,7,1,8,Charlie,Acc,Participant_Images/66f42a85953065aa4cc9d751/66f42a85953065aa4cc9d751_Images/66f42a85953065aa4cc9d751_Image_22.jpeg,did not like,2.843822497,,,,,,,,,,,,,,,,,,,,,,
,,66f42a85953065aa4cc9d751,6685aa9113c938e83b4f1ea0,672cff813996c0838e5526fe,2024-11-07_12h00.52.154,WTP_SM_Choice,2022.2.1,MacIntel,119.9040767,,,,,space,0.52,NAN,,NAN,0.14,5.86,,0,8,8,8,1,9,Charlie,Acc,Participant_Images/66f42a85953065aa4cc9d751/66f42a85953065aa4cc9d751_Images/66f42a85953065aa4cc9d751_Image_14.jpeg,liked,3.546495948,,,,,,,,,,,,,,,,,,,,,,
,,66f42a85953065aa4cc9d751,6685aa9113c938e83b4f1ea0,672cff813996c0838e5526fe,2024-11-07_12h00.52.154,WTP_SM_Choice,2022.2.1,MacIntel,119.9040767,,,,,,,,,,,,,,,,,,6,,,,,,space,3.504,space,0.056,1,0,0,0,0,1,Get food with my friends,Knit in my bed,0.01,0.02,3.3,0,0.01,6.054,,,,
,,66f42a85953065aa4cc9d751,6685aa9113c938e83b4f1ea0,672cff813996c0838e5526fe,2024-11-07_12h00.52.154,WTP_SM_Choice,2022.2.1,MacIntel,119.9040767,,,,,,,,,,,,,,,,,,7,,,,,,,,,,2,0,1,1,1,1,Flirt with my boyfriend,Browse reddit for meal plans,0.02,0.02,1.1,0,0.02,4.255,,,,
,,66f42a85953065aa4cc9d751,6685aa9113c938e83b4f1ea0,672cff813996c0838e5526fe,2024-11-07_12h00.52.154,WTP_SM_Choice,2022.2.1,MacIntel,119.9040767,,,,,,,,,,,,,,,,,,8,,,,,,,,,,2,0,2,2,2,1,Gossip with my friends,Do prolific studies,0.03,0.02,1.1,0,0.02,3.704,,,,
,,66f42a85953065aa4cc9d751,6685aa9113c938e83b4f1ea0,672cff813996c0838e5526fe,2024-11-07_12h00.52.154,WTP_SM_Choice,2022.2.1,MacIntel,119.9040767,,,,,,,,,,,,,,,,,,9,,,,,,,,,,2,0,3,3,3,1,Start a new paint project,Crochet with my friends,0.04,0.02,4.4,1,0.02,3.003,,,,
,,66f42a85953065aa4cc9d751,6685aa9113c938e83b4f1ea0,672cff813996c0838e5526fe,2024-11-07_12h00.52.154,WTP_SM_Choice,2022.2.1,MacIntel,119.9040767,,,,,,,,,,,,,,,,,,10,,,,,,,,,,2,0,4,4,4,1,Bake with my friends,Knit in my bed,0.05,0.02,1.1,0,0.02,2.691,,,,
,,66f42a85953065aa4cc9d751,6685aa9113c938e83b4f1ea0,672cff813996c0838e5526fe,2024-11-07_12h00.52.154,WTP_SM_Choice,2022.2.1,MacIntel,119.9040767,,,,,,,NAN,,NAN,0.23,5.77,,0,9,9,9,1,10,Charlie,Acc,Participant_Images/66f42a85953065aa4cc9d751/66f42a85953065aa4cc9d751_Images/66f42a85953065aa4cc9d751_Image_3.jpeg,liked,1.672012706,,,,,,,,,,,,,,,,,,,,,,
,,66f42a85953065aa4cc9d751,6685aa9113c938e83b4f1ea0,672cff813996c0838e5526fe,2024-11-07_12h00.52.154,WTP_SM_Choice,2022.2.1,MacIntel,119.9040767,,,,,space,0.811,NAN,,NAN,0.23,5.77,,0,10,10,10,1,11,Charlie,Acc,Participant_Images/66f42a85953065aa4cc9d751/66f42a85953065aa4cc9d751_Images/66f42a85953065aa4cc9d751_Image_23.jpeg,liked,4.942172136,,,,,,,,,,,,,,,,,,,,,,
,,66f42a85953065aa4cc9d751,6685aa9113c938e83b4f1ea0,672cff813996c0838e5526fe,2024-11-07_12h00.52.154,WTP_SM_Choice,2022.2.1,MacIntel,119.9040767,,,,,space,2.205,NAN,,NAN,0.23,5.77,,0,11,11,11,1,12,Charlie,Acc,Participant_Images/66f42a85953065aa4cc9d751/66f42a85953065aa4cc9d751_Images/66f42a85953065aa4cc9d751_Image_9.jpeg,did not like,2.50187214,,,,,,,,,,,,,,,,,,,,,,
,,66f42a85953065aa4cc9d751,6685aa9113c938e83b4f1ea0,672cff813996c0838e5526fe,2024-11-07_12h00.52.154,WTP_SM_Choice,2022.2.1,MacIntel,119.9040767,,,,,space,1.749,NAN,,NAN,0.23,5.77,,0,12,12,12,1,13,Charlie,Acc,Participant_Images/66f42a85953065aa4cc9d751/66f42a85953065aa4cc9d751_Images/66f42a85953065aa4cc9d751_Image_18.jpeg,liked,2.071164779,,,,,,,,,,,,,,,,,,,,,,
,,66f42a85953065aa4cc9d751,6685aa9113c938e83b4f1ea0,672cff813996c0838e5526fe,2024-11-07_12h00.52.154,WTP_SM_Choice,2022.2.1,MacIntel,119.9040767,,,,,space,0.873,NAN,,NAN,0.23,5.77,,0,13,13,13,1,14,Charlie,Acc,Participant_Images/66f42a85953065aa4cc9d751/66f42a85953065aa4cc9d751_Images/66f42a85953065aa4cc9d751_Image_20.jpeg,liked,5.336503566,,,,,,,,,,,,,,,,,,,,,,
,,66f42a85953065aa4cc9d751,6685aa9113c938e83b4f1ea0,672cff813996c0838e5526fe,2024-11-07_12h00.52.154,WTP_SM_Choice,2022.2.1,MacIntel,119.9040767,,,,,,,,,,,,,,,,,,11,,,,,,space,3.674,space,1.844,1,0,0,0,0,1,Browse reddit for meal plans,Chat with my friends on facetime,0.01,0.03,3.3,1,0.01,2.492,,,,
,,66f42a85953065aa4cc9d751,6685aa9113c938e83b4f1ea0,672cff813996c0838e5526fe,2024-11-07_12h00.52.154,WTP_SM_Choice,2022.2.1,MacIntel,119.9040767,,,,,,,,,,,,,,,,,,12,,,,,,,,,,1,0,1,1,1,1,Chat with my friends on facetime,Browse the trader joes website,0.02,0.03,4.4,0,0.02,2.564,,,,
,,66f42a85953065aa4cc9d751,6685aa9113c938e83b4f1ea0,672cff813996c0838e5526fe,2024-11-07_12h00.52.154,WTP_SM_Choice,2022.2.1,MacIntel,119.9040767,,,,,,,,,,,,,,,,,,13,,,,,,,,,,1,0,2,2,2,1,Sleep in my bed,Flirt with my boyfriend,0.03,0.03,1.1,1,0.03,1.88,,,,
,,66f42a85953065aa4cc9d751,6685aa9113c938e83b4f1ea0,672cff813996c0838e5526fe,2024-11-07_12h00.52.154,WTP_SM_Choice,2022.2.1,MacIntel,119.9040767,,,,,,,,,,,,,,,,,,14,,,,,,,,,,1,0,3,3,3,1,Fold my clothes,Cook with my friends,0.04,0.03,3.3,1,0.04,3.087,,,,
,,66f42a85953065aa4cc9d751,6685aa9113c938e83b4f1ea0,672cff813996c0838e5526fe,2024-11-07_12h00.52.154,WTP_SM_Choice,2022.2.1,MacIntel,119.9040767,,,,,,,,,,,,,,,,,,15,,,,,,,,,,2,0,4,4,4,1,Sleep in my bed,Cook with my friends,0.05,0.03,4.4,1,0.03,2.363,,,,
,,66f42a85953065aa4cc9d751,6685aa9113c938e83b4f1ea0,672cff813996c0838e5526fe,2024-11-07_12h00.52.154,WTP_SM_Choice,2022.2.1,MacIntel,119.9040767,,,,,,,NAN,,NAN,0.36,5.64,,0,14,14,14,1,15,Charlie,Acc,Participant_Images/66f42a85953065aa4cc9d751/66f42a85953065aa4cc9d751_Images/66f42a85953065aa4cc9d751_Image_25.jpeg,liked,2.642157193,,,,,,,,,,,,,,,,,,,,,,
,,66f42a85953065aa4cc9d751,6685aa9113c938e83b4f1ea0,672cff813996c0838e5526fe,2024-11-07_12h00.52.154,WTP_SM_Choice,2022.2.1,MacIntel,119.9040767,,,,,space,0.844,NAN,,NAN,0.36,5.64,,0,15,15,15,1,16,Charlie,Acc,Participant_Images/66f42a85953065aa4cc9d751/66f42a85953065aa4cc9d751_Images/66f42a85953065aa4cc9d751_Image_16.jpeg,did not like,4.456234322,,,,,,,,,,,,,,,,,,,,,,
,,66f42a85953065aa4cc9d751,6685aa9113c938e83b4f1ea0,672cff813996c0838e5526fe,2024-11-07_12h00.52.154,WTP_SM_Choice,2022.2.1,MacIntel,119.9040767,,,,,space,1.684,NAN,,NAN,0.36,5.64,,0,16,16,16,1,17,Charlie,Acc,Participant_Images/66f42a85953065aa4cc9d751/66f42a85953065aa4cc9d751_Images/66f42a85953065aa4cc9d751_Image_2.jpeg,liked,4.438512181,,,,,,,,,,,,,,,,,,,,,,
,,66f42a85953065aa4cc9d751,6685aa9113c938e83b4f1ea0,672cff813996c0838e5526fe,2024-11-07_12h00.52.154,WTP_SM_Choice,2022.2.1,MacIntel,119.9040767,,,,,space,0.972,NAN,,NAN,0.36,5.64,,0,17,17,17,1,18,Charlie,Acc,Participant_Images/66f42a85953065aa4cc9d751/66f42a85953065aa4cc9d751_Images/66f42a85953065aa4cc9d751_Image_5.jpeg,did not like,2.682944783,,,,,,,,,,,,,,,,,,,,,,
,,66f42a85953065aa4cc9d751,6685aa9113c938e83b4f1ea0,672cff813996c0838e5526fe,2024-11-07_12h00.52.154,WTP_SM_Choice,2022.2.1,MacIntel,119.9040767,,,,,space,0.521,NAN,,NAN,0.36,5.64,,0,18,18,18,1,19,Charlie,Acc,Participant_Images/66f42a85953065aa4cc9d751/66f42a85953065aa4cc9d751_Images/66f42a85953065aa4cc9d751_Image_6.jpeg,liked,4.51984296,,,,,,,,,,,,,,,,,,,,,,
,,66f42a85953065aa4cc9d751,6685aa9113c938e83b4f1ea0,672cff813996c0838e5526fe,2024-11-07_12h00.52.154,WTP_SM_Choice,2022.2.1,MacIntel,119.9040767,,,,,,,,,,,,,,,,,,16,,,,,,space,0.876,space,0.43,1,0,0,0,0,1,Cook with my friends,Knit in my bed,0.01,0.04,1.1,0,0.01,3.22,,,,
,,66f42a85953065aa4cc9d751,6685aa9113c938e83b4f1ea0,672cff813996c0838e5526fe,2024-11-07_12h00.52.154,WTP_SM_Choice,2022.2.1,MacIntel,119.9040767,,,,,,,,,,,,,,,,,,17,,,,,,,,,,2,0,1,1,1,1,Get food with my friends,Fold my clothes,0.02,0.04,8.8,0,0.04,3.029,,,,
,,66f42a85953065aa4cc9d751,6685aa9113c938e83b4f1ea0,672cff813996c0838e5526fe,2024-11-07_12h00.52.154,WTP_SM_Choice,2022.2.1,MacIntel,119.9040767,,,,,,,,,,,,,,,,,,18,,,,,,,,,,1,0,2,2,2,1,Watch pokemon nuzlocke videos,Get food with my friends,0.03,0.04,3.3,1,0.03,2.432,,,,
,,66f42a85953065aa4cc9d751,6685aa9113c938e83b4f1ea0,672cff813996c0838e5526fe,2024-11-07_12h00.52.154,WTP_SM_Choice,2022.2.1,MacIntel,119.9040767,,,,,,,,,,,,,,,,,,19,,,,,,,,,,1,0,3,3,3,1,Start a new paint project,Gossip with my friends,0.04,0.04,3.3,1,0.04,2.776,,,,
,,66f42a85953065aa4cc9d751,6685aa9113c938e83b4f1ea0,672cff813996c0838e5526fe,2024-11-07_12h00.52.154,WTP_SM_Choice,2022.2.1,MacIntel,119.9040767,,,,,,,,,,,,,,,,,,20,,,,,,,,,,2,0,4,4,4,1,Do homework together with my boyfriend,Watch pokemon nuzlocke videos,0.05,0.04,1.1,0,0.04,2.03,,,,
,,66f42a85953065aa4cc9d751,6685aa9113c938e83b4f1ea0,672cff813996c0838e5526fe,2024-11-07_12h00.52.154,WTP_SM_Choice,2022.2.1,MacIntel,119.9040767,,,,,,,NAN,,NAN,0.52,5.48,,0,19,19,19,1,20,Charlie,Acc,Participant_Images/66f42a85953065aa4cc9d751/66f42a85953065aa4cc9d751_Images/66f42a85953065aa4cc9d751_Image_24.jpeg,liked,3.195382774,,,,,,,,,,,,,,,,,,,,,,
,,66f42a85953065aa4cc9d751,6685aa9113c938e83b4f1ea0,672cff813996c0838e5526fe,2024-11-07_12h00.52.154,WTP_SM_Choice,2022.2.1,MacIntel,119.9040767,,,,,space,0.889,NAN,,NAN,0.52,5.48,,0,20,20,20,1,21,Charlie,Acc,Participant_Images/66f42a85953065aa4cc9d751/66f42a85953065aa4cc9d751_Images/66f42a85953065aa4cc9d751_Image_10.jpeg,liked,1.779333479,,,,,,,,,,,,,,,,,,,,,,
,,66f42a85953065aa4cc9d751,6685aa9113c938e83b4f1ea0,672cff813996c0838e5526fe,2024-11-07_12h00.52.154,WTP_SM_Choice,2022.2.1,MacIntel,119.9040767,,,,,space,0.668,NAN,,NAN,0.52,5.48,,0,21,21,21,1,22,Charlie,Acc,Participant_Images/66f42a85953065aa4cc9d751/66f42a85953065aa4cc9d751_Images/66f42a85953065aa4cc9d751_Image_19.jpeg,liked,4.312468682,,,,,,,,,,,,,,,,,,,,,,
,,66f42a85953065aa4cc9d751,6685aa9113c938e83b4f1ea0,672cff813996c0838e5526fe,2024-11-07_12h00.52.154,WTP_SM_Choice,2022.2.1,MacIntel,119.9040767,,,,,space,0.636,NAN,,NAN,0.52,5.48,,0,22,22,22,1,23,Charlie,Acc,Participant_Images/66f42a85953065aa4cc9d751/66f42a85953065aa4cc9d751_Images/66f42a85953065aa4cc9d751_Image_4.jpeg,liked,4.940433059,,,,,,,,,,,,,,,,,,,,,,
,,66f42a85953065aa4cc9d751,6685aa9113c938e83b4f1ea0,672cff813996c0838e5526fe,2024-11-07_12h00.52.154,WTP_SM_Choice,2022.2.1,MacIntel,119.9040767,,,,,space,0.936,NAN,,NAN,0.52,5.48,,0,23,23,23,1,24,Charlie,Acc,Participant_Images/66f42a85953065aa4cc9d751/66f42a85953065aa4cc9d751_Images/66f42a85953065aa4cc9d751_Image_12.jpeg,did not like,2.7105123,,,,,,,,,,,,,,,,,,,,,,
,,66f42a85953065aa4cc9d751,6685aa9113c938e83b4f1ea0,672cff813996c0838e5526fe,2024-11-07_12h00.52.154,WTP_SM_Choice,2022.2.1,MacIntel,119.9040767,,,,,,,,,,,,,,,,,,21,,,,,,space,0.926,space,1.759,1,0,0,0,0,1,Cook with my friends,Browse reddit for meal plans,0.01,0.05,8.8,0,0.01,1.863,,,,
,,66f42a85953065aa4cc9d751,6685aa9113c938e83b4f1ea0,672cff813996c0838e5526fe,2024-11-07_12h00.52.154,WTP_SM_Choice,2022.2.1,MacIntel,119.9040767,,,,,,,,,,,,,,,,,,22,,,,,,,,,,2,0,1,1,1,1,Flirt with my boyfriend,Eat sweets,0.02,0.05,4.4,0,0.05,2.928,,,,
,,66f42a85953065aa4cc9d751,6685aa9113c938e83b4f1ea0,672cff813996c0838e5526fe,2024-11-07_12h00.52.154,WTP_SM_Choice,2022.2.1,MacIntel,119.9040767,,,,,,,,,,,,,,,,,,23,,,,,,,,,,1,0,2,2,2,1,Bake with my friends,Sleep in my bed,0.03,0.05,1.1,0,0.03,3.035,,,,
,,66f42a85953065aa4cc9d751,6685aa9113c938e83b4f1ea0,672cff813996c0838e5526fe,2024-11-07_12h00.52.154,WTP_SM_Choice,2022.2.1,MacIntel,119.9040767,,,,,,,,,,,,,,,,,,24,,,,,,,,,,1,0,3,3,3,1,Browse the trader joes website,Cook with my friends,0.04,0.05,4.4,1,0.04,2.406,,,,
,,66f42a85953065aa4cc9d751,6685aa9113c938e83b4f1ea0,672cff813996c0838e5526fe,2024-11-07_12h00.52.154,WTP_SM_Choice,2022.2.1,MacIntel,119.9040767,,,,,,,,,,,,,,,,,,25,,,,,,,,,,2,0,4,4,4,1,Buy things for my friends,Eat sweets,0.05,0.05,3.3,0,0.05,3.448,,,,
,,66f42a85953065aa4cc9d751,6685aa9113c938e83b4f1ea0,672cff813996c0838e5526fe,2024-11-07_12h00.52.154,WTP_SM_Choice,2022.2.1,MacIntel,119.9040767,,,,,,,2,,7,0.7,5.3,,0,24,24,24,1,25,Charlie,Acc,Participant_Images/66f42a85953065aa4cc9d751/66f42a85953065aa4cc9d751_Images/66f42a85953065aa4cc9d751_Image_8.jpeg,did not like,3.602308302,,,,,,,,,,,,,,,,,,,space,1.021,,
,,66f42a85953065aa4cc9d751,6685aa9113c938e83b4f1ea0,672cff813996c0838e5526fe,2024-11-07_12h00.52.154,WTP_SM_Choice,2022.2.1,MacIntel,119.9040767,,,space,1.43,space,0.918,NAN,,NAN,0.7,5.3,,0,25,25,25,1,26,Sam,Acc,Participant_Images/66f42a85953065aa4cc9d751/66f42a85953065aa4cc9d751_Images/66f42a85953065aa4cc9d751_Image_1.jpeg,liked,4.106391878,,,,,,,,,,,,,,,,,,,,,,
,,66f42a85953065aa4cc9d751,6685aa9113c938e83b4f1ea0,672cff813996c0838e5526fe,2024-11-07_12h00.52.154,WTP_SM_Choice,2022.2.1,MacIntel,119.9040767,,,,,space,1.393,NAN,,NAN,0.7,5.3,,0,26,26,26,1,27,Sam,Acc,Participant_Images/66f42a85953065aa4cc9d751/66f42a85953065aa4cc9d751_Images/66f42a85953065aa4cc9d751_Image_24.jpeg,liked,3.799433026,,,,,,,,,,,,,,,,,,,,,,
,,66f42a85953065aa4cc9d751,6685aa9113c938e83b4f1ea0,672cff813996c0838e5526fe,2024-11-07_12h00.52.154,WTP_SM_Choice,2022.2.1,MacIntel,119.9040767,,,,,space,0.541,NAN,,NAN,0.7,5.3,,0,27,27,27,1,28,Sam,Acc,Participant_Images/66f42a85953065aa4cc9d751/66f42a85953065aa4cc9d751_Images/66f42a85953065aa4cc9d751_Image_20.jpeg,liked,5.246980764,,,,,,,,,,,,,,,,,,,,,,
,,66f42a85953065aa4cc9d751,6685aa9113c938e83b4f1ea0,672cff813996c0838e5526fe,2024-11-07_12h00.52.154,WTP_SM_Choice,2022.2.1,MacIntel,119.9040767,,,,,space,1.356,NAN,,NAN,0.7,5.3,,0,28,28,28,1,29,Sam,Acc,Participant_Images/66f42a85953065aa4cc9d751/66f42a85953065aa4cc9d751_Images/66f42a85953065aa4cc9d751_Image_19.jpeg,did not like,3.30081769,,,,,,,,,,,,,,,,,,,,,,
,,66f42a85953065aa4cc9d751,6685aa9113c938e83b4f1ea0,672cff813996c0838e5526fe,2024-11-07_12h00.52.154,WTP_SM_Choice,2022.2.1,MacIntel,119.9040767,,,,,,,,,,,,,,,,,,26,,,,,,space,1.209,space,0.619,1,0,0,0,0,1,Eat sweets,Chat with my friends on facetime,0.01,0.01,4.4,1,0.01,2.306,,,,
,,66f42a85953065aa4cc9d751,6685aa9113c938e83b4f1ea0,672cff813996c0838e5526fe,2024-11-07_12h00.52.154,WTP_SM_Choice,2022.2.1,MacIntel,119.9040767,,,,,,,,,,,,,,,,,,27,,,,,,,,,,2,0,1,1,1,1,Gossip with my friends,Eat sweets,0.02,0.01,3.3,0,0.01,5.489,,,,
,,66f42a85953065aa4cc9d751,6685aa9113c938e83b4f1ea0,672cff813996c0838e5526fe,2024-11-07_12h00.52.154,WTP_SM_Choice,2022.2.1,MacIntel,119.9040767,,,,,,,,,,,,,,,,,,28,,,,,,,,,,2,0,2,2,2,1,Do homework together with my boyfriend,Sleep in my bed,0.03,0.01,3.3,0,0.01,2.041,,,,
,,66f42a85953065aa4cc9d751,6685aa9113c938e83b4f1ea0,672cff813996c0838e5526fe,2024-11-07_12h00.52.154,WTP_SM_Choice,2022.2.1,MacIntel,119.9040767,,,,,,,,,,,,,,,,,,29,,,,,,,,,,2,0,3,3,3,1,Flirt with my boyfriend,Start a new paint project,0.04,0.01,4.4,0,0.01,1.541,,,,
,,66f42a85953065aa4cc9d751,6685aa9113c938e83b4f1ea0,672cff813996c0838e5526fe,2024-11-07_12h00.52.154,WTP_SM_Choice,2022.2.1,MacIntel,119.9040767,,,,,,,,,,,,,,,,,,30,,,,,,,,,,2,0,4,4,4,1,Bake with my friends,Browse reddit for meal plans,0.05,0.01,8.8,0,0.01,2.513,,,,
,,66f42a85953065aa4cc9d751,6685aa9113c938e83b4f1ea0,672cff813996c0838e5526fe,2024-11-07_12h00.52.154,WTP_SM_Choice,2022.2.1,MacIntel,119.9040767,,,,,,,NAN,,NAN,0.75,5.25,,0,29,29,29,1,30,Sam,Acc,Participant_Images/66f42a85953065aa4cc9d751/66f42a85953065aa4cc9d751_Images/66f42a85953065aa4cc9d751_Image_16.jpeg,liked,1.661473164,,,,,,,,,,,,,,,,,,,,,,
,,66f42a85953065aa4cc9d751,6685aa9113c938e83b4f1ea0,672cff813996c0838e5526fe,2024-11-07_12h00.52.154,WTP_SM_Choice,2022.2.1,MacIntel,119.9040767,,,,,space,0.943,NAN,,NAN,0.75,5.25,,0,30,30,30,1,31,Sam,Acc,Participant_Images/66f42a85953065aa4cc9d751/66f42a85953065aa4cc9d751_Images/66f42a85953065aa4cc9d751_Image_15.jpeg,liked,3.613205605,,,,,,,,,,,,,,,,,,,,,,
,,66f42a85953065aa4cc9d751,6685aa9113c938e83b4f1ea0,672cff813996c0838e5526fe,2024-11-07_12h00.52.154,WTP_SM_Choice,2022.2.1,MacIntel,119.9040767,,,,,space,0.951,NAN,,NAN,0.75,5.25,,0,31,31,31,1,32,Sam,Acc,Participant_Images/66f42a85953065aa4cc9d751/66f42a85953065aa4cc9d751_Images/66f42a85953065aa4cc9d751_Image_10.jpeg,liked,4.988446431,,,,,,,,,,,,,,,,,,,,,,
,,66f42a85953065aa4cc9d751,6685aa9113c938e83b4f1ea0,672cff813996c0838e5526fe,2024-11-07_12h00.52.154,WTP_SM_Choice,2022.2.1,MacIntel,119.9040767,,,,,space,0.467,NAN,,NAN,0.75,5.25,,0,32,32,32,1,33,Sam,Acc,Participant_Images/66f42a85953065aa4cc9d751/66f42a85953065aa4cc9d751_Images/66f42a85953065aa4cc9d751_Image_9.jpeg,liked,3.470791822,,,,,,,,,,,,,,,,,,,,,,
,,66f42a85953065aa4cc9d751,6685aa9113c938e83b4f1ea0,672cff813996c0838e5526fe,2024-11-07_12h00.52.154,WTP_SM_Choice,2022.2.1,MacIntel,119.9040767,,,,,space,0.981,NAN,,NAN,0.75,5.25,,0,33,33,33,1,34,Sam,Acc,Participant_Images/66f42a85953065aa4cc9d751/66f42a85953065aa4cc9d751_Images/66f42a85953065aa4cc9d751_Image_21.jpeg,did not like,3.820572462,,,,,,,,,,,,,,,,,,,,,,
,,66f42a85953065aa4cc9d751,6685aa9113c938e83b4f1ea0,672cff813996c0838e5526fe,2024-11-07_12h00.52.154,WTP_SM_Choice,2022.2.1,MacIntel,119.9040767,,,,,,,,,,,,,,,,,,31,,,,,,space,1.138,space,1.009,2,0,0,0,0,1,Crochet with my friends,Watch pokemon nuzlocke videos,0.01,0.02,8.8,0,0.02,3.251,,,,
,,66f42a85953065aa4cc9d751,6685aa9113c938e83b4f1ea0,672cff813996c0838e5526fe,2024-11-07_12h00.52.154,WTP_SM_Choice,2022.2.1,MacIntel,119.9040767,,,,,,,,,,,,,,,,,,32,,,,,,,,,,1,0,1,1,1,1,Crochet with my friends,Browse reddit for meal plans,0.02,0.02,1.1,0,0.02,1.849,,,,
,,66f42a85953065aa4cc9d751,6685aa9113c938e83b4f1ea0,672cff813996c0838e5526fe,2024-11-07_12h00.52.154,WTP_SM_Choice,2022.2.1,MacIntel,119.9040767,,,,,,,,,,,,,,,,,,33,,,,,,,,,,2,0,2,2,2,1,Call my sister on facetime,Eat sweets,0.03,0.02,4.4,0,0.02,1.516,,,,
,,66f42a85953065aa4cc9d751,6685aa9113c938e83b4f1ea0,672cff813996c0838e5526fe,2024-11-07_12h00.52.154,WTP_SM_Choice,2022.2.1,MacIntel,119.9040767,,,,,,,,,,,,,,,,,,34,,,,,,,,,,1,0,3,3,3,1,Fold my clothes,Chat with my friends on facetime,0.04,0.02,3.3,1,0.04,2.995,,,,
,,66f42a85953065aa4cc9d751,6685aa9113c938e83b4f1ea0,672cff813996c0838e5526fe,2024-11-07_12h00.52.154,WTP_SM_Choice,2022.2.1,MacIntel,119.9040767,,,,,,,,,,,,,,,,,,35,,,,,,,,,,1,0,4,4,4,1,Do prolific studies,Do homework together with my boyfriend,0.05,0.02,1.1,1,0.05,2.603,,,,
,,66f42a85953065aa4cc9d751,6685aa9113c938e83b4f1ea0,672cff813996c0838e5526fe,2024-11-07_12h00.52.154,WTP_SM_Choice,2022.2.1,MacIntel,119.9040767,,,,,,,NAN,,NAN,0.9,5.1,,0,34,34,34,1,35,Sam,Acc,Participant_Images/66f42a85953065aa4cc9d751/66f42a85953065aa4cc9d751_Images/66f42a85953065aa4cc9d751_Image_5.jpeg,liked,2.455989137,,,,,,,,,,,,,,,,,,,,,,
,,66f42a85953065aa4cc9d751,6685aa9113c938e83b4f1ea0,672cff813996c0838e5526fe,2024-11-07_12h00.52.154,WTP_SM_Choice,2022.2.1,MacIntel,119.9040767,,,,,space,1.227,NAN,,NAN,0.9,5.1,,0,35,35,35,1,36,Sam,Acc,Participant_Images/66f42a85953065aa4cc9d751/66f42a85953065aa4cc9d751_Images/66f42a85953065aa4cc9d751_Image_13.jpeg,did not like,3.79605092,,,,,,,,,,,,,,,,,,,,,,
,,66f42a85953065aa4cc9d751,6685aa9113c938e83b4f1ea0,672cff813996c0838e5526fe,2024-11-07_12h00.52.154,WTP_SM_Choice,2022.2.1,MacIntel,119.9040767,,,,,space,0.892,NAN,,NAN,0.9,5.1,,0,36,36,36,1,37,Sam,Acc,Participant_Images/66f42a85953065aa4cc9d751/66f42a85953065aa4cc9d751_Images/66f42a85953065aa4cc9d751_Image_14.jpeg,liked,3.562416326,,,,,,,,,,,,,,,,,,,,,,
,,66f42a85953065aa4cc9d751,6685aa9113c938e83b4f1ea0,672cff813996c0838e5526fe,2024-11-07_12h00.52.154,WTP_SM_Choice,2022.2.1,MacIntel,119.9040767,,,,,space,0.944,NAN,,NAN,0.9,5.1,,0,37,37,37,1,38,Sam,Acc,Participant_Images/66f42a85953065aa4cc9d751/66f42a85953065aa4cc9d751_Images/66f42a85953065aa4cc9d751_Image_11.jpeg,liked,2.843822497,,,,,,,,,,,,,,,,,,,,,,
,,66f42a85953065aa4cc9d751,6685aa9113c938e83b4f1ea0,672cff813996c0838e5526fe,2024-11-07_12h00.52.154,WTP_SM_Choice,2022.2.1,MacIntel,119.9040767,,,,,space,0.85,NAN,,NAN,0.9,5.1,,0,38,38,38,1,39,Sam,Acc,Participant_Images/66f42a85953065aa4cc9d751/66f42a85953065aa4cc9d751_Images/66f42a85953065aa4cc9d751_Image_18.jpeg,did not like,3.546495948,,,,,,,,,,,,,,,,,,,,,,
,,66f42a85953065aa4cc9d751,6685aa9113c938e83b4f1ea0,672cff813996c0838e5526fe,2024-11-07_12h00.52.154,WTP_SM_Choice,2022.2.1,MacIntel,119.9040767,,,,,,,,,,,,,,,,,,36,,,,,,space,0.484,space,0.391,2,0,0,0,0,1,Gossip with my friends,Watch pokemon nuzlocke videos,0.01,0.03,3.3,0,0.03,1.888,,,,
,,66f42a85953065aa4cc9d751,6685aa9113c938e83b4f1ea0,672cff813996c0838e5526fe,2024-11-07_12h00.52.154,WTP_SM_Choice,2022.2.1,MacIntel,119.9040767,,,,,,,,,,,,,,,,,,37,,,,,,,,,,1,0,1,1,1,1,Browse the trader joes website,Get food with my friends,0.02,0.03,1.1,1,0.02,1.964,,,,
,,66f42a85953065aa4cc9d751,6685aa9113c938e83b4f1ea0,672cff813996c0838e5526fe,2024-11-07_12h00.52.154,WTP_SM_Choice,2022.2.1,MacIntel,119.9040767,,,,,,,,,,,,,,,,,,38,,,,,,,,,,1,0,2,2,2,1,Knit in my bed,Chat with my friends on facetime,0.03,0.03,1.1,1,0.03,2.481,,,,
,,66f42a85953065aa4cc9d751,6685aa9113c938e83b4f1ea0,672cff813996c0838e5526fe,2024-11-07_12h00.52.154,WTP_SM_Choice,2022.2.1,MacIntel,119.9040767,,,,,,,,,,,,,,,,,,39,,,,,,,,,,1,0,3,3,3,1,Crochet with my friends,Sleep in my bed,0.04,0.03,3.3,0,0.04,2.485,,,,
,,66f42a85953065aa4cc9d751,6685aa9113c938e83b4f1ea0,672cff813996c0838e5526fe,2024-11-07_12h00.52.154,WTP_SM_Choice,2022.2.1,MacIntel,119.9040767,,,,,,,,,,,,,,,,,,40,,,,,,,,,,2,0,4,4,4,1,Knit in my bed,Gossip with my friends,0.05,0.03,4.4,1,0.03,2.477,,,,
,,66f42a85953065aa4cc9d751,6685aa9113c938e83b4f1ea0,672cff813996c0838e5526fe,2024-11-07_12h00.52.154,WTP_SM_Choice,2022.2.1,MacIntel,119.9040767,,,,,,,NAN,,NAN,1.05,4.95,,0,39,39,39,1,40,Sam,Acc,Participant_Images/66f42a85953065aa4cc9d751/66f42a85953065aa4cc9d751_Images/66f42a85953065aa4cc9d751_Image_12.jpeg,liked,1.672012706,,,,,,,,,,,,,,,,,,,,,,
,,66f42a85953065aa4cc9d751,6685aa9113c938e83b4f1ea0,672cff813996c0838e5526fe,2024-11-07_12h00.52.154,WTP_SM_Choice,2022.2.1,MacIntel,119.9040767,,,,,space,1.031,NAN,,NAN,1.05,4.95,,0,40,40,40,1,41,Sam,Acc,Participant_Images/66f42a85953065aa4cc9d751/66f42a85953065aa4cc9d751_Images/66f42a85953065aa4cc9d751_Image_22.jpeg,liked,4.942172136,,,,,,,,,,,,,,,,,,,,,,
,,66f42a85953065aa4cc9d751,6685aa9113c938e83b4f1ea0,672cff813996c0838e5526fe,2024-11-07_12h00.52.154,WTP_SM_Choice,2022.2.1,MacIntel,119.9040767,,,,,space,0.952,NAN,,NAN,1.05,4.95,,0,41,41,41,1,42,Sam,Acc,Participant_Images/66f42a85953065aa4cc9d751/66f42a85953065aa4cc9d751_Images/66f42a85953065aa4cc9d751_Image_4.jpeg,did not like,2.50187214,,,,,,,,,,,,,,,,,,,,,,
,,66f42a85953065aa4cc9d751,6685aa9113c938e83b4f1ea0,672cff813996c0838e5526fe,2024-11-07_12h00.52.154,WTP_SM_Choice,2022.2.1,MacIntel,119.9040767,,,,,space,1.792,NAN,,NAN,1.05,4.95,,0,42,42,42,1,43,Sam,Acc,Participant_Images/66f42a85953065aa4cc9d751/66f42a85953065aa4cc9d751_Images/66f42a85953065aa4cc9d751_Image_7.jpeg,liked,2.071164779,,,,,,,,,,,,,,,,,,,,,,
,,66f42a85953065aa4cc9d751,6685aa9113c938e83b4f1ea0,672cff813996c0838e5526fe,2024-11-07_12h00.52.154,WTP_SM_Choice,2022.2.1,MacIntel,119.9040767,,,,,space,0.675,NAN,,NAN,1.05,4.95,,0,43,43,43,1,44,Sam,Acc,Participant_Images/66f42a85953065aa4cc9d751/66f42a85953065aa4cc9d751_Images/66f42a85953065aa4cc9d751_Image_23.jpeg,liked,5.336503566,,,,,,,,,,,,,,,,,,,,,,
,,66f42a85953065aa4cc9d751,6685aa9113c938e83b4f1ea0,672cff813996c0838e5526fe,2024-11-07_12h00.52.154,WTP_SM_Choice,2022.2.1,MacIntel,119.9040767,,,,,,,,,,,,,,,,,,41,,,,,,space,1.237,space,0.983,2,0,0,0,0,1,Flirt with my boyfriend,Crochet in my bed,0.01,0.04,1.1,0,0.04,1.958,,,,
,,66f42a85953065aa4cc9d751,6685aa9113c938e83b4f1ea0,672cff813996c0838e5526fe,2024-11-07_12h00.52.154,WTP_SM_Choice,2022.2.1,MacIntel,119.9040767,,,,,,,,,,,,,,,,,,42,,,,,,,,,,1,0,1,1,1,1,Browse reddit for meal plans,Get food with my friends,0.02,0.04,3.3,1,0.02,2.299,,,,
,,66f42a85953065aa4cc9d751,6685aa9113c938e83b4f1ea0,672cff813996c0838e5526fe,2024-11-07_12h00.52.154,WTP_SM_Choice,2022.2.1,MacIntel,119.9040767,,,,,,,,,,,,,,,,,,43,,,,,,,,,,1,0,2,2,2,1,Knit in my bed,Do homework together with my boyfriend,0.03,0.04,1.1,1,0.03,2.655,,,,
,,66f42a85953065aa4cc9d751,6685aa9113c938e83b4f1ea0,672cff813996c0838e5526fe,2024-11-07_12h00.52.154,WTP_SM_Choice,2022.2.1,MacIntel,119.9040767,,,,,,,,,,,,,,,,,,44,,,,,,,,,,1,0,3,3,3,1,Watch pokemon nuzlocke videos,Flirt with my boyfriend,0.04,0.04,1.1,1,0.04,2.656,,,,
,,66f42a85953065aa4cc9d751,6685aa9113c938e83b4f1ea0,672cff813996c0838e5526fe,2024-11-07_12h00.52.154,WTP_SM_Choice,2022.2.1,MacIntel,119.9040767,,,,,,,,,,,,,,,,,,45,,,,,,,,,,2,0,4,4,4,1,Call my sister on facetime,Watch pokemon nuzlocke videos,0.05,0.04,4.4,0,0.04,2.521,,,,
,,66f42a85953065aa4cc9d751,6685aa9113c938e83b4f1ea0,672cff813996c0838e5526fe,2024-11-07_12h00.52.154,WTP_SM_Choice,2022.2.1,MacIntel,119.9040767,,,,,,,NAN,,NAN,1.22,4.78,,0,44,44,44,1,45,Sam,Acc,Participant_Images/66f42a85953065aa4cc9d751/66f42a85953065aa4cc9d751_Images/66f42a85953065aa4cc9d751_Image_6.jpeg,liked,2.642157193,,,,,,,,,,,,,,,,,,,,,,
,,66f42a85953065aa4cc9d751,6685aa9113c938e83b4f1ea0,672cff813996c0838e5526fe,2024-11-07_12h00.52.154,WTP_SM_Choice,2022.2.1,MacIntel,119.9040767,,,,,space,1.169,NAN,,NAN,1.22,4.78,,0,45,45,45,1,46,Sam,Acc,Participant_Images/66f42a85953065aa4cc9d751/66f42a85953065aa4cc9d751_Images/66f42a85953065aa4cc9d751_Image_3.jpeg,did not like,4.456234322,,,,,,,,,,,,,,,,,,,,,,
,,66f42a85953065aa4cc9d751,6685aa9113c938e83b4f1ea0,672cff813996c0838e5526fe,2024-11-07_12h00.52.154,WTP_SM_Choice,2022.2.1,MacIntel,119.9040767,,,,,space,1.541,NAN,,NAN,1.22,4.78,,0,46,46,46,1,47,Sam,Acc,Participant_Images/66f42a85953065aa4cc9d751/66f42a85953065aa4cc9d751_Images/66f42a85953065aa4cc9d751_Image_25.jpeg,liked,4.438512181,,,,,,,,,,,,,,,,,,,,,,
,,66f42a85953065aa4cc9d751,6685aa9113c938e83b4f1ea0,672cff813996c0838e5526fe,2024-11-07_12h00.52.154,WTP_SM_Choice,2022.2.1,MacIntel,119.9040767,,,,,space,3.202,NAN,,NAN,1.22,4.78,,0,47,47,47,1,48,Sam,Acc,Participant_Images/66f42a85953065aa4cc9d751/66f42a85953065aa4cc9d751_Images/66f42a85953065aa4cc9d751_Image_8.jpeg,did not like,2.682944783,,,,,,,,,,,,,,,,,,,,,,
,,66f42a85953065aa4cc9d751,6685aa9113c938e83b4f1ea0,672cff813996c0838e5526fe,2024-11-07_12h00.52.154,WTP_SM_Choice,2022.2.1,MacIntel,119.9040767,,,,,space,0.665,NAN,,NAN,1.22,4.78,,0,48,48,48,1,49,Sam,Acc,Participant_Images/66f42a85953065aa4cc9d751/66f42a85953065aa4cc9d751_Images/66f42a85953065aa4cc9d751_Image_17.jpeg,liked,4.51984296,,,,,,,,,,,,,,,,,,,,,,
,,66f42a85953065aa4cc9d751,6685aa9113c938e83b4f1ea0,672cff813996c0838e5526fe,2024-11-07_12h00.52.154,WTP_SM_Choice,2022.2.1,MacIntel,119.9040767,,,,,,,,,,,,,,,,,,46,,,,,,space,2.115,space,1.001,1,0,0,0,0,1,Sleep in my bed,Buy things for my friends,0.01,0.05,8.8,1,0.01,2.687,,,,
,,66f42a85953065aa4cc9d751,6685aa9113c938e83b4f1ea0,672cff813996c0838e5526fe,2024-11-07_12h00.52.154,WTP_SM_Choice,2022.2.1,MacIntel,119.9040767,,,,,,,,,,,,,,,,,,47,,,,,,,,,,2,0,1,1,1,1,Chat with my friends on facetime,Do prolific studies,0.02,0.05,1.1,0,0.05,2.967,,,,
,,66f42a85953065aa4cc9d751,6685aa9113c938e83b4f1ea0,672cff813996c0838e5526fe,2024-11-07_12h00.52.154,WTP_SM_Choice,2022.2.1,MacIntel,119.9040767,,,,,,,,,,,,,,,,,,48,,,,,,,,,,1,0,2,2,2,1,Bake with my friends,Crochet in my bed,0.03,0.05,4.4,0,0.03,2.805,,,,
,,66f42a85953065aa4cc9d751,6685aa9113c938e83b4f1ea0,672cff813996c0838e5526fe,2024-11-07_12h00.52.154,WTP_SM_Choice,2022.2.1,MacIntel,119.9040767,,,,,,,,,,,,,,,,,,49,,,,,,,,,,1,0,3,3,3,1,Sleep in my bed,Chat with my friends on facetime,0.04,0.05,3.3,1,0.04,1.89,,,,
,,66f42a85953065aa4cc9d751,6685aa9113c938e83b4f1ea0,672cff813996c0838e5526fe,2024-11-07_12h00.52.154,WTP_SM_Choice,2022.2.1,MacIntel,119.9040767,,,,,,,,,,,,,,,,,,50,,,,,,,,,,1,0,4,4,4,1,Watch pokemon nuzlocke videos,Chat with my friends on facetime,0.05,0.05,1.1,1,0.05,2.037,,,,
,,66f42a85953065aa4cc9d751,6685aa9113c938e83b4f1ea0,672cff813996c0838e5526fe,2024-11-07_12h00.52.154,WTP_SM_Choice,2022.2.1,MacIntel,119.9040767,,,,,,,2,,7,1.4,4.6,,0,49,49,49,1,50,Sam,Acc,Participant_Images/66f42a85953065aa4cc9d751/66f42a85953065aa4cc9d751_Images/66f42a85953065aa4cc9d751_Image_2.jpeg,liked,3.195382774,,,,,,,,,,,,,,,,,,,space,1.138,,
,,66f42a85953065aa4cc9d751,6685aa9113c938e83b4f1ea0,672cff813996c0838e5526fe,2024-11-07_12h00.52.154,WTP_SM_Choice,2022.2.1,MacIntel,119.9040767,,,space,1.164,space,1.731,NAN,,NAN,1.4,4.6,,0,50,50,50,1,51,Riley,Rej,Participant_Images/66f42a85953065aa4cc9d751/66f42a85953065aa4cc9d751_Images/66f42a85953065aa4cc9d751_Image_18.jpeg,liked,1.779333479,,,,,,,,,,,,,,,,,,,,,,
,,66f42a85953065aa4cc9d751,6685aa9113c938e83b4f1ea0,672cff813996c0838e5526fe,2024-11-07_12h00.52.154,WTP_SM_Choice,2022.2.1,MacIntel,119.9040767,,,,,space,1.334,NAN,,NAN,1.4,4.6,,0,51,51,51,1,52,Riley,Rej,Participant_Images/66f42a85953065aa4cc9d751/66f42a85953065aa4cc9d751_Images/66f42a85953065aa4cc9d751_Image_20.jpeg,did not like,4.312468682,,,,,,,,,,,,,,,,,,,,,,
,,66f42a85953065aa4cc9d751,6685aa9113c938e83b4f1ea0,672cff813996c0838e5526fe,2024-11-07_12h00.52.154,WTP_SM_Choice,2022.2.1,MacIntel,119.9040767,,,,,space,0.926,NAN,,NAN,1.4,4.6,,0,52,52,52,1,53,Riley,Rej,Participant_Images/66f42a85953065aa4cc9d751/66f42a85953065aa4cc9d751_Images/66f42a85953065aa4cc9d751_Image_24.jpeg,did not like,4.940433059,,,,,,,,,,,,,,,,,,,,,,
,,66f42a85953065aa4cc9d751,6685aa9113c938e83b4f1ea0,672cff813996c0838e5526fe,2024-11-07_12h00.52.154,WTP_SM_Choice,2022.2.1,MacIntel,119.9040767,,,,,space,0.413,NAN,,NAN,1.4,4.6,,0,53,53,53,1,54,Riley,Rej,Participant_Images/66f42a85953065aa4cc9d751/66f42a85953065aa4cc9d751_Images/66f42a85953065aa4cc9d751_Image_16.jpeg,did not like,2.7105123,,,,,,,,,,,,,,,,,,,,,,
,,66f42a85953065aa4cc9d751,6685aa9113c938e83b4f1ea0,672cff813996c0838e5526fe,2024-11-07_12h00.52.154,WTP_SM_Choice,2022.2.1,MacIntel,119.9040767,,,,,,,,,,,,,,,,,,51,,,,,,space,1.069,space,0.492,1,0,0,0,0,1,Browse reddit for meal plans,Gossip with my friends,0.01,0.01,1.1,1,0.01,2.075,,,,
,,66f42a85953065aa4cc9d751,6685aa9113c938e83b4f1ea0,672cff813996c0838e5526fe,2024-11-07_12h00.52.154,WTP_SM_Choice,2022.2.1,MacIntel,119.9040767,,,,,,,,,,,,,,,,,,52,,,,,,,,,,1,0,1,1,1,1,Crochet in my bed,Chat with my friends on facetime,0.02,0.01,3.3,1,0.02,1.854,,,,
,,66f42a85953065aa4cc9d751,6685aa9113c938e83b4f1ea0,672cff813996c0838e5526fe,2024-11-07_12h00.52.154,WTP_SM_Choice,2022.2.1,MacIntel,119.9040767,,,,,,,,,,,,,,,,,,53,,,,,,,,,,1,0,2,2,2,1,Crochet in my bed,Call my sister on facetime,0.03,0.01,1.1,1,0.03,1.979,,,,
,,66f42a85953065aa4cc9d751,6685aa9113c938e83b4f1ea0,672cff813996c0838e5526fe,2024-11-07_12h00.52.154,WTP_SM_Choice,2022.2.1,MacIntel,119.9040767,,,,,,,,,,,,,,,,,,54,,,,,,,,,,2,0,3,3,3,1,Call my sister on facetime,Browse the trader joes website,0.04,0.01,4.4,0,0.01,2.285,,,,
,,66f42a85953065aa4cc9d751,6685aa9113c938e83b4f1ea0,672cff813996c0838e5526fe,2024-11-07_12h00.52.154,WTP_SM_Choice,2022.2.1,MacIntel,119.9040767,,,,,,,,,,,,,,,,,,55,,,,,,,,,,2,0,4,4,4,1,Buy things for my friends,Watch pokemon nuzlocke videos,0.05,0.01,1.1,0,0.01,2.022,,,,
,,66f42a85953065aa4cc9d751,6685aa9113c938e83b4f1ea0,672cff813996c0838e5526fe,2024-11-07_12h00.52.154,WTP_SM_Choice,2022.2.1,MacIntel,119.9040767,,,,,,,NAN,,NAN,1.48,4.52,,0,54,54,54,1,55,Riley,Rej,Participant_Images/66f42a85953065aa4cc9d751/66f42a85953065aa4cc9d751_Images/66f42a85953065aa4cc9d751_Image_15.jpeg,liked,3.602308302,,,,,,,,,,,,,,,,,,,,,,
,,66f42a85953065aa4cc9d751,6685aa9113c938e83b4f1ea0,672cff813996c0838e5526fe,2024-11-07_12h00.52.154,WTP_SM_Choice,2022.2.1,MacIntel,119.9040767,,,,,space,0.988,NAN,,NAN,1.48,4.52,,0,55,55,55,1,56,Riley,Rej,Participant_Images/66f42a85953065aa4cc9d751/66f42a85953065aa4cc9d751_Images/66f42a85953065aa4cc9d751_Image_14.jpeg,did not like,4.106391878,,,,,,,,,,,,,,,,,,,,,,
,,66f42a85953065aa4cc9d751,6685aa9113c938e83b4f1ea0,672cff813996c0838e5526fe,2024-11-07_12h00.52.154,WTP_SM_Choice,2022.2.1,MacIntel,119.9040767,,,,,space,0.491,NAN,,NAN,1.48,4.52,,0,56,56,56,1,57,Riley,Rej,Participant_Images/66f42a85953065aa4cc9d751/66f42a85953065aa4cc9d751_Images/66f42a85953065aa4cc9d751_Image_3.jpeg,liked,3.799433026,,,,,,,,,,,,,,,,,,,,,,
,,66f42a85953065aa4cc9d751,6685aa9113c938e83b4f1ea0,672cff813996c0838e5526fe,2024-11-07_12h00.52.154,WTP_SM_Choice,2022.2.1,MacIntel,119.9040767,,,,,space,0.792,NAN,,NAN,1.48,4.52,,0,57,57,57,1,58,Riley,Rej,Participant_Images/66f42a85953065aa4cc9d751/66f42a85953065aa4cc9d751_Images/66f42a85953065aa4cc9d751_Image_4.jpeg,did not like,5.246980764,,,,,,,,,,,,,,,,,,,,,,
,,66f42a85953065aa4cc9d751,6685aa9113c938e83b4f1ea0,672cff813996c0838e5526fe,2024-11-07_12h00.52.154,WTP_SM_Choice,2022.2.1,MacIntel,119.9040767,,,,,space,0.459,NAN,,NAN,1.48,4.52,,0,58,58,58,1,59,Riley,Rej,Participant_Images/66f42a85953065aa4cc9d751/66f42a85953065aa4cc9d751_Images/66f42a85953065aa4cc9d751_Image_6.jpeg,liked,3.30081769,,,,,,,,,,,,,,,,,,,,,,
,,66f42a85953065aa4cc9d751,6685aa9113c938e83b4f1ea0,672cff813996c0838e5526fe,2024-11-07_12h00.52.154,WTP_SM_Choice,2022.2.1,MacIntel,119.9040767,,,,,,,,,,,,,,,,,,56,,,,,,space,0.741,space,0.366,2,0,0,0,0,1,Call my sister on facetime,Start a new paint project,0.01,0.02,8.8,0,0.02,1.627,,,,
,,66f42a85953065aa4cc9d751,6685aa9113c938e83b4f1ea0,672cff813996c0838e5526fe,2024-11-07_12h00.52.154,WTP_SM_Choice,2022.2.1,MacIntel,119.9040767,,,,,,,,,,,,,,,,,,57,,,,,,,,,,1,0,1,1,1,1,Do prolific studies,Call my sister on facetime,0.02,0.02,4.4,1,0.02,2.061,,,,
,,66f42a85953065aa4cc9d751,6685aa9113c938e83b4f1ea0,672cff813996c0838e5526fe,2024-11-07_12h00.52.154,WTP_SM_Choice,2022.2.1,MacIntel,119.9040767,,,,,,,,,,,,,,,,,,58,,,,,,,,,,2,0,2,2,2,1,Gossip with my friends,Browse the trader joes website,0.03,0.02,4.4,0,0.02,1.647,,,,
,,66f42a85953065aa4cc9d751,6685aa9113c938e83b4f1ea0,672cff813996c0838e5526fe,2024-11-07_12h00.52.154,WTP_SM_Choice,2022.2.1,MacIntel,119.9040767,,,,,,,,,,,,,,,,,,59,,,,,,,,,,2,0,3,3,3,1,Call my sister on facetime,Browse reddit for meal plans,0.04,0.02,4.4,0,0.02,2.356,,,,
,,66f42a85953065aa4cc9d751,6685aa9113c938e83b4f1ea0,672cff813996c0838e5526fe,2024-11-07_12h00.52.154,WTP_SM_Choice,2022.2.1,MacIntel,119.9040767,,,,,,,,,,,,,,,,,,60,,,,,,,,,,2,0,4,4,4,1,Browse the trader joes website,Buy things for my friends,0.05,0.02,1.1,1,0.02,2.373,,,,
,,66f42a85953065aa4cc9d751,6685aa9113c938e83b4f1ea0,672cff813996c0838e5526fe,2024-11-07_12h00.52.154,WTP_SM_Choice,2022.2.1,MacIntel,119.9040767,,,,,,,NAN,,NAN,1.58,4.42,,0,59,59,59,1,60,Riley,Rej,Participant_Images/66f42a85953065aa4cc9d751/66f42a85953065aa4cc9d751_Images/66f42a85953065aa4cc9d751_Image_11.jpeg,did not like,1.661473164,,,,,,,,,,,,,,,,,,,,,,
,,66f42a85953065aa4cc9d751,6685aa9113c938e83b4f1ea0,672cff813996c0838e5526fe,2024-11-07_12h00.52.154,WTP_SM_Choice,2022.2.1,MacIntel,119.9040767,,,,,space,0.804,NAN,,NAN,1.58,4.42,,0,60,60,60,1,61,Riley,Rej,Participant_Images/66f42a85953065aa4cc9d751/66f42a85953065aa4cc9d751_Images/66f42a85953065aa4cc9d751_Image_10.jpeg,did not like,3.613205605,,,,,,,,,,,,,,,,,,,,,,
,,66f42a85953065aa4cc9d751,6685aa9113c938e83b4f1ea0,672cff813996c0838e5526fe,2024-11-07_12h00.52.154,WTP_SM_Choice,2022.2.1,MacIntel,119.9040767,,,,,space,0.977,NAN,,NAN,1.58,4.42,,0,61,61,61,1,62,Riley,Rej,Participant_Images/66f42a85953065aa4cc9d751/66f42a85953065aa4cc9d751_Images/66f42a85953065aa4cc9d751_Image_19.jpeg,did not like,4.988446431,,,,,,,,,,,,,,,,,,,,,,
,,66f42a85953065aa4cc9d751,6685aa9113c938e83b4f1ea0,672cff813996c0838e5526fe,2024-11-07_12h00.52.154,WTP_SM_Choice,2022.2.1,MacIntel,119.9040767,,,,,space,0.422,NAN,,NAN,1.58,4.42,,0,62,62,62,1,63,Riley,Rej,Participant_Images/66f42a85953065aa4cc9d751/66f42a85953065aa4cc9d751_Images/66f42a85953065aa4cc9d751_Image_17.jpeg,did not like,3.470791822,,,,,,,,,,,,,,,,,,,,,,
,,66f42a85953065aa4cc9d751,6685aa9113c938e83b4f1ea0,672cff813996c0838e5526fe,2024-11-07_12h00.52.154,WTP_SM_Choice,2022.2.1,MacIntel,119.9040767,,,,,space,1.284,NAN,,NAN,1.58,4.42,,0,63,63,63,1,64,Riley,Rej,Participant_Images/66f42a85953065aa4cc9d751/66f42a85953065aa4cc9d751_Images/66f42a85953065aa4cc9d751_Image_5.jpeg,did not like,3.820572462,,,,,,,,,,,,,,,,,,,,,,
,,66f42a85953065aa4cc9d751,6685aa9113c938e83b4f1ea0,672cff813996c0838e5526fe,2024-11-07_12h00.52.154,WTP_SM_Choice,2022.2.1,MacIntel,119.9040767,,,,,,,,,,,,,,,,,,61,,,,,,space,0.631,space,0.481,1,0,0,0,0,1,Fold my clothes,Gossip with my friends,0.01,0.03,3.3,1,0.01,2.002,,,,
,,66f42a85953065aa4cc9d751,6685aa9113c938e83b4f1ea0,672cff813996c0838e5526fe,2024-11-07_12h00.52.154,WTP_SM_Choice,2022.2.1,MacIntel,119.9040767,,,,,,,,,,,,,,,,,,62,,,,,,,,,,2,0,1,1,1,1,Flirt with my boyfriend,Knit in my bed,0.02,0.03,3.3,0,0.03,1.287,,,,
,,66f42a85953065aa4cc9d751,6685aa9113c938e83b4f1ea0,672cff813996c0838e5526fe,2024-11-07_12h00.52.154,WTP_SM_Choice,2022.2.1,MacIntel,119.9040767,,,,,,,,,,,,,,,,,,63,,,,,,,,,,2,0,2,2,2,1,Get food with my friends,Do prolific studies,0.03,0.03,3.3,0,0.03,2.656,,,,
,,66f42a85953065aa4cc9d751,6685aa9113c938e83b4f1ea0,672cff813996c0838e5526fe,2024-11-07_12h00.52.154,WTP_SM_Choice,2022.2.1,MacIntel,119.9040767,,,,,,,,,,,,,,,,,,64,,,,,,,,,,2,0,3,3,3,1,Flirt with my boyfriend,Browse the trader joes website,0.04,0.03,1.1,0,0.03,1.979,,,,
,,66f42a85953065aa4cc9d751,6685aa9113c938e83b4f1ea0,672cff813996c0838e5526fe,2024-11-07_12h00.52.154,WTP_SM_Choice,2022.2.1,MacIntel,119.9040767,,,,,,,,,,,,,,,,,,65,,,,,,,,,,2,0,4,4,4,1,Crochet in my bed,Get food with my friends,0.05,0.03,1.1,1,0.03,2.054,,,,
,,66f42a85953065aa4cc9d751,6685aa9113c938e83b4f1ea0,672cff813996c0838e5526fe,2024-11-07_12h00.52.154,WTP_SM_Choice,2022.2.1,MacIntel,119.9040767,,,,,,,NAN,,NAN,1.71,4.29,,0,64,64,64,1,65,Riley,Rej,Participant_Images/66f42a85953065aa4cc9d751/66f42a85953065aa4cc9d751_Images/66f42a85953065aa4cc9d751_Image_1.jpeg,did not like,2.455989137,,,,,,,,,,,,,,,,,,,,,,
,,66f42a85953065aa4cc9d751,6685aa9113c938e83b4f1ea0,672cff813996c0838e5526fe,2024-11-07_12h00.52.154,WTP_SM_Choice,2022.2.1,MacIntel,119.9040767,,,,,space,0.462,NAN,,NAN,1.71,4.29,,0,65,65,65,1,66,Riley,Rej,Participant_Images/66f42a85953065aa4cc9d751/66f42a85953065aa4cc9d751_Images/66f42a85953065aa4cc9d751_Image_13.jpeg,liked,3.79605092,,,,,,,,,,,,,,,,,,,,,,
,,66f42a85953065aa4cc9d751,6685aa9113c938e83b4f1ea0,672cff813996c0838e5526fe,2024-11-07_12h00.52.154,WTP_SM_Choice,2022.2.1,MacIntel,119.9040767,,,,,space,0.65,NAN,,NAN,1.71,4.29,,0,66,66,66,1,67,Riley,Rej,Participant_Images/66f42a85953065aa4cc9d751/66f42a85953065aa4cc9d751_Images/66f42a85953065aa4cc9d751_Image_12.jpeg,did not like,3.562416326,,,,,,,,,,,,,,,,,,,,,,
,,66f42a85953065aa4cc9d751,6685aa9113c938e83b4f1ea0,672cff813996c0838e5526fe,2024-11-07_12h00.52.154,WTP_SM_Choice,2022.2.1,MacIntel,119.9040767,,,,,space,0.954,NAN,,NAN,1.71,4.29,,0,67,67,67,1,68,Riley,Rej,Participant_Images/66f42a85953065aa4cc9d751/66f42a85953065aa4cc9d751_Images/66f42a85953065aa4cc9d751_Image_7.jpeg,did not like,2.843822497,,,,,,,,,,,,,,,,,,,,,,
,,66f42a85953065aa4cc9d751,6685aa9113c938e83b4f1ea0,672cff813996c0838e5526fe,2024-11-07_12h00.52.154,WTP_SM_Choice,2022.2.1,MacIntel,119.9040767,,,,,space,0.569,NAN,,NAN,1.71,4.29,,0,68,68,68,1,69,Riley,Rej,Participant_Images/66f42a85953065aa4cc9d751/66f42a85953065aa4cc9d751_Images/66f42a85953065aa4cc9d751_Image_9.jpeg,did not like,3.546495948,,,,,,,,,,,,,,,,,,,,,,
,,66f42a85953065aa4cc9d751,6685aa9113c938e83b4f1ea0,672cff813996c0838e5526fe,2024-11-07_12h00.52.154,WTP_SM_Choice,2022.2.1,MacIntel,119.9040767,,,,,,,,,,,,,,,,,,66,,,,,,space,0.756,space,0.442,1,0,0,0,0,1,Do homework together with my boyfriend,Browse reddit for meal plans,0.01,0.04,1.1,0,0.01,1.559,,,,
,,66f42a85953065aa4cc9d751,6685aa9113c938e83b4f1ea0,672cff813996c0838e5526fe,2024-11-07_12h00.52.154,WTP_SM_Choice,2022.2.1,MacIntel,119.9040767,,,,,,,,,,,,,,,,,,67,,,,,,,,,,1,0,1,1,1,1,Start a new paint project,Bake with my friends,0.02,0.04,8.8,1,0.02,1.453,,,,
,,66f42a85953065aa4cc9d751,6685aa9113c938e83b4f1ea0,672cff813996c0838e5526fe,2024-11-07_12h00.52.154,WTP_SM_Choice,2022.2.1,MacIntel,119.9040767,,,,,,,,,,,,,,,,,,68,,,,,,,,,,1,0,2,2,2,1,Start a new paint project,Buy things for my friends,0.03,0.04,4.4,1,0.03,1.57,,,,
,,66f42a85953065aa4cc9d751,6685aa9113c938e83b4f1ea0,672cff813996c0838e5526fe,2024-11-07_12h00.52.154,WTP_SM_Choice,2022.2.1,MacIntel,119.9040767,,,,,,,,,,,,,,,,,,69,,,,,,,,,,2,0,3,3,3,1,Crochet with my friends,Knit in my bed,0.04,0.04,1.1,0,0.04,1.735,,,,
,,66f42a85953065aa4cc9d751,6685aa9113c938e83b4f1ea0,672cff813996c0838e5526fe,2024-11-07_12h00.52.154,WTP_SM_Choice,2022.2.1,MacIntel,119.9040767,,,,,,,,,,,,,,,,,,70,,,,,,,,,,2,0,4,4,4,1,Sleep in my bed,Gossip with my friends,0.05,0.04,1.1,1,0.04,1.777,,,,
,,66f42a85953065aa4cc9d751,6685aa9113c938e83b4f1ea0,672cff813996c0838e5526fe,2024-11-07_12h00.52.154,WTP_SM_Choice,2022.2.1,MacIntel,119.9040767,,,,,,,NAN,,NAN,1.85,4.15,,0,69,69,69,1,70,Riley,Rej,Participant_Images/66f42a85953065aa4cc9d751/66f42a85953065aa4cc9d751_Images/66f42a85953065aa4cc9d751_Image_8.jpeg,did not like,1.672012706,,,,,,,,,,,,,,,,,,,,,,
,,66f42a85953065aa4cc9d751,6685aa9113c938e83b4f1ea0,672cff813996c0838e5526fe,2024-11-07_12h00.52.154,WTP_SM_Choice,2022.2.1,MacIntel,119.9040767,,,,,space,0.909,NAN,,NAN,1.85,4.15,,0,70,70,70,1,71,Riley,Rej,Participant_Images/66f42a85953065aa4cc9d751/66f42a85953065aa4cc9d751_Images/66f42a85953065aa4cc9d751_Image_2.jpeg,liked,4.942172136,,,,,,,,,,,,,,,,,,,,,,
,,66f42a85953065aa4cc9d751,6685aa9113c938e83b4f1ea0,672cff813996c0838e5526fe,2024-11-07_12h00.52.154,WTP_SM_Choice,2022.2.1,MacIntel,119.9040767,,,,,space,0.357,NAN,,NAN,1.85,4.15,,0,71,71,71,1,72,Riley,Rej,Participant_Images/66f42a85953065aa4cc9d751/66f42a85953065aa4cc9d751_Images/66f42a85953065aa4cc9d751_Image_25.jpeg,liked,2.50187214,,,,,,,,,,,,,,,,,,,,,,
,,66f42a85953065aa4cc9d751,6685aa9113c938e83b4f1ea0,672cff813996c0838e5526fe,2024-11-07_12h00.52.154,WTP_SM_Choice,2022.2.1,MacIntel,119.9040767,,,,,space,0.439,NAN,,NAN,1.85,4.15,,0,72,72,72,1,73,Riley,Rej,Participant_Images/66f42a85953065aa4cc9d751/66f42a85953065aa4cc9d751_Images/66f42a85953065aa4cc9d751_Image_23.jpeg,did not like,2.071164779,,,,,,,,,,,,,,,,,,,,,,
,,66f42a85953065aa4cc9d751,6685aa9113c938e83b4f1ea0,672cff813996c0838e5526fe,2024-11-07_12h00.52.154,WTP_SM_Choice,2022.2.1,MacIntel,119.9040767,,,,,space,0.61,NAN,,NAN,1.85,4.15,,0,73,73,73,1,74,Riley,Rej,Participant_Images/66f42a85953065aa4cc9d751/66f42a85953065aa4cc9d751_Images/66f42a85953065aa4cc9d751_Image_22.jpeg,did not like,5.336503566,,,,,,,,,,,,,,,,,,,,,,
,,66f42a85953065aa4cc9d751,6685aa9113c938e83b4f1ea0,672cff813996c0838e5526fe,2024-11-07_12h00.52.154,WTP_SM_Choice,2022.2.1,MacIntel,119.9040767,,,,,,,,,,,,,,,,,,71,,,,,,space,0.845,space,0.523,1,0,0,0,0,1,Watch pokemon nuzlocke videos,Bake with my friends,0.01,0.05,3.3,1,0.01,2.447,,,,
,,66f42a85953065aa4cc9d751,6685aa9113c938e83b4f1ea0,672cff813996c0838e5526fe,2024-11-07_12h00.52.154,WTP_SM_Choice,2022.2.1,MacIntel,119.9040767,,,,,,,,,,,,,,,,,,72,,,,,,,,,,1,0,1,1,1,1,Eat sweets,Crochet with my friends,0.02,0.05,8.8,1,0.02,1.132,,,,
,,66f42a85953065aa4cc9d751,6685aa9113c938e83b4f1ea0,672cff813996c0838e5526fe,2024-11-07_12h00.52.154,WTP_SM_Choice,2022.2.1,MacIntel,119.9040767,,,,,,,,,,,,,,,,,,73,,,,,,,,,,2,0,2,2,2,1,Get food with my friends,Start a new paint project,0.03,0.05,3.3,0,0.05,2.12,,,,
,,66f42a85953065aa4cc9d751,6685aa9113c938e83b4f1ea0,672cff813996c0838e5526fe,2024-11-07_12h00.52.154,WTP_SM_Choice,2022.2.1,MacIntel,119.9040767,,,,,,,,,,,,,,,,,,74,,,,,,,,,,1,0,3,3,3,1,Fold my clothes,Call my sister on facetime,0.04,0.05,4.4,1,0.04,1.678,,,,
,,66f42a85953065aa4cc9d751,6685aa9113c938e83b4f1ea0,672cff813996c0838e5526fe,2024-11-07_12h00.52.154,WTP_SM_Choice,2022.2.1,MacIntel,119.9040767,,,,,,,,,,,,,,,,,,75,,,,,,,,,,1,0,4,4,4,1,Eat sweets,Bake with my friends,0.05,0.05,3.3,1,0.05,1.873,,,,
,,66f42a85953065aa4cc9d751,6685aa9113c938e83b4f1ea0,672cff813996c0838e5526fe,2024-11-07_12h00.52.154,WTP_SM_Choice,2022.2.1,MacIntel,119.9040767,,,,,,,1,,8,2.02,3.98,,0,74,74,74,1,75,Riley,Rej,Participant_Images/66f42a85953065aa4cc9d751/66f42a85953065aa4cc9d751_Images/66f42a85953065aa4cc9d751_Image_21.jpeg,did not like,2.642157193,,,,,,,,,,,,,,,,,,,space,1.208,,
,,66f42a85953065aa4cc9d751,6685aa9113c938e83b4f1ea0,672cff813996c0838e5526fe,2024-11-07_12h00.52.154,WTP_SM_Choice,2022.2.1,MacIntel,119.9040767,,,space,0.735,space,0.632,NAN,,NAN,2.02,3.98,,0,75,75,75,1,76,Alex,Rej,Participant_Images/66f42a85953065aa4cc9d751/66f42a85953065aa4cc9d751_Images/66f42a85953065aa4cc9d751_Image_4.jpeg,did not like,4.456234322,,,,,,,,,,,,,,,,,,,,,,
,,66f42a85953065aa4cc9d751,6685aa9113c938e83b4f1ea0,672cff813996c0838e5526fe,2024-11-07_12h00.52.154,WTP_SM_Choice,2022.2.1,MacIntel,119.9040767,,,,,space,0.552,NAN,,NAN,2.02,3.98,,0,76,76,76,1,77,Alex,Rej,Participant_Images/66f42a85953065aa4cc9d751/66f42a85953065aa4cc9d751_Images/66f42a85953065aa4cc9d751_Image_8.jpeg,did not like,4.438512181,,,,,,,,,,,,,,,,,,,,,,
,,66f42a85953065aa4cc9d751,6685aa9113c938e83b4f1ea0,672cff813996c0838e5526fe,2024-11-07_12h00.52.154,WTP_SM_Choice,2022.2.1,MacIntel,119.9040767,,,,,space,2.792,NAN,,NAN,2.02,3.98,,0,77,77,77,1,78,Alex,Rej,Participant_Images/66f42a85953065aa4cc9d751/66f42a85953065aa4cc9d751_Images/66f42a85953065aa4cc9d751_Image_6.jpeg,liked,2.682944783,,,,,,,,,,,,,,,,,,,,,,
,,66f42a85953065aa4cc9d751,6685aa9113c938e83b4f1ea0,672cff813996c0838e5526fe,2024-11-07_12h00.52.154,WTP_SM_Choice,2022.2.1,MacIntel,119.9040767,,,,,space,0.285,NAN,,NAN,2.02,3.98,,0,78,78,78,1,79,Alex,Rej,Participant_Images/66f42a85953065aa4cc9d751/66f42a85953065aa4cc9d751_Images/66f42a85953065aa4cc9d751_Image_9.jpeg,did not like,4.51984296,,,,,,,,,,,,,,,,,,,,,,
,,66f42a85953065aa4cc9d751,6685aa9113c938e83b4f1ea0,672cff813996c0838e5526fe,2024-11-07_12h00.52.154,WTP_SM_Choice,2022.2.1,MacIntel,119.9040767,,,,,,,,,,,,,,,,,,76,,,,,,space,0.741,space,0.459,2,0,0,0,0,1,Chat with my friends on facetime,Start a new paint project,0.01,0.01,1.1,0,0.01,1.8,,,,
,,66f42a85953065aa4cc9d751,6685aa9113c938e83b4f1ea0,672cff813996c0838e5526fe,2024-11-07_12h00.52.154,WTP_SM_Choice,2022.2.1,MacIntel,119.9040767,,,,,,,,,,,,,,,,,,77,,,,,,,,,,1,0,1,1,1,1,Browse the trader joes website,Crochet with my friends,0.02,0.01,8.8,1,0.02,1.912,,,,
,,66f42a85953065aa4cc9d751,6685aa9113c938e83b4f1ea0,672cff813996c0838e5526fe,2024-11-07_12h00.52.154,WTP_SM_Choice,2022.2.1,MacIntel,119.9040767,,,,,,,,,,,,,,,,,,78,,,,,,,,,,2,0,2,2,2,1,Buy things for my friends,Crochet in my bed,0.03,0.01,1.1,0,0.01,1.789,,,,
,,66f42a85953065aa4cc9d751,6685aa9113c938e83b4f1ea0,672cff813996c0838e5526fe,2024-11-07_12h00.52.154,WTP_SM_Choice,2022.2.1,MacIntel,119.9040767,,,,,,,,,,,,,,,,,,79,,,,,,,,,,2,0,3,3,3,1,Cook with my friends,Watch pokemon nuzlocke videos,0.04,0.01,1.1,0,0.01,1.924,,,,
,,66f42a85953065aa4cc9d751,6685aa9113c938e83b4f1ea0,672cff813996c0838e5526fe,2024-11-07_12h00.52.154,WTP_SM_Choice,2022.2.1,MacIntel,119.9040767,,,,,,,,,,,,,,,,,,80,,,,,,,,,,1,0,4,4,4,1,Do prolific studies,Buy things for my friends,0.05,0.01,4.4,1,0.05,2.142,,,,
,,66f42a85953065aa4cc9d751,6685aa9113c938e83b4f1ea0,672cff813996c0838e5526fe,2024-11-07_12h00.52.154,WTP_SM_Choice,2022.2.1,MacIntel,119.9040767,,,,,,,NAN,,NAN,2.12,3.88,,0,79,79,79,1,80,Alex,Rej,Participant_Images/66f42a85953065aa4cc9d751/66f42a85953065aa4cc9d751_Images/66f42a85953065aa4cc9d751_Image_3.jpeg,did not like,3.195382774,,,,,,,,,,,,,,,,,,,,,,
,,66f42a85953065aa4cc9d751,6685aa9113c938e83b4f1ea0,672cff813996c0838e5526fe,2024-11-07_12h00.52.154,WTP_SM_Choice,2022.2.1,MacIntel,119.9040767,,,,,space,0.822,NAN,,NAN,2.12,3.88,,0,80,80,80,1,81,Alex,Rej,Participant_Images/66f42a85953065aa4cc9d751/66f42a85953065aa4cc9d751_Images/66f42a85953065aa4cc9d751_Image_12.jpeg,did not like,1.779333479,,,,,,,,,,,,,,,,,,,,,,
,,66f42a85953065aa4cc9d751,6685aa9113c938e83b4f1ea0,672cff813996c0838e5526fe,2024-11-07_12h00.52.154,WTP_SM_Choice,2022.2.1,MacIntel,119.9040767,,,,,space,0.28,NAN,,NAN,2.12,3.88,,0,81,81,81,1,82,Alex,Rej,Participant_Images/66f42a85953065aa4cc9d751/66f42a85953065aa4cc9d751_Images/66f42a85953065aa4cc9d751_Image_22.jpeg,did not like,4.312468682,,,,,,,,,,,,,,,,,,,,,,
,,66f42a85953065aa4cc9d751,6685aa9113c938e83b4f1ea0,672cff813996c0838e5526fe,2024-11-07_12h00.52.154,WTP_SM_Choice,2022.2.1,MacIntel,119.9040767,,,,,space,0.776,NAN,,NAN,2.12,3.88,,0,82,82,82,1,83,Alex,Rej,Participant_Images/66f42a85953065aa4cc9d751/66f42a85953065aa4cc9d751_Images/66f42a85953065aa4cc9d751_Image_25.jpeg,liked,4.940433059,,,,,,,,,,,,,,,,,,,,,,
,,66f42a85953065aa4cc9d751,6685aa9113c938e83b4f1ea0,672cff813996c0838e5526fe,2024-11-07_12h00.52.154,WTP_SM_Choice,2022.2.1,MacIntel,119.9040767,,,,,space,0.543,NAN,,NAN,2.12,3.88,,0,83,83,83,1,84,Alex,Rej,Participant_Images/66f42a85953065aa4cc9d751/66f42a85953065aa4cc9d751_Images/66f42a85953065aa4cc9d751_Image_21.jpeg,did not like,2.7105123,,,,,,,,,,,,,,,,,,,,,,
,,66f42a85953065aa4cc9d751,6685aa9113c938e83b4f1ea0,672cff813996c0838e5526fe,2024-11-07_12h00.52.154,WTP_SM_Choice,2022.2.1,MacIntel,119.9040767,,,,,,,,,,,,,,,,,,81,,,,,,space,0.835,space,1.06,2,0,0,0,0,1,Eat sweets,Get food with my friends,0.01,0.02,3.3,1,0.02,2.049,,,,
,,66f42a85953065aa4cc9d751,6685aa9113c938e83b4f1ea0,672cff813996c0838e5526fe,2024-11-07_12h00.52.154,WTP_SM_Choice,2022.2.1,MacIntel,119.9040767,,,,,,,,,,,,,,,,,,82,,,,,,,,,,1,0,1,1,1,1,Eat sweets,Cook with my friends,0.02,0.02,4.4,1,0.02,1.652,,,,
,,66f42a85953065aa4cc9d751,6685aa9113c938e83b4f1ea0,672cff813996c0838e5526fe,2024-11-07_12h00.52.154,WTP_SM_Choice,2022.2.1,MacIntel,119.9040767,,,,,,,,,,,,,,,,,,83,,,,,,,,,,2,0,2,2,2,1,Crochet with my friends,Fold my clothes,0.03,0.02,1.1,0,0.02,1.546,,,,
,,66f42a85953065aa4cc9d751,6685aa9113c938e83b4f1ea0,672cff813996c0838e5526fe,2024-11-07_12h00.52.154,WTP_SM_Choice,2022.2.1,MacIntel,119.9040767,,,,,,,,,,,,,,,,,,84,,,,,,,,,,2,0,3,3,3,1,Buy things for my friends,Knit in my bed,0.04,0.02,3.3,0,0.02,1.82,,,,
,,66f42a85953065aa4cc9d751,6685aa9113c938e83b4f1ea0,672cff813996c0838e5526fe,2024-11-07_12h00.52.154,WTP_SM_Choice,2022.2.1,MacIntel,119.9040767,,,,,,,,,,,,,,,,,,85,,,,,,,,,,2,0,4,4,4,1,Do homework together with my boyfriend,Browse the trader joes website,0.05,0.02,3.3,0,0.02,1.264,,,,
,,66f42a85953065aa4cc9d751,6685aa9113c938e83b4f1ea0,672cff813996c0838e5526fe,2024-11-07_12h00.52.154,WTP_SM_Choice,2022.2.1,MacIntel,119.9040767,,,,,,,NAN,,NAN,2.22,3.78,,0,84,84,84,1,85,Alex,Rej,Participant_Images/66f42a85953065aa4cc9d751/66f42a85953065aa4cc9d751_Images/66f42a85953065aa4cc9d751_Image_14.jpeg,liked,3.602308302,,,,,,,,,,,,,,,,,,,,,,
,,66f42a85953065aa4cc9d751,6685aa9113c938e83b4f1ea0,672cff813996c0838e5526fe,2024-11-07_12h00.52.154,WTP_SM_Choice,2022.2.1,MacIntel,119.9040767,,,,,space,0.882,NAN,,NAN,2.22,3.78,,0,85,85,85,1,86,Alex,Rej,Participant_Images/66f42a85953065aa4cc9d751/66f42a85953065aa4cc9d751_Images/66f42a85953065aa4cc9d751_Image_17.jpeg,did not like,4.106391878,,,,,,,,,,,,,,,,,,,,,,
,,66f42a85953065aa4cc9d751,6685aa9113c938e83b4f1ea0,672cff813996c0838e5526fe,2024-11-07_12h00.52.154,WTP_SM_Choice,2022.2.1,MacIntel,119.9040767,,,,,space,2.666,NAN,,NAN,2.22,3.78,,0,86,86,86,1,87,Alex,Rej,Participant_Images/66f42a85953065aa4cc9d751/66f42a85953065aa4cc9d751_Images/66f42a85953065aa4cc9d751_Image_2.jpeg,did not like,3.799433026,,,,,,,,,,,,,,,,,,,,,,
,,66f42a85953065aa4cc9d751,6685aa9113c938e83b4f1ea0,672cff813996c0838e5526fe,2024-11-07_12h00.52.154,WTP_SM_Choice,2022.2.1,MacIntel,119.9040767,,,,,space,4.061,NAN,,NAN,2.22,3.78,,0,87,87,87,1,88,Alex,Rej,Participant_Images/66f42a85953065aa4cc9d751/66f42a85953065aa4cc9d751_Images/66f42a85953065aa4cc9d751_Image_11.jpeg,did not like,5.246980764,,,,,,,,,,,,,,,,,,,,,,
,,66f42a85953065aa4cc9d751,6685aa9113c938e83b4f1ea0,672cff813996c0838e5526fe,2024-11-07_12h00.52.154,WTP_SM_Choice,2022.2.1,MacIntel,119.9040767,,,,,space,0.253,NAN,,NAN,2.22,3.78,,0,88,88,88,1,89,Alex,Rej,Participant_Images/66f42a85953065aa4cc9d751/66f42a85953065aa4cc9d751_Images/66f42a85953065aa4cc9d751_Image_20.jpeg,liked,3.30081769,,,,,,,,,,,,,,,,,,,,,,
,,66f42a85953065aa4cc9d751,6685aa9113c938e83b4f1ea0,672cff813996c0838e5526fe,2024-11-07_12h00.52.154,WTP_SM_Choice,2022.2.1,MacIntel,119.9040767,,,,,,,,,,,,,,,,,,86,,,,,,space,0.228,space,0.546,1,0,0,0,0,1,Sleep in my bed,Call my sister on facetime,0.01,0.03,1.1,1,0.01,1.474,,,,
,,66f42a85953065aa4cc9d751,6685aa9113c938e83b4f1ea0,672cff813996c0838e5526fe,2024-11-07_12h00.52.154,WTP_SM_Choice,2022.2.1,MacIntel,119.9040767,,,,,,,,,,,,,,,,,,87,,,,,,,,,,1,0,1,1,1,1,Fold my clothes,Do homework together with my boyfriend,0.02,0.03,4.4,1,0.02,1.603,,,,
,,66f42a85953065aa4cc9d751,6685aa9113c938e83b4f1ea0,672cff813996c0838e5526fe,2024-11-07_12h00.52.154,WTP_SM_Choice,2022.2.1,MacIntel,119.9040767,,,,,,,,,,,,,,,,,,88,,,,,,,,,,1,0,2,2,2,1,Crochet in my bed,Crochet with my friends,0.03,0.03,1.1,1,0.03,2.056,,,,
,,66f42a85953065aa4cc9d751,6685aa9113c938e83b4f1ea0,672cff813996c0838e5526fe,2024-11-07_12h00.52.154,WTP_SM_Choice,2022.2.1,MacIntel,119.9040767,,,,,,,,,,,,,,,,,,89,,,,,,,,,,2,0,3,3,3,1,Buy things for my friends,Browse reddit for meal plans,0.04,0.03,3.3,0,0.03,2.915,,,,
,,66f42a85953065aa4cc9d751,6685aa9113c938e83b4f1ea0,672cff813996c0838e5526fe,2024-11-07_12h00.52.154,WTP_SM_Choice,2022.2.1,MacIntel,119.9040767,,,,,,,,,,,,,,,,,,90,,,,,,,,,,2,0,4,4,4,1,Fold my clothes,Flirt with my boyfriend,0.05,0.03,8.8,1,0.03,2.566,,,,
,,66f42a85953065aa4cc9d751,6685aa9113c938e83b4f1ea0,672cff813996c0838e5526fe,2024-11-07_12h00.52.154,WTP_SM_Choice,2022.2.1,MacIntel,119.9040767,,,,,,,NAN,,NAN,2.34,3.66,,0,89,89,89,1,90,Alex,Rej,Participant_Images/66f42a85953065aa4cc9d751/66f42a85953065aa4cc9d751_Images/66f42a85953065aa4cc9d751_Image_7.jpeg,liked,1.661473164,,,,,,,,,,,,,,,,,,,,,,
,,66f42a85953065aa4cc9d751,6685aa9113c938e83b4f1ea0,672cff813996c0838e5526fe,2024-11-07_12h00.52.154,WTP_SM_Choice,2022.2.1,MacIntel,119.9040767,,,,,space,0.745,NAN,,NAN,2.34,3.66,,0,90,90,90,1,91,Alex,Rej,Participant_Images/66f42a85953065aa4cc9d751/66f42a85953065aa4cc9d751_Images/66f42a85953065aa4cc9d751_Image_24.jpeg,did not like,3.613205605,,,,,,,,,,,,,,,,,,,,,,
,,66f42a85953065aa4cc9d751,6685aa9113c938e83b4f1ea0,672cff813996c0838e5526fe,2024-11-07_12h00.52.154,WTP_SM_Choice,2022.2.1,MacIntel,119.9040767,,,,,space,0.984,NAN,,NAN,2.34,3.66,,0,91,91,91,1,92,Alex,Rej,Participant_Images/66f42a85953065aa4cc9d751/66f42a85953065aa4cc9d751_Images/66f42a85953065aa4cc9d751_Image_1.jpeg,liked,4.988446431,,,,,,,,,,,,,,,,,,,,,,
,,66f42a85953065aa4cc9d751,6685aa9113c938e83b4f1ea0,672cff813996c0838e5526fe,2024-11-07_12h00.52.154,WTP_SM_Choice,2022.2.1,MacIntel,119.9040767,,,,,space,0.455,NAN,,NAN,2.34,3.66,,0,92,92,92,1,93,Alex,Rej,Participant_Images/66f42a85953065aa4cc9d751/66f42a85953065aa4cc9d751_Images/66f42a85953065aa4cc9d751_Image_19.jpeg,did not like,3.470791822,,,,,,,,,,,,,,,,,,,,,,
,,66f42a85953065aa4cc9d751,6685aa9113c938e83b4f1ea0,672cff813996c0838e5526fe,2024-11-07_12h00.52.154,WTP_SM_Choice,2022.2.1,MacIntel,119.9040767,,,,,space,7.526,NAN,,NAN,2.34,3.66,,0,93,93,93,1,94,Alex,Rej,Participant_Images/66f42a85953065aa4cc9d751/66f42a85953065aa4cc9d751_Images/66f42a85953065aa4cc9d751_Image_13.jpeg,did not like,3.820572462,,,,,,,,,,,,,,,,,,,,,,
,,66f42a85953065aa4cc9d751,6685aa9113c938e83b4f1ea0,672cff813996c0838e5526fe,2024-11-07_12h00.52.154,WTP_SM_Choice,2022.2.1,MacIntel,119.9040767,,,,,,,,,,,,,,,,,,91,,,,,,space,0.932,space,1.016,1,0,0,0,0,1,Do prolific studies,Flirt with my boyfriend,0.01,0.04,3.3,1,0.01,1.439,,,,
,,66f42a85953065aa4cc9d751,6685aa9113c938e83b4f1ea0,672cff813996c0838e5526fe,2024-11-07_12h00.52.154,WTP_SM_Choice,2022.2.1,MacIntel,119.9040767,,,,,,,,,,,,,,,,,,92,,,,,,,,,,2,0,1,1,1,1,Crochet with my friends,Do prolific studies,0.02,0.04,8.8,0,0.04,1.667,,,,
,,66f42a85953065aa4cc9d751,6685aa9113c938e83b4f1ea0,672cff813996c0838e5526fe,2024-11-07_12h00.52.154,WTP_SM_Choice,2022.2.1,MacIntel,119.9040767,,,,,,,,,,,,,,,,,,93,,,,,,,,,,2,0,2,2,2,1,Cook with my friends,Do prolific studies,0.03,0.04,1.1,0,0.04,1.672,,,,
,,66f42a85953065aa4cc9d751,6685aa9113c938e83b4f1ea0,672cff813996c0838e5526fe,2024-11-07_12h00.52.154,WTP_SM_Choice,2022.2.1,MacIntel,119.9040767,,,,,,,,,,,,,,,,,,94,,,,,,,,,,1,0,3,3,3,1,Crochet in my bed,Do homework together with my boyfriend,0.04,0.04,4.4,1,0.04,1.921,,,,
,,66f42a85953065aa4cc9d751,6685aa9113c938e83b4f1ea0,672cff813996c0838e5526fe,2024-11-07_12h00.52.154,WTP_SM_Choice,2022.2.1,MacIntel,119.9040767,,,,,,,,,,,,,,,,,,95,,,,,,,,,,1,0,4,4,4,1,Start a new paint project,Cook with my friends,0.05,0.04,4.4,1,0.05,1.912,,,,
,,66f42a85953065aa4cc9d751,6685aa9113c938e83b4f1ea0,672cff813996c0838e5526fe,2024-11-07_12h00.52.154,WTP_SM_Choice,2022.2.1,MacIntel,119.9040767,,,,,,,NAN,,NAN,2.52,3.48,,0,94,94,94,1,95,Alex,Rej,Participant_Images/66f42a85953065aa4cc9d751/66f42a85953065aa4cc9d751_Images/66f42a85953065aa4cc9d751_Image_16.jpeg,did not like,2.455989137,,,,,,,,,,,,,,,,,,,,,,
,,66f42a85953065aa4cc9d751,6685aa9113c938e83b4f1ea0,672cff813996c0838e5526fe,2024-11-07_12h00.52.154,WTP_SM_Choice,2022.2.1,MacIntel,119.9040767,,,,,space,1.073,NAN,,NAN,2.52,3.48,,0,95,95,95,1,96,Alex,Rej,Participant_Images/66f42a85953065aa4cc9d751/66f42a85953065aa4cc9d751_Images/66f42a85953065aa4cc9d751_Image_15.jpeg,liked,3.79605092,,,,,,,,,,,,,,,,,,,,,,
,,66f42a85953065aa4cc9d751,6685aa9113c938e83b4f1ea0,672cff813996c0838e5526fe,2024-11-07_12h00.52.154,WTP_SM_Choice,2022.2.1,MacIntel,119.9040767,,,,,space,0.403,NAN,,NAN,2.52,3.48,,0,96,96,96,1,97,Alex,Rej,Participant_Images/66f42a85953065aa4cc9d751/66f42a85953065aa4cc9d751_Images/66f42a85953065aa4cc9d751_Image_5.jpeg,did not like,3.562416326,,,,,,,,,,,,,,,,,,,,,,
,,66f42a85953065aa4cc9d751,6685aa9113c938e83b4f1ea0,672cff813996c0838e5526fe,2024-11-07_12h00.52.154,WTP_SM_Choice,2022.2.1,MacIntel,119.9040767,,,,,space,0.435,NAN,,NAN,2.52,3.48,,0,97,97,97,1,98,Alex,Rej,Participant_Images/66f42a85953065aa4cc9d751/66f42a85953065aa4cc9d751_Images/66f42a85953065aa4cc9d751_Image_18.jpeg,did not like,2.843822497,,,,,,,,,,,,,,,,,,,,,,
,,66f42a85953065aa4cc9d751,6685aa9113c938e83b4f1ea0,672cff813996c0838e5526fe,2024-11-07_12h00.52.154,WTP_SM_Choice,2022.2.1,MacIntel,119.9040767,,,,,space,0.225,NAN,,NAN,2.52,3.48,,0,98,98,98,1,99,Alex,Rej,Participant_Images/66f42a85953065aa4cc9d751/66f42a85953065aa4cc9d751_Images/66f42a85953065aa4cc9d751_Image_10.jpeg,did not like,3.546495948,,,,,,,,,,,,,,,,,,,,,,
,,66f42a85953065aa4cc9d751,6685aa9113c938e83b4f1ea0,672cff813996c0838e5526fe,2024-11-07_12h00.52.154,WTP_SM_Choice,2022.2.1,MacIntel,119.9040767,,,,,,,,,,,,,,,,,,96,,,,,,space,0.767,space,0.481,1,0,0,0,0,1,Get food with my friends,Sleep in my bed,0.01,0.05,3.3,0,0.01,1.691,,,,
,,66f42a85953065aa4cc9d751,6685aa9113c938e83b4f1ea0,672cff813996c0838e5526fe,2024-11-07_12h00.52.154,WTP_SM_Choice,2022.2.1,MacIntel,119.9040767,,,,,,,,,,,,,,,,,,97,,,,,,,,,,2,0,1,1,1,1,Gossip with my friends,Crochet in my bed,0.02,0.05,1.1,0,0.05,2.203,,,,
,,66f42a85953065aa4cc9d751,6685aa9113c938e83b4f1ea0,672cff813996c0838e5526fe,2024-11-07_12h00.52.154,WTP_SM_Choice,2022.2.1,MacIntel,119.9040767,,,,,,,,,,,,,,,,,,98,,,,,,,,,,1,0,2,2,2,1,Crochet in my bed,Cook with my friends,0.03,0.05,1.1,1,0.03,1.944,,,,
,,66f42a85953065aa4cc9d751,6685aa9113c938e83b4f1ea0,672cff813996c0838e5526fe,2024-11-07_12h00.52.154,WTP_SM_Choice,2022.2.1,MacIntel,119.9040767,,,,,,,,,,,,,,,,,,99,,,,,,,,,,2,0,3,3,3,1,Do homework together with my boyfriend,Start a new paint project,0.04,0.05,3.3,0,0.05,1.584,,,,
,,66f42a85953065aa4cc9d751,6685aa9113c938e83b4f1ea0,672cff813996c0838e5526fe,2024-11-07_12h00.52.154,WTP_SM_Choice,2022.2.1,MacIntel,119.9040767,,,,,,,,,,,,,,,,,,100,,,,,,,,,,1,0,4,4,4,1,Fold my clothes,Bake with my friends,0.05,0.05,4.4,1,0.05,1.774,,,,
,,66f42a85953065aa4cc9d751,6685aa9113c938e83b4f1ea0,672cff813996c0838e5526fe,2024-11-07_12h00.52.154,WTP_SM_Choice,2022.2.1,MacIntel,119.9040767,,,,,,,1,,5,2.71,3.29,,0,99,99,99,1,100,Alex,Rej,Participant_Images/66f42a85953065aa4cc9d751/66f42a85953065aa4cc9d751_Images/66f42a85953065aa4cc9d751_Image_23.jpeg,did not like,1.672012706,,,,,,,,,,,,,,,,,,,space,0.751,,
,,66f42a85953065aa4cc9d751,6685aa9113c938e83b4f1ea0,672cff813996c0838e5526fe,2024-11-07_12h00.52.154,WTP_SM_Choice,2022.2.1,MacIntel,119.9040767,,,,,,,,,,,,,,,,,,,,,,,,,,,,,,,,,,,,,,,,,,,,space,1.86
