endwelcomescreen_keys.keys,endwelcomescreen_keys.rt,participant,STUDY_ID,SESSION_ID,date,expName,psychopyVersion,OS,frameRate,endinstructionscreen_keys.keys,endinstructionscreen_keys.rt,endpartnermatch_keys.keys,endpartnermatch_keys.rt,sharenextphoto_key.keys,sharenextphoto_key.rt,salience_rating,key_resp.keys,stress_level,subtract_bonus,TOTAL_TASK_BONUS,stresslevel_keypress.keys,entiretaskloop.thisRepN,entiretaskloop.thisTrialN,entiretaskloop.thisN,entiretaskloop.thisIndex,entiretaskloop.ran,TrialNumber,Partner,Condition,Photos,Feedback,FeedbackWait,WTP_ins_keys1.keys,WTP_ins_keys1.rt,WTP_ins_keys2.keys,WTP_ins_keys2.rt,decision_price,responses.keys,responses.rt,WTPTaskLoop.thisRepN,WTPTaskLoop.thisTrialN,WTPTaskLoop.thisN,WTPTaskLoop.thisIndex,WTPTaskLoop.ran,right,left,leftmoney,rightmoney,WTP_ITI,social_left,Resume_keys.keys,Resume_keys.rt,end_screen_keys.keys,end_screen_keys.rt
space,6.291,66f899c9525316803c5d75c0,6685aa9113c938e83b4f1ea0,670883ec613b6a280f7c6648,2024-10-10_20h49.44.051,WTP_SM_Choice,2022.2.1,Win32,120.4819277,,,,,,,,,,,,,,,,,,,,,,,,,,,,,,,,,,,,,,,,,,,,,
,,66f899c9525316803c5d75c0,6685aa9113c938e83b4f1ea0,670883ec613b6a280f7c6648,2024-10-10_20h49.44.051,WTP_SM_Choice,2022.2.1,Win32,120.4819277,space,15.703,,,,,,,,,,,,,,,,,,,,,,,,,,,,,,,,,,,,,,,,,,,
,,66f899c9525316803c5d75c0,6685aa9113c938e83b4f1ea0,670883ec613b6a280f7c6648,2024-10-10_20h49.44.051,WTP_SM_Choice,2022.2.1,Win32,120.4819277,,,space,2.055,space,0.996,NAN,,NAN,0,6,,0,0,0,0,1,1,Charlie,Rej,Participant_Images/66f899c9525316803c5d75c0/66f899c9525316803c5d75c0_Images/66f899c9525316803c5d75c0_Image_4.jpeg,did not like,3.613205605,,,,,,,,,,,,,,,,,,,,,,
,,66f899c9525316803c5d75c0,6685aa9113c938e83b4f1ea0,670883ec613b6a280f7c6648,2024-10-10_20h49.44.051,WTP_SM_Choice,2022.2.1,Win32,120.4819277,,,,,space,1.133,NAN,,NAN,0,6,,0,1,1,1,1,2,Charlie,Rej,Participant_Images/66f899c9525316803c5d75c0/66f899c9525316803c5d75c0_Images/66f899c9525316803c5d75c0_Image_5.jpeg,did not like,4.988446431,,,,,,,,,,,,,,,,,,,,,,
,,66f899c9525316803c5d75c0,6685aa9113c938e83b4f1ea0,670883ec613b6a280f7c6648,2024-10-10_20h49.44.051,WTP_SM_Choice,2022.2.1,Win32,120.4819277,,,,,space,1.009,NAN,,NAN,0,6,,0,2,2,2,1,3,Charlie,Rej,Participant_Images/66f899c9525316803c5d75c0/66f899c9525316803c5d75c0_Images/66f899c9525316803c5d75c0_Image_12.jpeg,did not like,3.470791822,,,,,,,,,,,,,,,,,,,,,,
,,66f899c9525316803c5d75c0,6685aa9113c938e83b4f1ea0,670883ec613b6a280f7c6648,2024-10-10_20h49.44.051,WTP_SM_Choice,2022.2.1,Win32,120.4819277,,,,,space,0.71,NAN,,NAN,0,6,,0,3,3,3,1,4,Charlie,Rej,Participant_Images/66f899c9525316803c5d75c0/66f899c9525316803c5d75c0_Images/66f899c9525316803c5d75c0_Image_3.jpeg,did not like,3.820572462,,,,,,,,,,,,,,,,,,,,,,
,,66f899c9525316803c5d75c0,6685aa9113c938e83b4f1ea0,670883ec613b6a280f7c6648,2024-10-10_20h49.44.051,WTP_SM_Choice,2022.2.1,Win32,120.4819277,,,,,,,,,,,,,,,,,,1,,,,,,space,1.28,space,10.111,0.01,1,7.058,0,0,0,0,1,Write creative story pieces in the comfort of my room,Watch movies with my girlfriend in my room,0.01,0.01,4.4,1,,,,
,,66f899c9525316803c5d75c0,6685aa9113c938e83b4f1ea0,670883ec613b6a280f7c6648,2024-10-10_20h49.44.051,WTP_SM_Choice,2022.2.1,Win32,120.4819277,,,,,,,,,,,,,,,,,,2,,,,,,,,,,,,,0,1,1,1,1,Working at my donut shop to earn money,Eat dinner with my family every day of the week,0.02,0.01,8.8,1,,,,
,,66f899c9525316803c5d75c0,6685aa9113c938e83b4f1ea0,670883ec613b6a280f7c6648,2024-10-10_20h49.44.051,WTP_SM_Choice,2022.2.1,Win32,120.4819277,,,,,,,,,,,,,,,,,,3,,,,,,,,,,0.01,2,2.928,0,2,2,2,1,Play tennis with my club members at school,Finish puzzles that i bought in my game room,0.03,0.01,3.3,0,,,,
,,66f899c9525316803c5d75c0,6685aa9113c938e83b4f1ea0,670883ec613b6a280f7c6648,2024-10-10_20h49.44.051,WTP_SM_Choice,2022.2.1,Win32,120.4819277,,,,,,,,,,,,,,,,,,4,,,,,,,,,,0.01,2,2.395,0,3,3,3,1,Sleep in with my girlfriend on rainy days,Working at my donut shop to earn money,0.04,0.01,1.1,0,,,,
,,66f899c9525316803c5d75c0,6685aa9113c938e83b4f1ea0,670883ec613b6a280f7c6648,2024-10-10_20h49.44.051,WTP_SM_Choice,2022.2.1,Win32,120.4819277,,,,,,,,,,,,,,,,,,5,,,,,,,,,,0.01,2,2.565,0,4,4,4,1,Window shop with my girlfriend at high end malls,Look for outfits at the mall,0.05,0.01,1.1,0,,,,
,,66f899c9525316803c5d75c0,6685aa9113c938e83b4f1ea0,670883ec613b6a280f7c6648,2024-10-10_20h49.44.051,WTP_SM_Choice,2022.2.1,Win32,120.4819277,,,,,,,NAN,,NAN,0.04,5.96,,0,4,4,4,1,5,Charlie,Rej,Participant_Images/66f899c9525316803c5d75c0/66f899c9525316803c5d75c0_Images/66f899c9525316803c5d75c0_Image_2.jpeg,did not like,2.455989137,,,,,,,,,,,,,,,,,,,,,,
,,66f899c9525316803c5d75c0,6685aa9113c938e83b4f1ea0,670883ec613b6a280f7c6648,2024-10-10_20h49.44.051,WTP_SM_Choice,2022.2.1,Win32,120.4819277,,,,,space,1.588,NAN,,NAN,0.04,5.96,,0,5,5,5,1,6,Charlie,Rej,Participant_Images/66f899c9525316803c5d75c0/66f899c9525316803c5d75c0_Images/66f899c9525316803c5d75c0_Image_15.jpeg,did not like,3.79605092,,,,,,,,,,,,,,,,,,,,,,
,,66f899c9525316803c5d75c0,6685aa9113c938e83b4f1ea0,670883ec613b6a280f7c6648,2024-10-10_20h49.44.051,WTP_SM_Choice,2022.2.1,Win32,120.4819277,,,,,space,0.894,NAN,,NAN,0.04,5.96,,0,6,6,6,1,7,Charlie,Rej,Participant_Images/66f899c9525316803c5d75c0/66f899c9525316803c5d75c0_Images/66f899c9525316803c5d75c0_Image_14.jpeg,did not like,3.562416326,,,,,,,,,,,,,,,,,,,,,,
,,66f899c9525316803c5d75c0,6685aa9113c938e83b4f1ea0,670883ec613b6a280f7c6648,2024-10-10_20h49.44.051,WTP_SM_Choice,2022.2.1,Win32,120.4819277,,,,,space,1.075,NAN,,NAN,0.04,5.96,,0,7,7,7,1,8,Charlie,Rej,Participant_Images/66f899c9525316803c5d75c0/66f899c9525316803c5d75c0_Images/66f899c9525316803c5d75c0_Image_18.jpeg,did not like,2.843822497,,,,,,,,,,,,,,,,,,,,,,
,,66f899c9525316803c5d75c0,6685aa9113c938e83b4f1ea0,670883ec613b6a280f7c6648,2024-10-10_20h49.44.051,WTP_SM_Choice,2022.2.1,Win32,120.4819277,,,,,space,0.782,NAN,,NAN,0.04,5.96,,0,8,8,8,1,9,Charlie,Rej,Participant_Images/66f899c9525316803c5d75c0/66f899c9525316803c5d75c0_Images/66f899c9525316803c5d75c0_Image_8.jpeg,liked,3.546495948,,,,,,,,,,,,,,,,,,,,,,
,,66f899c9525316803c5d75c0,6685aa9113c938e83b4f1ea0,670883ec613b6a280f7c6648,2024-10-10_20h49.44.051,WTP_SM_Choice,2022.2.1,Win32,120.4819277,,,,,,,,,,,,,,,,,,6,,,,,,space,14.686,space,8.009,0.01,1,3.193,0,0,0,0,1,Play games online in my gaming room at home,Go squishmallow hunting with my girlfriend on holidays,0.01,0.02,3.3,1,,,,
,,66f899c9525316803c5d75c0,6685aa9113c938e83b4f1ea0,670883ec613b6a280f7c6648,2024-10-10_20h49.44.051,WTP_SM_Choice,2022.2.1,Win32,120.4819277,,,,,,,,,,,,,,,,,,7,,,,,,,,,,0.02,2,4.015,0,1,1,1,1,Study for classes with my university friends,Walk around my university campus,0.02,0.02,1.1,0,,,,
,,66f899c9525316803c5d75c0,6685aa9113c938e83b4f1ea0,670883ec613b6a280f7c6648,2024-10-10_20h49.44.051,WTP_SM_Choice,2022.2.1,Win32,120.4819277,,,,,,,,,,,,,,,,,,8,,,,,,,,,,0.02,2,1.895,0,2,2,2,1,Play games online in my gaming room at home,Watch movies with my girlfriend in my room,0.03,0.02,1.1,1,,,,
,,66f899c9525316803c5d75c0,6685aa9113c938e83b4f1ea0,670883ec613b6a280f7c6648,2024-10-10_20h49.44.051,WTP_SM_Choice,2022.2.1,Win32,120.4819277,,,,,,,,,,,,,,,,,,9,,,,,,,,,,0.02,2,1.915,0,3,3,3,1,Read a book in my room,Go bar hopping with my friends on weekends,0.04,0.02,4.4,1,,,,
,,66f899c9525316803c5d75c0,6685aa9113c938e83b4f1ea0,670883ec613b6a280f7c6648,2024-10-10_20h49.44.051,WTP_SM_Choice,2022.2.1,Win32,120.4819277,,,,,,,,,,,,,,,,,,10,,,,,,,,,,0.02,2,1.461,0,4,4,4,1,Go squishmallow hunting with my girlfriend on holidays,Finish puzzles that i bought in my game room,0.05,0.02,1.1,0,,,,
,,66f899c9525316803c5d75c0,6685aa9113c938e83b4f1ea0,670883ec613b6a280f7c6648,2024-10-10_20h49.44.051,WTP_SM_Choice,2022.2.1,Win32,120.4819277,,,,,,,NAN,,NAN,0.13,5.87,,0,9,9,9,1,10,Charlie,Rej,Participant_Images/66f899c9525316803c5d75c0/66f899c9525316803c5d75c0_Images/66f899c9525316803c5d75c0_Image_11.jpeg,liked,1.672012706,,,,,,,,,,,,,,,,,,,,,,
,,66f899c9525316803c5d75c0,6685aa9113c938e83b4f1ea0,670883ec613b6a280f7c6648,2024-10-10_20h49.44.051,WTP_SM_Choice,2022.2.1,Win32,120.4819277,,,,,space,1.026,NAN,,NAN,0.13,5.87,,0,10,10,10,1,11,Charlie,Rej,Participant_Images/66f899c9525316803c5d75c0/66f899c9525316803c5d75c0_Images/66f899c9525316803c5d75c0_Image_24.jpeg,did not like,4.942172136,,,,,,,,,,,,,,,,,,,,,,
,,66f899c9525316803c5d75c0,6685aa9113c938e83b4f1ea0,670883ec613b6a280f7c6648,2024-10-10_20h49.44.051,WTP_SM_Choice,2022.2.1,Win32,120.4819277,,,,,space,8.547,NAN,,NAN,0.13,5.87,,0,11,11,11,1,12,Charlie,Rej,Participant_Images/66f899c9525316803c5d75c0/66f899c9525316803c5d75c0_Images/66f899c9525316803c5d75c0_Image_17.jpeg,liked,2.50187214,,,,,,,,,,,,,,,,,,,,,,
,,66f899c9525316803c5d75c0,6685aa9113c938e83b4f1ea0,670883ec613b6a280f7c6648,2024-10-10_20h49.44.051,WTP_SM_Choice,2022.2.1,Win32,120.4819277,,,,,space,2.592,NAN,,NAN,0.13,5.87,,0,12,12,12,1,13,Charlie,Rej,Participant_Images/66f899c9525316803c5d75c0/66f899c9525316803c5d75c0_Images/66f899c9525316803c5d75c0_Image_22.jpeg,did not like,2.071164779,,,,,,,,,,,,,,,,,,,,,,
,,66f899c9525316803c5d75c0,6685aa9113c938e83b4f1ea0,670883ec613b6a280f7c6648,2024-10-10_20h49.44.051,WTP_SM_Choice,2022.2.1,Win32,120.4819277,,,,,space,1.202,NAN,,NAN,0.13,5.87,,0,13,13,13,1,14,Charlie,Rej,Participant_Images/66f899c9525316803c5d75c0/66f899c9525316803c5d75c0_Images/66f899c9525316803c5d75c0_Image_7.jpeg,did not like,5.336503566,,,,,,,,,,,,,,,,,,,,,,
,,66f899c9525316803c5d75c0,6685aa9113c938e83b4f1ea0,670883ec613b6a280f7c6648,2024-10-10_20h49.44.051,WTP_SM_Choice,2022.2.1,Win32,120.4819277,,,,,,,,,,,,,,,,,,11,,,,,,space,0.34,space,3.461,0.01,1,1.626,0,0,0,0,1,Watch movies with my girlfriend in my room,Finish puzzles that i bought in my game room,0.01,0.03,3.3,0,,,,
,,66f899c9525316803c5d75c0,6685aa9113c938e83b4f1ea0,670883ec613b6a280f7c6648,2024-10-10_20h49.44.051,WTP_SM_Choice,2022.2.1,Win32,120.4819277,,,,,,,,,,,,,,,,,,12,,,,,,,,,,0.02,1,2.109,0,1,1,1,1,Play tennis with my club members at school,Working at my donut shop to earn money,0.02,0.03,4.4,0,,,,
,,66f899c9525316803c5d75c0,6685aa9113c938e83b4f1ea0,670883ec613b6a280f7c6648,2024-10-10_20h49.44.051,WTP_SM_Choice,2022.2.1,Win32,120.4819277,,,,,,,,,,,,,,,,,,13,,,,,,,,,,0.03,2,3.201,0,2,2,2,1,Play tennis with my club members at school,Go to the gym to work on chest legs and back,0.03,0.03,1.1,0,,,,
,,66f899c9525316803c5d75c0,6685aa9113c938e83b4f1ea0,670883ec613b6a280f7c6648,2024-10-10_20h49.44.051,WTP_SM_Choice,2022.2.1,Win32,120.4819277,,,,,,,,,,,,,,,,,,14,,,,,,,,,,0.03,2,1.064,0,3,3,3,1,Sightsee while wandering the city,Eat dinner with my family every day of the week,0.04,0.03,3.3,1,,,,
,,66f899c9525316803c5d75c0,6685aa9113c938e83b4f1ea0,670883ec613b6a280f7c6648,2024-10-10_20h49.44.051,WTP_SM_Choice,2022.2.1,Win32,120.4819277,,,,,,,,,,,,,,,,,,15,,,,,,,,,,0.03,2,1.374,0,4,4,4,1,Drive anywhere in my toyota camry,Study for classes with my university friends,0.05,0.03,4.4,1,,,,
,,66f899c9525316803c5d75c0,6685aa9113c938e83b4f1ea0,670883ec613b6a280f7c6648,2024-10-10_20h49.44.051,WTP_SM_Choice,2022.2.1,Win32,120.4819277,,,,,,,NAN,,NAN,0.25,5.75,,0,14,14,14,1,15,Charlie,Rej,Participant_Images/66f899c9525316803c5d75c0/66f899c9525316803c5d75c0_Images/66f899c9525316803c5d75c0_Image_21.jpeg,did not like,2.642157193,,,,,,,,,,,,,,,,,,,,,,
,,66f899c9525316803c5d75c0,6685aa9113c938e83b4f1ea0,670883ec613b6a280f7c6648,2024-10-10_20h49.44.051,WTP_SM_Choice,2022.2.1,Win32,120.4819277,,,,,space,0.598,NAN,,NAN,0.25,5.75,,0,15,15,15,1,16,Charlie,Rej,Participant_Images/66f899c9525316803c5d75c0/66f899c9525316803c5d75c0_Images/66f899c9525316803c5d75c0_Image_1.jpeg,liked,4.456234322,,,,,,,,,,,,,,,,,,,,,,
,,66f899c9525316803c5d75c0,6685aa9113c938e83b4f1ea0,670883ec613b6a280f7c6648,2024-10-10_20h49.44.051,WTP_SM_Choice,2022.2.1,Win32,120.4819277,,,,,space,0.559,NAN,,NAN,0.25,5.75,,0,16,16,16,1,17,Charlie,Rej,Participant_Images/66f899c9525316803c5d75c0/66f899c9525316803c5d75c0_Images/66f899c9525316803c5d75c0_Image_6.jpeg,did not like,4.438512181,,,,,,,,,,,,,,,,,,,,,,
,,66f899c9525316803c5d75c0,6685aa9113c938e83b4f1ea0,670883ec613b6a280f7c6648,2024-10-10_20h49.44.051,WTP_SM_Choice,2022.2.1,Win32,120.4819277,,,,,space,0.594,NAN,,NAN,0.25,5.75,,0,17,17,17,1,18,Charlie,Rej,Participant_Images/66f899c9525316803c5d75c0/66f899c9525316803c5d75c0_Images/66f899c9525316803c5d75c0_Image_10.jpeg,did not like,2.682944783,,,,,,,,,,,,,,,,,,,,,,
,,66f899c9525316803c5d75c0,6685aa9113c938e83b4f1ea0,670883ec613b6a280f7c6648,2024-10-10_20h49.44.051,WTP_SM_Choice,2022.2.1,Win32,120.4819277,,,,,space,1.551,NAN,,NAN,0.25,5.75,,0,18,18,18,1,19,Charlie,Rej,Participant_Images/66f899c9525316803c5d75c0/66f899c9525316803c5d75c0_Images/66f899c9525316803c5d75c0_Image_23.jpeg,did not like,4.51984296,,,,,,,,,,,,,,,,,,,,,,
,,66f899c9525316803c5d75c0,6685aa9113c938e83b4f1ea0,670883ec613b6a280f7c6648,2024-10-10_20h49.44.051,WTP_SM_Choice,2022.2.1,Win32,120.4819277,,,,,,,,,,,,,,,,,,16,,,,,,space,9.187,space,1.858,0.01,1,1.479,0,0,0,0,1,Go bar hopping with my friends on weekends,Finish puzzles that i bought in my game room,0.01,0.04,1.1,0,,,,
,,66f899c9525316803c5d75c0,6685aa9113c938e83b4f1ea0,670883ec613b6a280f7c6648,2024-10-10_20h49.44.051,WTP_SM_Choice,2022.2.1,Win32,120.4819277,,,,,,,,,,,,,,,,,,17,,,,,,,,,,0.02,1,1.527,0,1,1,1,1,Write creative story pieces in the comfort of my room,Watch league of legends championship with my friends online,0.02,0.04,8.8,1,,,,
,,66f899c9525316803c5d75c0,6685aa9113c938e83b4f1ea0,670883ec613b6a280f7c6648,2024-10-10_20h49.44.051,WTP_SM_Choice,2022.2.1,Win32,120.4819277,,,,,,,,,,,,,,,,,,18,,,,,,,,,,0.03,1,1.754,0,2,2,2,1,Eat dinner with my family every day of the week,Drive anywhere in my toyota camry,0.03,0.04,3.3,0,,,,
,,66f899c9525316803c5d75c0,6685aa9113c938e83b4f1ea0,670883ec613b6a280f7c6648,2024-10-10_20h49.44.051,WTP_SM_Choice,2022.2.1,Win32,120.4819277,,,,,,,,,,,,,,,,,,19,,,,,,,,,,0.04,1,2.97,0,3,3,3,1,Drive anywhere in my toyota camry,Go squishmallow hunting with my girlfriend on holidays,0.04,0.04,3.3,1,,,,
,,66f899c9525316803c5d75c0,6685aa9113c938e83b4f1ea0,670883ec613b6a280f7c6648,2024-10-10_20h49.44.051,WTP_SM_Choice,2022.2.1,Win32,120.4819277,,,,,,,,,,,,,,,,,,20,,,,,,,,,,0.04,2,1.861,0,4,4,4,1,Eat dinner with my family every day of the week,Go to the gym to work on chest legs and back,0.05,0.04,1.1,0,,,,
,,66f899c9525316803c5d75c0,6685aa9113c938e83b4f1ea0,670883ec613b6a280f7c6648,2024-10-10_20h49.44.051,WTP_SM_Choice,2022.2.1,Win32,120.4819277,,,,,,,NAN,,NAN,0.39,5.61,,0,19,19,19,1,20,Charlie,Rej,Participant_Images/66f899c9525316803c5d75c0/66f899c9525316803c5d75c0_Images/66f899c9525316803c5d75c0_Image_20.jpeg,did not like,3.195382774,,,,,,,,,,,,,,,,,,,,,,
,,66f899c9525316803c5d75c0,6685aa9113c938e83b4f1ea0,670883ec613b6a280f7c6648,2024-10-10_20h49.44.051,WTP_SM_Choice,2022.2.1,Win32,120.4819277,,,,,space,0.717,NAN,,NAN,0.39,5.61,,0,20,20,20,1,21,Charlie,Rej,Participant_Images/66f899c9525316803c5d75c0/66f899c9525316803c5d75c0_Images/66f899c9525316803c5d75c0_Image_16.jpeg,did not like,1.779333479,,,,,,,,,,,,,,,,,,,,,,
,,66f899c9525316803c5d75c0,6685aa9113c938e83b4f1ea0,670883ec613b6a280f7c6648,2024-10-10_20h49.44.051,WTP_SM_Choice,2022.2.1,Win32,120.4819277,,,,,space,1.127,NAN,,NAN,0.39,5.61,,0,21,21,21,1,22,Charlie,Rej,Participant_Images/66f899c9525316803c5d75c0/66f899c9525316803c5d75c0_Images/66f899c9525316803c5d75c0_Image_13.jpeg,did not like,4.312468682,,,,,,,,,,,,,,,,,,,,,,
,,66f899c9525316803c5d75c0,6685aa9113c938e83b4f1ea0,670883ec613b6a280f7c6648,2024-10-10_20h49.44.051,WTP_SM_Choice,2022.2.1,Win32,120.4819277,,,,,space,7.882,NAN,,NAN,0.39,5.61,,0,22,22,22,1,23,Charlie,Rej,Participant_Images/66f899c9525316803c5d75c0/66f899c9525316803c5d75c0_Images/66f899c9525316803c5d75c0_Image_9.jpeg,liked,4.940433059,,,,,,,,,,,,,,,,,,,,,,
,,66f899c9525316803c5d75c0,6685aa9113c938e83b4f1ea0,670883ec613b6a280f7c6648,2024-10-10_20h49.44.051,WTP_SM_Choice,2022.2.1,Win32,120.4819277,,,,,space,1.067,NAN,,NAN,0.39,5.61,,0,23,23,23,1,24,Charlie,Rej,Participant_Images/66f899c9525316803c5d75c0/66f899c9525316803c5d75c0_Images/66f899c9525316803c5d75c0_Image_25.jpeg,liked,2.7105123,,,,,,,,,,,,,,,,,,,,,,
,,66f899c9525316803c5d75c0,6685aa9113c938e83b4f1ea0,670883ec613b6a280f7c6648,2024-10-10_20h49.44.051,WTP_SM_Choice,2022.2.1,Win32,120.4819277,,,,,,,,,,,,,,,,,,21,,,,,,space,0.614,space,3.879,0.01,1,1.51,0,0,0,0,1,Go on vacation with friends to the beach,Go to the gym to work on chest legs and back,0.01,0.05,8.8,0,,,,
,,66f899c9525316803c5d75c0,6685aa9113c938e83b4f1ea0,670883ec613b6a280f7c6648,2024-10-10_20h49.44.051,WTP_SM_Choice,2022.2.1,Win32,120.4819277,,,,,,,,,,,,,,,,,,22,,,,,,,,,,0.02,1,1.775,0,1,1,1,1,Go squishmallow hunting with my girlfriend on holidays,Walk around my university campus,0.02,0.05,4.4,0,,,,
,,66f899c9525316803c5d75c0,6685aa9113c938e83b4f1ea0,670883ec613b6a280f7c6648,2024-10-10_20h49.44.051,WTP_SM_Choice,2022.2.1,Win32,120.4819277,,,,,,,,,,,,,,,,,,23,,,,,,,,,,0.03,1,1.191,0,2,2,2,1,Sightsee while wandering the city,Window shop with my girlfriend at high end malls,0.03,0.05,1.1,1,,,,
,,66f899c9525316803c5d75c0,6685aa9113c938e83b4f1ea0,670883ec613b6a280f7c6648,2024-10-10_20h49.44.051,WTP_SM_Choice,2022.2.1,Win32,120.4819277,,,,,,,,,,,,,,,,,,24,,,,,,,,,,0.04,1,1.738,0,3,3,3,1,Window shop with my girlfriend at high end malls,Read a book in my room,0.04,0.05,4.4,0,,,,
,,66f899c9525316803c5d75c0,6685aa9113c938e83b4f1ea0,670883ec613b6a280f7c6648,2024-10-10_20h49.44.051,WTP_SM_Choice,2022.2.1,Win32,120.4819277,,,,,,,,,,,,,,,,,,25,,,,,,,,,,0.05,2,2.961,0,4,4,4,1,Look for outfits at the mall,Play tennis with my club members at school,0.05,0.05,3.3,1,,,,
,,66f899c9525316803c5d75c0,6685aa9113c938e83b4f1ea0,670883ec613b6a280f7c6648,2024-10-10_20h49.44.051,WTP_SM_Choice,2022.2.1,Win32,120.4819277,,,,,,,1,,6,0.54,5.46,,0,24,24,24,1,25,Charlie,Rej,Participant_Images/66f899c9525316803c5d75c0/66f899c9525316803c5d75c0_Images/66f899c9525316803c5d75c0_Image_19.jpeg,liked,3.602308302,,,,,,,,,,,,,,,,,,,space,1.355,,
,,66f899c9525316803c5d75c0,6685aa9113c938e83b4f1ea0,670883ec613b6a280f7c6648,2024-10-10_20h49.44.051,WTP_SM_Choice,2022.2.1,Win32,120.4819277,,,space,6.226,space,2.872,NAN,,NAN,0.54,5.46,,0,25,25,25,1,26,Riley,Rej,Participant_Images/66f899c9525316803c5d75c0/66f899c9525316803c5d75c0_Images/66f899c9525316803c5d75c0_Image_25.jpeg,did not like,4.106391878,,,,,,,,,,,,,,,,,,,,,,
,,66f899c9525316803c5d75c0,6685aa9113c938e83b4f1ea0,670883ec613b6a280f7c6648,2024-10-10_20h49.44.051,WTP_SM_Choice,2022.2.1,Win32,120.4819277,,,,,space,0.517,NAN,,NAN,0.54,5.46,,0,26,26,26,1,27,Riley,Rej,Participant_Images/66f899c9525316803c5d75c0/66f899c9525316803c5d75c0_Images/66f899c9525316803c5d75c0_Image_8.jpeg,did not like,3.799433026,,,,,,,,,,,,,,,,,,,,,,
,,66f899c9525316803c5d75c0,6685aa9113c938e83b4f1ea0,670883ec613b6a280f7c6648,2024-10-10_20h49.44.051,WTP_SM_Choice,2022.2.1,Win32,120.4819277,,,,,space,1.058,NAN,,NAN,0.54,5.46,,0,27,27,27,1,28,Riley,Rej,Participant_Images/66f899c9525316803c5d75c0/66f899c9525316803c5d75c0_Images/66f899c9525316803c5d75c0_Image_23.jpeg,did not like,5.246980764,,,,,,,,,,,,,,,,,,,,,,
,,66f899c9525316803c5d75c0,6685aa9113c938e83b4f1ea0,670883ec613b6a280f7c6648,2024-10-10_20h49.44.051,WTP_SM_Choice,2022.2.1,Win32,120.4819277,,,,,space,1.533,NAN,,NAN,0.54,5.46,,0,28,28,28,1,29,Riley,Rej,Participant_Images/66f899c9525316803c5d75c0/66f899c9525316803c5d75c0_Images/66f899c9525316803c5d75c0_Image_16.jpeg,liked,3.30081769,,,,,,,,,,,,,,,,,,,,,,
,,66f899c9525316803c5d75c0,6685aa9113c938e83b4f1ea0,670883ec613b6a280f7c6648,2024-10-10_20h49.44.051,WTP_SM_Choice,2022.2.1,Win32,120.4819277,,,,,,,,,,,,,,,,,,26,,,,,,space,4.569,space,1.258,0.01,1,3.055,0,0,0,0,1,Write creative story pieces in the comfort of my room,Sleep in with my girlfriend on rainy days,0.01,0.01,4.4,1,,,,
,,66f899c9525316803c5d75c0,6685aa9113c938e83b4f1ea0,670883ec613b6a280f7c6648,2024-10-10_20h49.44.051,WTP_SM_Choice,2022.2.1,Win32,120.4819277,,,,,,,,,,,,,,,,,,27,,,,,,,,,,0.01,2,1.861,0,1,1,1,1,Go on vacation with friends to the beach,Working at my donut shop to earn money,0.02,0.01,3.3,0,,,,
,,66f899c9525316803c5d75c0,6685aa9113c938e83b4f1ea0,670883ec613b6a280f7c6648,2024-10-10_20h49.44.051,WTP_SM_Choice,2022.2.1,Win32,120.4819277,,,,,,,,,,,,,,,,,,28,,,,,,,,,,0.01,2,1.38,0,2,2,2,1,Watch movies with my girlfriend in my room,Read a book in my room,0.03,0.01,3.3,0,,,,
,,66f899c9525316803c5d75c0,6685aa9113c938e83b4f1ea0,670883ec613b6a280f7c6648,2024-10-10_20h49.44.051,WTP_SM_Choice,2022.2.1,Win32,120.4819277,,,,,,,,,,,,,,,,,,29,,,,,,,,,,0.01,2,2.001,0,3,3,3,1,Finish puzzles that i bought in my game room,Eat dinner with my family every day of the week,0.04,0.01,4.4,1,,,,
,,66f899c9525316803c5d75c0,6685aa9113c938e83b4f1ea0,670883ec613b6a280f7c6648,2024-10-10_20h49.44.051,WTP_SM_Choice,2022.2.1,Win32,120.4819277,,,,,,,,,,,,,,,,,,30,,,,,,,,,,0.01,2,2.2,0,4,4,4,1,Working at my donut shop to earn money,Watch movies with my girlfriend in my room,0.05,0.01,8.8,1,,,,
,,66f899c9525316803c5d75c0,6685aa9113c938e83b4f1ea0,670883ec613b6a280f7c6648,2024-10-10_20h49.44.051,WTP_SM_Choice,2022.2.1,Win32,120.4819277,,,,,,,NAN,,NAN,0.59,5.41,,0,29,29,29,1,30,Riley,Rej,Participant_Images/66f899c9525316803c5d75c0/66f899c9525316803c5d75c0_Images/66f899c9525316803c5d75c0_Image_12.jpeg,did not like,1.661473164,,,,,,,,,,,,,,,,,,,,,,
,,66f899c9525316803c5d75c0,6685aa9113c938e83b4f1ea0,670883ec613b6a280f7c6648,2024-10-10_20h49.44.051,WTP_SM_Choice,2022.2.1,Win32,120.4819277,,,,,space,1.285,NAN,,NAN,0.59,5.41,,0,30,30,30,1,31,Riley,Rej,Participant_Images/66f899c9525316803c5d75c0/66f899c9525316803c5d75c0_Images/66f899c9525316803c5d75c0_Image_15.jpeg,did not like,3.613205605,,,,,,,,,,,,,,,,,,,,,,
,,66f899c9525316803c5d75c0,6685aa9113c938e83b4f1ea0,670883ec613b6a280f7c6648,2024-10-10_20h49.44.051,WTP_SM_Choice,2022.2.1,Win32,120.4819277,,,,,space,2.168,NAN,,NAN,0.59,5.41,,0,31,31,31,1,32,Riley,Rej,Participant_Images/66f899c9525316803c5d75c0/66f899c9525316803c5d75c0_Images/66f899c9525316803c5d75c0_Image_24.jpeg,liked,4.988446431,,,,,,,,,,,,,,,,,,,,,,
,,66f899c9525316803c5d75c0,6685aa9113c938e83b4f1ea0,670883ec613b6a280f7c6648,2024-10-10_20h49.44.051,WTP_SM_Choice,2022.2.1,Win32,120.4819277,,,,,space,0.449,NAN,,NAN,0.59,5.41,,0,32,32,32,1,33,Riley,Rej,Participant_Images/66f899c9525316803c5d75c0/66f899c9525316803c5d75c0_Images/66f899c9525316803c5d75c0_Image_14.jpeg,did not like,3.470791822,,,,,,,,,,,,,,,,,,,,,,
,,66f899c9525316803c5d75c0,6685aa9113c938e83b4f1ea0,670883ec613b6a280f7c6648,2024-10-10_20h49.44.051,WTP_SM_Choice,2022.2.1,Win32,120.4819277,,,,,space,1.607,NAN,,NAN,0.59,5.41,,0,33,33,33,1,34,Riley,Rej,Participant_Images/66f899c9525316803c5d75c0/66f899c9525316803c5d75c0_Images/66f899c9525316803c5d75c0_Image_10.jpeg,did not like,3.820572462,,,,,,,,,,,,,,,,,,,,,,
,,66f899c9525316803c5d75c0,6685aa9113c938e83b4f1ea0,670883ec613b6a280f7c6648,2024-10-10_20h49.44.051,WTP_SM_Choice,2022.2.1,Win32,120.4819277,,,,,,,,,,,,,,,,,,31,,,,,,space,1.439,space,1.591,0.01,1,1.858,0,0,0,0,1,Sleep in with my girlfriend on rainy days,Read a book in my room,0.01,0.02,8.8,0,,,,
,,66f899c9525316803c5d75c0,6685aa9113c938e83b4f1ea0,670883ec613b6a280f7c6648,2024-10-10_20h49.44.051,WTP_SM_Choice,2022.2.1,Win32,120.4819277,,,,,,,,,,,,,,,,,,32,,,,,,,,,,0.02,1,2.822,0,1,1,1,1,Play tennis with my club members at school,Sightsee while wandering the city,0.02,0.02,1.1,0,,,,
,,66f899c9525316803c5d75c0,6685aa9113c938e83b4f1ea0,670883ec613b6a280f7c6648,2024-10-10_20h49.44.051,WTP_SM_Choice,2022.2.1,Win32,120.4819277,,,,,,,,,,,,,,,,,,33,,,,,,,,,,0.02,2,1.78,0,2,2,2,1,Working at my donut shop to earn money,Watch league of legends championship with my friends online,0.03,0.02,4.4,1,,,,
,,66f899c9525316803c5d75c0,6685aa9113c938e83b4f1ea0,670883ec613b6a280f7c6648,2024-10-10_20h49.44.051,WTP_SM_Choice,2022.2.1,Win32,120.4819277,,,,,,,,,,,,,,,,,,34,,,,,,,,,,0.02,2,1.338,0,3,3,3,1,Go on vacation with friends to the beach,Walk around my university campus,0.04,0.02,3.3,0,,,,
,,66f899c9525316803c5d75c0,6685aa9113c938e83b4f1ea0,670883ec613b6a280f7c6648,2024-10-10_20h49.44.051,WTP_SM_Choice,2022.2.1,Win32,120.4819277,,,,,,,,,,,,,,,,,,35,,,,,,,,,,0.02,2,1.304,0,4,4,4,1,Walk around my university campus,Eat dinner with my family every day of the week,0.05,0.02,1.1,1,,,,
,,66f899c9525316803c5d75c0,6685aa9113c938e83b4f1ea0,670883ec613b6a280f7c6648,2024-10-10_20h49.44.051,WTP_SM_Choice,2022.2.1,Win32,120.4819277,,,,,,,NAN,,NAN,0.68,5.32,,0,34,34,34,1,35,Riley,Rej,Participant_Images/66f899c9525316803c5d75c0/66f899c9525316803c5d75c0_Images/66f899c9525316803c5d75c0_Image_13.jpeg,did not like,2.455989137,,,,,,,,,,,,,,,,,,,,,,
,,66f899c9525316803c5d75c0,6685aa9113c938e83b4f1ea0,670883ec613b6a280f7c6648,2024-10-10_20h49.44.051,WTP_SM_Choice,2022.2.1,Win32,120.4819277,,,,,space,0.633,NAN,,NAN,0.68,5.32,,0,35,35,35,1,36,Riley,Rej,Participant_Images/66f899c9525316803c5d75c0/66f899c9525316803c5d75c0_Images/66f899c9525316803c5d75c0_Image_3.jpeg,did not like,3.79605092,,,,,,,,,,,,,,,,,,,,,,
,,66f899c9525316803c5d75c0,6685aa9113c938e83b4f1ea0,670883ec613b6a280f7c6648,2024-10-10_20h49.44.051,WTP_SM_Choice,2022.2.1,Win32,120.4819277,,,,,space,3.617,NAN,,NAN,0.68,5.32,,0,36,36,36,1,37,Riley,Rej,Participant_Images/66f899c9525316803c5d75c0/66f899c9525316803c5d75c0_Images/66f899c9525316803c5d75c0_Image_9.jpeg,did not like,3.562416326,,,,,,,,,,,,,,,,,,,,,,
,,66f899c9525316803c5d75c0,6685aa9113c938e83b4f1ea0,670883ec613b6a280f7c6648,2024-10-10_20h49.44.051,WTP_SM_Choice,2022.2.1,Win32,120.4819277,,,,,space,2.341,NAN,,NAN,0.68,5.32,,0,37,37,37,1,38,Riley,Rej,Participant_Images/66f899c9525316803c5d75c0/66f899c9525316803c5d75c0_Images/66f899c9525316803c5d75c0_Image_6.jpeg,did not like,2.843822497,,,,,,,,,,,,,,,,,,,,,,
,,66f899c9525316803c5d75c0,6685aa9113c938e83b4f1ea0,670883ec613b6a280f7c6648,2024-10-10_20h49.44.051,WTP_SM_Choice,2022.2.1,Win32,120.4819277,,,,,space,2,NAN,,NAN,0.68,5.32,,0,38,38,38,1,39,Riley,Rej,Participant_Images/66f899c9525316803c5d75c0/66f899c9525316803c5d75c0_Images/66f899c9525316803c5d75c0_Image_7.jpeg,liked,3.546495948,,,,,,,,,,,,,,,,,,,,,,
,,66f899c9525316803c5d75c0,6685aa9113c938e83b4f1ea0,670883ec613b6a280f7c6648,2024-10-10_20h49.44.051,WTP_SM_Choice,2022.2.1,Win32,120.4819277,,,,,,,,,,,,,,,,,,36,,,,,,space,12.597,space,1.121,0.01,1,1.42,0,0,0,0,1,Sightsee while wandering the city,Go bar hopping with my friends on weekends,0.01,0.03,3.3,1,,,,
,,66f899c9525316803c5d75c0,6685aa9113c938e83b4f1ea0,670883ec613b6a280f7c6648,2024-10-10_20h49.44.051,WTP_SM_Choice,2022.2.1,Win32,120.4819277,,,,,,,,,,,,,,,,,,37,,,,,,,,,,0.02,1,3.992,0,1,1,1,1,Sleep in with my girlfriend on rainy days,Drive anywhere in my toyota camry,0.02,0.03,1.1,0,,,,
,,66f899c9525316803c5d75c0,6685aa9113c938e83b4f1ea0,670883ec613b6a280f7c6648,2024-10-10_20h49.44.051,WTP_SM_Choice,2022.2.1,Win32,120.4819277,,,,,,,,,,,,,,,,,,38,,,,,,,,,,0.03,2,2.821,0,2,2,2,1,Play games online in my gaming room at home,Go on vacation with friends to the beach,0.03,0.03,1.1,1,,,,
,,66f899c9525316803c5d75c0,6685aa9113c938e83b4f1ea0,670883ec613b6a280f7c6648,2024-10-10_20h49.44.051,WTP_SM_Choice,2022.2.1,Win32,120.4819277,,,,,,,,,,,,,,,,,,39,,,,,,,,,,0.03,2,5.313,0,3,3,3,1,Read a book in my room,Go on vacation with friends to the beach,0.04,0.03,3.3,1,,,,
,,66f899c9525316803c5d75c0,6685aa9113c938e83b4f1ea0,670883ec613b6a280f7c6648,2024-10-10_20h49.44.051,WTP_SM_Choice,2022.2.1,Win32,120.4819277,,,,,,,,,,,,,,,,,,40,,,,,,,,,,0.03,2,7.019,0,4,4,4,1,Study for classes with my university friends,Read a book in my room,0.05,0.03,4.4,0,,,,
,,66f899c9525316803c5d75c0,6685aa9113c938e83b4f1ea0,670883ec613b6a280f7c6648,2024-10-10_20h49.44.051,WTP_SM_Choice,2022.2.1,Win32,120.4819277,,,,,,,NAN,,NAN,0.8,5.2,,0,39,39,39,1,40,Riley,Rej,Participant_Images/66f899c9525316803c5d75c0/66f899c9525316803c5d75c0_Images/66f899c9525316803c5d75c0_Image_22.jpeg,did not like,1.672012706,,,,,,,,,,,,,,,,,,,,,,
,,66f899c9525316803c5d75c0,6685aa9113c938e83b4f1ea0,670883ec613b6a280f7c6648,2024-10-10_20h49.44.051,WTP_SM_Choice,2022.2.1,Win32,120.4819277,,,,,space,0.239,NAN,,NAN,0.8,5.2,,0,40,40,40,1,41,Riley,Rej,Participant_Images/66f899c9525316803c5d75c0/66f899c9525316803c5d75c0_Images/66f899c9525316803c5d75c0_Image_18.jpeg,did not like,4.942172136,,,,,,,,,,,,,,,,,,,,,,
,,66f899c9525316803c5d75c0,6685aa9113c938e83b4f1ea0,670883ec613b6a280f7c6648,2024-10-10_20h49.44.051,WTP_SM_Choice,2022.2.1,Win32,120.4819277,,,,,space,6.44,NAN,,NAN,0.8,5.2,,0,41,41,41,1,42,Riley,Rej,Participant_Images/66f899c9525316803c5d75c0/66f899c9525316803c5d75c0_Images/66f899c9525316803c5d75c0_Image_19.jpeg,liked,2.50187214,,,,,,,,,,,,,,,,,,,,,,
,,66f899c9525316803c5d75c0,6685aa9113c938e83b4f1ea0,670883ec613b6a280f7c6648,2024-10-10_20h49.44.051,WTP_SM_Choice,2022.2.1,Win32,120.4819277,,,,,space,1.6,NAN,,NAN,0.8,5.2,,0,42,42,42,1,43,Riley,Rej,Participant_Images/66f899c9525316803c5d75c0/66f899c9525316803c5d75c0_Images/66f899c9525316803c5d75c0_Image_4.jpeg,did not like,2.071164779,,,,,,,,,,,,,,,,,,,,,,
,,66f899c9525316803c5d75c0,6685aa9113c938e83b4f1ea0,670883ec613b6a280f7c6648,2024-10-10_20h49.44.051,WTP_SM_Choice,2022.2.1,Win32,120.4819277,,,,,space,3.61,NAN,,NAN,0.8,5.2,,0,43,43,43,1,44,Riley,Rej,Participant_Images/66f899c9525316803c5d75c0/66f899c9525316803c5d75c0_Images/66f899c9525316803c5d75c0_Image_5.jpeg,did not like,5.336503566,,,,,,,,,,,,,,,,,,,,,,
,,66f899c9525316803c5d75c0,6685aa9113c938e83b4f1ea0,670883ec613b6a280f7c6648,2024-10-10_20h49.44.051,WTP_SM_Choice,2022.2.1,Win32,120.4819277,,,,,,,,,,,,,,,,,,41,,,,,,space,6.307,space,0.848,0.01,1,1.04,0,0,0,0,1,Walk around my university campus,Watch movies with my girlfriend in my room,0.01,0.04,1.1,1,,,,
,,66f899c9525316803c5d75c0,6685aa9113c938e83b4f1ea0,670883ec613b6a280f7c6648,2024-10-10_20h49.44.051,WTP_SM_Choice,2022.2.1,Win32,120.4819277,,,,,,,,,,,,,,,,,,42,,,,,,,,,,0.02,1,2.272,0,1,1,1,1,Watch league of legends championship with my friends online,Drive anywhere in my toyota camry,0.02,0.04,3.3,0,,,,
,,66f899c9525316803c5d75c0,6685aa9113c938e83b4f1ea0,670883ec613b6a280f7c6648,2024-10-10_20h49.44.051,WTP_SM_Choice,2022.2.1,Win32,120.4819277,,,,,,,,,,,,,,,,,,43,,,,,,,,,,0.03,1,1.772,0,2,2,2,1,Look for outfits at the mall,Watch league of legends championship with my friends online,0.03,0.04,1.1,1,,,,
,,66f899c9525316803c5d75c0,6685aa9113c938e83b4f1ea0,670883ec613b6a280f7c6648,2024-10-10_20h49.44.051,WTP_SM_Choice,2022.2.1,Win32,120.4819277,,,,,,,,,,,,,,,,,,44,,,,,,,,,,0.04,2,3.052,0,3,3,3,1,Drive anywhere in my toyota camry,Window shop with my girlfriend at high end malls,0.04,0.04,1.1,1,,,,
,,66f899c9525316803c5d75c0,6685aa9113c938e83b4f1ea0,670883ec613b6a280f7c6648,2024-10-10_20h49.44.051,WTP_SM_Choice,2022.2.1,Win32,120.4819277,,,,,,,,,,,,,,,,,,45,,,,,,,,,,0.04,2,2.229,0,4,4,4,1,Go squishmallow hunting with my girlfriend on holidays,Go to the gym to work on chest legs and back,0.05,0.04,4.4,0,,,,
,,66f899c9525316803c5d75c0,6685aa9113c938e83b4f1ea0,670883ec613b6a280f7c6648,2024-10-10_20h49.44.051,WTP_SM_Choice,2022.2.1,Win32,120.4819277,,,,,,,NAN,,NAN,0.94,5.06,,0,44,44,44,1,45,Riley,Rej,Participant_Images/66f899c9525316803c5d75c0/66f899c9525316803c5d75c0_Images/66f899c9525316803c5d75c0_Image_2.jpeg,did not like,2.642157193,,,,,,,,,,,,,,,,,,,,,,
,,66f899c9525316803c5d75c0,6685aa9113c938e83b4f1ea0,670883ec613b6a280f7c6648,2024-10-10_20h49.44.051,WTP_SM_Choice,2022.2.1,Win32,120.4819277,,,,,space,3.146,NAN,,NAN,0.94,5.06,,0,45,45,45,1,46,Riley,Rej,Participant_Images/66f899c9525316803c5d75c0/66f899c9525316803c5d75c0_Images/66f899c9525316803c5d75c0_Image_1.jpeg,liked,4.456234322,,,,,,,,,,,,,,,,,,,,,,
,,66f899c9525316803c5d75c0,6685aa9113c938e83b4f1ea0,670883ec613b6a280f7c6648,2024-10-10_20h49.44.051,WTP_SM_Choice,2022.2.1,Win32,120.4819277,,,,,space,2.601,NAN,,NAN,0.94,5.06,,0,46,46,46,1,47,Riley,Rej,Participant_Images/66f899c9525316803c5d75c0/66f899c9525316803c5d75c0_Images/66f899c9525316803c5d75c0_Image_20.jpeg,did not like,4.438512181,,,,,,,,,,,,,,,,,,,,,,
,,66f899c9525316803c5d75c0,6685aa9113c938e83b4f1ea0,670883ec613b6a280f7c6648,2024-10-10_20h49.44.051,WTP_SM_Choice,2022.2.1,Win32,120.4819277,,,,,space,1.392,NAN,,NAN,0.94,5.06,,0,47,47,47,1,48,Riley,Rej,Participant_Images/66f899c9525316803c5d75c0/66f899c9525316803c5d75c0_Images/66f899c9525316803c5d75c0_Image_11.jpeg,did not like,2.682944783,,,,,,,,,,,,,,,,,,,,,,
,,66f899c9525316803c5d75c0,6685aa9113c938e83b4f1ea0,670883ec613b6a280f7c6648,2024-10-10_20h49.44.051,WTP_SM_Choice,2022.2.1,Win32,120.4819277,,,,,space,2.153,NAN,,NAN,0.94,5.06,,0,48,48,48,1,49,Riley,Rej,Participant_Images/66f899c9525316803c5d75c0/66f899c9525316803c5d75c0_Images/66f899c9525316803c5d75c0_Image_21.jpeg,liked,4.51984296,,,,,,,,,,,,,,,,,,,,,,
,,66f899c9525316803c5d75c0,6685aa9113c938e83b4f1ea0,670883ec613b6a280f7c6648,2024-10-10_20h49.44.051,WTP_SM_Choice,2022.2.1,Win32,120.4819277,,,,,,,,,,,,,,,,,,46,,,,,,space,1.738,space,0.712,0.01,1,1.488,0,0,0,0,1,Go bar hopping with my friends on weekends,Play games online in my gaming room at home,0.01,0.05,8.8,0,,,,
,,66f899c9525316803c5d75c0,6685aa9113c938e83b4f1ea0,670883ec613b6a280f7c6648,2024-10-10_20h49.44.051,WTP_SM_Choice,2022.2.1,Win32,120.4819277,,,,,,,,,,,,,,,,,,47,,,,,,,,,,0.02,1,1.471,0,1,1,1,1,Eat dinner with my family every day of the week,Write creative story pieces in the comfort of my room,0.02,0.05,1.1,0,,,,
,,66f899c9525316803c5d75c0,6685aa9113c938e83b4f1ea0,670883ec613b6a280f7c6648,2024-10-10_20h49.44.051,WTP_SM_Choice,2022.2.1,Win32,120.4819277,,,,,,,,,,,,,,,,,,48,,,,,,,,,,0.03,1,5.395,0,2,2,2,1,Watch league of legends championship with my friends online,Finish puzzles that i bought in my game room,0.03,0.05,4.4,0,,,,
,,66f899c9525316803c5d75c0,6685aa9113c938e83b4f1ea0,670883ec613b6a280f7c6648,2024-10-10_20h49.44.051,WTP_SM_Choice,2022.2.1,Win32,120.4819277,,,,,,,,,,,,,,,,,,49,,,,,,,,,,0.04,1,3.399,0,3,3,3,1,Write creative story pieces in the comfort of my room,Go on vacation with friends to the beach,0.04,0.05,3.3,1,,,,
,,66f899c9525316803c5d75c0,6685aa9113c938e83b4f1ea0,670883ec613b6a280f7c6648,2024-10-10_20h49.44.051,WTP_SM_Choice,2022.2.1,Win32,120.4819277,,,,,,,,,,,,,,,,,,50,,,,,,,,,,0.05,1,2.922,0,4,4,4,1,Sightsee while wandering the city,Study for classes with my university friends,0.05,0.05,1.1,1,,,,
,,66f899c9525316803c5d75c0,6685aa9113c938e83b4f1ea0,670883ec613b6a280f7c6648,2024-10-10_20h49.44.051,WTP_SM_Choice,2022.2.1,Win32,120.4819277,,,,,,,3,,5,1.09,4.91,,0,49,49,49,1,50,Riley,Rej,Participant_Images/66f899c9525316803c5d75c0/66f899c9525316803c5d75c0_Images/66f899c9525316803c5d75c0_Image_17.jpeg,liked,3.195382774,,,,,,,,,,,,,,,,,,,space,1.722,,
,,66f899c9525316803c5d75c0,6685aa9113c938e83b4f1ea0,670883ec613b6a280f7c6648,2024-10-10_20h49.44.051,WTP_SM_Choice,2022.2.1,Win32,120.4819277,,,space,2.802,space,16.86,NAN,,NAN,1.09,4.91,,0,50,50,50,1,51,Sam,Acc,Participant_Images/66f899c9525316803c5d75c0/66f899c9525316803c5d75c0_Images/66f899c9525316803c5d75c0_Image_9.jpeg,liked,1.779333479,,,,,,,,,,,,,,,,,,,,,,
,,66f899c9525316803c5d75c0,6685aa9113c938e83b4f1ea0,670883ec613b6a280f7c6648,2024-10-10_20h49.44.051,WTP_SM_Choice,2022.2.1,Win32,120.4819277,,,,,space,1.053,NAN,,NAN,1.09,4.91,,0,51,51,51,1,52,Sam,Acc,Participant_Images/66f899c9525316803c5d75c0/66f899c9525316803c5d75c0_Images/66f899c9525316803c5d75c0_Image_5.jpeg,liked,4.312468682,,,,,,,,,,,,,,,,,,,,,,
,,66f899c9525316803c5d75c0,6685aa9113c938e83b4f1ea0,670883ec613b6a280f7c6648,2024-10-10_20h49.44.051,WTP_SM_Choice,2022.2.1,Win32,120.4819277,,,,,space,2.919,NAN,,NAN,1.09,4.91,,0,52,52,52,1,53,Sam,Acc,Participant_Images/66f899c9525316803c5d75c0/66f899c9525316803c5d75c0_Images/66f899c9525316803c5d75c0_Image_13.jpeg,did not like,4.940433059,,,,,,,,,,,,,,,,,,,,,,
,,66f899c9525316803c5d75c0,6685aa9113c938e83b4f1ea0,670883ec613b6a280f7c6648,2024-10-10_20h49.44.051,WTP_SM_Choice,2022.2.1,Win32,120.4819277,,,,,space,5.194,NAN,,NAN,1.09,4.91,,0,53,53,53,1,54,Sam,Acc,Participant_Images/66f899c9525316803c5d75c0/66f899c9525316803c5d75c0_Images/66f899c9525316803c5d75c0_Image_12.jpeg,did not like,2.7105123,,,,,,,,,,,,,,,,,,,,,,
,,66f899c9525316803c5d75c0,6685aa9113c938e83b4f1ea0,670883ec613b6a280f7c6648,2024-10-10_20h49.44.051,WTP_SM_Choice,2022.2.1,Win32,120.4819277,,,,,,,,,,,,,,,,,,51,,,,,,space,6.327,space,3.621,0.01,1,3.992,0,0,0,0,1,Sightsee while wandering the city,Sleep in with my girlfriend on rainy days,0.01,0.01,1.1,1,,,,
,,66f899c9525316803c5d75c0,6685aa9113c938e83b4f1ea0,670883ec613b6a280f7c6648,2024-10-10_20h49.44.051,WTP_SM_Choice,2022.2.1,Win32,120.4819277,,,,,,,,,,,,,,,,,,52,,,,,,,,,,0.01,2,3.946,0,1,1,1,1,Look for outfits at the mall,Study for classes with my university friends,0.02,0.01,3.3,1,,,,
,,66f899c9525316803c5d75c0,6685aa9113c938e83b4f1ea0,670883ec613b6a280f7c6648,2024-10-10_20h49.44.051,WTP_SM_Choice,2022.2.1,Win32,120.4819277,,,,,,,,,,,,,,,,,,53,,,,,,,,,,0.01,2,2.953,0,2,2,2,1,Read a book in my room,Play tennis with my club members at school,0.03,0.01,1.1,1,,,,
,,66f899c9525316803c5d75c0,6685aa9113c938e83b4f1ea0,670883ec613b6a280f7c6648,2024-10-10_20h49.44.051,WTP_SM_Choice,2022.2.1,Win32,120.4819277,,,,,,,,,,,,,,,,,,54,,,,,,,,,,0.01,2,1.145,0,3,3,3,1,Go squishmallow hunting with my girlfriend on holidays,Working at my donut shop to earn money,0.04,0.01,4.4,0,,,,
,,66f899c9525316803c5d75c0,6685aa9113c938e83b4f1ea0,670883ec613b6a280f7c6648,2024-10-10_20h49.44.051,WTP_SM_Choice,2022.2.1,Win32,120.4819277,,,,,,,,,,,,,,,,,,55,,,,,,,,,,0.01,2,1.006,0,4,4,4,1,Go on vacation with friends to the beach,Sightsee while wandering the city,0.05,0.01,1.1,0,,,,
,,66f899c9525316803c5d75c0,6685aa9113c938e83b4f1ea0,670883ec613b6a280f7c6648,2024-10-10_20h49.44.051,WTP_SM_Choice,2022.2.1,Win32,120.4819277,,,,,,,NAN,,NAN,1.14,4.86,,0,54,54,54,1,55,Sam,Acc,Participant_Images/66f899c9525316803c5d75c0/66f899c9525316803c5d75c0_Images/66f899c9525316803c5d75c0_Image_23.jpeg,liked,3.602308302,,,,,,,,,,,,,,,,,,,,,,
,,66f899c9525316803c5d75c0,6685aa9113c938e83b4f1ea0,670883ec613b6a280f7c6648,2024-10-10_20h49.44.051,WTP_SM_Choice,2022.2.1,Win32,120.4819277,,,,,space,3.475,NAN,,NAN,1.14,4.86,,0,55,55,55,1,56,Sam,Acc,Participant_Images/66f899c9525316803c5d75c0/66f899c9525316803c5d75c0_Images/66f899c9525316803c5d75c0_Image_24.jpeg,liked,4.106391878,,,,,,,,,,,,,,,,,,,,,,
,,66f899c9525316803c5d75c0,6685aa9113c938e83b4f1ea0,670883ec613b6a280f7c6648,2024-10-10_20h49.44.051,WTP_SM_Choice,2022.2.1,Win32,120.4819277,,,,,space,9.632,NAN,,NAN,1.14,4.86,,0,56,56,56,1,57,Sam,Acc,Participant_Images/66f899c9525316803c5d75c0/66f899c9525316803c5d75c0_Images/66f899c9525316803c5d75c0_Image_21.jpeg,liked,3.799433026,,,,,,,,,,,,,,,,,,,,,,
,,66f899c9525316803c5d75c0,6685aa9113c938e83b4f1ea0,670883ec613b6a280f7c6648,2024-10-10_20h49.44.051,WTP_SM_Choice,2022.2.1,Win32,120.4819277,,,,,space,4.316,NAN,,NAN,1.14,4.86,,0,57,57,57,1,58,Sam,Acc,Participant_Images/66f899c9525316803c5d75c0/66f899c9525316803c5d75c0_Images/66f899c9525316803c5d75c0_Image_14.jpeg,liked,5.246980764,,,,,,,,,,,,,,,,,,,,,,
,,66f899c9525316803c5d75c0,6685aa9113c938e83b4f1ea0,670883ec613b6a280f7c6648,2024-10-10_20h49.44.051,WTP_SM_Choice,2022.2.1,Win32,120.4819277,,,,,space,5.251,NAN,,NAN,1.14,4.86,,0,58,58,58,1,59,Sam,Acc,Participant_Images/66f899c9525316803c5d75c0/66f899c9525316803c5d75c0_Images/66f899c9525316803c5d75c0_Image_10.jpeg,did not like,3.30081769,,,,,,,,,,,,,,,,,,,,,,
,,66f899c9525316803c5d75c0,6685aa9113c938e83b4f1ea0,670883ec613b6a280f7c6648,2024-10-10_20h49.44.051,WTP_SM_Choice,2022.2.1,Win32,120.4819277,,,,,,,,,,,,,,,,,,56,,,,,,space,0.775,space,7.507,0.01,1,2.301,0,0,0,0,1,Window shop with my girlfriend at high end malls,Walk around my university campus,0.01,0.02,8.8,0,,,,
,,66f899c9525316803c5d75c0,6685aa9113c938e83b4f1ea0,670883ec613b6a280f7c6648,2024-10-10_20h49.44.051,WTP_SM_Choice,2022.2.1,Win32,120.4819277,,,,,,,,,,,,,,,,,,57,,,,,,,,,,0.02,1,1.678,0,1,1,1,1,Play tennis with my club members at school,Play games online in my gaming room at home,0.02,0.02,4.4,0,,,,
,,66f899c9525316803c5d75c0,6685aa9113c938e83b4f1ea0,670883ec613b6a280f7c6648,2024-10-10_20h49.44.051,WTP_SM_Choice,2022.2.1,Win32,120.4819277,,,,,,,,,,,,,,,,,,58,,,,,,,,,,0.02,2,1.548,0,2,2,2,1,Look for outfits at the mall,Go squishmallow hunting with my girlfriend on holidays,0.03,0.02,4.4,1,,,,
,,66f899c9525316803c5d75c0,6685aa9113c938e83b4f1ea0,670883ec613b6a280f7c6648,2024-10-10_20h49.44.051,WTP_SM_Choice,2022.2.1,Win32,120.4819277,,,,,,,,,,,,,,,,,,59,,,,,,,,,,0.02,2,1.447,0,3,3,3,1,Go to the gym to work on chest legs and back,Watch movies with my girlfriend in my room,0.04,0.02,4.4,1,,,,
,,66f899c9525316803c5d75c0,6685aa9113c938e83b4f1ea0,670883ec613b6a280f7c6648,2024-10-10_20h49.44.051,WTP_SM_Choice,2022.2.1,Win32,120.4819277,,,,,,,,,,,,,,,,,,60,,,,,,,,,,0.02,2,3.492,0,4,4,4,1,Read a book in my room,Go squishmallow hunting with my girlfriend on holidays,0.05,0.02,1.1,1,,,,
,,66f899c9525316803c5d75c0,6685aa9113c938e83b4f1ea0,670883ec613b6a280f7c6648,2024-10-10_20h49.44.051,WTP_SM_Choice,2022.2.1,Win32,120.4819277,,,,,,,NAN,,NAN,1.23,4.77,,0,59,59,59,1,60,Sam,Acc,Participant_Images/66f899c9525316803c5d75c0/66f899c9525316803c5d75c0_Images/66f899c9525316803c5d75c0_Image_15.jpeg,did not like,1.661473164,,,,,,,,,,,,,,,,,,,,,,
,,66f899c9525316803c5d75c0,6685aa9113c938e83b4f1ea0,670883ec613b6a280f7c6648,2024-10-10_20h49.44.051,WTP_SM_Choice,2022.2.1,Win32,120.4819277,,,,,space,4.364,NAN,,NAN,1.23,4.77,,0,60,60,60,1,61,Sam,Acc,Participant_Images/66f899c9525316803c5d75c0/66f899c9525316803c5d75c0_Images/66f899c9525316803c5d75c0_Image_7.jpeg,did not like,3.613205605,,,,,,,,,,,,,,,,,,,,,,
,,66f899c9525316803c5d75c0,6685aa9113c938e83b4f1ea0,670883ec613b6a280f7c6648,2024-10-10_20h49.44.051,WTP_SM_Choice,2022.2.1,Win32,120.4819277,,,,,space,1.141,NAN,,NAN,1.23,4.77,,0,61,61,61,1,62,Sam,Acc,Participant_Images/66f899c9525316803c5d75c0/66f899c9525316803c5d75c0_Images/66f899c9525316803c5d75c0_Image_11.jpeg,did not like,4.988446431,,,,,,,,,,,,,,,,,,,,,,
,,66f899c9525316803c5d75c0,6685aa9113c938e83b4f1ea0,670883ec613b6a280f7c6648,2024-10-10_20h49.44.051,WTP_SM_Choice,2022.2.1,Win32,120.4819277,,,,,space,1.551,NAN,,NAN,1.23,4.77,,0,62,62,62,1,63,Sam,Acc,Participant_Images/66f899c9525316803c5d75c0/66f899c9525316803c5d75c0_Images/66f899c9525316803c5d75c0_Image_4.jpeg,liked,3.470791822,,,,,,,,,,,,,,,,,,,,,,
,,66f899c9525316803c5d75c0,6685aa9113c938e83b4f1ea0,670883ec613b6a280f7c6648,2024-10-10_20h49.44.051,WTP_SM_Choice,2022.2.1,Win32,120.4819277,,,,,space,0.616,NAN,,NAN,1.23,4.77,,0,63,63,63,1,64,Sam,Acc,Participant_Images/66f899c9525316803c5d75c0/66f899c9525316803c5d75c0_Images/66f899c9525316803c5d75c0_Image_18.jpeg,liked,3.820572462,,,,,,,,,,,,,,,,,,,,,,
,,66f899c9525316803c5d75c0,6685aa9113c938e83b4f1ea0,670883ec613b6a280f7c6648,2024-10-10_20h49.44.051,WTP_SM_Choice,2022.2.1,Win32,120.4819277,,,,,,,,,,,,,,,,,,61,,,,,,space,2.218,space,2.371,0.01,1,1.285,0,0,0,0,1,Go on vacation with friends to the beach,Look for outfits at the mall,0.01,0.03,3.3,0,,,,
,,66f899c9525316803c5d75c0,6685aa9113c938e83b4f1ea0,670883ec613b6a280f7c6648,2024-10-10_20h49.44.051,WTP_SM_Choice,2022.2.1,Win32,120.4819277,,,,,,,,,,,,,,,,,,62,,,,,,,,,,0.02,1,2.037,0,1,1,1,1,Look for outfits at the mall,Go bar hopping with my friends on weekends,0.02,0.03,3.3,1,,,,
,,66f899c9525316803c5d75c0,6685aa9113c938e83b4f1ea0,670883ec613b6a280f7c6648,2024-10-10_20h49.44.051,WTP_SM_Choice,2022.2.1,Win32,120.4819277,,,,,,,,,,,,,,,,,,63,,,,,,,,,,0.03,1,2.41,0,2,2,2,1,Play games online in my gaming room at home,Watch league of legends championship with my friends online,0.03,0.03,3.3,1,,,,
,,66f899c9525316803c5d75c0,6685aa9113c938e83b4f1ea0,670883ec613b6a280f7c6648,2024-10-10_20h49.44.051,WTP_SM_Choice,2022.2.1,Win32,120.4819277,,,,,,,,,,,,,,,,,,64,,,,,,,,,,0.03,2,1.37,0,3,3,3,1,Watch league of legends championship with my friends online,Walk around my university campus,0.04,0.03,1.1,0,,,,
,,66f899c9525316803c5d75c0,6685aa9113c938e83b4f1ea0,670883ec613b6a280f7c6648,2024-10-10_20h49.44.051,WTP_SM_Choice,2022.2.1,Win32,120.4819277,,,,,,,,,,,,,,,,,,65,,,,,,,,,,0.03,2,1.765,0,4,4,4,1,Read a book in my room,Watch league of legends championship with my friends online,0.05,0.03,1.1,1,,,,
,,66f899c9525316803c5d75c0,6685aa9113c938e83b4f1ea0,670883ec613b6a280f7c6648,2024-10-10_20h49.44.051,WTP_SM_Choice,2022.2.1,Win32,120.4819277,,,,,,,NAN,,NAN,1.35,4.65,,0,64,64,64,1,65,Sam,Acc,Participant_Images/66f899c9525316803c5d75c0/66f899c9525316803c5d75c0_Images/66f899c9525316803c5d75c0_Image_20.jpeg,liked,2.455989137,,,,,,,,,,,,,,,,,,,,,,
,,66f899c9525316803c5d75c0,6685aa9113c938e83b4f1ea0,670883ec613b6a280f7c6648,2024-10-10_20h49.44.051,WTP_SM_Choice,2022.2.1,Win32,120.4819277,,,,,space,0.531,NAN,,NAN,1.35,4.65,,0,65,65,65,1,66,Sam,Acc,Participant_Images/66f899c9525316803c5d75c0/66f899c9525316803c5d75c0_Images/66f899c9525316803c5d75c0_Image_17.jpeg,did not like,3.79605092,,,,,,,,,,,,,,,,,,,,,,
,,66f899c9525316803c5d75c0,6685aa9113c938e83b4f1ea0,670883ec613b6a280f7c6648,2024-10-10_20h49.44.051,WTP_SM_Choice,2022.2.1,Win32,120.4819277,,,,,space,9.213,NAN,,NAN,1.35,4.65,,0,66,66,66,1,67,Sam,Acc,Participant_Images/66f899c9525316803c5d75c0/66f899c9525316803c5d75c0_Images/66f899c9525316803c5d75c0_Image_2.jpeg,liked,3.562416326,,,,,,,,,,,,,,,,,,,,,,
,,66f899c9525316803c5d75c0,6685aa9113c938e83b4f1ea0,670883ec613b6a280f7c6648,2024-10-10_20h49.44.051,WTP_SM_Choice,2022.2.1,Win32,120.4819277,,,,,space,6.482,NAN,,NAN,1.35,4.65,,0,67,67,67,1,68,Sam,Acc,Participant_Images/66f899c9525316803c5d75c0/66f899c9525316803c5d75c0_Images/66f899c9525316803c5d75c0_Image_19.jpeg,liked,2.843822497,,,,,,,,,,,,,,,,,,,,,,
,,66f899c9525316803c5d75c0,6685aa9113c938e83b4f1ea0,670883ec613b6a280f7c6648,2024-10-10_20h49.44.051,WTP_SM_Choice,2022.2.1,Win32,120.4819277,,,,,space,2.503,NAN,,NAN,1.35,4.65,,0,68,68,68,1,69,Sam,Acc,Participant_Images/66f899c9525316803c5d75c0/66f899c9525316803c5d75c0_Images/66f899c9525316803c5d75c0_Image_22.jpeg,liked,3.546495948,,,,,,,,,,,,,,,,,,,,,,
,,66f899c9525316803c5d75c0,6685aa9113c938e83b4f1ea0,670883ec613b6a280f7c6648,2024-10-10_20h49.44.051,WTP_SM_Choice,2022.2.1,Win32,120.4819277,,,,,,,,,,,,,,,,,,66,,,,,,space,3.42,space,1.429,0.01,1,0.865,0,0,0,0,1,Eat dinner with my family every day of the week,Look for outfits at the mall,0.01,0.04,1.1,0,,,,
,,66f899c9525316803c5d75c0,6685aa9113c938e83b4f1ea0,670883ec613b6a280f7c6648,2024-10-10_20h49.44.051,WTP_SM_Choice,2022.2.1,Win32,120.4819277,,,,,,,,,,,,,,,,,,67,,,,,,,,,,0.02,1,7.551,0,1,1,1,1,Sleep in with my girlfriend on rainy days,Go to the gym to work on chest legs and back,0.02,0.04,8.8,0,,,,
,,66f899c9525316803c5d75c0,6685aa9113c938e83b4f1ea0,670883ec613b6a280f7c6648,2024-10-10_20h49.44.051,WTP_SM_Choice,2022.2.1,Win32,120.4819277,,,,,,,,,,,,,,,,,,68,,,,,,,,,,0.03,1,4.085,0,2,2,2,1,Go bar hopping with my friends on weekends,Write creative story pieces in the comfort of my room,0.03,0.04,4.4,0,,,,
,,66f899c9525316803c5d75c0,6685aa9113c938e83b4f1ea0,670883ec613b6a280f7c6648,2024-10-10_20h49.44.051,WTP_SM_Choice,2022.2.1,Win32,120.4819277,,,,,,,,,,,,,,,,,,69,,,,,,,,,,0.04,1,3.701,0,3,3,3,1,Study for classes with my university friends,Write creative story pieces in the comfort of my room,0.04,0.04,1.1,0,,,,
,,66f899c9525316803c5d75c0,6685aa9113c938e83b4f1ea0,670883ec613b6a280f7c6648,2024-10-10_20h49.44.051,WTP_SM_Choice,2022.2.1,Win32,120.4819277,,,,,,,,,,,,,,,,,,70,,,,,,,,,,0.04,2,1.031,0,4,4,4,1,Eat dinner with my family every day of the week,Read a book in my room,0.05,0.04,1.1,0,,,,
,,66f899c9525316803c5d75c0,6685aa9113c938e83b4f1ea0,670883ec613b6a280f7c6648,2024-10-10_20h49.44.051,WTP_SM_Choice,2022.2.1,Win32,120.4819277,,,,,,,NAN,,NAN,1.49,4.51,,0,69,69,69,1,70,Sam,Acc,Participant_Images/66f899c9525316803c5d75c0/66f899c9525316803c5d75c0_Images/66f899c9525316803c5d75c0_Image_25.jpeg,liked,1.672012706,,,,,,,,,,,,,,,,,,,,,,
,,66f899c9525316803c5d75c0,6685aa9113c938e83b4f1ea0,670883ec613b6a280f7c6648,2024-10-10_20h49.44.051,WTP_SM_Choice,2022.2.1,Win32,120.4819277,,,,,space,3.05,NAN,,NAN,1.49,4.51,,0,70,70,70,1,71,Sam,Acc,Participant_Images/66f899c9525316803c5d75c0/66f899c9525316803c5d75c0_Images/66f899c9525316803c5d75c0_Image_16.jpeg,liked,4.942172136,,,,,,,,,,,,,,,,,,,,,,
,,66f899c9525316803c5d75c0,6685aa9113c938e83b4f1ea0,670883ec613b6a280f7c6648,2024-10-10_20h49.44.051,WTP_SM_Choice,2022.2.1,Win32,120.4819277,,,,,space,22.161,NAN,,NAN,1.49,4.51,,0,71,71,71,1,72,Sam,Acc,Participant_Images/66f899c9525316803c5d75c0/66f899c9525316803c5d75c0_Images/66f899c9525316803c5d75c0_Image_6.jpeg,liked,2.50187214,,,,,,,,,,,,,,,,,,,,,,
,,66f899c9525316803c5d75c0,6685aa9113c938e83b4f1ea0,670883ec613b6a280f7c6648,2024-10-10_20h49.44.051,WTP_SM_Choice,2022.2.1,Win32,120.4819277,,,,,space,5.066,NAN,,NAN,1.49,4.51,,0,72,72,72,1,73,Sam,Acc,Participant_Images/66f899c9525316803c5d75c0/66f899c9525316803c5d75c0_Images/66f899c9525316803c5d75c0_Image_8.jpeg,liked,2.071164779,,,,,,,,,,,,,,,,,,,,,,
,,66f899c9525316803c5d75c0,6685aa9113c938e83b4f1ea0,670883ec613b6a280f7c6648,2024-10-10_20h49.44.051,WTP_SM_Choice,2022.2.1,Win32,120.4819277,,,,,space,3.743,NAN,,NAN,1.49,4.51,,0,73,73,73,1,74,Sam,Acc,Participant_Images/66f899c9525316803c5d75c0/66f899c9525316803c5d75c0_Images/66f899c9525316803c5d75c0_Image_3.jpeg,liked,5.336503566,,,,,,,,,,,,,,,,,,,,,,
,,66f899c9525316803c5d75c0,6685aa9113c938e83b4f1ea0,670883ec613b6a280f7c6648,2024-10-10_20h49.44.051,WTP_SM_Choice,2022.2.1,Win32,120.4819277,,,,,,,,,,,,,,,,,,71,,,,,,space,4.265,space,0.626,0.01,1,2.342,0,0,0,0,1,Eat dinner with my family every day of the week,Play games online in my gaming room at home,0.01,0.05,3.3,0,,,,
,,66f899c9525316803c5d75c0,6685aa9113c938e83b4f1ea0,670883ec613b6a280f7c6648,2024-10-10_20h49.44.051,WTP_SM_Choice,2022.2.1,Win32,120.4819277,,,,,,,,,,,,,,,,,,72,,,,,,,,,,0.02,1,1.196,0,1,1,1,1,Window shop with my girlfriend at high end malls,Working at my donut shop to earn money,0.02,0.05,8.8,0,,,,
,,66f899c9525316803c5d75c0,6685aa9113c938e83b4f1ea0,670883ec613b6a280f7c6648,2024-10-10_20h49.44.051,WTP_SM_Choice,2022.2.1,Win32,120.4819277,,,,,,,,,,,,,,,,,,73,,,,,,,,,,0.03,1,1.607,0,2,2,2,1,Look for outfits at the mall,Watch movies with my girlfriend in my room,0.03,0.05,3.3,1,,,,
,,66f899c9525316803c5d75c0,6685aa9113c938e83b4f1ea0,670883ec613b6a280f7c6648,2024-10-10_20h49.44.051,WTP_SM_Choice,2022.2.1,Win32,120.4819277,,,,,,,,,,,,,,,,,,74,,,,,,,,,,0.04,1,6.616,0,3,3,3,1,Working at my donut shop to earn money,Study for classes with my university friends,0.04,0.05,4.4,1,,,,
,,66f899c9525316803c5d75c0,6685aa9113c938e83b4f1ea0,670883ec613b6a280f7c6648,2024-10-10_20h49.44.051,WTP_SM_Choice,2022.2.1,Win32,120.4819277,,,,,,,,,,,,,,,,,,75,,,,,,,,,,0.05,2,4.344,0,4,4,4,1,Sleep in with my girlfriend on rainy days,Walk around my university campus,0.05,0.05,3.3,0,,,,
,,66f899c9525316803c5d75c0,6685aa9113c938e83b4f1ea0,670883ec613b6a280f7c6648,2024-10-10_20h49.44.051,WTP_SM_Choice,2022.2.1,Win32,120.4819277,,,,,,,2,,5,1.64,4.36,,0,74,74,74,1,75,Sam,Acc,Participant_Images/66f899c9525316803c5d75c0/66f899c9525316803c5d75c0_Images/66f899c9525316803c5d75c0_Image_1.jpeg,liked,2.642157193,,,,,,,,,,,,,,,,,,,space,0.933,,
,,66f899c9525316803c5d75c0,6685aa9113c938e83b4f1ea0,670883ec613b6a280f7c6648,2024-10-10_20h49.44.051,WTP_SM_Choice,2022.2.1,Win32,120.4819277,,,space,4.579,space,1.623,NAN,,NAN,1.64,4.36,,0,75,75,75,1,76,Alex,Acc,Participant_Images/66f899c9525316803c5d75c0/66f899c9525316803c5d75c0_Images/66f899c9525316803c5d75c0_Image_20.jpeg,did not like,4.456234322,,,,,,,,,,,,,,,,,,,,,,
,,66f899c9525316803c5d75c0,6685aa9113c938e83b4f1ea0,670883ec613b6a280f7c6648,2024-10-10_20h49.44.051,WTP_SM_Choice,2022.2.1,Win32,120.4819277,,,,,space,11.955,NAN,,NAN,1.64,4.36,,0,76,76,76,1,77,Alex,Acc,Participant_Images/66f899c9525316803c5d75c0/66f899c9525316803c5d75c0_Images/66f899c9525316803c5d75c0_Image_10.jpeg,did not like,4.438512181,,,,,,,,,,,,,,,,,,,,,,
,,66f899c9525316803c5d75c0,6685aa9113c938e83b4f1ea0,670883ec613b6a280f7c6648,2024-10-10_20h49.44.051,WTP_SM_Choice,2022.2.1,Win32,120.4819277,,,,,space,1.832,NAN,,NAN,1.64,4.36,,0,77,77,77,1,78,Alex,Acc,Participant_Images/66f899c9525316803c5d75c0/66f899c9525316803c5d75c0_Images/66f899c9525316803c5d75c0_Image_19.jpeg,liked,2.682944783,,,,,,,,,,,,,,,,,,,,,,
,,66f899c9525316803c5d75c0,6685aa9113c938e83b4f1ea0,670883ec613b6a280f7c6648,2024-10-10_20h49.44.051,WTP_SM_Choice,2022.2.1,Win32,120.4819277,,,,,space,3.478,NAN,,NAN,1.64,4.36,,0,78,78,78,1,79,Alex,Acc,Participant_Images/66f899c9525316803c5d75c0/66f899c9525316803c5d75c0_Images/66f899c9525316803c5d75c0_Image_17.jpeg,liked,4.51984296,,,,,,,,,,,,,,,,,,,,,,
,,66f899c9525316803c5d75c0,6685aa9113c938e83b4f1ea0,670883ec613b6a280f7c6648,2024-10-10_20h49.44.051,WTP_SM_Choice,2022.2.1,Win32,120.4819277,,,,,,,,,,,,,,,,,,76,,,,,,space,2.883,space,1.988,0.01,2,2.071,0,0,0,0,1,Drive anywhere in my toyota camry,Watch movies with my girlfriend in my room,0.01,0.01,1.1,1,,,,
,,66f899c9525316803c5d75c0,6685aa9113c938e83b4f1ea0,670883ec613b6a280f7c6648,2024-10-10_20h49.44.051,WTP_SM_Choice,2022.2.1,Win32,120.4819277,,,,,,,,,,,,,,,,,,77,,,,,,,,,,0.01,2,1.257,0,1,1,1,1,Play tennis with my club members at school,Drive anywhere in my toyota camry,0.02,0.01,8.8,0,,,,
,,66f899c9525316803c5d75c0,6685aa9113c938e83b4f1ea0,670883ec613b6a280f7c6648,2024-10-10_20h49.44.051,WTP_SM_Choice,2022.2.1,Win32,120.4819277,,,,,,,,,,,,,,,,,,78,,,,,,,,,,0.03,1,1.811,0,2,2,2,1,Play games online in my gaming room at home,Study for classes with my university friends,0.03,0.01,1.1,1,,,,
,,66f899c9525316803c5d75c0,6685aa9113c938e83b4f1ea0,670883ec613b6a280f7c6648,2024-10-10_20h49.44.051,WTP_SM_Choice,2022.2.1,Win32,120.4819277,,,,,,,,,,,,,,,,,,79,,,,,,,,,,0.04,1,1.003,0,3,3,3,1,Study for classes with my university friends,Finish puzzles that i bought in my game room,0.04,0.01,1.1,0,,,,
,,66f899c9525316803c5d75c0,6685aa9113c938e83b4f1ea0,670883ec613b6a280f7c6648,2024-10-10_20h49.44.051,WTP_SM_Choice,2022.2.1,Win32,120.4819277,,,,,,,,,,,,,,,,,,80,,,,,,,,,,0.05,1,0.739,0,4,4,4,1,Study for classes with my university friends,Go to the gym to work on chest legs and back,0.05,0.01,4.4,0,,,,
,,66f899c9525316803c5d75c0,6685aa9113c938e83b4f1ea0,670883ec613b6a280f7c6648,2024-10-10_20h49.44.051,WTP_SM_Choice,2022.2.1,Win32,120.4819277,,,,,,,NAN,,NAN,1.78,4.22,,0,79,79,79,1,80,Alex,Acc,Participant_Images/66f899c9525316803c5d75c0/66f899c9525316803c5d75c0_Images/66f899c9525316803c5d75c0_Image_23.jpeg,liked,3.195382774,,,,,,,,,,,,,,,,,,,,,,
,,66f899c9525316803c5d75c0,6685aa9113c938e83b4f1ea0,670883ec613b6a280f7c6648,2024-10-10_20h49.44.051,WTP_SM_Choice,2022.2.1,Win32,120.4819277,,,,,space,5.254,NAN,,NAN,1.78,4.22,,0,80,80,80,1,81,Alex,Acc,Participant_Images/66f899c9525316803c5d75c0/66f899c9525316803c5d75c0_Images/66f899c9525316803c5d75c0_Image_7.jpeg,did not like,1.779333479,,,,,,,,,,,,,,,,,,,,,,
,,66f899c9525316803c5d75c0,6685aa9113c938e83b4f1ea0,670883ec613b6a280f7c6648,2024-10-10_20h49.44.051,WTP_SM_Choice,2022.2.1,Win32,120.4819277,,,,,space,4.069,NAN,,NAN,1.78,4.22,,0,81,81,81,1,82,Alex,Acc,Participant_Images/66f899c9525316803c5d75c0/66f899c9525316803c5d75c0_Images/66f899c9525316803c5d75c0_Image_2.jpeg,liked,4.312468682,,,,,,,,,,,,,,,,,,,,,,
,,66f899c9525316803c5d75c0,6685aa9113c938e83b4f1ea0,670883ec613b6a280f7c6648,2024-10-10_20h49.44.051,WTP_SM_Choice,2022.2.1,Win32,120.4819277,,,,,space,6.151,NAN,,NAN,1.78,4.22,,0,82,82,82,1,83,Alex,Acc,Participant_Images/66f899c9525316803c5d75c0/66f899c9525316803c5d75c0_Images/66f899c9525316803c5d75c0_Image_15.jpeg,liked,4.940433059,,,,,,,,,,,,,,,,,,,,,,
,,66f899c9525316803c5d75c0,6685aa9113c938e83b4f1ea0,670883ec613b6a280f7c6648,2024-10-10_20h49.44.051,WTP_SM_Choice,2022.2.1,Win32,120.4819277,,,,,space,1.241,NAN,,NAN,1.78,4.22,,0,83,83,83,1,84,Alex,Acc,Participant_Images/66f899c9525316803c5d75c0/66f899c9525316803c5d75c0_Images/66f899c9525316803c5d75c0_Image_8.jpeg,liked,2.7105123,,,,,,,,,,,,,,,,,,,,,,
,,66f899c9525316803c5d75c0,6685aa9113c938e83b4f1ea0,670883ec613b6a280f7c6648,2024-10-10_20h49.44.051,WTP_SM_Choice,2022.2.1,Win32,120.4819277,,,,,,,,,,,,,,,,,,81,,,,,,space,4.403,space,4.748,0.02,2,1.3,0,0,0,0,1,Sightsee while wandering the city,Go squishmallow hunting with my girlfriend on holidays,0.01,0.02,3.3,1,,,,
,,66f899c9525316803c5d75c0,6685aa9113c938e83b4f1ea0,670883ec613b6a280f7c6648,2024-10-10_20h49.44.051,WTP_SM_Choice,2022.2.1,Win32,120.4819277,,,,,,,,,,,,,,,,,,82,,,,,,,,,,0.02,2,2.112,0,1,1,1,1,Go to the gym to work on chest legs and back,Watch league of legends championship with my friends online,0.02,0.02,4.4,1,,,,
,,66f899c9525316803c5d75c0,6685aa9113c938e83b4f1ea0,670883ec613b6a280f7c6648,2024-10-10_20h49.44.051,WTP_SM_Choice,2022.2.1,Win32,120.4819277,,,,,,,,,,,,,,,,,,83,,,,,,,,,,0.03,1,5.653,0,2,2,2,1,Working at my donut shop to earn money,Go bar hopping with my friends on weekends,0.03,0.02,1.1,1,,,,
,,66f899c9525316803c5d75c0,6685aa9113c938e83b4f1ea0,670883ec613b6a280f7c6648,2024-10-10_20h49.44.051,WTP_SM_Choice,2022.2.1,Win32,120.4819277,,,,,,,,,,,,,,,,,,84,,,,,,,,,,0.04,1,3.812,0,3,3,3,1,Go squishmallow hunting with my girlfriend on holidays,Write creative story pieces in the comfort of my room,0.04,0.02,3.3,0,,,,
,,66f899c9525316803c5d75c0,6685aa9113c938e83b4f1ea0,670883ec613b6a280f7c6648,2024-10-10_20h49.44.051,WTP_SM_Choice,2022.2.1,Win32,120.4819277,,,,,,,,,,,,,,,,,,85,,,,,,,,,,0.05,1,4.638,0,4,4,4,1,Go bar hopping with my friends on weekends,Walk around my university campus,0.05,0.02,3.3,0,,,,
,,66f899c9525316803c5d75c0,6685aa9113c938e83b4f1ea0,670883ec613b6a280f7c6648,2024-10-10_20h49.44.051,WTP_SM_Choice,2022.2.1,Win32,120.4819277,,,,,,,NAN,,NAN,1.94,4.06,,0,84,84,84,1,85,Alex,Acc,Participant_Images/66f899c9525316803c5d75c0/66f899c9525316803c5d75c0_Images/66f899c9525316803c5d75c0_Image_24.jpeg,liked,3.602308302,,,,,,,,,,,,,,,,,,,,,,
,,66f899c9525316803c5d75c0,6685aa9113c938e83b4f1ea0,670883ec613b6a280f7c6648,2024-10-10_20h49.44.051,WTP_SM_Choice,2022.2.1,Win32,120.4819277,,,,,space,1.131,NAN,,NAN,1.94,4.06,,0,85,85,85,1,86,Alex,Acc,Participant_Images/66f899c9525316803c5d75c0/66f899c9525316803c5d75c0_Images/66f899c9525316803c5d75c0_Image_16.jpeg,liked,4.106391878,,,,,,,,,,,,,,,,,,,,,,
,,66f899c9525316803c5d75c0,6685aa9113c938e83b4f1ea0,670883ec613b6a280f7c6648,2024-10-10_20h49.44.051,WTP_SM_Choice,2022.2.1,Win32,120.4819277,,,,,space,3.84,NAN,,NAN,1.94,4.06,,0,86,86,86,1,87,Alex,Acc,Participant_Images/66f899c9525316803c5d75c0/66f899c9525316803c5d75c0_Images/66f899c9525316803c5d75c0_Image_9.jpeg,did not like,3.799433026,,,,,,,,,,,,,,,,,,,,,,
,,66f899c9525316803c5d75c0,6685aa9113c938e83b4f1ea0,670883ec613b6a280f7c6648,2024-10-10_20h49.44.051,WTP_SM_Choice,2022.2.1,Win32,120.4819277,,,,,space,3.476,NAN,,NAN,1.94,4.06,,0,87,87,87,1,88,Alex,Acc,Participant_Images/66f899c9525316803c5d75c0/66f899c9525316803c5d75c0_Images/66f899c9525316803c5d75c0_Image_1.jpeg,liked,5.246980764,,,,,,,,,,,,,,,,,,,,,,
,,66f899c9525316803c5d75c0,6685aa9113c938e83b4f1ea0,670883ec613b6a280f7c6648,2024-10-10_20h49.44.051,WTP_SM_Choice,2022.2.1,Win32,120.4819277,,,,,space,1.059,NAN,,NAN,1.94,4.06,,0,88,88,88,1,89,Alex,Acc,Participant_Images/66f899c9525316803c5d75c0/66f899c9525316803c5d75c0_Images/66f899c9525316803c5d75c0_Image_13.jpeg,liked,3.30081769,,,,,,,,,,,,,,,,,,,,,,
,,66f899c9525316803c5d75c0,6685aa9113c938e83b4f1ea0,670883ec613b6a280f7c6648,2024-10-10_20h49.44.051,WTP_SM_Choice,2022.2.1,Win32,120.4819277,,,,,,,,,,,,,,,,,,86,,,,,,space,2.091,space,5.97,0.03,2,1.106,0,0,0,0,1,Window shop with my girlfriend at high end malls,Write creative story pieces in the comfort of my room,0.01,0.03,1.1,0,,,,
,,66f899c9525316803c5d75c0,6685aa9113c938e83b4f1ea0,670883ec613b6a280f7c6648,2024-10-10_20h49.44.051,WTP_SM_Choice,2022.2.1,Win32,120.4819277,,,,,,,,,,,,,,,,,,87,,,,,,,,,,0.03,2,1.11,0,1,1,1,1,Play games online in my gaming room at home,Window shop with my girlfriend at high end malls,0.02,0.03,4.4,1,,,,
,,66f899c9525316803c5d75c0,6685aa9113c938e83b4f1ea0,670883ec613b6a280f7c6648,2024-10-10_20h49.44.051,WTP_SM_Choice,2022.2.1,Win32,120.4819277,,,,,,,,,,,,,,,,,,88,,,,,,,,,,0.03,2,2.586,0,2,2,2,1,Write creative story pieces in the comfort of my room,Play tennis with my club members at school,0.03,0.03,1.1,1,,,,
,,66f899c9525316803c5d75c0,6685aa9113c938e83b4f1ea0,670883ec613b6a280f7c6648,2024-10-10_20h49.44.051,WTP_SM_Choice,2022.2.1,Win32,120.4819277,,,,,,,,,,,,,,,,,,89,,,,,,,,,,0.04,1,1.163,0,3,3,3,1,Sleep in with my girlfriend on rainy days,Play games online in my gaming room at home,0.04,0.03,3.3,0,,,,
,,66f899c9525316803c5d75c0,6685aa9113c938e83b4f1ea0,670883ec613b6a280f7c6648,2024-10-10_20h49.44.051,WTP_SM_Choice,2022.2.1,Win32,120.4819277,,,,,,,,,,,,,,,,,,90,,,,,,,,,,0.05,1,2.713,0,4,4,4,1,Go to the gym to work on chest legs and back,Go bar hopping with my friends on weekends,0.05,0.03,8.8,1,,,,
,,66f899c9525316803c5d75c0,6685aa9113c938e83b4f1ea0,670883ec613b6a280f7c6648,2024-10-10_20h49.44.051,WTP_SM_Choice,2022.2.1,Win32,120.4819277,,,,,,,NAN,,NAN,2.12,3.88,,0,89,89,89,1,90,Alex,Acc,Participant_Images/66f899c9525316803c5d75c0/66f899c9525316803c5d75c0_Images/66f899c9525316803c5d75c0_Image_3.jpeg,liked,1.661473164,,,,,,,,,,,,,,,,,,,,,,
,,66f899c9525316803c5d75c0,6685aa9113c938e83b4f1ea0,670883ec613b6a280f7c6648,2024-10-10_20h49.44.051,WTP_SM_Choice,2022.2.1,Win32,120.4819277,,,,,space,8.71,NAN,,NAN,2.12,3.88,,0,90,90,90,1,91,Alex,Acc,Participant_Images/66f899c9525316803c5d75c0/66f899c9525316803c5d75c0_Images/66f899c9525316803c5d75c0_Image_4.jpeg,did not like,3.613205605,,,,,,,,,,,,,,,,,,,,,,
,,66f899c9525316803c5d75c0,6685aa9113c938e83b4f1ea0,670883ec613b6a280f7c6648,2024-10-10_20h49.44.051,WTP_SM_Choice,2022.2.1,Win32,120.4819277,,,,,space,9.639,NAN,,NAN,2.12,3.88,,0,91,91,91,1,92,Alex,Acc,Participant_Images/66f899c9525316803c5d75c0/66f899c9525316803c5d75c0_Images/66f899c9525316803c5d75c0_Image_11.jpeg,liked,4.988446431,,,,,,,,,,,,,,,,,,,,,,
,,66f899c9525316803c5d75c0,6685aa9113c938e83b4f1ea0,670883ec613b6a280f7c6648,2024-10-10_20h49.44.051,WTP_SM_Choice,2022.2.1,Win32,120.4819277,,,,,space,1.35,NAN,,NAN,2.12,3.88,,0,92,92,92,1,93,Alex,Acc,Participant_Images/66f899c9525316803c5d75c0/66f899c9525316803c5d75c0_Images/66f899c9525316803c5d75c0_Image_14.jpeg,did not like,3.470791822,,,,,,,,,,,,,,,,,,,,,,
,,66f899c9525316803c5d75c0,6685aa9113c938e83b4f1ea0,670883ec613b6a280f7c6648,2024-10-10_20h49.44.051,WTP_SM_Choice,2022.2.1,Win32,120.4819277,,,,,space,8.98,NAN,,NAN,2.12,3.88,,0,93,93,93,1,94,Alex,Acc,Participant_Images/66f899c9525316803c5d75c0/66f899c9525316803c5d75c0_Images/66f899c9525316803c5d75c0_Image_12.jpeg,liked,3.820572462,,,,,,,,,,,,,,,,,,,,,,
,,66f899c9525316803c5d75c0,6685aa9113c938e83b4f1ea0,670883ec613b6a280f7c6648,2024-10-10_20h49.44.051,WTP_SM_Choice,2022.2.1,Win32,120.4819277,,,,,,,,,,,,,,,,,,91,,,,,,space,12.165,space,0.555,0.04,2,1.647,0,0,0,0,1,Finish puzzles that i bought in my game room,Sleep in with my girlfriend on rainy days,0.01,0.04,3.3,1,,,,
,,66f899c9525316803c5d75c0,6685aa9113c938e83b4f1ea0,670883ec613b6a280f7c6648,2024-10-10_20h49.44.051,WTP_SM_Choice,2022.2.1,Win32,120.4819277,,,,,,,,,,,,,,,,,,92,,,,,,,,,,0.04,2,1.38,0,1,1,1,1,Go bar hopping with my friends on weekends,Drive anywhere in my toyota camry,0.02,0.04,8.8,0,,,,
,,66f899c9525316803c5d75c0,6685aa9113c938e83b4f1ea0,670883ec613b6a280f7c6648,2024-10-10_20h49.44.051,WTP_SM_Choice,2022.2.1,Win32,120.4819277,,,,,,,,,,,,,,,,,,93,,,,,,,,,,0.04,2,1.358,0,2,2,2,1,Finish puzzles that i bought in my game room,Window shop with my girlfriend at high end malls,0.03,0.04,1.1,1,,,,
,,66f899c9525316803c5d75c0,6685aa9113c938e83b4f1ea0,670883ec613b6a280f7c6648,2024-10-10_20h49.44.051,WTP_SM_Choice,2022.2.1,Win32,120.4819277,,,,,,,,,,,,,,,,,,94,,,,,,,,,,0.04,2,2.06,0,3,3,3,1,Walk around my university campus,Play tennis with my club members at school,0.04,0.04,4.4,1,,,,
,,66f899c9525316803c5d75c0,6685aa9113c938e83b4f1ea0,670883ec613b6a280f7c6648,2024-10-10_20h49.44.051,WTP_SM_Choice,2022.2.1,Win32,120.4819277,,,,,,,,,,,,,,,,,,95,,,,,,,,,,0.05,1,1.679,0,4,4,4,1,Finish puzzles that i bought in my game room,Go on vacation with friends to the beach,0.05,0.04,4.4,1,,,,
,,66f899c9525316803c5d75c0,6685aa9113c938e83b4f1ea0,670883ec613b6a280f7c6648,2024-10-10_20h49.44.051,WTP_SM_Choice,2022.2.1,Win32,120.4819277,,,,,,,NAN,,NAN,2.33,3.67,,0,94,94,94,1,95,Alex,Acc,Participant_Images/66f899c9525316803c5d75c0/66f899c9525316803c5d75c0_Images/66f899c9525316803c5d75c0_Image_22.jpeg,liked,2.455989137,,,,,,,,,,,,,,,,,,,,,,
,,66f899c9525316803c5d75c0,6685aa9113c938e83b4f1ea0,670883ec613b6a280f7c6648,2024-10-10_20h49.44.051,WTP_SM_Choice,2022.2.1,Win32,120.4819277,,,,,space,16.147,NAN,,NAN,2.33,3.67,,0,95,95,95,1,96,Alex,Acc,Participant_Images/66f899c9525316803c5d75c0/66f899c9525316803c5d75c0_Images/66f899c9525316803c5d75c0_Image_18.jpeg,liked,3.79605092,,,,,,,,,,,,,,,,,,,,,,
,,66f899c9525316803c5d75c0,6685aa9113c938e83b4f1ea0,670883ec613b6a280f7c6648,2024-10-10_20h49.44.051,WTP_SM_Choice,2022.2.1,Win32,120.4819277,,,,,space,4.707,NAN,,NAN,2.33,3.67,,0,96,96,96,1,97,Alex,Acc,Participant_Images/66f899c9525316803c5d75c0/66f899c9525316803c5d75c0_Images/66f899c9525316803c5d75c0_Image_6.jpeg,liked,3.562416326,,,,,,,,,,,,,,,,,,,,,,
,,66f899c9525316803c5d75c0,6685aa9113c938e83b4f1ea0,670883ec613b6a280f7c6648,2024-10-10_20h49.44.051,WTP_SM_Choice,2022.2.1,Win32,120.4819277,,,,,space,0.575,NAN,,NAN,2.33,3.67,,0,97,97,97,1,98,Alex,Acc,Participant_Images/66f899c9525316803c5d75c0/66f899c9525316803c5d75c0_Images/66f899c9525316803c5d75c0_Image_25.jpeg,did not like,2.843822497,,,,,,,,,,,,,,,,,,,,,,
,,66f899c9525316803c5d75c0,6685aa9113c938e83b4f1ea0,670883ec613b6a280f7c6648,2024-10-10_20h49.44.051,WTP_SM_Choice,2022.2.1,Win32,120.4819277,,,,,space,3.223,NAN,,NAN,2.33,3.67,,0,98,98,98,1,99,Alex,Acc,Participant_Images/66f899c9525316803c5d75c0/66f899c9525316803c5d75c0_Images/66f899c9525316803c5d75c0_Image_21.jpeg,liked,3.546495948,,,,,,,,,,,,,,,,,,,,,,
,,66f899c9525316803c5d75c0,6685aa9113c938e83b4f1ea0,670883ec613b6a280f7c6648,2024-10-10_20h49.44.051,WTP_SM_Choice,2022.2.1,Win32,120.4819277,,,,,,,,,,,,,,,,,,96,,,,,,space,2.743,space,0.796,0.01,1,0.874,0,0,0,0,1,Window shop with my girlfriend at high end malls,Go to the gym to work on chest legs and back,0.01,0.05,3.3,0,,,,
,,66f899c9525316803c5d75c0,6685aa9113c938e83b4f1ea0,670883ec613b6a280f7c6648,2024-10-10_20h49.44.051,WTP_SM_Choice,2022.2.1,Win32,120.4819277,,,,,,,,,,,,,,,,,,97,,,,,,,,,,0.05,2,1.04,0,1,1,1,1,Go on vacation with friends to the beach,Drive anywhere in my toyota camry,0.02,0.05,1.1,0,,,,
,,66f899c9525316803c5d75c0,6685aa9113c938e83b4f1ea0,670883ec613b6a280f7c6648,2024-10-10_20h49.44.051,WTP_SM_Choice,2022.2.1,Win32,120.4819277,,,,,,,,,,,,,,,,,,98,,,,,,,,,,0.05,2,0.971,0,2,2,2,1,Look for outfits at the mall,Sleep in with my girlfriend on rainy days,0.03,0.05,1.1,1,,,,
,,66f899c9525316803c5d75c0,6685aa9113c938e83b4f1ea0,670883ec613b6a280f7c6648,2024-10-10_20h49.44.051,WTP_SM_Choice,2022.2.1,Win32,120.4819277,,,,,,,,,,,,,,,,,,99,,,,,,,,,,0.05,2,1.045,0,3,3,3,1,Sightsee while wandering the city,Watch movies with my girlfriend in my room,0.04,0.05,3.3,1,,,,
,,66f899c9525316803c5d75c0,6685aa9113c938e83b4f1ea0,670883ec613b6a280f7c6648,2024-10-10_20h49.44.051,WTP_SM_Choice,2022.2.1,Win32,120.4819277,,,,,,,,,,,,,,,,,,100,,,,,,,,,,0.05,1,1.586,0,4,4,4,1,Sightsee while wandering the city,Watch league of legends championship with my friends online,0.05,0.05,4.4,1,,,,
,,66f899c9525316803c5d75c0,6685aa9113c938e83b4f1ea0,670883ec613b6a280f7c6648,2024-10-10_20h49.44.051,WTP_SM_Choice,2022.2.1,Win32,120.4819277,,,,,,,2,,5,2.54,3.46,,0,99,99,99,1,100,Alex,Acc,Participant_Images/66f899c9525316803c5d75c0/66f899c9525316803c5d75c0_Images/66f899c9525316803c5d75c0_Image_5.jpeg,liked,1.672012706,,,,,,,,,,,,,,,,,,,space,0.699,,
,,66f899c9525316803c5d75c0,6685aa9113c938e83b4f1ea0,670883ec613b6a280f7c6648,2024-10-10_20h49.44.051,WTP_SM_Choice,2022.2.1,Win32,120.4819277,,,,,,,,,,,,,,,,,,,,,,,,,,,,,,,,,,,,,,,,,,,,space,29.676
