endwelcomescreen_keys.keys,endwelcomescreen_keys.rt,participant,STUDY_ID,SESSION_ID,date,expName,psychopyVersion,OS,frameRate,endinstructionscreen_keys.keys,endinstructionscreen_keys.rt,endpartnermatch_keys.keys,endpartnermatch_keys.rt,sharenextphoto_key.keys,sharenextphoto_key.rt,salience_rating,key_resp.keys,stress_level,subtract_bonus,TOTAL_TASK_BONUS,stresslevel_keypress.keys,entiretaskloop.thisRepN,entiretaskloop.thisTrialN,entiretaskloop.thisN,entiretaskloop.thisIndex,entiretaskloop.ran,TrialNumber,Partner,Condition,Photos,Feedback,FeedbackWait,WTP_ins_keys1.keys,WTP_ins_keys1.rt,WTP_ins_keys2.keys,WTP_ins_keys2.rt,decision_price,responses.keys,responses.rt,WTPTaskLoop.thisRepN,WTPTaskLoop.thisTrialN,WTPTaskLoop.thisN,WTPTaskLoop.thisIndex,WTPTaskLoop.ran,right,left,leftmoney,rightmoney,WTP_ITI,social_left,Resume_keys.keys,Resume_keys.rt,end_screen_keys.keys,end_screen_keys.rt
space,4.3524,6704251bcdca04fef23d385d,6685aa9113c938e83b4f1ea0,672d04867a2195e73328b5a8,2024-11-07_13h20.24.019,WTP_SM_Choice,2022.2.1,Win32,59.88023952,,,,,,,,,,,,,,,,,,,,,,,,,,,,,,,,,,,,,,,,,,,,,
,,6704251bcdca04fef23d385d,6685aa9113c938e83b4f1ea0,672d04867a2195e73328b5a8,2024-11-07_13h20.24.019,WTP_SM_Choice,2022.2.1,Win32,59.88023952,space,9.3364,,,,,,,,,,,,,,,,,,,,,,,,,,,,,,,,,,,,,,,,,,,
,,6704251bcdca04fef23d385d,6685aa9113c938e83b4f1ea0,672d04867a2195e73328b5a8,2024-11-07_13h20.24.019,WTP_SM_Choice,2022.2.1,Win32,59.88023952,,,space,1.7301,space,1.3606,NAN,,NAN,0,6,,0,0,0,0,1,1,Riley,Acc,Participant_Images/6704251bcdca04fef23d385d/6704251bcdca04fef23d385d_Images/6704251bcdca04fef23d385d_Image_5.jpeg,liked,3.613205605,,,,,,,,,,,,,,,,,,,,,,
,,6704251bcdca04fef23d385d,6685aa9113c938e83b4f1ea0,672d04867a2195e73328b5a8,2024-11-07_13h20.24.019,WTP_SM_Choice,2022.2.1,Win32,59.88023952,,,,,space,1.2331,NAN,,NAN,0,6,,0,1,1,1,1,2,Riley,Acc,Participant_Images/6704251bcdca04fef23d385d/6704251bcdca04fef23d385d_Images/6704251bcdca04fef23d385d_Image_24.jpeg,liked,4.988446431,,,,,,,,,,,,,,,,,,,,,,
,,6704251bcdca04fef23d385d,6685aa9113c938e83b4f1ea0,672d04867a2195e73328b5a8,2024-11-07_13h20.24.019,WTP_SM_Choice,2022.2.1,Win32,59.88023952,,,,,space,1.8114,NAN,,NAN,0,6,,0,2,2,2,1,3,Riley,Acc,Participant_Images/6704251bcdca04fef23d385d/6704251bcdca04fef23d385d_Images/6704251bcdca04fef23d385d_Image_1.jpeg,liked,3.470791822,,,,,,,,,,,,,,,,,,,,,,
,,6704251bcdca04fef23d385d,6685aa9113c938e83b4f1ea0,672d04867a2195e73328b5a8,2024-11-07_13h20.24.019,WTP_SM_Choice,2022.2.1,Win32,59.88023952,,,,,space,0.7769,NAN,,NAN,0,6,,0,3,3,3,1,4,Riley,Acc,Participant_Images/6704251bcdca04fef23d385d/6704251bcdca04fef23d385d_Images/6704251bcdca04fef23d385d_Image_17.jpeg,liked,3.820572462,,,,,,,,,,,,,,,,,,,,,,
,,6704251bcdca04fef23d385d,6685aa9113c938e83b4f1ea0,672d04867a2195e73328b5a8,2024-11-07_13h20.24.019,WTP_SM_Choice,2022.2.1,Win32,59.88023952,,,,,,,,,,,,,,,,,,1,,,,,,space,10.3395,space,4.4582,0.01,2,5.4696,0,0,0,0,1,Read a non fiction book that is not for class just for my enjoyment,Go out to eat at a restaurant with my mom sister and friend,0.01,0.01,4.4,1,,,,
,,6704251bcdca04fef23d385d,6685aa9113c938e83b4f1ea0,672d04867a2195e73328b5a8,2024-11-07_13h20.24.019,WTP_SM_Choice,2022.2.1,Win32,59.88023952,,,,,,,,,,,,,,,,,,2,,,,,,,,,,0.02,1,2.9657,0,1,1,1,1,Play video games,Play video games with a friend online,0.02,0.01,8.8,1,,,,
,,6704251bcdca04fef23d385d,6685aa9113c938e83b4f1ea0,672d04867a2195e73328b5a8,2024-11-07_13h20.24.019,WTP_SM_Choice,2022.2.1,Win32,59.88023952,,,,,,,,,,,,,,,,,,3,,,,,,,,,,0.01,2,2.941,0,2,2,2,1,Go over to a friends place and acting like children again IE in pajamas with finger foods watching old cartoons,Read a non fiction book that is not for class just for my enjoyment,0.03,0.01,3.3,0,,,,
,,6704251bcdca04fef23d385d,6685aa9113c938e83b4f1ea0,672d04867a2195e73328b5a8,2024-11-07_13h20.24.019,WTP_SM_Choice,2022.2.1,Win32,59.88023952,,,,,,,,,,,,,,,,,,4,,,,,,,,,,0.01,2,2.2339,0,3,3,3,1,Watch a movie with a soft blanket and warm popcorn,Read in the same room as with a friend not necessarily talking but just enjoying each others company,0.04,0.01,1.1,1,,,,
,,6704251bcdca04fef23d385d,6685aa9113c938e83b4f1ea0,672d04867a2195e73328b5a8,2024-11-07_13h20.24.019,WTP_SM_Choice,2022.2.1,Win32,59.88023952,,,,,,,,,,,,,,,,,,5,,,,,,,,,,0.01,2,2.1905,0,4,4,4,1,Make shopping lists of stuff I will never buy on Amazon,Try a new recipe at home with my mother,0.05,0.01,1.1,1,,,,
,,6704251bcdca04fef23d385d,6685aa9113c938e83b4f1ea0,672d04867a2195e73328b5a8,2024-11-07_13h20.24.019,WTP_SM_Choice,2022.2.1,Win32,59.88023952,,,,,,,NAN,,NAN,0.06,5.94,,0,4,4,4,1,5,Riley,Acc,Participant_Images/6704251bcdca04fef23d385d/6704251bcdca04fef23d385d_Images/6704251bcdca04fef23d385d_Image_10.jpeg,did not like,2.455989137,,,,,,,,,,,,,,,,,,,,,,
,,6704251bcdca04fef23d385d,6685aa9113c938e83b4f1ea0,672d04867a2195e73328b5a8,2024-11-07_13h20.24.019,WTP_SM_Choice,2022.2.1,Win32,59.88023952,,,,,space,0.4523,NAN,,NAN,0.06,5.94,,0,5,5,5,1,6,Riley,Acc,Participant_Images/6704251bcdca04fef23d385d/6704251bcdca04fef23d385d_Images/6704251bcdca04fef23d385d_Image_8.jpeg,liked,3.79605092,,,,,,,,,,,,,,,,,,,,,,
,,6704251bcdca04fef23d385d,6685aa9113c938e83b4f1ea0,672d04867a2195e73328b5a8,2024-11-07_13h20.24.019,WTP_SM_Choice,2022.2.1,Win32,59.88023952,,,,,space,1.3525,NAN,,NAN,0.06,5.94,,0,6,6,6,1,7,Riley,Acc,Participant_Images/6704251bcdca04fef23d385d/6704251bcdca04fef23d385d_Images/6704251bcdca04fef23d385d_Image_23.jpeg,liked,3.562416326,,,,,,,,,,,,,,,,,,,,,,
,,6704251bcdca04fef23d385d,6685aa9113c938e83b4f1ea0,672d04867a2195e73328b5a8,2024-11-07_13h20.24.019,WTP_SM_Choice,2022.2.1,Win32,59.88023952,,,,,space,0.4174,NAN,,NAN,0.06,5.94,,0,7,7,7,1,8,Riley,Acc,Participant_Images/6704251bcdca04fef23d385d/6704251bcdca04fef23d385d_Images/6704251bcdca04fef23d385d_Image_16.jpeg,liked,2.843822497,,,,,,,,,,,,,,,,,,,,,,
,,6704251bcdca04fef23d385d,6685aa9113c938e83b4f1ea0,672d04867a2195e73328b5a8,2024-11-07_13h20.24.019,WTP_SM_Choice,2022.2.1,Win32,59.88023952,,,,,space,0.6044,NAN,,NAN,0.06,5.94,,0,8,8,8,1,9,Riley,Acc,Participant_Images/6704251bcdca04fef23d385d/6704251bcdca04fef23d385d_Images/6704251bcdca04fef23d385d_Image_15.jpeg,liked,3.546495948,,,,,,,,,,,,,,,,,,,,,,
,,6704251bcdca04fef23d385d,6685aa9113c938e83b4f1ea0,672d04867a2195e73328b5a8,2024-11-07_13h20.24.019,WTP_SM_Choice,2022.2.1,Win32,59.88023952,,,,,,,,,,,,,,,,,,6,,,,,,space,4.2968,space,6.2663,0.01,1,2.0984,0,0,0,0,1,Go to an anime or gaming convention with a sister and a friend,Watch Youtube whilst playing a game on my phone,0.01,0.02,3.3,0,,,,
,,6704251bcdca04fef23d385d,6685aa9113c938e83b4f1ea0,672d04867a2195e73328b5a8,2024-11-07_13h20.24.019,WTP_SM_Choice,2022.2.1,Win32,59.88023952,,,,,,,,,,,,,,,,,,7,,,,,,,,,,0.02,2,3.8703,0,1,1,1,1,Read a non fiction book that is not for class just for my enjoyment,Play video games with a friend online,0.02,0.02,1.1,1,,,,
,,6704251bcdca04fef23d385d,6685aa9113c938e83b4f1ea0,672d04867a2195e73328b5a8,2024-11-07_13h20.24.019,WTP_SM_Choice,2022.2.1,Win32,59.88023952,,,,,,,,,,,,,,,,,,8,,,,,,,,,,0.02,2,3.8986,0,2,2,2,1,Try a new recipe at home with my mother,Play video games,0.03,0.02,1.1,0,,,,
,,6704251bcdca04fef23d385d,6685aa9113c938e83b4f1ea0,672d04867a2195e73328b5a8,2024-11-07_13h20.24.019,WTP_SM_Choice,2022.2.1,Win32,59.88023952,,,,,,,,,,,,,,,,,,9,,,,,,,,,,0.02,2,2.9068,0,3,3,3,1,Watch the Real Ghostbusters Everyone else always complains the entire time and ruins the experience,Go out to the movies and watching a new movie with a friend,0.04,0.02,4.4,1,,,,
,,6704251bcdca04fef23d385d,6685aa9113c938e83b4f1ea0,672d04867a2195e73328b5a8,2024-11-07_13h20.24.019,WTP_SM_Choice,2022.2.1,Win32,59.88023952,,,,,,,,,,,,,,,,,,10,,,,,,,,,,0.02,2,3.047,0,4,4,4,1,Go to a theme park such as Cedar Point with my mother and my sister,Read a non fiction book that is not for class just for my enjoyment,0.05,0.02,1.1,0,,,,
,,6704251bcdca04fef23d385d,6685aa9113c938e83b4f1ea0,672d04867a2195e73328b5a8,2024-11-07_13h20.24.019,WTP_SM_Choice,2022.2.1,Win32,59.88023952,,,,,,,NAN,,NAN,0.15,5.85,,0,9,9,9,1,10,Riley,Acc,Participant_Images/6704251bcdca04fef23d385d/6704251bcdca04fef23d385d_Images/6704251bcdca04fef23d385d_Image_14.jpeg,did not like,1.672012706,,,,,,,,,,,,,,,,,,,,,,
,,6704251bcdca04fef23d385d,6685aa9113c938e83b4f1ea0,672d04867a2195e73328b5a8,2024-11-07_13h20.24.019,WTP_SM_Choice,2022.2.1,Win32,59.88023952,,,,,space,0.8014,NAN,,NAN,0.15,5.85,,0,10,10,10,1,11,Riley,Acc,Participant_Images/6704251bcdca04fef23d385d/6704251bcdca04fef23d385d_Images/6704251bcdca04fef23d385d_Image_2.jpeg,liked,4.942172136,,,,,,,,,,,,,,,,,,,,,,
,,6704251bcdca04fef23d385d,6685aa9113c938e83b4f1ea0,672d04867a2195e73328b5a8,2024-11-07_13h20.24.019,WTP_SM_Choice,2022.2.1,Win32,59.88023952,,,,,space,1.0773,NAN,,NAN,0.15,5.85,,0,11,11,11,1,12,Riley,Acc,Participant_Images/6704251bcdca04fef23d385d/6704251bcdca04fef23d385d_Images/6704251bcdca04fef23d385d_Image_20.jpeg,liked,2.50187214,,,,,,,,,,,,,,,,,,,,,,
,,6704251bcdca04fef23d385d,6685aa9113c938e83b4f1ea0,672d04867a2195e73328b5a8,2024-11-07_13h20.24.019,WTP_SM_Choice,2022.2.1,Win32,59.88023952,,,,,space,0.5939,NAN,,NAN,0.15,5.85,,0,12,12,12,1,13,Riley,Acc,Participant_Images/6704251bcdca04fef23d385d/6704251bcdca04fef23d385d_Images/6704251bcdca04fef23d385d_Image_19.jpeg,liked,2.071164779,,,,,,,,,,,,,,,,,,,,,,
,,6704251bcdca04fef23d385d,6685aa9113c938e83b4f1ea0,672d04867a2195e73328b5a8,2024-11-07_13h20.24.019,WTP_SM_Choice,2022.2.1,Win32,59.88023952,,,,,space,0.9122,NAN,,NAN,0.15,5.85,,0,13,13,13,1,14,Riley,Acc,Participant_Images/6704251bcdca04fef23d385d/6704251bcdca04fef23d385d_Images/6704251bcdca04fef23d385d_Image_13.jpeg,liked,5.336503566,,,,,,,,,,,,,,,,,,,,,,
,,6704251bcdca04fef23d385d,6685aa9113c938e83b4f1ea0,672d04867a2195e73328b5a8,2024-11-07_13h20.24.019,WTP_SM_Choice,2022.2.1,Win32,59.88023952,,,,,,,,,,,,,,,,,,11,,,,,,space,1.8338,space,9.0555,0.01,1,3.2595,0,0,0,0,1,Go to a theme park such as Cedar Point with my mother and my sister,Play video games,0.01,0.03,3.3,0,,,,
,,6704251bcdca04fef23d385d,6685aa9113c938e83b4f1ea0,672d04867a2195e73328b5a8,2024-11-07_13h20.24.019,WTP_SM_Choice,2022.2.1,Win32,59.88023952,,,,,,,,,,,,,,,,,,12,,,,,,,,,,0.02,1,2.5996,0,1,1,1,1,Daydream about the future,Go out to Kura Sushi and get whatever new prize they have for the month with my sister,0.02,0.03,4.4,1,,,,
,,6704251bcdca04fef23d385d,6685aa9113c938e83b4f1ea0,672d04867a2195e73328b5a8,2024-11-07_13h20.24.019,WTP_SM_Choice,2022.2.1,Win32,59.88023952,,,,,,,,,,,,,,,,,,13,,,,,,,,,,0.03,2,5.0273,0,2,2,2,1,Watch Youtube whilst playing a game on my phone,Go out to the movies and watching a new movie with a friend,0.03,0.03,1.1,1,,,,
,,6704251bcdca04fef23d385d,6685aa9113c938e83b4f1ea0,672d04867a2195e73328b5a8,2024-11-07_13h20.24.019,WTP_SM_Choice,2022.2.1,Win32,59.88023952,,,,,,,,,,,,,,,,,,14,,,,,,,,,,0.03,2,4.6952,0,3,3,3,1,Play with my cats this way I don't have to listen to others calling them fat,Go out to Kura Sushi and get whatever new prize they have for the month with my sister,0.04,0.03,3.3,1,,,,
,,6704251bcdca04fef23d385d,6685aa9113c938e83b4f1ea0,672d04867a2195e73328b5a8,2024-11-07_13h20.24.019,WTP_SM_Choice,2022.2.1,Win32,59.88023952,,,,,,,,,,,,,,,,,,15,,,,,,,,,,0.03,2,2.8102,0,4,4,4,1,Watch a movie with a soft blanket and warm popcorn,Go out to eat at a restaurant with my mom sister and friend,0.05,0.03,4.4,1,,,,
,,6704251bcdca04fef23d385d,6685aa9113c938e83b4f1ea0,672d04867a2195e73328b5a8,2024-11-07_13h20.24.019,WTP_SM_Choice,2022.2.1,Win32,59.88023952,,,,,,,NAN,,NAN,0.27,5.73,,0,14,14,14,1,15,Riley,Acc,Participant_Images/6704251bcdca04fef23d385d/6704251bcdca04fef23d385d_Images/6704251bcdca04fef23d385d_Image_3.jpeg,did not like,2.642157193,,,,,,,,,,,,,,,,,,,,,,
,,6704251bcdca04fef23d385d,6685aa9113c938e83b4f1ea0,672d04867a2195e73328b5a8,2024-11-07_13h20.24.019,WTP_SM_Choice,2022.2.1,Win32,59.88023952,,,,,space,0.8847,NAN,,NAN,0.27,5.73,,0,15,15,15,1,16,Riley,Acc,Participant_Images/6704251bcdca04fef23d385d/6704251bcdca04fef23d385d_Images/6704251bcdca04fef23d385d_Image_9.jpeg,did not like,4.456234322,,,,,,,,,,,,,,,,,,,,,,
,,6704251bcdca04fef23d385d,6685aa9113c938e83b4f1ea0,672d04867a2195e73328b5a8,2024-11-07_13h20.24.019,WTP_SM_Choice,2022.2.1,Win32,59.88023952,,,,,space,1.2399,NAN,,NAN,0.27,5.73,,0,16,16,16,1,17,Riley,Acc,Participant_Images/6704251bcdca04fef23d385d/6704251bcdca04fef23d385d_Images/6704251bcdca04fef23d385d_Image_25.jpeg,did not like,4.438512181,,,,,,,,,,,,,,,,,,,,,,
,,6704251bcdca04fef23d385d,6685aa9113c938e83b4f1ea0,672d04867a2195e73328b5a8,2024-11-07_13h20.24.019,WTP_SM_Choice,2022.2.1,Win32,59.88023952,,,,,space,0.6893,NAN,,NAN,0.27,5.73,,0,17,17,17,1,18,Riley,Acc,Participant_Images/6704251bcdca04fef23d385d/6704251bcdca04fef23d385d_Images/6704251bcdca04fef23d385d_Image_18.jpeg,liked,2.682944783,,,,,,,,,,,,,,,,,,,,,,
,,6704251bcdca04fef23d385d,6685aa9113c938e83b4f1ea0,672d04867a2195e73328b5a8,2024-11-07_13h20.24.019,WTP_SM_Choice,2022.2.1,Win32,59.88023952,,,,,space,1.2716,NAN,,NAN,0.27,5.73,,0,18,18,18,1,19,Riley,Acc,Participant_Images/6704251bcdca04fef23d385d/6704251bcdca04fef23d385d_Images/6704251bcdca04fef23d385d_Image_12.jpeg,did not like,4.51984296,,,,,,,,,,,,,,,,,,,,,,
,,6704251bcdca04fef23d385d,6685aa9113c938e83b4f1ea0,672d04867a2195e73328b5a8,2024-11-07_13h20.24.019,WTP_SM_Choice,2022.2.1,Win32,59.88023952,,,,,,,,,,,,,,,,,,16,,,,,,space,2.1241,space,1.3602,0.01,1,3.1217,0,0,0,0,1,Go to an anime or gaming convention with a sister and a friend,Go all out and wearing my ghostbusters uniform with my ghostbusters blanket and Proton pack whilst watching Ghostbusters,0.01,0.04,1.1,0,,,,
,,6704251bcdca04fef23d385d,6685aa9113c938e83b4f1ea0,672d04867a2195e73328b5a8,2024-11-07_13h20.24.019,WTP_SM_Choice,2022.2.1,Win32,59.88023952,,,,,,,,,,,,,,,,,,17,,,,,,,,,,0.02,1,2.4357,0,1,1,1,1,Read in the same room as with a friend not necessarily talking but just enjoying each others company,Daydream about the future,0.02,0.04,8.8,0,,,,
,,6704251bcdca04fef23d385d,6685aa9113c938e83b4f1ea0,672d04867a2195e73328b5a8,2024-11-07_13h20.24.019,WTP_SM_Choice,2022.2.1,Win32,59.88023952,,,,,,,,,,,,,,,,,,18,,,,,,,,,,0.03,1,2.9064,0,2,2,2,1,Watch a movie with a soft blanket and warm popcorn,Go over to a friends place and acting like children again IE in pajamas with finger foods watching old cartoons,0.03,0.04,3.3,1,,,,
,,6704251bcdca04fef23d385d,6685aa9113c938e83b4f1ea0,672d04867a2195e73328b5a8,2024-11-07_13h20.24.019,WTP_SM_Choice,2022.2.1,Win32,59.88023952,,,,,,,,,,,,,,,,,,19,,,,,,,,,,0.04,1,4.4807,0,3,3,3,1,Go all out and wearing my ghostbusters uniform with my ghostbusters blanket and Proton pack whilst watching Ghostbusters,Go to a theme park such as Cedar Point with my mother and my sister,0.04,0.04,3.3,1,,,,
,,6704251bcdca04fef23d385d,6685aa9113c938e83b4f1ea0,672d04867a2195e73328b5a8,2024-11-07_13h20.24.019,WTP_SM_Choice,2022.2.1,Win32,59.88023952,,,,,,,,,,,,,,,,,,20,,,,,,,,,,0.04,2,2.2928,0,4,4,4,1,Go to an anime or gaming convention with a sister and a friend,Watch a movie with a soft blanket and warm popcorn,0.05,0.04,1.1,0,,,,
,,6704251bcdca04fef23d385d,6685aa9113c938e83b4f1ea0,672d04867a2195e73328b5a8,2024-11-07_13h20.24.019,WTP_SM_Choice,2022.2.1,Win32,59.88023952,,,,,,,NAN,,NAN,0.41,5.59,,0,19,19,19,1,20,Riley,Acc,Participant_Images/6704251bcdca04fef23d385d/6704251bcdca04fef23d385d_Images/6704251bcdca04fef23d385d_Image_11.jpeg,liked,3.195382774,,,,,,,,,,,,,,,,,,,,,,
,,6704251bcdca04fef23d385d,6685aa9113c938e83b4f1ea0,672d04867a2195e73328b5a8,2024-11-07_13h20.24.019,WTP_SM_Choice,2022.2.1,Win32,59.88023952,,,,,space,1.5101,NAN,,NAN,0.41,5.59,,0,20,20,20,1,21,Riley,Acc,Participant_Images/6704251bcdca04fef23d385d/6704251bcdca04fef23d385d_Images/6704251bcdca04fef23d385d_Image_22.jpeg,liked,1.779333479,,,,,,,,,,,,,,,,,,,,,,
,,6704251bcdca04fef23d385d,6685aa9113c938e83b4f1ea0,672d04867a2195e73328b5a8,2024-11-07_13h20.24.019,WTP_SM_Choice,2022.2.1,Win32,59.88023952,,,,,space,0.4886,NAN,,NAN,0.41,5.59,,0,21,21,21,1,22,Riley,Acc,Participant_Images/6704251bcdca04fef23d385d/6704251bcdca04fef23d385d_Images/6704251bcdca04fef23d385d_Image_4.jpeg,liked,4.312468682,,,,,,,,,,,,,,,,,,,,,,
,,6704251bcdca04fef23d385d,6685aa9113c938e83b4f1ea0,672d04867a2195e73328b5a8,2024-11-07_13h20.24.019,WTP_SM_Choice,2022.2.1,Win32,59.88023952,,,,,space,1.2334,NAN,,NAN,0.41,5.59,,0,22,22,22,1,23,Riley,Acc,Participant_Images/6704251bcdca04fef23d385d/6704251bcdca04fef23d385d_Images/6704251bcdca04fef23d385d_Image_6.jpeg,liked,4.940433059,,,,,,,,,,,,,,,,,,,,,,
,,6704251bcdca04fef23d385d,6685aa9113c938e83b4f1ea0,672d04867a2195e73328b5a8,2024-11-07_13h20.24.019,WTP_SM_Choice,2022.2.1,Win32,59.88023952,,,,,space,0.5034,NAN,,NAN,0.41,5.59,,0,23,23,23,1,24,Riley,Acc,Participant_Images/6704251bcdca04fef23d385d/6704251bcdca04fef23d385d_Images/6704251bcdca04fef23d385d_Image_7.jpeg,liked,2.7105123,,,,,,,,,,,,,,,,,,,,,,
,,6704251bcdca04fef23d385d,6685aa9113c938e83b4f1ea0,672d04867a2195e73328b5a8,2024-11-07_13h20.24.019,WTP_SM_Choice,2022.2.1,Win32,59.88023952,,,,,,,,,,,,,,,,,,21,,,,,,space,1.8003,space,6.7821,0.01,1,2.0669,0,0,0,0,1,Play with my cats this way I don't have to listen to others calling them fat,Go over to a friends place and acting like children again IE in pajamas with finger foods watching old cartoons,0.01,0.05,8.8,1,,,,
,,6704251bcdca04fef23d385d,6685aa9113c938e83b4f1ea0,672d04867a2195e73328b5a8,2024-11-07_13h20.24.019,WTP_SM_Choice,2022.2.1,Win32,59.88023952,,,,,,,,,,,,,,,,,,22,,,,,,,,,,0.02,1,2.1505,0,1,1,1,1,Read a non fiction book that is not for class just for my enjoyment,Go to an anime or gaming convention with a sister and a friend,0.02,0.05,4.4,1,,,,
,,6704251bcdca04fef23d385d,6685aa9113c938e83b4f1ea0,672d04867a2195e73328b5a8,2024-11-07_13h20.24.019,WTP_SM_Choice,2022.2.1,Win32,59.88023952,,,,,,,,,,,,,,,,,,23,,,,,,,,,,0.03,1,2.0764,0,2,2,2,1,Dance alone with music on noise cancelling headphones,Go to an anime or gaming convention with a sister and a friend,0.03,0.05,1.1,1,,,,
,,6704251bcdca04fef23d385d,6685aa9113c938e83b4f1ea0,672d04867a2195e73328b5a8,2024-11-07_13h20.24.019,WTP_SM_Choice,2022.2.1,Win32,59.88023952,,,,,,,,,,,,,,,,,,24,,,,,,,,,,0.05,2,3.018,0,3,3,3,1,Play video games,Read in the same room as with a friend not necessarily talking but just enjoying each others company,0.04,0.05,4.4,1,,,,
,,6704251bcdca04fef23d385d,6685aa9113c938e83b4f1ea0,672d04867a2195e73328b5a8,2024-11-07_13h20.24.019,WTP_SM_Choice,2022.2.1,Win32,59.88023952,,,,,,,,,,,,,,,,,,25,,,,,,,,,,0.05,1,2.0599,0,4,4,4,1,Dance alone with music on noise cancelling headphones,Go out to the movies and watching a new movie with a friend,0.05,0.05,3.3,1,,,,
,,6704251bcdca04fef23d385d,6685aa9113c938e83b4f1ea0,672d04867a2195e73328b5a8,2024-11-07_13h20.24.019,WTP_SM_Choice,2022.2.1,Win32,59.88023952,,,,,,,2,,7,0.57,5.43,,0,24,24,24,1,25,Riley,Acc,Participant_Images/6704251bcdca04fef23d385d/6704251bcdca04fef23d385d_Images/6704251bcdca04fef23d385d_Image_21.jpeg,did not like,3.602308302,,,,,,,,,,,,,,,,,,,space,0.6785,,
,,6704251bcdca04fef23d385d,6685aa9113c938e83b4f1ea0,672d04867a2195e73328b5a8,2024-11-07_13h20.24.019,WTP_SM_Choice,2022.2.1,Win32,59.88023952,,,space,1.4602,space,0.3662,NAN,,NAN,0.57,5.43,,0,25,25,25,1,26,Sam,Acc,Participant_Images/6704251bcdca04fef23d385d/6704251bcdca04fef23d385d_Images/6704251bcdca04fef23d385d_Image_4.jpeg,liked,4.106391878,,,,,,,,,,,,,,,,,,,,,,
,,6704251bcdca04fef23d385d,6685aa9113c938e83b4f1ea0,672d04867a2195e73328b5a8,2024-11-07_13h20.24.019,WTP_SM_Choice,2022.2.1,Win32,59.88023952,,,,,space,0.5765,NAN,,NAN,0.57,5.43,,0,26,26,26,1,27,Sam,Acc,Participant_Images/6704251bcdca04fef23d385d/6704251bcdca04fef23d385d_Images/6704251bcdca04fef23d385d_Image_11.jpeg,liked,3.799433026,,,,,,,,,,,,,,,,,,,,,,
,,6704251bcdca04fef23d385d,6685aa9113c938e83b4f1ea0,672d04867a2195e73328b5a8,2024-11-07_13h20.24.019,WTP_SM_Choice,2022.2.1,Win32,59.88023952,,,,,space,0.5527,NAN,,NAN,0.57,5.43,,0,27,27,27,1,28,Sam,Acc,Participant_Images/6704251bcdca04fef23d385d/6704251bcdca04fef23d385d_Images/6704251bcdca04fef23d385d_Image_6.jpeg,did not like,5.246980764,,,,,,,,,,,,,,,,,,,,,,
,,6704251bcdca04fef23d385d,6685aa9113c938e83b4f1ea0,672d04867a2195e73328b5a8,2024-11-07_13h20.24.019,WTP_SM_Choice,2022.2.1,Win32,59.88023952,,,,,space,3.0841,NAN,,NAN,0.57,5.43,,0,28,28,28,1,29,Sam,Acc,Participant_Images/6704251bcdca04fef23d385d/6704251bcdca04fef23d385d_Images/6704251bcdca04fef23d385d_Image_9.jpeg,liked,3.30081769,,,,,,,,,,,,,,,,,,,,,,
,,6704251bcdca04fef23d385d,6685aa9113c938e83b4f1ea0,672d04867a2195e73328b5a8,2024-11-07_13h20.24.019,WTP_SM_Choice,2022.2.1,Win32,59.88023952,,,,,,,,,,,,,,,,,,26,,,,,,space,1.9613,space,1.2253,0.01,2,1.911,0,0,0,0,1,Go over to a friends place and acting like children again IE in pajamas with finger foods watching old cartoons,Watch Youtube whilst playing a game on my phone,0.01,0.01,4.4,0,,,,
,,6704251bcdca04fef23d385d,6685aa9113c938e83b4f1ea0,672d04867a2195e73328b5a8,2024-11-07_13h20.24.019,WTP_SM_Choice,2022.2.1,Win32,59.88023952,,,,,,,,,,,,,,,,,,27,,,,,,,,,,0.01,2,1.8042,0,1,1,1,1,Go over to a friends place and acting like children again IE in pajamas with finger foods watching old cartoons,Dance alone with music on noise cancelling headphones,0.02,0.01,3.3,0,,,,
,,6704251bcdca04fef23d385d,6685aa9113c938e83b4f1ea0,672d04867a2195e73328b5a8,2024-11-07_13h20.24.019,WTP_SM_Choice,2022.2.1,Win32,59.88023952,,,,,,,,,,,,,,,,,,28,,,,,,,,,,0.01,2,1.9761,0,2,2,2,1,Watch the Real Ghostbusters Everyone else always complains the entire time and ruins the experience,Go out to Kura Sushi and get whatever new prize they have for the month with my sister,0.03,0.01,3.3,1,,,,
,,6704251bcdca04fef23d385d,6685aa9113c938e83b4f1ea0,672d04867a2195e73328b5a8,2024-11-07_13h20.24.019,WTP_SM_Choice,2022.2.1,Win32,59.88023952,,,,,,,,,,,,,,,,,,29,,,,,,,,,,0.01,2,1.7829,0,3,3,3,1,Try a new recipe at home with my mother,Daydream about the future,0.04,0.01,4.4,0,,,,
,,6704251bcdca04fef23d385d,6685aa9113c938e83b4f1ea0,672d04867a2195e73328b5a8,2024-11-07_13h20.24.019,WTP_SM_Choice,2022.2.1,Win32,59.88023952,,,,,,,,,,,,,,,,,,30,,,,,,,,,,0.01,2,2.1617,0,4,4,4,1,Play video games with a friend online,Dance alone with music on noise cancelling headphones,0.05,0.01,8.8,0,,,,
,,6704251bcdca04fef23d385d,6685aa9113c938e83b4f1ea0,672d04867a2195e73328b5a8,2024-11-07_13h20.24.019,WTP_SM_Choice,2022.2.1,Win32,59.88023952,,,,,,,NAN,,NAN,0.62,5.38,,0,29,29,29,1,30,Sam,Acc,Participant_Images/6704251bcdca04fef23d385d/6704251bcdca04fef23d385d_Images/6704251bcdca04fef23d385d_Image_23.jpeg,liked,1.661473164,,,,,,,,,,,,,,,,,,,,,,
,,6704251bcdca04fef23d385d,6685aa9113c938e83b4f1ea0,672d04867a2195e73328b5a8,2024-11-07_13h20.24.019,WTP_SM_Choice,2022.2.1,Win32,59.88023952,,,,,space,4.7391,NAN,,NAN,0.62,5.38,,0,30,30,30,1,31,Sam,Acc,Participant_Images/6704251bcdca04fef23d385d/6704251bcdca04fef23d385d_Images/6704251bcdca04fef23d385d_Image_19.jpeg,liked,3.613205605,,,,,,,,,,,,,,,,,,,,,,
,,6704251bcdca04fef23d385d,6685aa9113c938e83b4f1ea0,672d04867a2195e73328b5a8,2024-11-07_13h20.24.019,WTP_SM_Choice,2022.2.1,Win32,59.88023952,,,,,space,1.9071,NAN,,NAN,0.62,5.38,,0,31,31,31,1,32,Sam,Acc,Participant_Images/6704251bcdca04fef23d385d/6704251bcdca04fef23d385d_Images/6704251bcdca04fef23d385d_Image_22.jpeg,liked,4.988446431,,,,,,,,,,,,,,,,,,,,,,
,,6704251bcdca04fef23d385d,6685aa9113c938e83b4f1ea0,672d04867a2195e73328b5a8,2024-11-07_13h20.24.019,WTP_SM_Choice,2022.2.1,Win32,59.88023952,,,,,space,0.4832,NAN,,NAN,0.62,5.38,,0,32,32,32,1,33,Sam,Acc,Participant_Images/6704251bcdca04fef23d385d/6704251bcdca04fef23d385d_Images/6704251bcdca04fef23d385d_Image_1.jpeg,liked,3.470791822,,,,,,,,,,,,,,,,,,,,,,
,,6704251bcdca04fef23d385d,6685aa9113c938e83b4f1ea0,672d04867a2195e73328b5a8,2024-11-07_13h20.24.019,WTP_SM_Choice,2022.2.1,Win32,59.88023952,,,,,space,0.4355,NAN,,NAN,0.62,5.38,,0,33,33,33,1,34,Sam,Acc,Participant_Images/6704251bcdca04fef23d385d/6704251bcdca04fef23d385d_Images/6704251bcdca04fef23d385d_Image_25.jpeg,liked,3.820572462,,,,,,,,,,,,,,,,,,,,,,
,,6704251bcdca04fef23d385d,6685aa9113c938e83b4f1ea0,672d04867a2195e73328b5a8,2024-11-07_13h20.24.019,WTP_SM_Choice,2022.2.1,Win32,59.88023952,,,,,,,,,,,,,,,,,,31,,,,,,space,5.4527,space,1.801,0.01,1,2.887,0,0,0,0,1,Go to a theme park such as Cedar Point with my mother and my sister,Play with my cats this way I don't have to listen to others calling them fat,0.01,0.02,8.8,0,,,,
,,6704251bcdca04fef23d385d,6685aa9113c938e83b4f1ea0,672d04867a2195e73328b5a8,2024-11-07_13h20.24.019,WTP_SM_Choice,2022.2.1,Win32,59.88023952,,,,,,,,,,,,,,,,,,32,,,,,,,,,,0.02,1,2.439,0,1,1,1,1,Read in the same room as with a friend not necessarily talking but just enjoying each others company,Go all out and wearing my ghostbusters uniform with my ghostbusters blanket and Proton pack whilst watching Ghostbusters,0.02,0.02,1.1,0,,,,
,,6704251bcdca04fef23d385d,6685aa9113c938e83b4f1ea0,672d04867a2195e73328b5a8,2024-11-07_13h20.24.019,WTP_SM_Choice,2022.2.1,Win32,59.88023952,,,,,,,,,,,,,,,,,,33,,,,,,,,,,0.03,1,3.617,0,2,2,2,1,Try a new recipe at home with my mother,Watch a movie with a soft blanket and warm popcorn,0.03,0.02,4.4,0,,,,
,,6704251bcdca04fef23d385d,6685aa9113c938e83b4f1ea0,672d04867a2195e73328b5a8,2024-11-07_13h20.24.019,WTP_SM_Choice,2022.2.1,Win32,59.88023952,,,,,,,,,,,,,,,,,,34,,,,,,,,,,0.02,2,1.9216,0,3,3,3,1,Go out to the movies and watching a new movie with a friend,Go all out and wearing my ghostbusters uniform with my ghostbusters blanket and Proton pack whilst watching Ghostbusters,0.04,0.02,3.3,0,,,,
,,6704251bcdca04fef23d385d,6685aa9113c938e83b4f1ea0,672d04867a2195e73328b5a8,2024-11-07_13h20.24.019,WTP_SM_Choice,2022.2.1,Win32,59.88023952,,,,,,,,,,,,,,,,,,35,,,,,,,,,,0.02,2,2.4547,0,4,4,4,1,Play video games with a friend online,Watch the Real Ghostbusters Everyone else always complains the entire time and ruins the experience,0.05,0.02,1.1,0,,,,
,,6704251bcdca04fef23d385d,6685aa9113c938e83b4f1ea0,672d04867a2195e73328b5a8,2024-11-07_13h20.24.019,WTP_SM_Choice,2022.2.1,Win32,59.88023952,,,,,,,NAN,,NAN,0.72,5.28,,0,34,34,34,1,35,Sam,Acc,Participant_Images/6704251bcdca04fef23d385d/6704251bcdca04fef23d385d_Images/6704251bcdca04fef23d385d_Image_13.jpeg,liked,2.455989137,,,,,,,,,,,,,,,,,,,,,,
,,6704251bcdca04fef23d385d,6685aa9113c938e83b4f1ea0,672d04867a2195e73328b5a8,2024-11-07_13h20.24.019,WTP_SM_Choice,2022.2.1,Win32,59.88023952,,,,,space,0.5523,NAN,,NAN,0.72,5.28,,0,35,35,35,1,36,Sam,Acc,Participant_Images/6704251bcdca04fef23d385d/6704251bcdca04fef23d385d_Images/6704251bcdca04fef23d385d_Image_2.jpeg,liked,3.79605092,,,,,,,,,,,,,,,,,,,,,,
,,6704251bcdca04fef23d385d,6685aa9113c938e83b4f1ea0,672d04867a2195e73328b5a8,2024-11-07_13h20.24.019,WTP_SM_Choice,2022.2.1,Win32,59.88023952,,,,,space,0.7371,NAN,,NAN,0.72,5.28,,0,36,36,36,1,37,Sam,Acc,Participant_Images/6704251bcdca04fef23d385d/6704251bcdca04fef23d385d_Images/6704251bcdca04fef23d385d_Image_5.jpeg,did not like,3.562416326,,,,,,,,,,,,,,,,,,,,,,
,,6704251bcdca04fef23d385d,6685aa9113c938e83b4f1ea0,672d04867a2195e73328b5a8,2024-11-07_13h20.24.019,WTP_SM_Choice,2022.2.1,Win32,59.88023952,,,,,space,0.6078,NAN,,NAN,0.72,5.28,,0,37,37,37,1,38,Sam,Acc,Participant_Images/6704251bcdca04fef23d385d/6704251bcdca04fef23d385d_Images/6704251bcdca04fef23d385d_Image_12.jpeg,liked,2.843822497,,,,,,,,,,,,,,,,,,,,,,
,,6704251bcdca04fef23d385d,6685aa9113c938e83b4f1ea0,672d04867a2195e73328b5a8,2024-11-07_13h20.24.019,WTP_SM_Choice,2022.2.1,Win32,59.88023952,,,,,space,1.9611,NAN,,NAN,0.72,5.28,,0,38,38,38,1,39,Sam,Acc,Participant_Images/6704251bcdca04fef23d385d/6704251bcdca04fef23d385d_Images/6704251bcdca04fef23d385d_Image_14.jpeg,did not like,3.546495948,,,,,,,,,,,,,,,,,,,,,,
,,6704251bcdca04fef23d385d,6685aa9113c938e83b4f1ea0,672d04867a2195e73328b5a8,2024-11-07_13h20.24.019,WTP_SM_Choice,2022.2.1,Win32,59.88023952,,,,,,,,,,,,,,,,,,36,,,,,,space,6.5596,space,2.603,0.01,1,1.7888,0,0,0,0,1,Try a new recipe at home with my mother,Play with my cats this way I don't have to listen to others calling them fat,0.01,0.03,3.3,0,,,,
,,6704251bcdca04fef23d385d,6685aa9113c938e83b4f1ea0,672d04867a2195e73328b5a8,2024-11-07_13h20.24.019,WTP_SM_Choice,2022.2.1,Win32,59.88023952,,,,,,,,,,,,,,,,,,37,,,,,,,,,,0.02,1,1.9777,0,1,1,1,1,Dance alone with music on noise cancelling headphones,Read in the same room as with a friend not necessarily talking but just enjoying each others company,0.02,0.03,1.1,1,,,,
,,6704251bcdca04fef23d385d,6685aa9113c938e83b4f1ea0,672d04867a2195e73328b5a8,2024-11-07_13h20.24.019,WTP_SM_Choice,2022.2.1,Win32,59.88023952,,,,,,,,,,,,,,,,,,38,,,,,,,,,,0.03,2,2.809,0,2,2,2,1,Play video games with a friend online,Go all out and wearing my ghostbusters uniform with my ghostbusters blanket and Proton pack whilst watching Ghostbusters,0.03,0.03,1.1,0,,,,
,,6704251bcdca04fef23d385d,6685aa9113c938e83b4f1ea0,672d04867a2195e73328b5a8,2024-11-07_13h20.24.019,WTP_SM_Choice,2022.2.1,Win32,59.88023952,,,,,,,,,,,,,,,,,,39,,,,,,,,,,0.03,2,1.7572,0,3,3,3,1,Play video games with a friend online,Watch Youtube whilst playing a game on my phone,0.04,0.03,3.3,0,,,,
,,6704251bcdca04fef23d385d,6685aa9113c938e83b4f1ea0,672d04867a2195e73328b5a8,2024-11-07_13h20.24.019,WTP_SM_Choice,2022.2.1,Win32,59.88023952,,,,,,,,,,,,,,,,,,40,,,,,,,,,,0.03,2,1.5343,0,4,4,4,1,Go out to Kura Sushi and get whatever new prize they have for the month with my sister,Play video games,0.05,0.03,4.4,0,,,,
,,6704251bcdca04fef23d385d,6685aa9113c938e83b4f1ea0,672d04867a2195e73328b5a8,2024-11-07_13h20.24.019,WTP_SM_Choice,2022.2.1,Win32,59.88023952,,,,,,,NAN,,NAN,0.84,5.16,,0,39,39,39,1,40,Sam,Acc,Participant_Images/6704251bcdca04fef23d385d/6704251bcdca04fef23d385d_Images/6704251bcdca04fef23d385d_Image_18.jpeg,liked,1.672012706,,,,,,,,,,,,,,,,,,,,,,
,,6704251bcdca04fef23d385d,6685aa9113c938e83b4f1ea0,672d04867a2195e73328b5a8,2024-11-07_13h20.24.019,WTP_SM_Choice,2022.2.1,Win32,59.88023952,,,,,space,0.452,NAN,,NAN,0.84,5.16,,0,40,40,40,1,41,Sam,Acc,Participant_Images/6704251bcdca04fef23d385d/6704251bcdca04fef23d385d_Images/6704251bcdca04fef23d385d_Image_24.jpeg,liked,4.942172136,,,,,,,,,,,,,,,,,,,,,,
,,6704251bcdca04fef23d385d,6685aa9113c938e83b4f1ea0,672d04867a2195e73328b5a8,2024-11-07_13h20.24.019,WTP_SM_Choice,2022.2.1,Win32,59.88023952,,,,,space,0.5389,NAN,,NAN,0.84,5.16,,0,41,41,41,1,42,Sam,Acc,Participant_Images/6704251bcdca04fef23d385d/6704251bcdca04fef23d385d_Images/6704251bcdca04fef23d385d_Image_20.jpeg,did not like,2.50187214,,,,,,,,,,,,,,,,,,,,,,
,,6704251bcdca04fef23d385d,6685aa9113c938e83b4f1ea0,672d04867a2195e73328b5a8,2024-11-07_13h20.24.019,WTP_SM_Choice,2022.2.1,Win32,59.88023952,,,,,space,0.6006,NAN,,NAN,0.84,5.16,,0,42,42,42,1,43,Sam,Acc,Participant_Images/6704251bcdca04fef23d385d/6704251bcdca04fef23d385d_Images/6704251bcdca04fef23d385d_Image_8.jpeg,liked,2.071164779,,,,,,,,,,,,,,,,,,,,,,
,,6704251bcdca04fef23d385d,6685aa9113c938e83b4f1ea0,672d04867a2195e73328b5a8,2024-11-07_13h20.24.019,WTP_SM_Choice,2022.2.1,Win32,59.88023952,,,,,space,0.3994,NAN,,NAN,0.84,5.16,,0,43,43,43,1,44,Sam,Acc,Participant_Images/6704251bcdca04fef23d385d/6704251bcdca04fef23d385d_Images/6704251bcdca04fef23d385d_Image_3.jpeg,did not like,5.336503566,,,,,,,,,,,,,,,,,,,,,,
,,6704251bcdca04fef23d385d,6685aa9113c938e83b4f1ea0,672d04867a2195e73328b5a8,2024-11-07_13h20.24.019,WTP_SM_Choice,2022.2.1,Win32,59.88023952,,,,,,,,,,,,,,,,,,41,,,,,,space,4.8668,space,1.174,0.01,1,1.6365,0,0,0,0,1,Read a non fiction book that is not for class just for my enjoyment,Try some new food that we have never tried before with my mom sister and friend,0.01,0.04,1.1,1,,,,
,,6704251bcdca04fef23d385d,6685aa9113c938e83b4f1ea0,672d04867a2195e73328b5a8,2024-11-07_13h20.24.019,WTP_SM_Choice,2022.2.1,Win32,59.88023952,,,,,,,,,,,,,,,,,,42,,,,,,,,,,0.02,1,1.484,0,1,1,1,1,Try some new food that we have never tried before with my mom sister and friend,Go all out and wearing my ghostbusters uniform with my ghostbusters blanket and Proton pack whilst watching Ghostbusters,0.02,0.04,3.3,0,,,,
,,6704251bcdca04fef23d385d,6685aa9113c938e83b4f1ea0,672d04867a2195e73328b5a8,2024-11-07_13h20.24.019,WTP_SM_Choice,2022.2.1,Win32,59.88023952,,,,,,,,,,,,,,,,,,43,,,,,,,,,,0.04,2,2.5194,0,2,2,2,1,Go out to Kura Sushi and get whatever new prize they have for the month with my sister,Go all out and wearing my ghostbusters uniform with my ghostbusters blanket and Proton pack whilst watching Ghostbusters,0.03,0.04,1.1,0,,,,
,,6704251bcdca04fef23d385d,6685aa9113c938e83b4f1ea0,672d04867a2195e73328b5a8,2024-11-07_13h20.24.019,WTP_SM_Choice,2022.2.1,Win32,59.88023952,,,,,,,,,,,,,,,,,,44,,,,,,,,,,0.04,2,1.5415,0,3,3,3,1,Go all out and wearing my ghostbusters uniform with my ghostbusters blanket and Proton pack whilst watching Ghostbusters,Go out to eat at a restaurant with my mom sister and friend,0.04,0.04,1.1,1,,,,
,,6704251bcdca04fef23d385d,6685aa9113c938e83b4f1ea0,672d04867a2195e73328b5a8,2024-11-07_13h20.24.019,WTP_SM_Choice,2022.2.1,Win32,59.88023952,,,,,,,,,,,,,,,,,,45,,,,,,,,,,0.04,2,2.7388,0,4,4,4,1,Watch a movie with a soft blanket and warm popcorn,Try some new food that we have never tried before with my mom sister and friend,0.05,0.04,4.4,1,,,,
,,6704251bcdca04fef23d385d,6685aa9113c938e83b4f1ea0,672d04867a2195e73328b5a8,2024-11-07_13h20.24.019,WTP_SM_Choice,2022.2.1,Win32,59.88023952,,,,,,,NAN,,NAN,0.99,5.01,,0,44,44,44,1,45,Sam,Acc,Participant_Images/6704251bcdca04fef23d385d/6704251bcdca04fef23d385d_Images/6704251bcdca04fef23d385d_Image_16.jpeg,liked,2.642157193,,,,,,,,,,,,,,,,,,,,,,
,,6704251bcdca04fef23d385d,6685aa9113c938e83b4f1ea0,672d04867a2195e73328b5a8,2024-11-07_13h20.24.019,WTP_SM_Choice,2022.2.1,Win32,59.88023952,,,,,space,0.4967,NAN,,NAN,0.99,5.01,,0,45,45,45,1,46,Sam,Acc,Participant_Images/6704251bcdca04fef23d385d/6704251bcdca04fef23d385d_Images/6704251bcdca04fef23d385d_Image_15.jpeg,did not like,4.456234322,,,,,,,,,,,,,,,,,,,,,,
,,6704251bcdca04fef23d385d,6685aa9113c938e83b4f1ea0,672d04867a2195e73328b5a8,2024-11-07_13h20.24.019,WTP_SM_Choice,2022.2.1,Win32,59.88023952,,,,,space,0.3357,NAN,,NAN,0.99,5.01,,0,46,46,46,1,47,Sam,Acc,Participant_Images/6704251bcdca04fef23d385d/6704251bcdca04fef23d385d_Images/6704251bcdca04fef23d385d_Image_17.jpeg,liked,4.438512181,,,,,,,,,,,,,,,,,,,,,,
,,6704251bcdca04fef23d385d,6685aa9113c938e83b4f1ea0,672d04867a2195e73328b5a8,2024-11-07_13h20.24.019,WTP_SM_Choice,2022.2.1,Win32,59.88023952,,,,,space,1.7896,NAN,,NAN,0.99,5.01,,0,47,47,47,1,48,Sam,Acc,Participant_Images/6704251bcdca04fef23d385d/6704251bcdca04fef23d385d_Images/6704251bcdca04fef23d385d_Image_7.jpeg,liked,2.682944783,,,,,,,,,,,,,,,,,,,,,,
,,6704251bcdca04fef23d385d,6685aa9113c938e83b4f1ea0,672d04867a2195e73328b5a8,2024-11-07_13h20.24.019,WTP_SM_Choice,2022.2.1,Win32,59.88023952,,,,,space,1.3265,NAN,,NAN,0.99,5.01,,0,48,48,48,1,49,Sam,Acc,Participant_Images/6704251bcdca04fef23d385d/6704251bcdca04fef23d385d_Images/6704251bcdca04fef23d385d_Image_21.jpeg,did not like,4.51984296,,,,,,,,,,,,,,,,,,,,,,
,,6704251bcdca04fef23d385d,6685aa9113c938e83b4f1ea0,672d04867a2195e73328b5a8,2024-11-07_13h20.24.019,WTP_SM_Choice,2022.2.1,Win32,59.88023952,,,,,,,,,,,,,,,,,,46,,,,,,space,10.45,space,1.0631,0.01,1,1.2781,0,0,0,0,1,Make shopping lists of stuff I will never buy on Amazon,Go out to Kura Sushi and get whatever new prize they have for the month with my sister,0.01,0.05,8.8,1,,,,
,,6704251bcdca04fef23d385d,6685aa9113c938e83b4f1ea0,672d04867a2195e73328b5a8,2024-11-07_13h20.24.019,WTP_SM_Choice,2022.2.1,Win32,59.88023952,,,,,,,,,,,,,,,,,,47,,,,,,,,,,0.02,1,1.8836,0,1,1,1,1,Make shopping lists of stuff I will never buy on Amazon,Go to an anime or gaming convention with a sister and a friend,0.02,0.05,1.1,1,,,,
,,6704251bcdca04fef23d385d,6685aa9113c938e83b4f1ea0,672d04867a2195e73328b5a8,2024-11-07_13h20.24.019,WTP_SM_Choice,2022.2.1,Win32,59.88023952,,,,,,,,,,,,,,,,,,48,,,,,,,,,,0.03,1,2.3029,0,2,2,2,1,Try some new food that we have never tried before with my mom sister and friend,Play video games,0.03,0.05,4.4,0,,,,
,,6704251bcdca04fef23d385d,6685aa9113c938e83b4f1ea0,672d04867a2195e73328b5a8,2024-11-07_13h20.24.019,WTP_SM_Choice,2022.2.1,Win32,59.88023952,,,,,,,,,,,,,,,,,,49,,,,,,,,,,0.04,1,2.5269,0,3,3,3,1,Go out to Kura Sushi and get whatever new prize they have for the month with my sister,Read a non fiction book that is not for class just for my enjoyment,0.04,0.05,3.3,0,,,,
,,6704251bcdca04fef23d385d,6685aa9113c938e83b4f1ea0,672d04867a2195e73328b5a8,2024-11-07_13h20.24.019,WTP_SM_Choice,2022.2.1,Win32,59.88023952,,,,,,,,,,,,,,,,,,50,,,,,,,,,,0.05,1,1.95,0,4,4,4,1,Play with my cats this way I don't have to listen to others calling them fat,Play video games with a friend online,0.05,0.05,1.1,1,,,,
,,6704251bcdca04fef23d385d,6685aa9113c938e83b4f1ea0,672d04867a2195e73328b5a8,2024-11-07_13h20.24.019,WTP_SM_Choice,2022.2.1,Win32,59.88023952,,,,,,,1,,2,1.14,4.86,,0,49,49,49,1,50,Sam,Acc,Participant_Images/6704251bcdca04fef23d385d/6704251bcdca04fef23d385d_Images/6704251bcdca04fef23d385d_Image_10.jpeg,liked,3.195382774,,,,,,,,,,,,,,,,,,,space,0.7857,,
,,6704251bcdca04fef23d385d,6685aa9113c938e83b4f1ea0,672d04867a2195e73328b5a8,2024-11-07_13h20.24.019,WTP_SM_Choice,2022.2.1,Win32,59.88023952,,,space,1.2201,space,0.4433,NAN,,NAN,1.14,4.86,,0,50,50,50,1,51,Charlie,Rej,Participant_Images/6704251bcdca04fef23d385d/6704251bcdca04fef23d385d_Images/6704251bcdca04fef23d385d_Image_8.jpeg,did not like,1.779333479,,,,,,,,,,,,,,,,,,,,,,
,,6704251bcdca04fef23d385d,6685aa9113c938e83b4f1ea0,672d04867a2195e73328b5a8,2024-11-07_13h20.24.019,WTP_SM_Choice,2022.2.1,Win32,59.88023952,,,,,space,0.4668,NAN,,NAN,1.14,4.86,,0,51,51,51,1,52,Charlie,Rej,Participant_Images/6704251bcdca04fef23d385d/6704251bcdca04fef23d385d_Images/6704251bcdca04fef23d385d_Image_14.jpeg,did not like,4.312468682,,,,,,,,,,,,,,,,,,,,,,
,,6704251bcdca04fef23d385d,6685aa9113c938e83b4f1ea0,672d04867a2195e73328b5a8,2024-11-07_13h20.24.019,WTP_SM_Choice,2022.2.1,Win32,59.88023952,,,,,space,0.4993,NAN,,NAN,1.14,4.86,,0,52,52,52,1,53,Charlie,Rej,Participant_Images/6704251bcdca04fef23d385d/6704251bcdca04fef23d385d_Images/6704251bcdca04fef23d385d_Image_17.jpeg,did not like,4.940433059,,,,,,,,,,,,,,,,,,,,,,
,,6704251bcdca04fef23d385d,6685aa9113c938e83b4f1ea0,672d04867a2195e73328b5a8,2024-11-07_13h20.24.019,WTP_SM_Choice,2022.2.1,Win32,59.88023952,,,,,space,2.2175,NAN,,NAN,1.14,4.86,,0,53,53,53,1,54,Charlie,Rej,Participant_Images/6704251bcdca04fef23d385d/6704251bcdca04fef23d385d_Images/6704251bcdca04fef23d385d_Image_9.jpeg,did not like,2.7105123,,,,,,,,,,,,,,,,,,,,,,
,,6704251bcdca04fef23d385d,6685aa9113c938e83b4f1ea0,672d04867a2195e73328b5a8,2024-11-07_13h20.24.019,WTP_SM_Choice,2022.2.1,Win32,59.88023952,,,,,,,,,,,,,,,,,,51,,,,,,space,8.621,space,4.6012,0.01,1,2.028,0,0,0,0,1,Read a non fiction book that is not for class just for my enjoyment,Go out to the movies and watching a new movie with a friend,0.01,0.01,1.1,1,,,,
,,6704251bcdca04fef23d385d,6685aa9113c938e83b4f1ea0,672d04867a2195e73328b5a8,2024-11-07_13h20.24.019,WTP_SM_Choice,2022.2.1,Win32,59.88023952,,,,,,,,,,,,,,,,,,52,,,,,,,,,,0.01,2,1.4032,0,1,1,1,1,Try a new recipe at home with my mother,Dance alone with music on noise cancelling headphones,0.02,0.01,3.3,0,,,,
,,6704251bcdca04fef23d385d,6685aa9113c938e83b4f1ea0,672d04867a2195e73328b5a8,2024-11-07_13h20.24.019,WTP_SM_Choice,2022.2.1,Win32,59.88023952,,,,,,,,,,,,,,,,,,53,,,,,,,,,,0.03,1,2.1428,0,2,2,2,1,Read in the same room as with a friend not necessarily talking but just enjoying each others company,Watch Youtube whilst playing a game on my phone,0.03,0.01,1.1,0,,,,
,,6704251bcdca04fef23d385d,6685aa9113c938e83b4f1ea0,672d04867a2195e73328b5a8,2024-11-07_13h20.24.019,WTP_SM_Choice,2022.2.1,Win32,59.88023952,,,,,,,,,,,,,,,,,,54,,,,,,,,,,0.01,2,2.4208,0,3,3,3,1,Daydream about the future,Go to a theme park such as Cedar Point with my mother and my sister,0.04,0.01,4.4,1,,,,
,,6704251bcdca04fef23d385d,6685aa9113c938e83b4f1ea0,672d04867a2195e73328b5a8,2024-11-07_13h20.24.019,WTP_SM_Choice,2022.2.1,Win32,59.88023952,,,,,,,,,,,,,,,,,,55,,,,,,,,,,0.01,2,1.8865,0,4,4,4,1,Play with my cats this way I don't have to listen to others calling them fat,Go out to eat at a restaurant with my mom sister and friend,0.05,0.01,1.1,1,,,,
,,6704251bcdca04fef23d385d,6685aa9113c938e83b4f1ea0,672d04867a2195e73328b5a8,2024-11-07_13h20.24.019,WTP_SM_Choice,2022.2.1,Win32,59.88023952,,,,,,,NAN,,NAN,1.21,4.79,,0,54,54,54,1,55,Charlie,Rej,Participant_Images/6704251bcdca04fef23d385d/6704251bcdca04fef23d385d_Images/6704251bcdca04fef23d385d_Image_22.jpeg,did not like,3.602308302,,,,,,,,,,,,,,,,,,,,,,
,,6704251bcdca04fef23d385d,6685aa9113c938e83b4f1ea0,672d04867a2195e73328b5a8,2024-11-07_13h20.24.019,WTP_SM_Choice,2022.2.1,Win32,59.88023952,,,,,space,2.3895,NAN,,NAN,1.21,4.79,,0,55,55,55,1,56,Charlie,Rej,Participant_Images/6704251bcdca04fef23d385d/6704251bcdca04fef23d385d_Images/6704251bcdca04fef23d385d_Image_5.jpeg,liked,4.106391878,,,,,,,,,,,,,,,,,,,,,,
,,6704251bcdca04fef23d385d,6685aa9113c938e83b4f1ea0,672d04867a2195e73328b5a8,2024-11-07_13h20.24.019,WTP_SM_Choice,2022.2.1,Win32,59.88023952,,,,,space,4.4166,NAN,,NAN,1.21,4.79,,0,56,56,56,1,57,Charlie,Rej,Participant_Images/6704251bcdca04fef23d385d/6704251bcdca04fef23d385d_Images/6704251bcdca04fef23d385d_Image_15.jpeg,did not like,3.799433026,,,,,,,,,,,,,,,,,,,,,,
,,6704251bcdca04fef23d385d,6685aa9113c938e83b4f1ea0,672d04867a2195e73328b5a8,2024-11-07_13h20.24.019,WTP_SM_Choice,2022.2.1,Win32,59.88023952,,,,,space,3.6033,NAN,,NAN,1.21,4.79,,0,57,57,57,1,58,Charlie,Rej,Participant_Images/6704251bcdca04fef23d385d/6704251bcdca04fef23d385d_Images/6704251bcdca04fef23d385d_Image_12.jpeg,did not like,5.246980764,,,,,,,,,,,,,,,,,,,,,,
,,6704251bcdca04fef23d385d,6685aa9113c938e83b4f1ea0,672d04867a2195e73328b5a8,2024-11-07_13h20.24.019,WTP_SM_Choice,2022.2.1,Win32,59.88023952,,,,,space,0.4508,NAN,,NAN,1.21,4.79,,0,58,58,58,1,59,Charlie,Rej,Participant_Images/6704251bcdca04fef23d385d/6704251bcdca04fef23d385d_Images/6704251bcdca04fef23d385d_Image_4.jpeg,did not like,3.30081769,,,,,,,,,,,,,,,,,,,,,,
,,6704251bcdca04fef23d385d,6685aa9113c938e83b4f1ea0,672d04867a2195e73328b5a8,2024-11-07_13h20.24.019,WTP_SM_Choice,2022.2.1,Win32,59.88023952,,,,,,,,,,,,,,,,,,56,,,,,,space,1.7829,space,11.7856,0.01,1,1.4049,0,0,0,0,1,Watch Youtube whilst playing a game on my phone,Go out to Kura Sushi and get whatever new prize they have for the month with my sister,0.01,0.02,8.8,1,,,,
,,6704251bcdca04fef23d385d,6685aa9113c938e83b4f1ea0,672d04867a2195e73328b5a8,2024-11-07_13h20.24.019,WTP_SM_Choice,2022.2.1,Win32,59.88023952,,,,,,,,,,,,,,,,,,57,,,,,,,,,,0.02,2,1.7404,0,1,1,1,1,Watch a movie with a soft blanket and warm popcorn,Play video games with a friend online,0.02,0.02,4.4,1,,,,
,,6704251bcdca04fef23d385d,6685aa9113c938e83b4f1ea0,672d04867a2195e73328b5a8,2024-11-07_13h20.24.019,WTP_SM_Choice,2022.2.1,Win32,59.88023952,,,,,,,,,,,,,,,,,,58,,,,,,,,,,0.02,2,2.2169,0,2,2,2,1,Dance alone with music on noise cancelling headphones,Go to a theme park such as Cedar Point with my mother and my sister,0.03,0.02,4.4,1,,,,
,,6704251bcdca04fef23d385d,6685aa9113c938e83b4f1ea0,672d04867a2195e73328b5a8,2024-11-07_13h20.24.019,WTP_SM_Choice,2022.2.1,Win32,59.88023952,,,,,,,,,,,,,,,,,,59,,,,,,,,,,0.02,2,1.3529,0,3,3,3,1,Try some new food that we have never tried before with my mom sister and friend,Make shopping lists of stuff I will never buy on Amazon,0.04,0.02,4.4,0,,,,
,,6704251bcdca04fef23d385d,6685aa9113c938e83b4f1ea0,672d04867a2195e73328b5a8,2024-11-07_13h20.24.019,WTP_SM_Choice,2022.2.1,Win32,59.88023952,,,,,,,,,,,,,,,,,,60,,,,,,,,,,0.02,2,1.4898,0,4,4,4,1,Go to an anime or gaming convention with a sister and a friend,Daydream about the future,0.05,0.02,1.1,0,,,,
,,6704251bcdca04fef23d385d,6685aa9113c938e83b4f1ea0,672d04867a2195e73328b5a8,2024-11-07_13h20.24.019,WTP_SM_Choice,2022.2.1,Win32,59.88023952,,,,,,,NAN,,NAN,1.3,4.7,,0,59,59,59,1,60,Charlie,Rej,Participant_Images/6704251bcdca04fef23d385d/6704251bcdca04fef23d385d_Images/6704251bcdca04fef23d385d_Image_3.jpeg,did not like,1.661473164,,,,,,,,,,,,,,,,,,,,,,
,,6704251bcdca04fef23d385d,6685aa9113c938e83b4f1ea0,672d04867a2195e73328b5a8,2024-11-07_13h20.24.019,WTP_SM_Choice,2022.2.1,Win32,59.88023952,,,,,space,0.8127,NAN,,NAN,1.3,4.7,,0,60,60,60,1,61,Charlie,Rej,Participant_Images/6704251bcdca04fef23d385d/6704251bcdca04fef23d385d_Images/6704251bcdca04fef23d385d_Image_7.jpeg,liked,3.613205605,,,,,,,,,,,,,,,,,,,,,,
,,6704251bcdca04fef23d385d,6685aa9113c938e83b4f1ea0,672d04867a2195e73328b5a8,2024-11-07_13h20.24.019,WTP_SM_Choice,2022.2.1,Win32,59.88023952,,,,,space,2.5433,NAN,,NAN,1.3,4.7,,0,61,61,61,1,62,Charlie,Rej,Participant_Images/6704251bcdca04fef23d385d/6704251bcdca04fef23d385d_Images/6704251bcdca04fef23d385d_Image_13.jpeg,liked,4.988446431,,,,,,,,,,,,,,,,,,,,,,
,,6704251bcdca04fef23d385d,6685aa9113c938e83b4f1ea0,672d04867a2195e73328b5a8,2024-11-07_13h20.24.019,WTP_SM_Choice,2022.2.1,Win32,59.88023952,,,,,space,1.1752,NAN,,NAN,1.3,4.7,,0,62,62,62,1,63,Charlie,Rej,Participant_Images/6704251bcdca04fef23d385d/6704251bcdca04fef23d385d_Images/6704251bcdca04fef23d385d_Image_11.jpeg,did not like,3.470791822,,,,,,,,,,,,,,,,,,,,,,
,,6704251bcdca04fef23d385d,6685aa9113c938e83b4f1ea0,672d04867a2195e73328b5a8,2024-11-07_13h20.24.019,WTP_SM_Choice,2022.2.1,Win32,59.88023952,,,,,space,1.6889,NAN,,NAN,1.3,4.7,,0,63,63,63,1,64,Charlie,Rej,Participant_Images/6704251bcdca04fef23d385d/6704251bcdca04fef23d385d_Images/6704251bcdca04fef23d385d_Image_18.jpeg,did not like,3.820572462,,,,,,,,,,,,,,,,,,,,,,
,,6704251bcdca04fef23d385d,6685aa9113c938e83b4f1ea0,672d04867a2195e73328b5a8,2024-11-07_13h20.24.019,WTP_SM_Choice,2022.2.1,Win32,59.88023952,,,,,,,,,,,,,,,,,,61,,,,,,space,1.0427,space,0.5714,0.01,1,1.2716,0,0,0,0,1,Go over to a friends place and acting like children again IE in pajamas with finger foods watching old cartoons,Watch the Real Ghostbusters Everyone else always complains the entire time and ruins the experience,0.01,0.03,3.3,0,,,,
,,6704251bcdca04fef23d385d,6685aa9113c938e83b4f1ea0,672d04867a2195e73328b5a8,2024-11-07_13h20.24.019,WTP_SM_Choice,2022.2.1,Win32,59.88023952,,,,,,,,,,,,,,,,,,62,,,,,,,,,,0.02,1,1.4554,0,1,1,1,1,Go out to eat at a restaurant with my mom sister and friend,Make shopping lists of stuff I will never buy on Amazon,0.02,0.03,3.3,0,,,,
,,6704251bcdca04fef23d385d,6685aa9113c938e83b4f1ea0,672d04867a2195e73328b5a8,2024-11-07_13h20.24.019,WTP_SM_Choice,2022.2.1,Win32,59.88023952,,,,,,,,,,,,,,,,,,63,,,,,,,,,,0.03,2,1.4863,0,2,2,2,1,Daydream about the future,Go out to the movies and watching a new movie with a friend,0.03,0.03,3.3,1,,,,
,,6704251bcdca04fef23d385d,6685aa9113c938e83b4f1ea0,672d04867a2195e73328b5a8,2024-11-07_13h20.24.019,WTP_SM_Choice,2022.2.1,Win32,59.88023952,,,,,,,,,,,,,,,,,,64,,,,,,,,,,0.04,1,1.803,0,3,3,3,1,Go over to a friends place and acting like children again IE in pajamas with finger foods watching old cartoons,Play video games,0.04,0.03,1.1,0,,,,
,,6704251bcdca04fef23d385d,6685aa9113c938e83b4f1ea0,672d04867a2195e73328b5a8,2024-11-07_13h20.24.019,WTP_SM_Choice,2022.2.1,Win32,59.88023952,,,,,,,,,,,,,,,,,,65,,,,,,,,,,0.03,2,1.5507,0,4,4,4,1,Watch the Real Ghostbusters Everyone else always complains the entire time and ruins the experience,Go to a theme park such as Cedar Point with my mother and my sister,0.05,0.03,1.1,1,,,,
,,6704251bcdca04fef23d385d,6685aa9113c938e83b4f1ea0,672d04867a2195e73328b5a8,2024-11-07_13h20.24.019,WTP_SM_Choice,2022.2.1,Win32,59.88023952,,,,,,,NAN,,NAN,1.43,4.57,,0,64,64,64,1,65,Charlie,Rej,Participant_Images/6704251bcdca04fef23d385d/6704251bcdca04fef23d385d_Images/6704251bcdca04fef23d385d_Image_21.jpeg,did not like,2.455989137,,,,,,,,,,,,,,,,,,,,,,
,,6704251bcdca04fef23d385d,6685aa9113c938e83b4f1ea0,672d04867a2195e73328b5a8,2024-11-07_13h20.24.019,WTP_SM_Choice,2022.2.1,Win32,59.88023952,,,,,space,1.0222,NAN,,NAN,1.43,4.57,,0,65,65,65,1,66,Charlie,Rej,Participant_Images/6704251bcdca04fef23d385d/6704251bcdca04fef23d385d_Images/6704251bcdca04fef23d385d_Image_2.jpeg,did not like,3.79605092,,,,,,,,,,,,,,,,,,,,,,
,,6704251bcdca04fef23d385d,6685aa9113c938e83b4f1ea0,672d04867a2195e73328b5a8,2024-11-07_13h20.24.019,WTP_SM_Choice,2022.2.1,Win32,59.88023952,,,,,space,1.2178,NAN,,NAN,1.43,4.57,,0,66,66,66,1,67,Charlie,Rej,Participant_Images/6704251bcdca04fef23d385d/6704251bcdca04fef23d385d_Images/6704251bcdca04fef23d385d_Image_19.jpeg,liked,3.562416326,,,,,,,,,,,,,,,,,,,,,,
,,6704251bcdca04fef23d385d,6685aa9113c938e83b4f1ea0,672d04867a2195e73328b5a8,2024-11-07_13h20.24.019,WTP_SM_Choice,2022.2.1,Win32,59.88023952,,,,,space,0.5672,NAN,,NAN,1.43,4.57,,0,67,67,67,1,68,Charlie,Rej,Participant_Images/6704251bcdca04fef23d385d/6704251bcdca04fef23d385d_Images/6704251bcdca04fef23d385d_Image_10.jpeg,did not like,2.843822497,,,,,,,,,,,,,,,,,,,,,,
,,6704251bcdca04fef23d385d,6685aa9113c938e83b4f1ea0,672d04867a2195e73328b5a8,2024-11-07_13h20.24.019,WTP_SM_Choice,2022.2.1,Win32,59.88023952,,,,,space,0.8335,NAN,,NAN,1.43,4.57,,0,68,68,68,1,69,Charlie,Rej,Participant_Images/6704251bcdca04fef23d385d/6704251bcdca04fef23d385d_Images/6704251bcdca04fef23d385d_Image_20.jpeg,did not like,3.546495948,,,,,,,,,,,,,,,,,,,,,,
,,6704251bcdca04fef23d385d,6685aa9113c938e83b4f1ea0,672d04867a2195e73328b5a8,2024-11-07_13h20.24.019,WTP_SM_Choice,2022.2.1,Win32,59.88023952,,,,,,,,,,,,,,,,,,66,,,,,,space,1.4504,space,1.3324,0.01,1,1.3798,0,0,0,0,1,Go out to Kura Sushi and get whatever new prize they have for the month with my sister,Dance alone with music on noise cancelling headphones,0.01,0.04,1.1,0,,,,
,,6704251bcdca04fef23d385d,6685aa9113c938e83b4f1ea0,672d04867a2195e73328b5a8,2024-11-07_13h20.24.019,WTP_SM_Choice,2022.2.1,Win32,59.88023952,,,,,,,,,,,,,,,,,,67,,,,,,,,,,0.04,2,2.6639,0,1,1,1,1,Read a non fiction book that is not for class just for my enjoyment,Read in the same room as with a friend not necessarily talking but just enjoying each others company,0.02,0.04,8.8,1,,,,
,,6704251bcdca04fef23d385d,6685aa9113c938e83b4f1ea0,672d04867a2195e73328b5a8,2024-11-07_13h20.24.019,WTP_SM_Choice,2022.2.1,Win32,59.88023952,,,,,,,,,,,,,,,,,,68,,,,,,,,,,0.03,1,1.8957,0,2,2,2,1,Read in the same room as with a friend not necessarily talking but just enjoying each others company,Watch the Real Ghostbusters Everyone else always complains the entire time and ruins the experience,0.03,0.04,4.4,0,,,,
,,6704251bcdca04fef23d385d,6685aa9113c938e83b4f1ea0,672d04867a2195e73328b5a8,2024-11-07_13h20.24.019,WTP_SM_Choice,2022.2.1,Win32,59.88023952,,,,,,,,,,,,,,,,,,69,,,,,,,,,,0.04,1,1.6824,0,3,3,3,1,Try some new food that we have never tried before with my mom sister and friend,Watch the Real Ghostbusters Everyone else always complains the entire time and ruins the experience,0.04,0.04,1.1,0,,,,
,,6704251bcdca04fef23d385d,6685aa9113c938e83b4f1ea0,672d04867a2195e73328b5a8,2024-11-07_13h20.24.019,WTP_SM_Choice,2022.2.1,Win32,59.88023952,,,,,,,,,,,,,,,,,,70,,,,,,,,,,0.04,2,1.9286,0,4,4,4,1,Watch Youtube whilst playing a game on my phone,Go out to eat at a restaurant with my mom sister and friend,0.05,0.04,1.1,1,,,,
,,6704251bcdca04fef23d385d,6685aa9113c938e83b4f1ea0,672d04867a2195e73328b5a8,2024-11-07_13h20.24.019,WTP_SM_Choice,2022.2.1,Win32,59.88023952,,,,,,,NAN,,NAN,1.59,4.41,,0,69,69,69,1,70,Charlie,Rej,Participant_Images/6704251bcdca04fef23d385d/6704251bcdca04fef23d385d_Images/6704251bcdca04fef23d385d_Image_1.jpeg,did not like,1.672012706,,,,,,,,,,,,,,,,,,,,,,
,,6704251bcdca04fef23d385d,6685aa9113c938e83b4f1ea0,672d04867a2195e73328b5a8,2024-11-07_13h20.24.019,WTP_SM_Choice,2022.2.1,Win32,59.88023952,,,,,space,0.5222,NAN,,NAN,1.59,4.41,,0,70,70,70,1,71,Charlie,Rej,Participant_Images/6704251bcdca04fef23d385d/6704251bcdca04fef23d385d_Images/6704251bcdca04fef23d385d_Image_16.jpeg,did not like,4.942172136,,,,,,,,,,,,,,,,,,,,,,
,,6704251bcdca04fef23d385d,6685aa9113c938e83b4f1ea0,672d04867a2195e73328b5a8,2024-11-07_13h20.24.019,WTP_SM_Choice,2022.2.1,Win32,59.88023952,,,,,space,0.7252,NAN,,NAN,1.59,4.41,,0,71,71,71,1,72,Charlie,Rej,Participant_Images/6704251bcdca04fef23d385d/6704251bcdca04fef23d385d_Images/6704251bcdca04fef23d385d_Image_24.jpeg,liked,2.50187214,,,,,,,,,,,,,,,,,,,,,,
,,6704251bcdca04fef23d385d,6685aa9113c938e83b4f1ea0,672d04867a2195e73328b5a8,2024-11-07_13h20.24.019,WTP_SM_Choice,2022.2.1,Win32,59.88023952,,,,,space,0.8865,NAN,,NAN,1.59,4.41,,0,72,72,72,1,73,Charlie,Rej,Participant_Images/6704251bcdca04fef23d385d/6704251bcdca04fef23d385d_Images/6704251bcdca04fef23d385d_Image_23.jpeg,liked,2.071164779,,,,,,,,,,,,,,,,,,,,,,
,,6704251bcdca04fef23d385d,6685aa9113c938e83b4f1ea0,672d04867a2195e73328b5a8,2024-11-07_13h20.24.019,WTP_SM_Choice,2022.2.1,Win32,59.88023952,,,,,space,0.6218,NAN,,NAN,1.59,4.41,,0,73,73,73,1,74,Charlie,Rej,Participant_Images/6704251bcdca04fef23d385d/6704251bcdca04fef23d385d_Images/6704251bcdca04fef23d385d_Image_25.jpeg,did not like,5.336503566,,,,,,,,,,,,,,,,,,,,,,
,,6704251bcdca04fef23d385d,6685aa9113c938e83b4f1ea0,672d04867a2195e73328b5a8,2024-11-07_13h20.24.019,WTP_SM_Choice,2022.2.1,Win32,59.88023952,,,,,,,,,,,,,,,,,,71,,,,,,space,1.2004,space,0.655,0.01,1,2.3819,0,0,0,0,1,Watch Youtube whilst playing a game on my phone,Try some new food that we have never tried before with my mom sister and friend,0.01,0.05,3.3,1,,,,
,,6704251bcdca04fef23d385d,6685aa9113c938e83b4f1ea0,672d04867a2195e73328b5a8,2024-11-07_13h20.24.019,WTP_SM_Choice,2022.2.1,Win32,59.88023952,,,,,,,,,,,,,,,,,,72,,,,,,,,,,0.02,1,1.8667,0,1,1,1,1,Watch a movie with a soft blanket and warm popcorn,Go out to Kura Sushi and get whatever new prize they have for the month with my sister,0.02,0.05,8.8,1,,,,
,,6704251bcdca04fef23d385d,6685aa9113c938e83b4f1ea0,672d04867a2195e73328b5a8,2024-11-07_13h20.24.019,WTP_SM_Choice,2022.2.1,Win32,59.88023952,,,,,,,,,,,,,,,,,,73,,,,,,,,,,0.05,2,2.1431,0,2,2,2,1,Make shopping lists of stuff I will never buy on Amazon,Go to a theme park such as Cedar Point with my mother and my sister,0.03,0.05,3.3,1,,,,
,,6704251bcdca04fef23d385d,6685aa9113c938e83b4f1ea0,672d04867a2195e73328b5a8,2024-11-07_13h20.24.019,WTP_SM_Choice,2022.2.1,Win32,59.88023952,,,,,,,,,,,,,,,,,,74,,,,,,,,,,0.04,1,1.5701,0,3,3,3,1,Go to an anime or gaming convention with a sister and a friend,Play video games,0.04,0.05,4.4,0,,,,
,,6704251bcdca04fef23d385d,6685aa9113c938e83b4f1ea0,672d04867a2195e73328b5a8,2024-11-07_13h20.24.019,WTP_SM_Choice,2022.2.1,Win32,59.88023952,,,,,,,,,,,,,,,,,,75,,,,,,,,,,0.05,1,1.6733,0,4,4,4,1,Go out to the movies and watching a new movie with a friend,Make shopping lists of stuff I will never buy on Amazon,0.05,0.05,3.3,0,,,,
,,6704251bcdca04fef23d385d,6685aa9113c938e83b4f1ea0,672d04867a2195e73328b5a8,2024-11-07_13h20.24.019,WTP_SM_Choice,2022.2.1,Win32,59.88023952,,,,,,,1,,1,1.76,4.24,,0,74,74,74,1,75,Charlie,Rej,Participant_Images/6704251bcdca04fef23d385d/6704251bcdca04fef23d385d_Images/6704251bcdca04fef23d385d_Image_6.jpeg,liked,2.642157193,,,,,,,,,,,,,,,,,,,space,1.0275,,
,,6704251bcdca04fef23d385d,6685aa9113c938e83b4f1ea0,672d04867a2195e73328b5a8,2024-11-07_13h20.24.019,WTP_SM_Choice,2022.2.1,Win32,59.88023952,,,space,2.0183,space,5.7721,NAN,,NAN,1.76,4.24,,0,75,75,75,1,76,Alex,Rej,Participant_Images/6704251bcdca04fef23d385d/6704251bcdca04fef23d385d_Images/6704251bcdca04fef23d385d_Image_12.jpeg,did not like,4.456234322,,,,,,,,,,,,,,,,,,,,,,
,,6704251bcdca04fef23d385d,6685aa9113c938e83b4f1ea0,672d04867a2195e73328b5a8,2024-11-07_13h20.24.019,WTP_SM_Choice,2022.2.1,Win32,59.88023952,,,,,space,0.5741,NAN,,NAN,1.76,4.24,,0,76,76,76,1,77,Alex,Rej,Participant_Images/6704251bcdca04fef23d385d/6704251bcdca04fef23d385d_Images/6704251bcdca04fef23d385d_Image_25.jpeg,did not like,4.438512181,,,,,,,,,,,,,,,,,,,,,,
,,6704251bcdca04fef23d385d,6685aa9113c938e83b4f1ea0,672d04867a2195e73328b5a8,2024-11-07_13h20.24.019,WTP_SM_Choice,2022.2.1,Win32,59.88023952,,,,,space,0.5673,NAN,,NAN,1.76,4.24,,0,77,77,77,1,78,Alex,Rej,Participant_Images/6704251bcdca04fef23d385d/6704251bcdca04fef23d385d_Images/6704251bcdca04fef23d385d_Image_9.jpeg,did not like,2.682944783,,,,,,,,,,,,,,,,,,,,,,
,,6704251bcdca04fef23d385d,6685aa9113c938e83b4f1ea0,672d04867a2195e73328b5a8,2024-11-07_13h20.24.019,WTP_SM_Choice,2022.2.1,Win32,59.88023952,,,,,space,0.7708,NAN,,NAN,1.76,4.24,,0,78,78,78,1,79,Alex,Rej,Participant_Images/6704251bcdca04fef23d385d/6704251bcdca04fef23d385d_Images/6704251bcdca04fef23d385d_Image_23.jpeg,liked,4.51984296,,,,,,,,,,,,,,,,,,,,,,
,,6704251bcdca04fef23d385d,6685aa9113c938e83b4f1ea0,672d04867a2195e73328b5a8,2024-11-07_13h20.24.019,WTP_SM_Choice,2022.2.1,Win32,59.88023952,,,,,,,,,,,,,,,,,,76,,,,,,space,1.2873,space,0.9703,0.01,2,1.7484,0,0,0,0,1,Go all out and wearing my ghostbusters uniform with my ghostbusters blanket and Proton pack whilst watching Ghostbusters,Try a new recipe at home with my mother,0.01,0.01,1.1,1,,,,
,,6704251bcdca04fef23d385d,6685aa9113c938e83b4f1ea0,672d04867a2195e73328b5a8,2024-11-07_13h20.24.019,WTP_SM_Choice,2022.2.1,Win32,59.88023952,,,,,,,,,,,,,,,,,,77,,,,,,,,,,0.01,2,1.754,0,1,1,1,1,Play video games with a friend online,Daydream about the future,0.02,0.01,8.8,0,,,,
,,6704251bcdca04fef23d385d,6685aa9113c938e83b4f1ea0,672d04867a2195e73328b5a8,2024-11-07_13h20.24.019,WTP_SM_Choice,2022.2.1,Win32,59.88023952,,,,,,,,,,,,,,,,,,78,,,,,,,,,,0.03,1,2.4788,0,2,2,2,1,Go to a theme park such as Cedar Point with my mother and my sister,Watch Youtube whilst playing a game on my phone,0.03,0.01,1.1,0,,,,
,,6704251bcdca04fef23d385d,6685aa9113c938e83b4f1ea0,672d04867a2195e73328b5a8,2024-11-07_13h20.24.019,WTP_SM_Choice,2022.2.1,Win32,59.88023952,,,,,,,,,,,,,,,,,,79,,,,,,,,,,0.01,2,1.8182,0,3,3,3,1,Go over to a friends place and acting like children again IE in pajamas with finger foods watching old cartoons,Make shopping lists of stuff I will never buy on Amazon,0.04,0.01,1.1,0,,,,
,,6704251bcdca04fef23d385d,6685aa9113c938e83b4f1ea0,672d04867a2195e73328b5a8,2024-11-07_13h20.24.019,WTP_SM_Choice,2022.2.1,Win32,59.88023952,,,,,,,,,,,,,,,,,,80,,,,,,,,,,0.01,2,2.1369,0,4,4,4,1,Play video games,Go out to eat at a restaurant with my mom sister and friend,0.05,0.01,4.4,1,,,,
,,6704251bcdca04fef23d385d,6685aa9113c938e83b4f1ea0,672d04867a2195e73328b5a8,2024-11-07_13h20.24.019,WTP_SM_Choice,2022.2.1,Win32,59.88023952,,,,,,,NAN,,NAN,1.83,4.17,,0,79,79,79,1,80,Alex,Rej,Participant_Images/6704251bcdca04fef23d385d/6704251bcdca04fef23d385d_Images/6704251bcdca04fef23d385d_Image_5.jpeg,liked,3.195382774,,,,,,,,,,,,,,,,,,,,,,
,,6704251bcdca04fef23d385d,6685aa9113c938e83b4f1ea0,672d04867a2195e73328b5a8,2024-11-07_13h20.24.019,WTP_SM_Choice,2022.2.1,Win32,59.88023952,,,,,space,0.6899,NAN,,NAN,1.83,4.17,,0,80,80,80,1,81,Alex,Rej,Participant_Images/6704251bcdca04fef23d385d/6704251bcdca04fef23d385d_Images/6704251bcdca04fef23d385d_Image_16.jpeg,did not like,1.779333479,,,,,,,,,,,,,,,,,,,,,,
,,6704251bcdca04fef23d385d,6685aa9113c938e83b4f1ea0,672d04867a2195e73328b5a8,2024-11-07_13h20.24.019,WTP_SM_Choice,2022.2.1,Win32,59.88023952,,,,,space,0.5779,NAN,,NAN,1.83,4.17,,0,81,81,81,1,82,Alex,Rej,Participant_Images/6704251bcdca04fef23d385d/6704251bcdca04fef23d385d_Images/6704251bcdca04fef23d385d_Image_14.jpeg,did not like,4.312468682,,,,,,,,,,,,,,,,,,,,,,
,,6704251bcdca04fef23d385d,6685aa9113c938e83b4f1ea0,672d04867a2195e73328b5a8,2024-11-07_13h20.24.019,WTP_SM_Choice,2022.2.1,Win32,59.88023952,,,,,space,0.4264,NAN,,NAN,1.83,4.17,,0,82,82,82,1,83,Alex,Rej,Participant_Images/6704251bcdca04fef23d385d/6704251bcdca04fef23d385d_Images/6704251bcdca04fef23d385d_Image_18.jpeg,liked,4.940433059,,,,,,,,,,,,,,,,,,,,,,
,,6704251bcdca04fef23d385d,6685aa9113c938e83b4f1ea0,672d04867a2195e73328b5a8,2024-11-07_13h20.24.019,WTP_SM_Choice,2022.2.1,Win32,59.88023952,,,,,space,3.5364,NAN,,NAN,1.83,4.17,,0,83,83,83,1,84,Alex,Rej,Participant_Images/6704251bcdca04fef23d385d/6704251bcdca04fef23d385d_Images/6704251bcdca04fef23d385d_Image_4.jpeg,did not like,2.7105123,,,,,,,,,,,,,,,,,,,,,,
,,6704251bcdca04fef23d385d,6685aa9113c938e83b4f1ea0,672d04867a2195e73328b5a8,2024-11-07_13h20.24.019,WTP_SM_Choice,2022.2.1,Win32,59.88023952,,,,,,,,,,,,,,,,,,81,,,,,,space,4.2224,space,0.7987,0.01,1,0.8597,0,0,0,0,1,Go out to the movies and watching a new movie with a friend,Watch a movie with a soft blanket and warm popcorn,0.01,0.02,3.3,0,,,,
,,6704251bcdca04fef23d385d,6685aa9113c938e83b4f1ea0,672d04867a2195e73328b5a8,2024-11-07_13h20.24.019,WTP_SM_Choice,2022.2.1,Win32,59.88023952,,,,,,,,,,,,,,,,,,82,,,,,,,,,,0.02,1,2.2254,0,1,1,1,1,Go out to the movies and watching a new movie with a friend,Play video games,0.02,0.02,4.4,0,,,,
,,6704251bcdca04fef23d385d,6685aa9113c938e83b4f1ea0,672d04867a2195e73328b5a8,2024-11-07_13h20.24.019,WTP_SM_Choice,2022.2.1,Win32,59.88023952,,,,,,,,,,,,,,,,,,83,,,,,,,,,,0.02,2,1.7247,0,2,2,2,1,Play with my cats this way I don't have to listen to others calling them fat,Go out to the movies and watching a new movie with a friend,0.03,0.02,1.1,1,,,,
,,6704251bcdca04fef23d385d,6685aa9113c938e83b4f1ea0,672d04867a2195e73328b5a8,2024-11-07_13h20.24.019,WTP_SM_Choice,2022.2.1,Win32,59.88023952,,,,,,,,,,,,,,,,,,84,,,,,,,,,,0.02,2,1.9724,0,3,3,3,1,Try some new food that we have never tried before with my mom sister and friend,Daydream about the future,0.04,0.02,3.3,0,,,,
,,6704251bcdca04fef23d385d,6685aa9113c938e83b4f1ea0,672d04867a2195e73328b5a8,2024-11-07_13h20.24.019,WTP_SM_Choice,2022.2.1,Win32,59.88023952,,,,,,,,,,,,,,,,,,85,,,,,,,,,,0.02,2,2.0391,0,4,4,4,1,Go out to eat at a restaurant with my mom sister and friend,Daydream about the future,0.05,0.02,3.3,0,,,,
,,6704251bcdca04fef23d385d,6685aa9113c938e83b4f1ea0,672d04867a2195e73328b5a8,2024-11-07_13h20.24.019,WTP_SM_Choice,2022.2.1,Win32,59.88023952,,,,,,,NAN,,NAN,1.92,4.08,,0,84,84,84,1,85,Alex,Rej,Participant_Images/6704251bcdca04fef23d385d/6704251bcdca04fef23d385d_Images/6704251bcdca04fef23d385d_Image_22.jpeg,did not like,3.602308302,,,,,,,,,,,,,,,,,,,,,,
,,6704251bcdca04fef23d385d,6685aa9113c938e83b4f1ea0,672d04867a2195e73328b5a8,2024-11-07_13h20.24.019,WTP_SM_Choice,2022.2.1,Win32,59.88023952,,,,,space,4.0575,NAN,,NAN,1.92,4.08,,0,85,85,85,1,86,Alex,Rej,Participant_Images/6704251bcdca04fef23d385d/6704251bcdca04fef23d385d_Images/6704251bcdca04fef23d385d_Image_21.jpeg,did not like,4.106391878,,,,,,,,,,,,,,,,,,,,,,
,,6704251bcdca04fef23d385d,6685aa9113c938e83b4f1ea0,672d04867a2195e73328b5a8,2024-11-07_13h20.24.019,WTP_SM_Choice,2022.2.1,Win32,59.88023952,,,,,space,0.9234,NAN,,NAN,1.92,4.08,,0,86,86,86,1,87,Alex,Rej,Participant_Images/6704251bcdca04fef23d385d/6704251bcdca04fef23d385d_Images/6704251bcdca04fef23d385d_Image_7.jpeg,did not like,3.799433026,,,,,,,,,,,,,,,,,,,,,,
,,6704251bcdca04fef23d385d,6685aa9113c938e83b4f1ea0,672d04867a2195e73328b5a8,2024-11-07_13h20.24.019,WTP_SM_Choice,2022.2.1,Win32,59.88023952,,,,,space,6.803,NAN,,NAN,1.92,4.08,,0,87,87,87,1,88,Alex,Rej,Participant_Images/6704251bcdca04fef23d385d/6704251bcdca04fef23d385d_Images/6704251bcdca04fef23d385d_Image_20.jpeg,did not like,5.246980764,,,,,,,,,,,,,,,,,,,,,,
,,6704251bcdca04fef23d385d,6685aa9113c938e83b4f1ea0,672d04867a2195e73328b5a8,2024-11-07_13h20.24.019,WTP_SM_Choice,2022.2.1,Win32,59.88023952,,,,,space,3.8689,NAN,,NAN,1.92,4.08,,0,88,88,88,1,89,Alex,Rej,Participant_Images/6704251bcdca04fef23d385d/6704251bcdca04fef23d385d_Images/6704251bcdca04fef23d385d_Image_15.jpeg,did not like,3.30081769,,,,,,,,,,,,,,,,,,,,,,
,,6704251bcdca04fef23d385d,6685aa9113c938e83b4f1ea0,672d04867a2195e73328b5a8,2024-11-07_13h20.24.019,WTP_SM_Choice,2022.2.1,Win32,59.88023952,,,,,,,,,,,,,,,,,,86,,,,,,space,9.0422,space,0.8169,0.01,1,2.0764,0,0,0,0,1,Dance alone with music on noise cancelling headphones,Go out to eat at a restaurant with my mom sister and friend,0.01,0.03,1.1,1,,,,
,,6704251bcdca04fef23d385d,6685aa9113c938e83b4f1ea0,672d04867a2195e73328b5a8,2024-11-07_13h20.24.019,WTP_SM_Choice,2022.2.1,Win32,59.88023952,,,,,,,,,,,,,,,,,,87,,,,,,,,,,0.03,2,1.9038,0,1,1,1,1,Try a new recipe at home with my mother,Read a non fiction book that is not for class just for my enjoyment,0.02,0.03,4.4,0,,,,
,,6704251bcdca04fef23d385d,6685aa9113c938e83b4f1ea0,672d04867a2195e73328b5a8,2024-11-07_13h20.24.019,WTP_SM_Choice,2022.2.1,Win32,59.88023952,,,,,,,,,,,,,,,,,,88,,,,,,,,,,0.03,2,1.2979,0,2,2,2,1,Watch Youtube whilst playing a game on my phone,Try a new recipe at home with my mother,0.03,0.03,1.1,1,,,,
,,6704251bcdca04fef23d385d,6685aa9113c938e83b4f1ea0,672d04867a2195e73328b5a8,2024-11-07_13h20.24.019,WTP_SM_Choice,2022.2.1,Win32,59.88023952,,,,,,,,,,,,,,,,,,89,,,,,,,,,,0.03,2,2.9943,0,3,3,3,1,Go over to a friends place and acting like children again IE in pajamas with finger foods watching old cartoons,Go all out and wearing my ghostbusters uniform with my ghostbusters blanket and Proton pack whilst watching Ghostbusters,0.04,0.03,3.3,0,,,,
,,6704251bcdca04fef23d385d,6685aa9113c938e83b4f1ea0,672d04867a2195e73328b5a8,2024-11-07_13h20.24.019,WTP_SM_Choice,2022.2.1,Win32,59.88023952,,,,,,,,,,,,,,,,,,90,,,,,,,,,,0.03,2,1.6547,0,4,4,4,1,Play video games with a friend online,Make shopping lists of stuff I will never buy on Amazon,0.05,0.03,8.8,0,,,,
,,6704251bcdca04fef23d385d,6685aa9113c938e83b4f1ea0,672d04867a2195e73328b5a8,2024-11-07_13h20.24.019,WTP_SM_Choice,2022.2.1,Win32,59.88023952,,,,,,,NAN,,NAN,2.05,3.95,,0,89,89,89,1,90,Alex,Rej,Participant_Images/6704251bcdca04fef23d385d/6704251bcdca04fef23d385d_Images/6704251bcdca04fef23d385d_Image_8.jpeg,did not like,1.661473164,,,,,,,,,,,,,,,,,,,,,,
,,6704251bcdca04fef23d385d,6685aa9113c938e83b4f1ea0,672d04867a2195e73328b5a8,2024-11-07_13h20.24.019,WTP_SM_Choice,2022.2.1,Win32,59.88023952,,,,,space,0.862,NAN,,NAN,2.05,3.95,,0,90,90,90,1,91,Alex,Rej,Participant_Images/6704251bcdca04fef23d385d/6704251bcdca04fef23d385d_Images/6704251bcdca04fef23d385d_Image_3.jpeg,liked,3.613205605,,,,,,,,,,,,,,,,,,,,,,
,,6704251bcdca04fef23d385d,6685aa9113c938e83b4f1ea0,672d04867a2195e73328b5a8,2024-11-07_13h20.24.019,WTP_SM_Choice,2022.2.1,Win32,59.88023952,,,,,space,7.8182,NAN,,NAN,2.05,3.95,,0,91,91,91,1,92,Alex,Rej,Participant_Images/6704251bcdca04fef23d385d/6704251bcdca04fef23d385d_Images/6704251bcdca04fef23d385d_Image_24.jpeg,did not like,4.988446431,,,,,,,,,,,,,,,,,,,,,,
,,6704251bcdca04fef23d385d,6685aa9113c938e83b4f1ea0,672d04867a2195e73328b5a8,2024-11-07_13h20.24.019,WTP_SM_Choice,2022.2.1,Win32,59.88023952,,,,,space,0.9266,NAN,,NAN,2.05,3.95,,0,92,92,92,1,93,Alex,Rej,Participant_Images/6704251bcdca04fef23d385d/6704251bcdca04fef23d385d_Images/6704251bcdca04fef23d385d_Image_11.jpeg,did not like,3.470791822,,,,,,,,,,,,,,,,,,,,,,
,,6704251bcdca04fef23d385d,6685aa9113c938e83b4f1ea0,672d04867a2195e73328b5a8,2024-11-07_13h20.24.019,WTP_SM_Choice,2022.2.1,Win32,59.88023952,,,,,space,2.4392,NAN,,NAN,2.05,3.95,,0,93,93,93,1,94,Alex,Rej,Participant_Images/6704251bcdca04fef23d385d/6704251bcdca04fef23d385d_Images/6704251bcdca04fef23d385d_Image_13.jpeg,did not like,3.820572462,,,,,,,,,,,,,,,,,,,,,,
,,6704251bcdca04fef23d385d,6685aa9113c938e83b4f1ea0,672d04867a2195e73328b5a8,2024-11-07_13h20.24.019,WTP_SM_Choice,2022.2.1,Win32,59.88023952,,,,,,,,,,,,,,,,,,91,,,,,,space,1.184,space,1.0326,0.01,1,2.0529,0,0,0,0,1,Play with my cats this way I don't have to listen to others calling them fat,Try some new food that we have never tried before with my mom sister and friend,0.01,0.04,3.3,1,,,,
,,6704251bcdca04fef23d385d,6685aa9113c938e83b4f1ea0,672d04867a2195e73328b5a8,2024-11-07_13h20.24.019,WTP_SM_Choice,2022.2.1,Win32,59.88023952,,,,,,,,,,,,,,,,,,92,,,,,,,,,,0.02,1,1.289,0,1,1,1,1,Play with my cats this way I don't have to listen to others calling them fat,Go to an anime or gaming convention with a sister and a friend,0.02,0.04,8.8,1,,,,
,,6704251bcdca04fef23d385d,6685aa9113c938e83b4f1ea0,672d04867a2195e73328b5a8,2024-11-07_13h20.24.019,WTP_SM_Choice,2022.2.1,Win32,59.88023952,,,,,,,,,,,,,,,,,,93,,,,,,,,,,0.04,2,2.0469,0,2,2,2,1,Watch a movie with a soft blanket and warm popcorn,Go to a theme park such as Cedar Point with my mother and my sister,0.03,0.04,1.1,1,,,,
,,6704251bcdca04fef23d385d,6685aa9113c938e83b4f1ea0,672d04867a2195e73328b5a8,2024-11-07_13h20.24.019,WTP_SM_Choice,2022.2.1,Win32,59.88023952,,,,,,,,,,,,,,,,,,94,,,,,,,,,,0.04,2,1.5872,0,3,3,3,1,Make shopping lists of stuff I will never buy on Amazon,Read in the same room as with a friend not necessarily talking but just enjoying each others company,0.04,0.04,4.4,1,,,,
,,6704251bcdca04fef23d385d,6685aa9113c938e83b4f1ea0,672d04867a2195e73328b5a8,2024-11-07_13h20.24.019,WTP_SM_Choice,2022.2.1,Win32,59.88023952,,,,,,,,,,,,,,,,,,95,,,,,,,,,,0.04,2,2.672,0,4,4,4,1,Play with my cats this way I don't have to listen to others calling them fat,Read in the same room as with a friend not necessarily talking but just enjoying each others company,0.05,0.04,4.4,1,,,,
,,6704251bcdca04fef23d385d,6685aa9113c938e83b4f1ea0,672d04867a2195e73328b5a8,2024-11-07_13h20.24.019,WTP_SM_Choice,2022.2.1,Win32,59.88023952,,,,,,,NAN,,NAN,2.2,3.8,,0,94,94,94,1,95,Alex,Rej,Participant_Images/6704251bcdca04fef23d385d/6704251bcdca04fef23d385d_Images/6704251bcdca04fef23d385d_Image_17.jpeg,liked,2.455989137,,,,,,,,,,,,,,,,,,,,,,
,,6704251bcdca04fef23d385d,6685aa9113c938e83b4f1ea0,672d04867a2195e73328b5a8,2024-11-07_13h20.24.019,WTP_SM_Choice,2022.2.1,Win32,59.88023952,,,,,space,7.6592,NAN,,NAN,2.2,3.8,,0,95,95,95,1,96,Alex,Rej,Participant_Images/6704251bcdca04fef23d385d/6704251bcdca04fef23d385d_Images/6704251bcdca04fef23d385d_Image_19.jpeg,liked,3.79605092,,,,,,,,,,,,,,,,,,,,,,
,,6704251bcdca04fef23d385d,6685aa9113c938e83b4f1ea0,672d04867a2195e73328b5a8,2024-11-07_13h20.24.019,WTP_SM_Choice,2022.2.1,Win32,59.88023952,,,,,space,2.2084,NAN,,NAN,2.2,3.8,,0,96,96,96,1,97,Alex,Rej,Participant_Images/6704251bcdca04fef23d385d/6704251bcdca04fef23d385d_Images/6704251bcdca04fef23d385d_Image_1.jpeg,did not like,3.562416326,,,,,,,,,,,,,,,,,,,,,,
,,6704251bcdca04fef23d385d,6685aa9113c938e83b4f1ea0,672d04867a2195e73328b5a8,2024-11-07_13h20.24.019,WTP_SM_Choice,2022.2.1,Win32,59.88023952,,,,,space,5.8186,NAN,,NAN,2.2,3.8,,0,97,97,97,1,98,Alex,Rej,Participant_Images/6704251bcdca04fef23d385d/6704251bcdca04fef23d385d_Images/6704251bcdca04fef23d385d_Image_10.jpeg,liked,2.843822497,,,,,,,,,,,,,,,,,,,,,,
,,6704251bcdca04fef23d385d,6685aa9113c938e83b4f1ea0,672d04867a2195e73328b5a8,2024-11-07_13h20.24.019,WTP_SM_Choice,2022.2.1,Win32,59.88023952,,,,,space,2.6864,NAN,,NAN,2.2,3.8,,0,98,98,98,1,99,Alex,Rej,Participant_Images/6704251bcdca04fef23d385d/6704251bcdca04fef23d385d_Images/6704251bcdca04fef23d385d_Image_6.jpeg,did not like,3.546495948,,,,,,,,,,,,,,,,,,,,,,
,,6704251bcdca04fef23d385d,6685aa9113c938e83b4f1ea0,672d04867a2195e73328b5a8,2024-11-07_13h20.24.019,WTP_SM_Choice,2022.2.1,Win32,59.88023952,,,,,,,,,,,,,,,,,,96,,,,,,space,2.6657,space,0.867,0.01,1,1.588,0,0,0,0,1,Watch the Real Ghostbusters Everyone else always complains the entire time and ruins the experience,Go to an anime or gaming convention with a sister and a friend,0.01,0.05,3.3,1,,,,
,,6704251bcdca04fef23d385d,6685aa9113c938e83b4f1ea0,672d04867a2195e73328b5a8,2024-11-07_13h20.24.019,WTP_SM_Choice,2022.2.1,Win32,59.88023952,,,,,,,,,,,,,,,,,,97,,,,,,,,,,0.02,1,1.0347,0,1,1,1,1,Go out to eat at a restaurant with my mom sister and friend,Watch the Real Ghostbusters Everyone else always complains the entire time and ruins the experience,0.02,0.05,1.1,0,,,,
,,6704251bcdca04fef23d385d,6685aa9113c938e83b4f1ea0,672d04867a2195e73328b5a8,2024-11-07_13h20.24.019,WTP_SM_Choice,2022.2.1,Win32,59.88023952,,,,,,,,,,,,,,,,,,98,,,,,,,,,,0.03,1,2.0645,0,2,2,2,1,Try a new recipe at home with my mother,Watch the Real Ghostbusters Everyone else always complains the entire time and ruins the experience,0.03,0.05,1.1,0,,,,
,,6704251bcdca04fef23d385d,6685aa9113c938e83b4f1ea0,672d04867a2195e73328b5a8,2024-11-07_13h20.24.019,WTP_SM_Choice,2022.2.1,Win32,59.88023952,,,,,,,,,,,,,,,,,,99,,,,,,,,,,0.04,1,1.761,0,3,3,3,1,Go over to a friends place and acting like children again IE in pajamas with finger foods watching old cartoons,Daydream about the future,0.04,0.05,3.3,0,,,,
,,6704251bcdca04fef23d385d,6685aa9113c938e83b4f1ea0,672d04867a2195e73328b5a8,2024-11-07_13h20.24.019,WTP_SM_Choice,2022.2.1,Win32,59.88023952,,,,,,,,,,,,,,,,,,100,,,,,,,,,,0.05,1,2.0624,0,4,4,4,1,Dance alone with music on noise cancelling headphones,Try some new food that we have never tried before with my mom sister and friend,0.05,0.05,4.4,1,,,,
,,6704251bcdca04fef23d385d,6685aa9113c938e83b4f1ea0,672d04867a2195e73328b5a8,2024-11-07_13h20.24.019,WTP_SM_Choice,2022.2.1,Win32,59.88023952,,,,,,,1,,3,2.35,3.65,,0,99,99,99,1,100,Alex,Rej,Participant_Images/6704251bcdca04fef23d385d/6704251bcdca04fef23d385d_Images/6704251bcdca04fef23d385d_Image_2.jpeg,did not like,1.672012706,,,,,,,,,,,,,,,,,,,space,1.5162,,
,,6704251bcdca04fef23d385d,6685aa9113c938e83b4f1ea0,672d04867a2195e73328b5a8,2024-11-07_13h20.24.019,WTP_SM_Choice,2022.2.1,Win32,59.88023952,,,,,,,,,,,,,,,,,,,,,,,,,,,,,,,,,,,,,,,,,,,,space,3.8298
