endwelcomescreen_keys.keys,endwelcomescreen_keys.rt,participant,STUDY_ID,SESSION_ID,date,expName,psychopyVersion,OS,frameRate,endinstructionscreen_keys.keys,endinstructionscreen_keys.rt,endpartnermatch_keys.keys,endpartnermatch_keys.rt,sharenextphoto_key.keys,sharenextphoto_key.rt,salience_rating,key_resp.keys,stress_level,subtract_bonus,TOTAL_TASK_BONUS,stresslevel_keypress.keys,entiretaskloop.thisRepN,entiretaskloop.thisTrialN,entiretaskloop.thisN,entiretaskloop.thisIndex,entiretaskloop.ran,TrialNumber,Partner,Condition,Photos,Feedback,FeedbackWait,WTP_ins_keys1.keys,WTP_ins_keys1.rt,WTP_ins_keys2.keys,WTP_ins_keys2.rt,decision_price,responses.keys,responses.rt,WTPTaskLoop.thisRepN,WTPTaskLoop.thisTrialN,WTPTaskLoop.thisN,WTPTaskLoop.thisIndex,WTPTaskLoop.ran,right,left,leftmoney,rightmoney,WTP_ITI,social_left,Resume_keys.keys,Resume_keys.rt,end_screen_keys.keys,end_screen_keys.rt
space,12.2938,67094d6215b6d0fe3e8c3e39,6685aa9113c938e83b4f1ea0,671bd47b953b7ef32bfbb1bc,2024-10-25_12h28.58.174,WTP_SM_Choice,2022.2.1,Win32,181.8181818,,,,,,,,,,,,,,,,,,,,,,,,,,,,,,,,,,,,,,,,,,,,,
,,67094d6215b6d0fe3e8c3e39,6685aa9113c938e83b4f1ea0,671bd47b953b7ef32bfbb1bc,2024-10-25_12h28.58.174,WTP_SM_Choice,2022.2.1,Win32,181.8181818,space,42.7238,,,,,,,,,,,,,,,,,,,,,,,,,,,,,,,,,,,,,,,,,,,
,,67094d6215b6d0fe3e8c3e39,6685aa9113c938e83b4f1ea0,671bd47b953b7ef32bfbb1bc,2024-10-25_12h28.58.174,WTP_SM_Choice,2022.2.1,Win32,181.8181818,,,space,2.4955,space,1.5083,NAN,,NAN,0,6,,0,0,0,0,1,1,Riley,Acc,Participant_Images/67094d6215b6d0fe3e8c3e39/67094d6215b6d0fe3e8c3e39_Images/67094d6215b6d0fe3e8c3e39_Image_21.jpeg,liked,3.613205605,,,,,,,,,,,,,,,,,,,,,,
,,67094d6215b6d0fe3e8c3e39,6685aa9113c938e83b4f1ea0,671bd47b953b7ef32bfbb1bc,2024-10-25_12h28.58.174,WTP_SM_Choice,2022.2.1,Win32,181.8181818,,,,,space,1.1467,NAN,,NAN,0,6,,0,1,1,1,1,2,Riley,Acc,Participant_Images/67094d6215b6d0fe3e8c3e39/67094d6215b6d0fe3e8c3e39_Images/67094d6215b6d0fe3e8c3e39_Image_14.jpeg,liked,4.988446431,,,,,,,,,,,,,,,,,,,,,,
,,67094d6215b6d0fe3e8c3e39,6685aa9113c938e83b4f1ea0,671bd47b953b7ef32bfbb1bc,2024-10-25_12h28.58.174,WTP_SM_Choice,2022.2.1,Win32,181.8181818,,,,,space,1.436,NAN,,NAN,0,6,,0,2,2,2,1,3,Riley,Acc,Participant_Images/67094d6215b6d0fe3e8c3e39/67094d6215b6d0fe3e8c3e39_Images/67094d6215b6d0fe3e8c3e39_Image_5.jpeg,liked,3.470791822,,,,,,,,,,,,,,,,,,,,,,
,,67094d6215b6d0fe3e8c3e39,6685aa9113c938e83b4f1ea0,671bd47b953b7ef32bfbb1bc,2024-10-25_12h28.58.174,WTP_SM_Choice,2022.2.1,Win32,181.8181818,,,,,space,4.5046,NAN,,NAN,0,6,,0,3,3,3,1,4,Riley,Acc,Participant_Images/67094d6215b6d0fe3e8c3e39/67094d6215b6d0fe3e8c3e39_Images/67094d6215b6d0fe3e8c3e39_Image_24.jpeg,did not like,3.820572462,,,,,,,,,,,,,,,,,,,,,,
,,67094d6215b6d0fe3e8c3e39,6685aa9113c938e83b4f1ea0,671bd47b953b7ef32bfbb1bc,2024-10-25_12h28.58.174,WTP_SM_Choice,2022.2.1,Win32,181.8181818,,,,,,,,,,,,,,,,,,1,,,,,,space,26.5331,space,7.4431,0.01,1,2.4068,0,0,0,0,1,eat cookies and milk,watch movies with family on movie night,0.01,0.01,4.4,1,,,,
,,67094d6215b6d0fe3e8c3e39,6685aa9113c938e83b4f1ea0,671bd47b953b7ef32bfbb1bc,2024-10-25_12h28.58.174,WTP_SM_Choice,2022.2.1,Win32,181.8181818,,,,,,,,,,,,,,,,,,2,,,,,,,,,,0.02,1,2.2726,0,1,1,1,1,read the news before bed,go out with my friends to meet and greet car meets,0.02,0.01,8.8,1,,,,
,,67094d6215b6d0fe3e8c3e39,6685aa9113c938e83b4f1ea0,671bd47b953b7ef32bfbb1bc,2024-10-25_12h28.58.174,WTP_SM_Choice,2022.2.1,Win32,181.8181818,,,,,,,,,,,,,,,,,,3,,,,,,,,,,0.01,2,3.2546,0,2,2,2,1,watch soccer with my dads side of family,drive around late at night,0.03,0.01,3.3,0,,,,
,,67094d6215b6d0fe3e8c3e39,6685aa9113c938e83b4f1ea0,671bd47b953b7ef32bfbb1bc,2024-10-25_12h28.58.174,WTP_SM_Choice,2022.2.1,Win32,181.8181818,,,,,,,,,,,,,,,,,,4,,,,,,,,,,0.04,1,3.3459,0,3,3,3,1,eat and watch a show,go out with my friends to the movies,0.04,0.01,1.1,1,,,,
,,67094d6215b6d0fe3e8c3e39,6685aa9113c938e83b4f1ea0,671bd47b953b7ef32bfbb1bc,2024-10-25_12h28.58.174,WTP_SM_Choice,2022.2.1,Win32,181.8181818,,,,,,,,,,,,,,,,,,5,,,,,,,,,,0.05,1,3.2155,0,4,4,4,1,get together with family to celebrate someone's birthday,play video games while its raining,0.05,0.01,1.1,0,,,,
,,67094d6215b6d0fe3e8c3e39,6685aa9113c938e83b4f1ea0,671bd47b953b7ef32bfbb1bc,2024-10-25_12h28.58.174,WTP_SM_Choice,2022.2.1,Win32,181.8181818,,,,,,,NAN,,NAN,0.13,5.87,,0,4,4,4,1,5,Riley,Acc,Participant_Images/67094d6215b6d0fe3e8c3e39/67094d6215b6d0fe3e8c3e39_Images/67094d6215b6d0fe3e8c3e39_Image_19.jpeg,liked,2.455989137,,,,,,,,,,,,,,,,,,,,,,
,,67094d6215b6d0fe3e8c3e39,6685aa9113c938e83b4f1ea0,671bd47b953b7ef32bfbb1bc,2024-10-25_12h28.58.174,WTP_SM_Choice,2022.2.1,Win32,181.8181818,,,,,space,1.2237,NAN,,NAN,0.13,5.87,,0,5,5,5,1,6,Riley,Acc,Participant_Images/67094d6215b6d0fe3e8c3e39/67094d6215b6d0fe3e8c3e39_Images/67094d6215b6d0fe3e8c3e39_Image_17.jpeg,did not like,3.79605092,,,,,,,,,,,,,,,,,,,,,,
,,67094d6215b6d0fe3e8c3e39,6685aa9113c938e83b4f1ea0,671bd47b953b7ef32bfbb1bc,2024-10-25_12h28.58.174,WTP_SM_Choice,2022.2.1,Win32,181.8181818,,,,,space,1.281,NAN,,NAN,0.13,5.87,,0,6,6,6,1,7,Riley,Acc,Participant_Images/67094d6215b6d0fe3e8c3e39/67094d6215b6d0fe3e8c3e39_Images/67094d6215b6d0fe3e8c3e39_Image_6.jpeg,liked,3.562416326,,,,,,,,,,,,,,,,,,,,,,
,,67094d6215b6d0fe3e8c3e39,6685aa9113c938e83b4f1ea0,671bd47b953b7ef32bfbb1bc,2024-10-25_12h28.58.174,WTP_SM_Choice,2022.2.1,Win32,181.8181818,,,,,space,0.8582,NAN,,NAN,0.13,5.87,,0,7,7,7,1,8,Riley,Acc,Participant_Images/67094d6215b6d0fe3e8c3e39/67094d6215b6d0fe3e8c3e39_Images/67094d6215b6d0fe3e8c3e39_Image_23.jpeg,liked,2.843822497,,,,,,,,,,,,,,,,,,,,,,
,,67094d6215b6d0fe3e8c3e39,6685aa9113c938e83b4f1ea0,671bd47b953b7ef32bfbb1bc,2024-10-25_12h28.58.174,WTP_SM_Choice,2022.2.1,Win32,181.8181818,,,,,space,0.9309,NAN,,NAN,0.13,5.87,,0,8,8,8,1,9,Riley,Acc,Participant_Images/67094d6215b6d0fe3e8c3e39/67094d6215b6d0fe3e8c3e39_Images/67094d6215b6d0fe3e8c3e39_Image_20.jpeg,liked,3.546495948,,,,,,,,,,,,,,,,,,,,,,
,,67094d6215b6d0fe3e8c3e39,6685aa9113c938e83b4f1ea0,671bd47b953b7ef32bfbb1bc,2024-10-25_12h28.58.174,WTP_SM_Choice,2022.2.1,Win32,181.8181818,,,,,,,,,,,,,,,,,,6,,,,,,space,6.2093,space,1.1305,0.02,2,2.5698,0,0,0,0,1,go out with siblings to do fun activities etc,read the news before bed,0.01,0.02,3.3,0,,,,
,,67094d6215b6d0fe3e8c3e39,6685aa9113c938e83b4f1ea0,671bd47b953b7ef32bfbb1bc,2024-10-25_12h28.58.174,WTP_SM_Choice,2022.2.1,Win32,181.8181818,,,,,,,,,,,,,,,,,,7,,,,,,,,,,0.02,1,3.5832,0,1,1,1,1,go for a late night swim,go out with siblings to do fun activities etc,0.02,0.02,1.1,1,,,,
,,67094d6215b6d0fe3e8c3e39,6685aa9113c938e83b4f1ea0,671bd47b953b7ef32bfbb1bc,2024-10-25_12h28.58.174,WTP_SM_Choice,2022.2.1,Win32,181.8181818,,,,,,,,,,,,,,,,,,8,,,,,,,,,,0.03,1,2.7506,0,2,2,2,1,watch football with the boys on sunday,go for a late night swim,0.03,0.02,1.1,0,,,,
,,67094d6215b6d0fe3e8c3e39,6685aa9113c938e83b4f1ea0,671bd47b953b7ef32bfbb1bc,2024-10-25_12h28.58.174,WTP_SM_Choice,2022.2.1,Win32,181.8181818,,,,,,,,,,,,,,,,,,9,,,,,,,,,,0.04,1,2.9944,0,3,3,3,1,read the news before bed,go out with friends to a chinese buffet as we do every month,0.04,0.02,4.4,1,,,,
,,67094d6215b6d0fe3e8c3e39,6685aa9113c938e83b4f1ea0,671bd47b953b7ef32bfbb1bc,2024-10-25_12h28.58.174,WTP_SM_Choice,2022.2.1,Win32,181.8181818,,,,,,,,,,,,,,,,,,10,,,,,,,,,,0.05,1,1.6481,0,4,4,4,1,play video games while its raining,go out to the gym with my friends,0.05,0.02,1.1,1,,,,
,,67094d6215b6d0fe3e8c3e39,6685aa9113c938e83b4f1ea0,671bd47b953b7ef32bfbb1bc,2024-10-25_12h28.58.174,WTP_SM_Choice,2022.2.1,Win32,181.8181818,,,,,,,NAN,,NAN,0.29,5.71,,0,9,9,9,1,10,Riley,Acc,Participant_Images/67094d6215b6d0fe3e8c3e39/67094d6215b6d0fe3e8c3e39_Images/67094d6215b6d0fe3e8c3e39_Image_2.jpeg,liked,1.672012706,,,,,,,,,,,,,,,,,,,,,,
,,67094d6215b6d0fe3e8c3e39,6685aa9113c938e83b4f1ea0,671bd47b953b7ef32bfbb1bc,2024-10-25_12h28.58.174,WTP_SM_Choice,2022.2.1,Win32,181.8181818,,,,,space,1.6963,NAN,,NAN,0.29,5.71,,0,10,10,10,1,11,Riley,Acc,Participant_Images/67094d6215b6d0fe3e8c3e39/67094d6215b6d0fe3e8c3e39_Images/67094d6215b6d0fe3e8c3e39_Image_15.jpeg,did not like,4.942172136,,,,,,,,,,,,,,,,,,,,,,
,,67094d6215b6d0fe3e8c3e39,6685aa9113c938e83b4f1ea0,671bd47b953b7ef32bfbb1bc,2024-10-25_12h28.58.174,WTP_SM_Choice,2022.2.1,Win32,181.8181818,,,,,space,0.81,NAN,,NAN,0.29,5.71,,0,11,11,11,1,12,Riley,Acc,Participant_Images/67094d6215b6d0fe3e8c3e39/67094d6215b6d0fe3e8c3e39_Images/67094d6215b6d0fe3e8c3e39_Image_18.jpeg,liked,2.50187214,,,,,,,,,,,,,,,,,,,,,,
,,67094d6215b6d0fe3e8c3e39,6685aa9113c938e83b4f1ea0,671bd47b953b7ef32bfbb1bc,2024-10-25_12h28.58.174,WTP_SM_Choice,2022.2.1,Win32,181.8181818,,,,,space,1.1462,NAN,,NAN,0.29,5.71,,0,12,12,12,1,13,Riley,Acc,Participant_Images/67094d6215b6d0fe3e8c3e39/67094d6215b6d0fe3e8c3e39_Images/67094d6215b6d0fe3e8c3e39_Image_13.jpeg,liked,2.071164779,,,,,,,,,,,,,,,,,,,,,,
,,67094d6215b6d0fe3e8c3e39,6685aa9113c938e83b4f1ea0,671bd47b953b7ef32bfbb1bc,2024-10-25_12h28.58.174,WTP_SM_Choice,2022.2.1,Win32,181.8181818,,,,,space,0.9665,NAN,,NAN,0.29,5.71,,0,13,13,13,1,14,Riley,Acc,Participant_Images/67094d6215b6d0fe3e8c3e39/67094d6215b6d0fe3e8c3e39_Images/67094d6215b6d0fe3e8c3e39_Image_3.jpeg,liked,5.336503566,,,,,,,,,,,,,,,,,,,,,,
,,67094d6215b6d0fe3e8c3e39,6685aa9113c938e83b4f1ea0,671bd47b953b7ef32bfbb1bc,2024-10-25_12h28.58.174,WTP_SM_Choice,2022.2.1,Win32,181.8181818,,,,,,,,,,,,,,,,,,11,,,,,,space,1.7697,space,0.7405,0.03,2,2.1019,0,0,0,0,1,watch movies with family on movie night,study with the fan on for background noise,0.01,0.03,3.3,0,,,,
,,67094d6215b6d0fe3e8c3e39,6685aa9113c938e83b4f1ea0,671bd47b953b7ef32bfbb1bc,2024-10-25_12h28.58.174,WTP_SM_Choice,2022.2.1,Win32,181.8181818,,,,,,,,,,,,,,,,,,12,,,,,,,,,,0.03,2,2.244,0,1,1,1,1,go out with my friends to the movies,play clash of clans before bed,0.02,0.03,4.4,0,,,,
,,67094d6215b6d0fe3e8c3e39,6685aa9113c938e83b4f1ea0,671bd47b953b7ef32bfbb1bc,2024-10-25_12h28.58.174,WTP_SM_Choice,2022.2.1,Win32,181.8181818,,,,,,,,,,,,,,,,,,13,,,,,,,,,,0.03,2,2.1941,0,2,2,2,1,go out with friends to a chinese buffet as we do every month,eat cookies and milk,0.03,0.03,1.1,0,,,,
,,67094d6215b6d0fe3e8c3e39,6685aa9113c938e83b4f1ea0,671bd47b953b7ef32bfbb1bc,2024-10-25_12h28.58.174,WTP_SM_Choice,2022.2.1,Win32,181.8181818,,,,,,,,,,,,,,,,,,14,,,,,,,,,,0.04,1,2.4662,0,3,3,3,1,watch movies with family on movie night,eat and watch a show,0.04,0.03,3.3,0,,,,
,,67094d6215b6d0fe3e8c3e39,6685aa9113c938e83b4f1ea0,671bd47b953b7ef32bfbb1bc,2024-10-25_12h28.58.174,WTP_SM_Choice,2022.2.1,Win32,181.8181818,,,,,,,,,,,,,,,,,,15,,,,,,,,,,0.05,1,1.8332,0,4,4,4,1,watch movies with family on movie night,go for a late night swim,0.05,0.03,4.4,0,,,,
,,67094d6215b6d0fe3e8c3e39,6685aa9113c938e83b4f1ea0,671bd47b953b7ef32bfbb1bc,2024-10-25_12h28.58.174,WTP_SM_Choice,2022.2.1,Win32,181.8181818,,,,,,,NAN,,NAN,0.47,5.53,,0,14,14,14,1,15,Riley,Acc,Participant_Images/67094d6215b6d0fe3e8c3e39/67094d6215b6d0fe3e8c3e39_Images/67094d6215b6d0fe3e8c3e39_Image_1.jpeg,did not like,2.642157193,,,,,,,,,,,,,,,,,,,,,,
,,67094d6215b6d0fe3e8c3e39,6685aa9113c938e83b4f1ea0,671bd47b953b7ef32bfbb1bc,2024-10-25_12h28.58.174,WTP_SM_Choice,2022.2.1,Win32,181.8181818,,,,,space,1.0249,NAN,,NAN,0.47,5.53,,0,15,15,15,1,16,Riley,Acc,Participant_Images/67094d6215b6d0fe3e8c3e39/67094d6215b6d0fe3e8c3e39_Images/67094d6215b6d0fe3e8c3e39_Image_12.jpeg,liked,4.456234322,,,,,,,,,,,,,,,,,,,,,,
,,67094d6215b6d0fe3e8c3e39,6685aa9113c938e83b4f1ea0,671bd47b953b7ef32bfbb1bc,2024-10-25_12h28.58.174,WTP_SM_Choice,2022.2.1,Win32,181.8181818,,,,,space,0.8959,NAN,,NAN,0.47,5.53,,0,16,16,16,1,17,Riley,Acc,Participant_Images/67094d6215b6d0fe3e8c3e39/67094d6215b6d0fe3e8c3e39_Images/67094d6215b6d0fe3e8c3e39_Image_8.jpeg,liked,4.438512181,,,,,,,,,,,,,,,,,,,,,,
,,67094d6215b6d0fe3e8c3e39,6685aa9113c938e83b4f1ea0,671bd47b953b7ef32bfbb1bc,2024-10-25_12h28.58.174,WTP_SM_Choice,2022.2.1,Win32,181.8181818,,,,,space,0.4891,NAN,,NAN,0.47,5.53,,0,17,17,17,1,18,Riley,Acc,Participant_Images/67094d6215b6d0fe3e8c3e39/67094d6215b6d0fe3e8c3e39_Images/67094d6215b6d0fe3e8c3e39_Image_7.jpeg,liked,2.682944783,,,,,,,,,,,,,,,,,,,,,,
,,67094d6215b6d0fe3e8c3e39,6685aa9113c938e83b4f1ea0,671bd47b953b7ef32bfbb1bc,2024-10-25_12h28.58.174,WTP_SM_Choice,2022.2.1,Win32,181.8181818,,,,,space,6.2663,NAN,,NAN,0.47,5.53,,0,18,18,18,1,19,Riley,Acc,Participant_Images/67094d6215b6d0fe3e8c3e39/67094d6215b6d0fe3e8c3e39_Images/67094d6215b6d0fe3e8c3e39_Image_9.jpeg,liked,4.51984296,,,,,,,,,,,,,,,,,,,,,,
,,67094d6215b6d0fe3e8c3e39,6685aa9113c938e83b4f1ea0,671bd47b953b7ef32bfbb1bc,2024-10-25_12h28.58.174,WTP_SM_Choice,2022.2.1,Win32,181.8181818,,,,,,,,,,,,,,,,,,16,,,,,,space,4.5123,space,0.8112,0.04,2,1.4925,0,0,0,0,1,go out with siblings to do fun activities etc,eat cookies and milk,0.01,0.04,1.1,0,,,,
,,67094d6215b6d0fe3e8c3e39,6685aa9113c938e83b4f1ea0,671bd47b953b7ef32bfbb1bc,2024-10-25_12h28.58.174,WTP_SM_Choice,2022.2.1,Win32,181.8181818,,,,,,,,,,,,,,,,,,17,,,,,,,,,,0.04,2,1.2263,0,1,1,1,1,watch soccer with my dads side of family,study with the fan on for background noise,0.02,0.04,8.8,0,,,,
,,67094d6215b6d0fe3e8c3e39,6685aa9113c938e83b4f1ea0,671bd47b953b7ef32bfbb1bc,2024-10-25_12h28.58.174,WTP_SM_Choice,2022.2.1,Win32,181.8181818,,,,,,,,,,,,,,,,,,18,,,,,,,,,,0.04,2,1.0352,0,2,2,2,1,get together with family to celebrate someone's birthday,go for a late night swim,0.03,0.04,3.3,0,,,,
,,67094d6215b6d0fe3e8c3e39,6685aa9113c938e83b4f1ea0,671bd47b953b7ef32bfbb1bc,2024-10-25_12h28.58.174,WTP_SM_Choice,2022.2.1,Win32,181.8181818,,,,,,,,,,,,,,,,,,19,,,,,,,,,,0.04,1,1.7177,0,3,3,3,1,eat cookies and milk,go out with my friends to meet and greet car meets,0.04,0.04,3.3,1,,,,
,,67094d6215b6d0fe3e8c3e39,6685aa9113c938e83b4f1ea0,671bd47b953b7ef32bfbb1bc,2024-10-25_12h28.58.174,WTP_SM_Choice,2022.2.1,Win32,181.8181818,,,,,,,,,,,,,,,,,,20,,,,,,,,,,0.05,1,1.0424,0,4,4,4,1,go for a late night swim,have family get together and barbecue,0.05,0.04,1.1,1,,,,
,,67094d6215b6d0fe3e8c3e39,6685aa9113c938e83b4f1ea0,671bd47b953b7ef32bfbb1bc,2024-10-25_12h28.58.174,WTP_SM_Choice,2022.2.1,Win32,181.8181818,,,,,,,NAN,,NAN,0.68,5.32,,0,19,19,19,1,20,Riley,Acc,Participant_Images/67094d6215b6d0fe3e8c3e39/67094d6215b6d0fe3e8c3e39_Images/67094d6215b6d0fe3e8c3e39_Image_10.jpeg,liked,3.195382774,,,,,,,,,,,,,,,,,,,,,,
,,67094d6215b6d0fe3e8c3e39,6685aa9113c938e83b4f1ea0,671bd47b953b7ef32bfbb1bc,2024-10-25_12h28.58.174,WTP_SM_Choice,2022.2.1,Win32,181.8181818,,,,,space,0.5062,NAN,,NAN,0.68,5.32,,0,20,20,20,1,21,Riley,Acc,Participant_Images/67094d6215b6d0fe3e8c3e39/67094d6215b6d0fe3e8c3e39_Images/67094d6215b6d0fe3e8c3e39_Image_4.jpeg,liked,1.779333479,,,,,,,,,,,,,,,,,,,,,,
,,67094d6215b6d0fe3e8c3e39,6685aa9113c938e83b4f1ea0,671bd47b953b7ef32bfbb1bc,2024-10-25_12h28.58.174,WTP_SM_Choice,2022.2.1,Win32,181.8181818,,,,,space,0.5523,NAN,,NAN,0.68,5.32,,0,21,21,21,1,22,Riley,Acc,Participant_Images/67094d6215b6d0fe3e8c3e39/67094d6215b6d0fe3e8c3e39_Images/67094d6215b6d0fe3e8c3e39_Image_11.jpeg,did not like,4.312468682,,,,,,,,,,,,,,,,,,,,,,
,,67094d6215b6d0fe3e8c3e39,6685aa9113c938e83b4f1ea0,671bd47b953b7ef32bfbb1bc,2024-10-25_12h28.58.174,WTP_SM_Choice,2022.2.1,Win32,181.8181818,,,,,space,1.489,NAN,,NAN,0.68,5.32,,0,22,22,22,1,23,Riley,Acc,Participant_Images/67094d6215b6d0fe3e8c3e39/67094d6215b6d0fe3e8c3e39_Images/67094d6215b6d0fe3e8c3e39_Image_16.jpeg,liked,4.940433059,,,,,,,,,,,,,,,,,,,,,,
,,67094d6215b6d0fe3e8c3e39,6685aa9113c938e83b4f1ea0,671bd47b953b7ef32bfbb1bc,2024-10-25_12h28.58.174,WTP_SM_Choice,2022.2.1,Win32,181.8181818,,,,,space,0.7956,NAN,,NAN,0.68,5.32,,0,23,23,23,1,24,Riley,Acc,Participant_Images/67094d6215b6d0fe3e8c3e39/67094d6215b6d0fe3e8c3e39_Images/67094d6215b6d0fe3e8c3e39_Image_25.jpeg,did not like,2.7105123,,,,,,,,,,,,,,,,,,,,,,
,,67094d6215b6d0fe3e8c3e39,6685aa9113c938e83b4f1ea0,671bd47b953b7ef32bfbb1bc,2024-10-25_12h28.58.174,WTP_SM_Choice,2022.2.1,Win32,181.8181818,,,,,,,,,,,,,,,,,,21,,,,,,space,1.4628,space,0.574,0.05,2,1.3233,0,0,0,0,1,eat and watch a show,go out with siblings to do fun activities etc,0.01,0.05,8.8,1,,,,
,,67094d6215b6d0fe3e8c3e39,6685aa9113c938e83b4f1ea0,671bd47b953b7ef32bfbb1bc,2024-10-25_12h28.58.174,WTP_SM_Choice,2022.2.1,Win32,181.8181818,,,,,,,,,,,,,,,,,,22,,,,,,,,,,0.05,2,2.0931,0,1,1,1,1,take long hot showers after a solo workout,watch football with the boys on sunday,0.02,0.05,4.4,1,,,,
,,67094d6215b6d0fe3e8c3e39,6685aa9113c938e83b4f1ea0,671bd47b953b7ef32bfbb1bc,2024-10-25_12h28.58.174,WTP_SM_Choice,2022.2.1,Win32,181.8181818,,,,,,,,,,,,,,,,,,23,,,,,,,,,,0.05,2,1.3434,0,2,2,2,1,play video games while its raining,watch soccer with my dads side of family,0.03,0.05,1.1,1,,,,
,,67094d6215b6d0fe3e8c3e39,6685aa9113c938e83b4f1ea0,671bd47b953b7ef32bfbb1bc,2024-10-25_12h28.58.174,WTP_SM_Choice,2022.2.1,Win32,181.8181818,,,,,,,,,,,,,,,,,,24,,,,,,,,,,0.05,2,1.2542,0,3,3,3,1,play video games while its raining,watch movies with family on movie night,0.04,0.05,4.4,1,,,,
,,67094d6215b6d0fe3e8c3e39,6685aa9113c938e83b4f1ea0,671bd47b953b7ef32bfbb1bc,2024-10-25_12h28.58.174,WTP_SM_Choice,2022.2.1,Win32,181.8181818,,,,,,,,,,,,,,,,,,25,,,,,,,,,,0.05,1,2.4134,0,4,4,4,1,drive around late at night,watch football with the boys on sunday,0.05,0.05,3.3,1,,,,
,,67094d6215b6d0fe3e8c3e39,6685aa9113c938e83b4f1ea0,671bd47b953b7ef32bfbb1bc,2024-10-25_12h28.58.174,WTP_SM_Choice,2022.2.1,Win32,181.8181818,,,,,,,4,,4,0.93,5.07,,0,24,24,24,1,25,Riley,Acc,Participant_Images/67094d6215b6d0fe3e8c3e39/67094d6215b6d0fe3e8c3e39_Images/67094d6215b6d0fe3e8c3e39_Image_22.jpeg,did not like,3.602308302,,,,,,,,,,,,,,,,,,,space,1.1738,,
,,67094d6215b6d0fe3e8c3e39,6685aa9113c938e83b4f1ea0,671bd47b953b7ef32bfbb1bc,2024-10-25_12h28.58.174,WTP_SM_Choice,2022.2.1,Win32,181.8181818,,,space,2.9695,space,1.051,NAN,,NAN,0.93,5.07,,0,25,25,25,1,26,Alex,Rej,Participant_Images/67094d6215b6d0fe3e8c3e39/67094d6215b6d0fe3e8c3e39_Images/67094d6215b6d0fe3e8c3e39_Image_7.jpeg,liked,4.106391878,,,,,,,,,,,,,,,,,,,,,,
,,67094d6215b6d0fe3e8c3e39,6685aa9113c938e83b4f1ea0,671bd47b953b7ef32bfbb1bc,2024-10-25_12h28.58.174,WTP_SM_Choice,2022.2.1,Win32,181.8181818,,,,,space,1.1764,NAN,,NAN,0.93,5.07,,0,26,26,26,1,27,Alex,Rej,Participant_Images/67094d6215b6d0fe3e8c3e39/67094d6215b6d0fe3e8c3e39_Images/67094d6215b6d0fe3e8c3e39_Image_11.jpeg,did not like,3.799433026,,,,,,,,,,,,,,,,,,,,,,
,,67094d6215b6d0fe3e8c3e39,6685aa9113c938e83b4f1ea0,671bd47b953b7ef32bfbb1bc,2024-10-25_12h28.58.174,WTP_SM_Choice,2022.2.1,Win32,181.8181818,,,,,space,0.6473,NAN,,NAN,0.93,5.07,,0,27,27,27,1,28,Alex,Rej,Participant_Images/67094d6215b6d0fe3e8c3e39/67094d6215b6d0fe3e8c3e39_Images/67094d6215b6d0fe3e8c3e39_Image_17.jpeg,did not like,5.246980764,,,,,,,,,,,,,,,,,,,,,,
,,67094d6215b6d0fe3e8c3e39,6685aa9113c938e83b4f1ea0,671bd47b953b7ef32bfbb1bc,2024-10-25_12h28.58.174,WTP_SM_Choice,2022.2.1,Win32,181.8181818,,,,,space,1.1856,NAN,,NAN,0.93,5.07,,0,28,28,28,1,29,Alex,Rej,Participant_Images/67094d6215b6d0fe3e8c3e39/67094d6215b6d0fe3e8c3e39_Images/67094d6215b6d0fe3e8c3e39_Image_9.jpeg,liked,3.30081769,,,,,,,,,,,,,,,,,,,,,,
,,67094d6215b6d0fe3e8c3e39,6685aa9113c938e83b4f1ea0,671bd47b953b7ef32bfbb1bc,2024-10-25_12h28.58.174,WTP_SM_Choice,2022.2.1,Win32,181.8181818,,,,,,,,,,,,,,,,,,26,,,,,,space,10.1413,space,6.5806,0.01,1,2.4312,0,0,0,0,1,have family get together and barbecue,drive around late at night,0.01,0.01,4.4,0,,,,
,,67094d6215b6d0fe3e8c3e39,6685aa9113c938e83b4f1ea0,671bd47b953b7ef32bfbb1bc,2024-10-25_12h28.58.174,WTP_SM_Choice,2022.2.1,Win32,181.8181818,,,,,,,,,,,,,,,,,,27,,,,,,,,,,0.02,1,2.1153,0,1,1,1,1,get together with family to celebrate someone's birthday,drive around late at night,0.02,0.01,3.3,0,,,,
,,67094d6215b6d0fe3e8c3e39,6685aa9113c938e83b4f1ea0,671bd47b953b7ef32bfbb1bc,2024-10-25_12h28.58.174,WTP_SM_Choice,2022.2.1,Win32,181.8181818,,,,,,,,,,,,,,,,,,28,,,,,,,,,,0.03,1,3.7148,0,2,2,2,1,go out to the gym with my friends,study with the fan on for background noise,0.03,0.01,3.3,0,,,,
,,67094d6215b6d0fe3e8c3e39,6685aa9113c938e83b4f1ea0,671bd47b953b7ef32bfbb1bc,2024-10-25_12h28.58.174,WTP_SM_Choice,2022.2.1,Win32,181.8181818,,,,,,,,,,,,,,,,,,29,,,,,,,,,,0.04,1,1.6298,0,3,3,3,1,have family get together and barbecue,read the news before bed,0.04,0.01,4.4,0,,,,
,,67094d6215b6d0fe3e8c3e39,6685aa9113c938e83b4f1ea0,671bd47b953b7ef32bfbb1bc,2024-10-25_12h28.58.174,WTP_SM_Choice,2022.2.1,Win32,181.8181818,,,,,,,,,,,,,,,,,,30,,,,,,,,,,0.05,1,3.27,0,4,4,4,1,watch soccer with my dads side of family,eat cookies and milk,0.05,0.01,8.8,0,,,,
,,67094d6215b6d0fe3e8c3e39,6685aa9113c938e83b4f1ea0,671bd47b953b7ef32bfbb1bc,2024-10-25_12h28.58.174,WTP_SM_Choice,2022.2.1,Win32,181.8181818,,,,,,,NAN,,NAN,1.08,4.92,,0,29,29,29,1,30,Alex,Rej,Participant_Images/67094d6215b6d0fe3e8c3e39/67094d6215b6d0fe3e8c3e39_Images/67094d6215b6d0fe3e8c3e39_Image_22.jpeg,did not like,1.661473164,,,,,,,,,,,,,,,,,,,,,,
,,67094d6215b6d0fe3e8c3e39,6685aa9113c938e83b4f1ea0,671bd47b953b7ef32bfbb1bc,2024-10-25_12h28.58.174,WTP_SM_Choice,2022.2.1,Win32,181.8181818,,,,,space,0.3619,NAN,,NAN,1.08,4.92,,0,30,30,30,1,31,Alex,Rej,Participant_Images/67094d6215b6d0fe3e8c3e39/67094d6215b6d0fe3e8c3e39_Images/67094d6215b6d0fe3e8c3e39_Image_3.jpeg,did not like,3.613205605,,,,,,,,,,,,,,,,,,,,,,
,,67094d6215b6d0fe3e8c3e39,6685aa9113c938e83b4f1ea0,671bd47b953b7ef32bfbb1bc,2024-10-25_12h28.58.174,WTP_SM_Choice,2022.2.1,Win32,181.8181818,,,,,space,0.6644,NAN,,NAN,1.08,4.92,,0,31,31,31,1,32,Alex,Rej,Participant_Images/67094d6215b6d0fe3e8c3e39/67094d6215b6d0fe3e8c3e39_Images/67094d6215b6d0fe3e8c3e39_Image_20.jpeg,did not like,4.988446431,,,,,,,,,,,,,,,,,,,,,,
,,67094d6215b6d0fe3e8c3e39,6685aa9113c938e83b4f1ea0,671bd47b953b7ef32bfbb1bc,2024-10-25_12h28.58.174,WTP_SM_Choice,2022.2.1,Win32,181.8181818,,,,,space,0.4077,NAN,,NAN,1.08,4.92,,0,32,32,32,1,33,Alex,Rej,Participant_Images/67094d6215b6d0fe3e8c3e39/67094d6215b6d0fe3e8c3e39_Images/67094d6215b6d0fe3e8c3e39_Image_18.jpeg,did not like,3.470791822,,,,,,,,,,,,,,,,,,,,,,
,,67094d6215b6d0fe3e8c3e39,6685aa9113c938e83b4f1ea0,671bd47b953b7ef32bfbb1bc,2024-10-25_12h28.58.174,WTP_SM_Choice,2022.2.1,Win32,181.8181818,,,,,space,0.692,NAN,,NAN,1.08,4.92,,0,33,33,33,1,34,Alex,Rej,Participant_Images/67094d6215b6d0fe3e8c3e39/67094d6215b6d0fe3e8c3e39_Images/67094d6215b6d0fe3e8c3e39_Image_16.jpeg,did not like,3.820572462,,,,,,,,,,,,,,,,,,,,,,
,,67094d6215b6d0fe3e8c3e39,6685aa9113c938e83b4f1ea0,671bd47b953b7ef32bfbb1bc,2024-10-25_12h28.58.174,WTP_SM_Choice,2022.2.1,Win32,181.8181818,,,,,,,,,,,,,,,,,,31,,,,,,space,1.6539,space,4.1082,0.02,2,1.4843,0,0,0,0,1,play video games while its raining,go out with siblings to do fun activities etc,0.01,0.02,8.8,1,,,,
,,67094d6215b6d0fe3e8c3e39,6685aa9113c938e83b4f1ea0,671bd47b953b7ef32bfbb1bc,2024-10-25_12h28.58.174,WTP_SM_Choice,2022.2.1,Win32,181.8181818,,,,,,,,,,,,,,,,,,32,,,,,,,,,,0.02,1,1.7727,0,1,1,1,1,eat and watch a show,go out with friends to a chinese buffet as we do every month,0.02,0.02,1.1,1,,,,
,,67094d6215b6d0fe3e8c3e39,6685aa9113c938e83b4f1ea0,671bd47b953b7ef32bfbb1bc,2024-10-25_12h28.58.174,WTP_SM_Choice,2022.2.1,Win32,181.8181818,,,,,,,,,,,,,,,,,,33,,,,,,,,,,0.03,1,1.7931,0,2,2,2,1,take long hot showers after a solo workout,watch movies with family on movie night,0.03,0.02,4.4,1,,,,
,,67094d6215b6d0fe3e8c3e39,6685aa9113c938e83b4f1ea0,671bd47b953b7ef32bfbb1bc,2024-10-25_12h28.58.174,WTP_SM_Choice,2022.2.1,Win32,181.8181818,,,,,,,,,,,,,,,,,,34,,,,,,,,,,0.04,1,1.7781,0,3,3,3,1,go out with friends to a chinese buffet as we do every month,play clash of clans before bed,0.04,0.02,3.3,0,,,,
,,67094d6215b6d0fe3e8c3e39,6685aa9113c938e83b4f1ea0,671bd47b953b7ef32bfbb1bc,2024-10-25_12h28.58.174,WTP_SM_Choice,2022.2.1,Win32,181.8181818,,,,,,,,,,,,,,,,,,35,,,,,,,,,,0.05,1,2.0492,0,4,4,4,1,get together with family to celebrate someone's birthday,study with the fan on for background noise,0.05,0.02,1.1,0,,,,
,,67094d6215b6d0fe3e8c3e39,6685aa9113c938e83b4f1ea0,671bd47b953b7ef32bfbb1bc,2024-10-25_12h28.58.174,WTP_SM_Choice,2022.2.1,Win32,181.8181818,,,,,,,NAN,,NAN,1.24,4.76,,0,34,34,34,1,35,Alex,Rej,Participant_Images/67094d6215b6d0fe3e8c3e39/67094d6215b6d0fe3e8c3e39_Images/67094d6215b6d0fe3e8c3e39_Image_10.jpeg,did not like,2.455989137,,,,,,,,,,,,,,,,,,,,,,
,,67094d6215b6d0fe3e8c3e39,6685aa9113c938e83b4f1ea0,671bd47b953b7ef32bfbb1bc,2024-10-25_12h28.58.174,WTP_SM_Choice,2022.2.1,Win32,181.8181818,,,,,space,24.5406,NAN,,NAN,1.24,4.76,,0,35,35,35,1,36,Alex,Rej,Participant_Images/67094d6215b6d0fe3e8c3e39/67094d6215b6d0fe3e8c3e39_Images/67094d6215b6d0fe3e8c3e39_Image_6.jpeg,did not like,3.79605092,,,,,,,,,,,,,,,,,,,,,,
,,67094d6215b6d0fe3e8c3e39,6685aa9113c938e83b4f1ea0,671bd47b953b7ef32bfbb1bc,2024-10-25_12h28.58.174,WTP_SM_Choice,2022.2.1,Win32,181.8181818,,,,,space,4.5086,NAN,,NAN,1.24,4.76,,0,36,36,36,1,37,Alex,Rej,Participant_Images/67094d6215b6d0fe3e8c3e39/67094d6215b6d0fe3e8c3e39_Images/67094d6215b6d0fe3e8c3e39_Image_14.jpeg,did not like,3.562416326,,,,,,,,,,,,,,,,,,,,,,
,,67094d6215b6d0fe3e8c3e39,6685aa9113c938e83b4f1ea0,671bd47b953b7ef32bfbb1bc,2024-10-25_12h28.58.174,WTP_SM_Choice,2022.2.1,Win32,181.8181818,,,,,space,6.0541,NAN,,NAN,1.24,4.76,,0,37,37,37,1,38,Alex,Rej,Participant_Images/67094d6215b6d0fe3e8c3e39/67094d6215b6d0fe3e8c3e39_Images/67094d6215b6d0fe3e8c3e39_Image_25.jpeg,did not like,2.843822497,,,,,,,,,,,,,,,,,,,,,,
,,67094d6215b6d0fe3e8c3e39,6685aa9113c938e83b4f1ea0,671bd47b953b7ef32bfbb1bc,2024-10-25_12h28.58.174,WTP_SM_Choice,2022.2.1,Win32,181.8181818,,,,,space,4.6777,NAN,,NAN,1.24,4.76,,0,38,38,38,1,39,Alex,Rej,Participant_Images/67094d6215b6d0fe3e8c3e39/67094d6215b6d0fe3e8c3e39_Images/67094d6215b6d0fe3e8c3e39_Image_5.jpeg,did not like,3.546495948,,,,,,,,,,,,,,,,,,,,,,
,,67094d6215b6d0fe3e8c3e39,6685aa9113c938e83b4f1ea0,671bd47b953b7ef32bfbb1bc,2024-10-25_12h28.58.174,WTP_SM_Choice,2022.2.1,Win32,181.8181818,,,,,,,,,,,,,,,,,,36,,,,,,space,3.5975,space,0.4481,0.03,2,1.3564,0,0,0,0,1,study with the fan on for background noise,go out with my friends to meet and greet car meets,0.01,0.03,3.3,1,,,,
,,67094d6215b6d0fe3e8c3e39,6685aa9113c938e83b4f1ea0,671bd47b953b7ef32bfbb1bc,2024-10-25_12h28.58.174,WTP_SM_Choice,2022.2.1,Win32,181.8181818,,,,,,,,,,,,,,,,,,37,,,,,,,,,,0.03,2,1.4685,0,1,1,1,1,have family get together and barbecue,study with the fan on for background noise,0.02,0.03,1.1,0,,,,
,,67094d6215b6d0fe3e8c3e39,6685aa9113c938e83b4f1ea0,671bd47b953b7ef32bfbb1bc,2024-10-25_12h28.58.174,WTP_SM_Choice,2022.2.1,Win32,181.8181818,,,,,,,,,,,,,,,,,,38,,,,,,,,,,0.03,1,2.9202,0,2,2,2,1,clean my room in peace,watch football with the boys on sunday,0.03,0.03,1.1,1,,,,
,,67094d6215b6d0fe3e8c3e39,6685aa9113c938e83b4f1ea0,671bd47b953b7ef32bfbb1bc,2024-10-25_12h28.58.174,WTP_SM_Choice,2022.2.1,Win32,181.8181818,,,,,,,,,,,,,,,,,,39,,,,,,,,,,0.04,1,1.3799,0,3,3,3,1,watch movies with family on movie night,clean my room in peace,0.04,0.03,3.3,0,,,,
,,67094d6215b6d0fe3e8c3e39,6685aa9113c938e83b4f1ea0,671bd47b953b7ef32bfbb1bc,2024-10-25_12h28.58.174,WTP_SM_Choice,2022.2.1,Win32,181.8181818,,,,,,,,,,,,,,,,,,40,,,,,,,,,,0.05,1,1.2514,0,4,4,4,1,eat cookies and milk,watch football with the boys on sunday,0.05,0.03,4.4,1,,,,
,,67094d6215b6d0fe3e8c3e39,6685aa9113c938e83b4f1ea0,671bd47b953b7ef32bfbb1bc,2024-10-25_12h28.58.174,WTP_SM_Choice,2022.2.1,Win32,181.8181818,,,,,,,NAN,,NAN,1.42,4.58,,0,39,39,39,1,40,Alex,Rej,Participant_Images/67094d6215b6d0fe3e8c3e39/67094d6215b6d0fe3e8c3e39_Images/67094d6215b6d0fe3e8c3e39_Image_15.jpeg,liked,1.672012706,,,,,,,,,,,,,,,,,,,,,,
,,67094d6215b6d0fe3e8c3e39,6685aa9113c938e83b4f1ea0,671bd47b953b7ef32bfbb1bc,2024-10-25_12h28.58.174,WTP_SM_Choice,2022.2.1,Win32,181.8181818,,,,,space,0.847,NAN,,NAN,1.42,4.58,,0,40,40,40,1,41,Alex,Rej,Participant_Images/67094d6215b6d0fe3e8c3e39/67094d6215b6d0fe3e8c3e39_Images/67094d6215b6d0fe3e8c3e39_Image_4.jpeg,liked,4.942172136,,,,,,,,,,,,,,,,,,,,,,
,,67094d6215b6d0fe3e8c3e39,6685aa9113c938e83b4f1ea0,671bd47b953b7ef32bfbb1bc,2024-10-25_12h28.58.174,WTP_SM_Choice,2022.2.1,Win32,181.8181818,,,,,space,0.7301,NAN,,NAN,1.42,4.58,,0,41,41,41,1,42,Alex,Rej,Participant_Images/67094d6215b6d0fe3e8c3e39/67094d6215b6d0fe3e8c3e39_Images/67094d6215b6d0fe3e8c3e39_Image_19.jpeg,liked,2.50187214,,,,,,,,,,,,,,,,,,,,,,
,,67094d6215b6d0fe3e8c3e39,6685aa9113c938e83b4f1ea0,671bd47b953b7ef32bfbb1bc,2024-10-25_12h28.58.174,WTP_SM_Choice,2022.2.1,Win32,181.8181818,,,,,space,2.4446,NAN,,NAN,1.42,4.58,,0,42,42,42,1,43,Alex,Rej,Participant_Images/67094d6215b6d0fe3e8c3e39/67094d6215b6d0fe3e8c3e39_Images/67094d6215b6d0fe3e8c3e39_Image_2.jpeg,did not like,2.071164779,,,,,,,,,,,,,,,,,,,,,,
,,67094d6215b6d0fe3e8c3e39,6685aa9113c938e83b4f1ea0,671bd47b953b7ef32bfbb1bc,2024-10-25_12h28.58.174,WTP_SM_Choice,2022.2.1,Win32,181.8181818,,,,,space,0.779,NAN,,NAN,1.42,4.58,,0,43,43,43,1,44,Alex,Rej,Participant_Images/67094d6215b6d0fe3e8c3e39/67094d6215b6d0fe3e8c3e39_Images/67094d6215b6d0fe3e8c3e39_Image_8.jpeg,did not like,5.336503566,,,,,,,,,,,,,,,,,,,,,,
,,67094d6215b6d0fe3e8c3e39,6685aa9113c938e83b4f1ea0,671bd47b953b7ef32bfbb1bc,2024-10-25_12h28.58.174,WTP_SM_Choice,2022.2.1,Win32,181.8181818,,,,,,,,,,,,,,,,,,41,,,,,,space,1.1168,space,4.4339,0.04,2,1.2692,0,0,0,0,1,watch football with the boys on sunday,play clash of clans before bed,0.01,0.04,1.1,0,,,,
,,67094d6215b6d0fe3e8c3e39,6685aa9113c938e83b4f1ea0,671bd47b953b7ef32bfbb1bc,2024-10-25_12h28.58.174,WTP_SM_Choice,2022.2.1,Win32,181.8181818,,,,,,,,,,,,,,,,,,42,,,,,,,,,,0.04,2,1.2968,0,1,1,1,1,drive around late at night,watch movies with family on movie night,0.02,0.04,3.3,1,,,,
,,67094d6215b6d0fe3e8c3e39,6685aa9113c938e83b4f1ea0,671bd47b953b7ef32bfbb1bc,2024-10-25_12h28.58.174,WTP_SM_Choice,2022.2.1,Win32,181.8181818,,,,,,,,,,,,,,,,,,43,,,,,,,,,,0.04,2,1.8788,0,2,2,2,1,go out to the gym with my friends,eat and watch a show,0.03,0.04,1.1,0,,,,
,,67094d6215b6d0fe3e8c3e39,6685aa9113c938e83b4f1ea0,671bd47b953b7ef32bfbb1bc,2024-10-25_12h28.58.174,WTP_SM_Choice,2022.2.1,Win32,181.8181818,,,,,,,,,,,,,,,,,,44,,,,,,,,,,0.04,2,2.7166,0,3,3,3,1,drive around late at night,go out to the gym with my friends,0.04,0.04,1.1,1,,,,
,,67094d6215b6d0fe3e8c3e39,6685aa9113c938e83b4f1ea0,671bd47b953b7ef32bfbb1bc,2024-10-25_12h28.58.174,WTP_SM_Choice,2022.2.1,Win32,181.8181818,,,,,,,,,,,,,,,,,,45,,,,,,,,,,0.05,1,2.8436,0,4,4,4,1,clean my room in peace,go out with my friends to meet and greet car meets,0.05,0.04,4.4,1,,,,
,,67094d6215b6d0fe3e8c3e39,6685aa9113c938e83b4f1ea0,671bd47b953b7ef32bfbb1bc,2024-10-25_12h28.58.174,WTP_SM_Choice,2022.2.1,Win32,181.8181818,,,,,,,NAN,,NAN,1.63,4.37,,0,44,44,44,1,45,Alex,Rej,Participant_Images/67094d6215b6d0fe3e8c3e39/67094d6215b6d0fe3e8c3e39_Images/67094d6215b6d0fe3e8c3e39_Image_23.jpeg,liked,2.642157193,,,,,,,,,,,,,,,,,,,,,,
,,67094d6215b6d0fe3e8c3e39,6685aa9113c938e83b4f1ea0,671bd47b953b7ef32bfbb1bc,2024-10-25_12h28.58.174,WTP_SM_Choice,2022.2.1,Win32,181.8181818,,,,,space,3.2855,NAN,,NAN,1.63,4.37,,0,45,45,45,1,46,Alex,Rej,Participant_Images/67094d6215b6d0fe3e8c3e39/67094d6215b6d0fe3e8c3e39_Images/67094d6215b6d0fe3e8c3e39_Image_24.jpeg,did not like,4.456234322,,,,,,,,,,,,,,,,,,,,,,
,,67094d6215b6d0fe3e8c3e39,6685aa9113c938e83b4f1ea0,671bd47b953b7ef32bfbb1bc,2024-10-25_12h28.58.174,WTP_SM_Choice,2022.2.1,Win32,181.8181818,,,,,space,2.2502,NAN,,NAN,1.63,4.37,,0,46,46,46,1,47,Alex,Rej,Participant_Images/67094d6215b6d0fe3e8c3e39/67094d6215b6d0fe3e8c3e39_Images/67094d6215b6d0fe3e8c3e39_Image_1.jpeg,did not like,4.438512181,,,,,,,,,,,,,,,,,,,,,,
,,67094d6215b6d0fe3e8c3e39,6685aa9113c938e83b4f1ea0,671bd47b953b7ef32bfbb1bc,2024-10-25_12h28.58.174,WTP_SM_Choice,2022.2.1,Win32,181.8181818,,,,,space,1.097,NAN,,NAN,1.63,4.37,,0,47,47,47,1,48,Alex,Rej,Participant_Images/67094d6215b6d0fe3e8c3e39/67094d6215b6d0fe3e8c3e39_Images/67094d6215b6d0fe3e8c3e39_Image_13.jpeg,did not like,2.682944783,,,,,,,,,,,,,,,,,,,,,,
,,67094d6215b6d0fe3e8c3e39,6685aa9113c938e83b4f1ea0,671bd47b953b7ef32bfbb1bc,2024-10-25_12h28.58.174,WTP_SM_Choice,2022.2.1,Win32,181.8181818,,,,,space,0.7227,NAN,,NAN,1.63,4.37,,0,48,48,48,1,49,Alex,Rej,Participant_Images/67094d6215b6d0fe3e8c3e39/67094d6215b6d0fe3e8c3e39_Images/67094d6215b6d0fe3e8c3e39_Image_21.jpeg,did not like,4.51984296,,,,,,,,,,,,,,,,,,,,,,
,,67094d6215b6d0fe3e8c3e39,6685aa9113c938e83b4f1ea0,671bd47b953b7ef32bfbb1bc,2024-10-25_12h28.58.174,WTP_SM_Choice,2022.2.1,Win32,181.8181818,,,,,,,,,,,,,,,,,,46,,,,,,space,1.1984,space,7.6833,0.05,2,1.1422,0,0,0,0,1,go out with my friends to meet and greet car meets,take long hot showers after a solo workout,0.01,0.05,8.8,0,,,,
,,67094d6215b6d0fe3e8c3e39,6685aa9113c938e83b4f1ea0,671bd47b953b7ef32bfbb1bc,2024-10-25_12h28.58.174,WTP_SM_Choice,2022.2.1,Win32,181.8181818,,,,,,,,,,,,,,,,,,47,,,,,,,,,,0.05,2,1.6217,0,1,1,1,1,go out with siblings to do fun activities etc,study with the fan on for background noise,0.02,0.05,1.1,0,,,,
,,67094d6215b6d0fe3e8c3e39,6685aa9113c938e83b4f1ea0,671bd47b953b7ef32bfbb1bc,2024-10-25_12h28.58.174,WTP_SM_Choice,2022.2.1,Win32,181.8181818,,,,,,,,,,,,,,,,,,48,,,,,,,,,,0.05,2,1.1522,0,2,2,2,1,watch movies with family on movie night,play clash of clans before bed,0.03,0.05,4.4,0,,,,
,,67094d6215b6d0fe3e8c3e39,6685aa9113c938e83b4f1ea0,671bd47b953b7ef32bfbb1bc,2024-10-25_12h28.58.174,WTP_SM_Choice,2022.2.1,Win32,181.8181818,,,,,,,,,,,,,,,,,,49,,,,,,,,,,0.05,2,0.6883,0,3,3,3,1,go out with friends to a chinese buffet as we do every month,take long hot showers after a solo workout,0.04,0.05,3.3,0,,,,
,,67094d6215b6d0fe3e8c3e39,6685aa9113c938e83b4f1ea0,671bd47b953b7ef32bfbb1bc,2024-10-25_12h28.58.174,WTP_SM_Choice,2022.2.1,Win32,181.8181818,,,,,,,,,,,,,,,,,,50,,,,,,,,,,0.05,1,2.9624,0,4,4,4,1,eat and watch a show,get together with family to celebrate someone's birthday,0.05,0.05,1.1,1,,,,
,,67094d6215b6d0fe3e8c3e39,6685aa9113c938e83b4f1ea0,671bd47b953b7ef32bfbb1bc,2024-10-25_12h28.58.174,WTP_SM_Choice,2022.2.1,Win32,181.8181818,,,,,,,1,,9,1.88,4.12,,0,49,49,49,1,50,Alex,Rej,Participant_Images/67094d6215b6d0fe3e8c3e39/67094d6215b6d0fe3e8c3e39_Images/67094d6215b6d0fe3e8c3e39_Image_12.jpeg,liked,3.195382774,,,,,,,,,,,,,,,,,,,space,1.1514,,
,,67094d6215b6d0fe3e8c3e39,6685aa9113c938e83b4f1ea0,671bd47b953b7ef32bfbb1bc,2024-10-25_12h28.58.174,WTP_SM_Choice,2022.2.1,Win32,181.8181818,,,space,2.7735,space,2.1813,NAN,,NAN,1.88,4.12,,0,50,50,50,1,51,Charlie,Acc,Participant_Images/67094d6215b6d0fe3e8c3e39/67094d6215b6d0fe3e8c3e39_Images/67094d6215b6d0fe3e8c3e39_Image_1.jpeg,liked,1.779333479,,,,,,,,,,,,,,,,,,,,,,
,,67094d6215b6d0fe3e8c3e39,6685aa9113c938e83b4f1ea0,671bd47b953b7ef32bfbb1bc,2024-10-25_12h28.58.174,WTP_SM_Choice,2022.2.1,Win32,181.8181818,,,,,space,1.1763,NAN,,NAN,1.88,4.12,,0,51,51,51,1,52,Charlie,Acc,Participant_Images/67094d6215b6d0fe3e8c3e39/67094d6215b6d0fe3e8c3e39_Images/67094d6215b6d0fe3e8c3e39_Image_8.jpeg,liked,4.312468682,,,,,,,,,,,,,,,,,,,,,,
,,67094d6215b6d0fe3e8c3e39,6685aa9113c938e83b4f1ea0,671bd47b953b7ef32bfbb1bc,2024-10-25_12h28.58.174,WTP_SM_Choice,2022.2.1,Win32,181.8181818,,,,,space,1.1919,NAN,,NAN,1.88,4.12,,0,52,52,52,1,53,Charlie,Acc,Participant_Images/67094d6215b6d0fe3e8c3e39/67094d6215b6d0fe3e8c3e39_Images/67094d6215b6d0fe3e8c3e39_Image_5.jpeg,liked,4.940433059,,,,,,,,,,,,,,,,,,,,,,
,,67094d6215b6d0fe3e8c3e39,6685aa9113c938e83b4f1ea0,671bd47b953b7ef32bfbb1bc,2024-10-25_12h28.58.174,WTP_SM_Choice,2022.2.1,Win32,181.8181818,,,,,space,0.9675,NAN,,NAN,1.88,4.12,,0,53,53,53,1,54,Charlie,Acc,Participant_Images/67094d6215b6d0fe3e8c3e39/67094d6215b6d0fe3e8c3e39_Images/67094d6215b6d0fe3e8c3e39_Image_22.jpeg,liked,2.7105123,,,,,,,,,,,,,,,,,,,,,,
,,67094d6215b6d0fe3e8c3e39,6685aa9113c938e83b4f1ea0,671bd47b953b7ef32bfbb1bc,2024-10-25_12h28.58.174,WTP_SM_Choice,2022.2.1,Win32,181.8181818,,,,,,,,,,,,,,,,,,51,,,,,,space,1.287,space,2.8515,0.01,2,2.963,0,0,0,0,1,have family get together and barbecue,eat cookies and milk,0.01,0.01,1.1,0,,,,
,,67094d6215b6d0fe3e8c3e39,6685aa9113c938e83b4f1ea0,671bd47b953b7ef32bfbb1bc,2024-10-25_12h28.58.174,WTP_SM_Choice,2022.2.1,Win32,181.8181818,,,,,,,,,,,,,,,,,,52,,,,,,,,,,0.02,1,1.4847,0,1,1,1,1,watch football with the boys on sunday,eat and watch a show,0.02,0.01,3.3,0,,,,
,,67094d6215b6d0fe3e8c3e39,6685aa9113c938e83b4f1ea0,671bd47b953b7ef32bfbb1bc,2024-10-25_12h28.58.174,WTP_SM_Choice,2022.2.1,Win32,181.8181818,,,,,,,,,,,,,,,,,,53,,,,,,,,,,0.03,1,1.2599,0,2,2,2,1,play video games while its raining,watch football with the boys on sunday,0.03,0.01,1.1,1,,,,
,,67094d6215b6d0fe3e8c3e39,6685aa9113c938e83b4f1ea0,671bd47b953b7ef32bfbb1bc,2024-10-25_12h28.58.174,WTP_SM_Choice,2022.2.1,Win32,181.8181818,,,,,,,,,,,,,,,,,,54,,,,,,,,,,0.04,1,0.973,0,3,3,3,1,clean my room in peace,get together with family to celebrate someone's birthday,0.04,0.01,4.4,1,,,,
,,67094d6215b6d0fe3e8c3e39,6685aa9113c938e83b4f1ea0,671bd47b953b7ef32bfbb1bc,2024-10-25_12h28.58.174,WTP_SM_Choice,2022.2.1,Win32,181.8181818,,,,,,,,,,,,,,,,,,55,,,,,,,,,,0.05,1,0.8331,0,4,4,4,1,clean my room in peace,go out with friends to a chinese buffet as we do every month,0.05,0.01,1.1,1,,,,
,,67094d6215b6d0fe3e8c3e39,6685aa9113c938e83b4f1ea0,671bd47b953b7ef32bfbb1bc,2024-10-25_12h28.58.174,WTP_SM_Choice,2022.2.1,Win32,181.8181818,,,,,,,NAN,,NAN,2.03,3.97,,0,54,54,54,1,55,Charlie,Acc,Participant_Images/67094d6215b6d0fe3e8c3e39/67094d6215b6d0fe3e8c3e39_Images/67094d6215b6d0fe3e8c3e39_Image_13.jpeg,liked,3.602308302,,,,,,,,,,,,,,,,,,,,,,
,,67094d6215b6d0fe3e8c3e39,6685aa9113c938e83b4f1ea0,671bd47b953b7ef32bfbb1bc,2024-10-25_12h28.58.174,WTP_SM_Choice,2022.2.1,Win32,181.8181818,,,,,space,1.5663,NAN,,NAN,2.03,3.97,,0,55,55,55,1,56,Charlie,Acc,Participant_Images/67094d6215b6d0fe3e8c3e39/67094d6215b6d0fe3e8c3e39_Images/67094d6215b6d0fe3e8c3e39_Image_9.jpeg,did not like,4.106391878,,,,,,,,,,,,,,,,,,,,,,
,,67094d6215b6d0fe3e8c3e39,6685aa9113c938e83b4f1ea0,671bd47b953b7ef32bfbb1bc,2024-10-25_12h28.58.174,WTP_SM_Choice,2022.2.1,Win32,181.8181818,,,,,space,3.4803,NAN,,NAN,2.03,3.97,,0,56,56,56,1,57,Charlie,Acc,Participant_Images/67094d6215b6d0fe3e8c3e39/67094d6215b6d0fe3e8c3e39_Images/67094d6215b6d0fe3e8c3e39_Image_11.jpeg,did not like,3.799433026,,,,,,,,,,,,,,,,,,,,,,
,,67094d6215b6d0fe3e8c3e39,6685aa9113c938e83b4f1ea0,671bd47b953b7ef32bfbb1bc,2024-10-25_12h28.58.174,WTP_SM_Choice,2022.2.1,Win32,181.8181818,,,,,space,2.5937,NAN,,NAN,2.03,3.97,,0,57,57,57,1,58,Charlie,Acc,Participant_Images/67094d6215b6d0fe3e8c3e39/67094d6215b6d0fe3e8c3e39_Images/67094d6215b6d0fe3e8c3e39_Image_20.jpeg,liked,5.246980764,,,,,,,,,,,,,,,,,,,,,,
,,67094d6215b6d0fe3e8c3e39,6685aa9113c938e83b4f1ea0,671bd47b953b7ef32bfbb1bc,2024-10-25_12h28.58.174,WTP_SM_Choice,2022.2.1,Win32,181.8181818,,,,,space,5.294,NAN,,NAN,2.03,3.97,,0,58,58,58,1,59,Charlie,Acc,Participant_Images/67094d6215b6d0fe3e8c3e39/67094d6215b6d0fe3e8c3e39_Images/67094d6215b6d0fe3e8c3e39_Image_2.jpeg,liked,3.30081769,,,,,,,,,,,,,,,,,,,,,,
,,67094d6215b6d0fe3e8c3e39,6685aa9113c938e83b4f1ea0,671bd47b953b7ef32bfbb1bc,2024-10-25_12h28.58.174,WTP_SM_Choice,2022.2.1,Win32,181.8181818,,,,,,,,,,,,,,,,,,56,,,,,,space,1.3619,space,0.3922,0.02,2,1.4357,0,0,0,0,1,go out with my friends to the movies,clean my room in peace,0.01,0.02,8.8,0,,,,
,,67094d6215b6d0fe3e8c3e39,6685aa9113c938e83b4f1ea0,671bd47b953b7ef32bfbb1bc,2024-10-25_12h28.58.174,WTP_SM_Choice,2022.2.1,Win32,181.8181818,,,,,,,,,,,,,,,,,,57,,,,,,,,,,0.02,1,2.6008,0,1,1,1,1,play clash of clans before bed,get together with family to celebrate someone's birthday,0.02,0.02,4.4,1,,,,
,,67094d6215b6d0fe3e8c3e39,6685aa9113c938e83b4f1ea0,671bd47b953b7ef32bfbb1bc,2024-10-25_12h28.58.174,WTP_SM_Choice,2022.2.1,Win32,181.8181818,,,,,,,,,,,,,,,,,,58,,,,,,,,,,0.03,1,1.4383,0,2,2,2,1,get together with family to celebrate someone's birthday,eat cookies and milk,0.03,0.02,4.4,0,,,,
,,67094d6215b6d0fe3e8c3e39,6685aa9113c938e83b4f1ea0,671bd47b953b7ef32bfbb1bc,2024-10-25_12h28.58.174,WTP_SM_Choice,2022.2.1,Win32,181.8181818,,,,,,,,,,,,,,,,,,59,,,,,,,,,,0.04,1,1.5893,0,3,3,3,1,clean my room in peace,go out with siblings to do fun activities etc,0.04,0.02,4.4,1,,,,
,,67094d6215b6d0fe3e8c3e39,6685aa9113c938e83b4f1ea0,671bd47b953b7ef32bfbb1bc,2024-10-25_12h28.58.174,WTP_SM_Choice,2022.2.1,Win32,181.8181818,,,,,,,,,,,,,,,,,,60,,,,,,,,,,0.05,1,1.671,0,4,4,4,1,read the news before bed,watch movies with family on movie night,0.05,0.02,1.1,1,,,,
,,67094d6215b6d0fe3e8c3e39,6685aa9113c938e83b4f1ea0,671bd47b953b7ef32bfbb1bc,2024-10-25_12h28.58.174,WTP_SM_Choice,2022.2.1,Win32,181.8181818,,,,,,,NAN,,NAN,2.19,3.81,,0,59,59,59,1,60,Charlie,Acc,Participant_Images/67094d6215b6d0fe3e8c3e39/67094d6215b6d0fe3e8c3e39_Images/67094d6215b6d0fe3e8c3e39_Image_4.jpeg,liked,1.661473164,,,,,,,,,,,,,,,,,,,,,,
,,67094d6215b6d0fe3e8c3e39,6685aa9113c938e83b4f1ea0,671bd47b953b7ef32bfbb1bc,2024-10-25_12h28.58.174,WTP_SM_Choice,2022.2.1,Win32,181.8181818,,,,,space,4.3107,NAN,,NAN,2.19,3.81,,0,60,60,60,1,61,Charlie,Acc,Participant_Images/67094d6215b6d0fe3e8c3e39/67094d6215b6d0fe3e8c3e39_Images/67094d6215b6d0fe3e8c3e39_Image_19.jpeg,liked,3.613205605,,,,,,,,,,,,,,,,,,,,,,
,,67094d6215b6d0fe3e8c3e39,6685aa9113c938e83b4f1ea0,671bd47b953b7ef32bfbb1bc,2024-10-25_12h28.58.174,WTP_SM_Choice,2022.2.1,Win32,181.8181818,,,,,space,4.9674,NAN,,NAN,2.19,3.81,,0,61,61,61,1,62,Charlie,Acc,Participant_Images/67094d6215b6d0fe3e8c3e39/67094d6215b6d0fe3e8c3e39_Images/67094d6215b6d0fe3e8c3e39_Image_25.jpeg,liked,4.988446431,,,,,,,,,,,,,,,,,,,,,,
,,67094d6215b6d0fe3e8c3e39,6685aa9113c938e83b4f1ea0,671bd47b953b7ef32bfbb1bc,2024-10-25_12h28.58.174,WTP_SM_Choice,2022.2.1,Win32,181.8181818,,,,,space,0.4975,NAN,,NAN,2.19,3.81,,0,62,62,62,1,63,Charlie,Acc,Participant_Images/67094d6215b6d0fe3e8c3e39/67094d6215b6d0fe3e8c3e39_Images/67094d6215b6d0fe3e8c3e39_Image_15.jpeg,did not like,3.470791822,,,,,,,,,,,,,,,,,,,,,,
,,67094d6215b6d0fe3e8c3e39,6685aa9113c938e83b4f1ea0,671bd47b953b7ef32bfbb1bc,2024-10-25_12h28.58.174,WTP_SM_Choice,2022.2.1,Win32,181.8181818,,,,,space,0.5959,NAN,,NAN,2.19,3.81,,0,63,63,63,1,64,Charlie,Acc,Participant_Images/67094d6215b6d0fe3e8c3e39/67094d6215b6d0fe3e8c3e39_Images/67094d6215b6d0fe3e8c3e39_Image_23.jpeg,liked,3.820572462,,,,,,,,,,,,,,,,,,,,,,
,,67094d6215b6d0fe3e8c3e39,6685aa9113c938e83b4f1ea0,671bd47b953b7ef32bfbb1bc,2024-10-25_12h28.58.174,WTP_SM_Choice,2022.2.1,Win32,181.8181818,,,,,,,,,,,,,,,,,,61,,,,,,space,1.4233,space,0.6235,0.03,2,1.6007,0,0,0,0,1,go for a late night swim,watch soccer with my dads side of family,0.01,0.03,3.3,1,,,,
,,67094d6215b6d0fe3e8c3e39,6685aa9113c938e83b4f1ea0,671bd47b953b7ef32bfbb1bc,2024-10-25_12h28.58.174,WTP_SM_Choice,2022.2.1,Win32,181.8181818,,,,,,,,,,,,,,,,,,62,,,,,,,,,,0.03,2,1.1037,0,1,1,1,1,have family get together and barbecue,play video games while its raining,0.02,0.03,3.3,0,,,,
,,67094d6215b6d0fe3e8c3e39,6685aa9113c938e83b4f1ea0,671bd47b953b7ef32bfbb1bc,2024-10-25_12h28.58.174,WTP_SM_Choice,2022.2.1,Win32,181.8181818,,,,,,,,,,,,,,,,,,63,,,,,,,,,,0.03,2,2.7402,0,2,2,2,1,go out with friends to a chinese buffet as we do every month,study with the fan on for background noise,0.03,0.03,3.3,0,,,,
,,67094d6215b6d0fe3e8c3e39,6685aa9113c938e83b4f1ea0,671bd47b953b7ef32bfbb1bc,2024-10-25_12h28.58.174,WTP_SM_Choice,2022.2.1,Win32,181.8181818,,,,,,,,,,,,,,,,,,64,,,,,,,,,,0.04,1,0.9958,0,3,3,3,1,study with the fan on for background noise,go out with my friends to the movies,0.04,0.03,1.1,1,,,,
,,67094d6215b6d0fe3e8c3e39,6685aa9113c938e83b4f1ea0,671bd47b953b7ef32bfbb1bc,2024-10-25_12h28.58.174,WTP_SM_Choice,2022.2.1,Win32,181.8181818,,,,,,,,,,,,,,,,,,65,,,,,,,,,,0.05,1,0.9562,0,4,4,4,1,eat and watch a show,watch soccer with my dads side of family,0.05,0.03,1.1,1,,,,
,,67094d6215b6d0fe3e8c3e39,6685aa9113c938e83b4f1ea0,671bd47b953b7ef32bfbb1bc,2024-10-25_12h28.58.174,WTP_SM_Choice,2022.2.1,Win32,181.8181818,,,,,,,NAN,,NAN,2.37,3.63,,0,64,64,64,1,65,Charlie,Acc,Participant_Images/67094d6215b6d0fe3e8c3e39/67094d6215b6d0fe3e8c3e39_Images/67094d6215b6d0fe3e8c3e39_Image_18.jpeg,liked,2.455989137,,,,,,,,,,,,,,,,,,,,,,
,,67094d6215b6d0fe3e8c3e39,6685aa9113c938e83b4f1ea0,671bd47b953b7ef32bfbb1bc,2024-10-25_12h28.58.174,WTP_SM_Choice,2022.2.1,Win32,181.8181818,,,,,space,0.6294,NAN,,NAN,2.37,3.63,,0,65,65,65,1,66,Charlie,Acc,Participant_Images/67094d6215b6d0fe3e8c3e39/67094d6215b6d0fe3e8c3e39_Images/67094d6215b6d0fe3e8c3e39_Image_3.jpeg,liked,3.79605092,,,,,,,,,,,,,,,,,,,,,,
,,67094d6215b6d0fe3e8c3e39,6685aa9113c938e83b4f1ea0,671bd47b953b7ef32bfbb1bc,2024-10-25_12h28.58.174,WTP_SM_Choice,2022.2.1,Win32,181.8181818,,,,,space,0.398,NAN,,NAN,2.37,3.63,,0,66,66,66,1,67,Charlie,Acc,Participant_Images/67094d6215b6d0fe3e8c3e39/67094d6215b6d0fe3e8c3e39_Images/67094d6215b6d0fe3e8c3e39_Image_14.jpeg,did not like,3.562416326,,,,,,,,,,,,,,,,,,,,,,
,,67094d6215b6d0fe3e8c3e39,6685aa9113c938e83b4f1ea0,671bd47b953b7ef32bfbb1bc,2024-10-25_12h28.58.174,WTP_SM_Choice,2022.2.1,Win32,181.8181818,,,,,space,1.7443,NAN,,NAN,2.37,3.63,,0,67,67,67,1,68,Charlie,Acc,Participant_Images/67094d6215b6d0fe3e8c3e39/67094d6215b6d0fe3e8c3e39_Images/67094d6215b6d0fe3e8c3e39_Image_12.jpeg,did not like,2.843822497,,,,,,,,,,,,,,,,,,,,,,
,,67094d6215b6d0fe3e8c3e39,6685aa9113c938e83b4f1ea0,671bd47b953b7ef32bfbb1bc,2024-10-25_12h28.58.174,WTP_SM_Choice,2022.2.1,Win32,181.8181818,,,,,space,0.9259,NAN,,NAN,2.37,3.63,,0,68,68,68,1,69,Charlie,Acc,Participant_Images/67094d6215b6d0fe3e8c3e39/67094d6215b6d0fe3e8c3e39_Images/67094d6215b6d0fe3e8c3e39_Image_6.jpeg,liked,3.546495948,,,,,,,,,,,,,,,,,,,,,,
,,67094d6215b6d0fe3e8c3e39,6685aa9113c938e83b4f1ea0,671bd47b953b7ef32bfbb1bc,2024-10-25_12h28.58.174,WTP_SM_Choice,2022.2.1,Win32,181.8181818,,,,,,,,,,,,,,,,,,66,,,,,,space,8.2173,space,1.2281,0.04,2,1.0171,0,0,0,0,1,go out with my friends to meet and greet car meets,drive around late at night,0.01,0.04,1.1,0,,,,
,,67094d6215b6d0fe3e8c3e39,6685aa9113c938e83b4f1ea0,671bd47b953b7ef32bfbb1bc,2024-10-25_12h28.58.174,WTP_SM_Choice,2022.2.1,Win32,181.8181818,,,,,,,,,,,,,,,,,,67,,,,,,,,,,0.04,2,1.2056,0,1,1,1,1,have family get together and barbecue,eat and watch a show,0.02,0.04,8.8,0,,,,
,,67094d6215b6d0fe3e8c3e39,6685aa9113c938e83b4f1ea0,671bd47b953b7ef32bfbb1bc,2024-10-25_12h28.58.174,WTP_SM_Choice,2022.2.1,Win32,181.8181818,,,,,,,,,,,,,,,,,,68,,,,,,,,,,0.04,2,1.2428,0,2,2,2,1,play clash of clans before bed,watch soccer with my dads side of family,0.03,0.04,4.4,1,,,,
,,67094d6215b6d0fe3e8c3e39,6685aa9113c938e83b4f1ea0,671bd47b953b7ef32bfbb1bc,2024-10-25_12h28.58.174,WTP_SM_Choice,2022.2.1,Win32,181.8181818,,,,,,,,,,,,,,,,,,69,,,,,,,,,,0.04,2,2.2328,0,3,3,3,1,go out with friends to a chinese buffet as we do every month,drive around late at night,0.04,0.04,1.1,0,,,,
,,67094d6215b6d0fe3e8c3e39,6685aa9113c938e83b4f1ea0,671bd47b953b7ef32bfbb1bc,2024-10-25_12h28.58.174,WTP_SM_Choice,2022.2.1,Win32,181.8181818,,,,,,,,,,,,,,,,,,70,,,,,,,,,,0.05,1,0.9835,0,4,4,4,1,take long hot showers after a solo workout,go out with siblings to do fun activities etc,0.05,0.04,1.1,1,,,,
,,67094d6215b6d0fe3e8c3e39,6685aa9113c938e83b4f1ea0,671bd47b953b7ef32bfbb1bc,2024-10-25_12h28.58.174,WTP_SM_Choice,2022.2.1,Win32,181.8181818,,,,,,,NAN,,NAN,2.58,3.42,,0,69,69,69,1,70,Charlie,Acc,Participant_Images/67094d6215b6d0fe3e8c3e39/67094d6215b6d0fe3e8c3e39_Images/67094d6215b6d0fe3e8c3e39_Image_17.jpeg,liked,1.672012706,,,,,,,,,,,,,,,,,,,,,,
,,67094d6215b6d0fe3e8c3e39,6685aa9113c938e83b4f1ea0,671bd47b953b7ef32bfbb1bc,2024-10-25_12h28.58.174,WTP_SM_Choice,2022.2.1,Win32,181.8181818,,,,,space,1.6573,NAN,,NAN,2.58,3.42,,0,70,70,70,1,71,Charlie,Acc,Participant_Images/67094d6215b6d0fe3e8c3e39/67094d6215b6d0fe3e8c3e39_Images/67094d6215b6d0fe3e8c3e39_Image_10.jpeg,liked,4.942172136,,,,,,,,,,,,,,,,,,,,,,
,,67094d6215b6d0fe3e8c3e39,6685aa9113c938e83b4f1ea0,671bd47b953b7ef32bfbb1bc,2024-10-25_12h28.58.174,WTP_SM_Choice,2022.2.1,Win32,181.8181818,,,,,space,1.5733,NAN,,NAN,2.58,3.42,,0,71,71,71,1,72,Charlie,Acc,Participant_Images/67094d6215b6d0fe3e8c3e39/67094d6215b6d0fe3e8c3e39_Images/67094d6215b6d0fe3e8c3e39_Image_7.jpeg,did not like,2.50187214,,,,,,,,,,,,,,,,,,,,,,
,,67094d6215b6d0fe3e8c3e39,6685aa9113c938e83b4f1ea0,671bd47b953b7ef32bfbb1bc,2024-10-25_12h28.58.174,WTP_SM_Choice,2022.2.1,Win32,181.8181818,,,,,space,1.9079,NAN,,NAN,2.58,3.42,,0,72,72,72,1,73,Charlie,Acc,Participant_Images/67094d6215b6d0fe3e8c3e39/67094d6215b6d0fe3e8c3e39_Images/67094d6215b6d0fe3e8c3e39_Image_21.jpeg,liked,2.071164779,,,,,,,,,,,,,,,,,,,,,,
,,67094d6215b6d0fe3e8c3e39,6685aa9113c938e83b4f1ea0,671bd47b953b7ef32bfbb1bc,2024-10-25_12h28.58.174,WTP_SM_Choice,2022.2.1,Win32,181.8181818,,,,,space,4.7555,NAN,,NAN,2.58,3.42,,0,73,73,73,1,74,Charlie,Acc,Participant_Images/67094d6215b6d0fe3e8c3e39/67094d6215b6d0fe3e8c3e39_Images/67094d6215b6d0fe3e8c3e39_Image_16.jpeg,did not like,5.336503566,,,,,,,,,,,,,,,,,,,,,,
,,67094d6215b6d0fe3e8c3e39,6685aa9113c938e83b4f1ea0,671bd47b953b7ef32bfbb1bc,2024-10-25_12h28.58.174,WTP_SM_Choice,2022.2.1,Win32,181.8181818,,,,,,,,,,,,,,,,,,71,,,,,,space,3.3293,space,1.0284,0.05,2,1.2196,0,0,0,0,1,go for a late night swim,go out with my friends to meet and greet car meets,0.01,0.05,3.3,1,,,,
,,67094d6215b6d0fe3e8c3e39,6685aa9113c938e83b4f1ea0,671bd47b953b7ef32bfbb1bc,2024-10-25_12h28.58.174,WTP_SM_Choice,2022.2.1,Win32,181.8181818,,,,,,,,,,,,,,,,,,72,,,,,,,,,,0.05,2,1.0882,0,1,1,1,1,read the news before bed,go out to the gym with my friends,0.02,0.05,8.8,1,,,,
,,67094d6215b6d0fe3e8c3e39,6685aa9113c938e83b4f1ea0,671bd47b953b7ef32bfbb1bc,2024-10-25_12h28.58.174,WTP_SM_Choice,2022.2.1,Win32,181.8181818,,,,,,,,,,,,,,,,,,73,,,,,,,,,,0.05,2,1.652,0,2,2,2,1,take long hot showers after a solo workout,go out with my friends to the movies,0.03,0.05,3.3,1,,,,
,,67094d6215b6d0fe3e8c3e39,6685aa9113c938e83b4f1ea0,671bd47b953b7ef32bfbb1bc,2024-10-25_12h28.58.174,WTP_SM_Choice,2022.2.1,Win32,181.8181818,,,,,,,,,,,,,,,,,,74,,,,,,,,,,0.05,2,2.0643,0,3,3,3,1,go out to the gym with my friends,play clash of clans before bed,0.04,0.05,4.4,0,,,,
,,67094d6215b6d0fe3e8c3e39,6685aa9113c938e83b4f1ea0,671bd47b953b7ef32bfbb1bc,2024-10-25_12h28.58.174,WTP_SM_Choice,2022.2.1,Win32,181.8181818,,,,,,,,,,,,,,,,,,75,,,,,,,,,,0.05,2,3.2703,0,4,4,4,1,watch soccer with my dads side of family,take long hot showers after a solo workout,0.05,0.05,3.3,0,,,,
,,67094d6215b6d0fe3e8c3e39,6685aa9113c938e83b4f1ea0,671bd47b953b7ef32bfbb1bc,2024-10-25_12h28.58.174,WTP_SM_Choice,2022.2.1,Win32,181.8181818,,,,,,,5,,9,2.83,3.17,,0,74,74,74,1,75,Charlie,Acc,Participant_Images/67094d6215b6d0fe3e8c3e39/67094d6215b6d0fe3e8c3e39_Images/67094d6215b6d0fe3e8c3e39_Image_24.jpeg,liked,2.642157193,,,,,,,,,,,,,,,,,,,space,0.9713,,
,,67094d6215b6d0fe3e8c3e39,6685aa9113c938e83b4f1ea0,671bd47b953b7ef32bfbb1bc,2024-10-25_12h28.58.174,WTP_SM_Choice,2022.2.1,Win32,181.8181818,,,space,3.2923,space,0.898,NAN,,NAN,2.83,3.17,,0,75,75,75,1,76,Sam,Rej,Participant_Images/67094d6215b6d0fe3e8c3e39/67094d6215b6d0fe3e8c3e39_Images/67094d6215b6d0fe3e8c3e39_Image_12.jpeg,did not like,4.456234322,,,,,,,,,,,,,,,,,,,,,,
,,67094d6215b6d0fe3e8c3e39,6685aa9113c938e83b4f1ea0,671bd47b953b7ef32bfbb1bc,2024-10-25_12h28.58.174,WTP_SM_Choice,2022.2.1,Win32,181.8181818,,,,,space,0.8405,NAN,,NAN,2.83,3.17,,0,76,76,76,1,77,Sam,Rej,Participant_Images/67094d6215b6d0fe3e8c3e39/67094d6215b6d0fe3e8c3e39_Images/67094d6215b6d0fe3e8c3e39_Image_13.jpeg,did not like,4.438512181,,,,,,,,,,,,,,,,,,,,,,
,,67094d6215b6d0fe3e8c3e39,6685aa9113c938e83b4f1ea0,671bd47b953b7ef32bfbb1bc,2024-10-25_12h28.58.174,WTP_SM_Choice,2022.2.1,Win32,181.8181818,,,,,space,3.1029,NAN,,NAN,2.83,3.17,,0,77,77,77,1,78,Sam,Rej,Participant_Images/67094d6215b6d0fe3e8c3e39/67094d6215b6d0fe3e8c3e39_Images/67094d6215b6d0fe3e8c3e39_Image_1.jpeg,did not like,2.682944783,,,,,,,,,,,,,,,,,,,,,,
,,67094d6215b6d0fe3e8c3e39,6685aa9113c938e83b4f1ea0,671bd47b953b7ef32bfbb1bc,2024-10-25_12h28.58.174,WTP_SM_Choice,2022.2.1,Win32,181.8181818,,,,,space,2.5224,NAN,,NAN,2.83,3.17,,0,78,78,78,1,79,Sam,Rej,Participant_Images/67094d6215b6d0fe3e8c3e39/67094d6215b6d0fe3e8c3e39_Images/67094d6215b6d0fe3e8c3e39_Image_10.jpeg,did not like,4.51984296,,,,,,,,,,,,,,,,,,,,,,
,,67094d6215b6d0fe3e8c3e39,6685aa9113c938e83b4f1ea0,671bd47b953b7ef32bfbb1bc,2024-10-25_12h28.58.174,WTP_SM_Choice,2022.2.1,Win32,181.8181818,,,,,,,,,,,,,,,,,,76,,,,,,space,3.1113,space,0.6907,0.01,1,2.5934,0,0,0,0,1,clean my room in peace,watch soccer with my dads side of family,0.01,0.01,1.1,1,,,,
,,67094d6215b6d0fe3e8c3e39,6685aa9113c938e83b4f1ea0,671bd47b953b7ef32bfbb1bc,2024-10-25_12h28.58.174,WTP_SM_Choice,2022.2.1,Win32,181.8181818,,,,,,,,,,,,,,,,,,77,,,,,,,,,,0.02,1,1.0544,0,1,1,1,1,read the news before bed,watch football with the boys on sunday,0.02,0.01,8.8,1,,,,
,,67094d6215b6d0fe3e8c3e39,6685aa9113c938e83b4f1ea0,671bd47b953b7ef32bfbb1bc,2024-10-25_12h28.58.174,WTP_SM_Choice,2022.2.1,Win32,181.8181818,,,,,,,,,,,,,,,,,,78,,,,,,,,,,0.03,1,1.0537,0,2,2,2,1,watch soccer with my dads side of family,read the news before bed,0.03,0.01,1.1,0,,,,
,,67094d6215b6d0fe3e8c3e39,6685aa9113c938e83b4f1ea0,671bd47b953b7ef32bfbb1bc,2024-10-25_12h28.58.174,WTP_SM_Choice,2022.2.1,Win32,181.8181818,,,,,,,,,,,,,,,,,,79,,,,,,,,,,0.04,1,0.9624,0,3,3,3,1,go out to the gym with my friends,take long hot showers after a solo workout,0.04,0.01,1.1,0,,,,
,,67094d6215b6d0fe3e8c3e39,6685aa9113c938e83b4f1ea0,671bd47b953b7ef32bfbb1bc,2024-10-25_12h28.58.174,WTP_SM_Choice,2022.2.1,Win32,181.8181818,,,,,,,,,,,,,,,,,,80,,,,,,,,,,0.05,1,0.8571,0,4,4,4,1,drive around late at night,go out with siblings to do fun activities etc,0.05,0.01,4.4,1,,,,
,,67094d6215b6d0fe3e8c3e39,6685aa9113c938e83b4f1ea0,671bd47b953b7ef32bfbb1bc,2024-10-25_12h28.58.174,WTP_SM_Choice,2022.2.1,Win32,181.8181818,,,,,,,NAN,,NAN,2.98,3.02,,0,79,79,79,1,80,Sam,Rej,Participant_Images/67094d6215b6d0fe3e8c3e39/67094d6215b6d0fe3e8c3e39_Images/67094d6215b6d0fe3e8c3e39_Image_5.jpeg,liked,3.195382774,,,,,,,,,,,,,,,,,,,,,,
,,67094d6215b6d0fe3e8c3e39,6685aa9113c938e83b4f1ea0,671bd47b953b7ef32bfbb1bc,2024-10-25_12h28.58.174,WTP_SM_Choice,2022.2.1,Win32,181.8181818,,,,,space,2.6823,NAN,,NAN,2.98,3.02,,0,80,80,80,1,81,Sam,Rej,Participant_Images/67094d6215b6d0fe3e8c3e39/67094d6215b6d0fe3e8c3e39_Images/67094d6215b6d0fe3e8c3e39_Image_11.jpeg,did not like,1.779333479,,,,,,,,,,,,,,,,,,,,,,
,,67094d6215b6d0fe3e8c3e39,6685aa9113c938e83b4f1ea0,671bd47b953b7ef32bfbb1bc,2024-10-25_12h28.58.174,WTP_SM_Choice,2022.2.1,Win32,181.8181818,,,,,space,9.056,NAN,,NAN,2.98,3.02,,0,81,81,81,1,82,Sam,Rej,Participant_Images/67094d6215b6d0fe3e8c3e39/67094d6215b6d0fe3e8c3e39_Images/67094d6215b6d0fe3e8c3e39_Image_17.jpeg,did not like,4.312468682,,,,,,,,,,,,,,,,,,,,,,
,,67094d6215b6d0fe3e8c3e39,6685aa9113c938e83b4f1ea0,671bd47b953b7ef32bfbb1bc,2024-10-25_12h28.58.174,WTP_SM_Choice,2022.2.1,Win32,181.8181818,,,,,space,3.1931,NAN,,NAN,2.98,3.02,,0,82,82,82,1,83,Sam,Rej,Participant_Images/67094d6215b6d0fe3e8c3e39/67094d6215b6d0fe3e8c3e39_Images/67094d6215b6d0fe3e8c3e39_Image_21.jpeg,did not like,4.940433059,,,,,,,,,,,,,,,,,,,,,,
,,67094d6215b6d0fe3e8c3e39,6685aa9113c938e83b4f1ea0,671bd47b953b7ef32bfbb1bc,2024-10-25_12h28.58.174,WTP_SM_Choice,2022.2.1,Win32,181.8181818,,,,,space,0.8593,NAN,,NAN,2.98,3.02,,0,83,83,83,1,84,Sam,Rej,Participant_Images/67094d6215b6d0fe3e8c3e39/67094d6215b6d0fe3e8c3e39_Images/67094d6215b6d0fe3e8c3e39_Image_25.jpeg,liked,2.7105123,,,,,,,,,,,,,,,,,,,,,,
,,67094d6215b6d0fe3e8c3e39,6685aa9113c938e83b4f1ea0,671bd47b953b7ef32bfbb1bc,2024-10-25_12h28.58.174,WTP_SM_Choice,2022.2.1,Win32,181.8181818,,,,,,,,,,,,,,,,,,81,,,,,,space,0.7322,space,0.4001,0.02,2,0.975,0,0,0,0,1,go out with my friends to meet and greet car meets,eat and watch a show,0.01,0.02,3.3,0,,,,
,,67094d6215b6d0fe3e8c3e39,6685aa9113c938e83b4f1ea0,671bd47b953b7ef32bfbb1bc,2024-10-25_12h28.58.174,WTP_SM_Choice,2022.2.1,Win32,181.8181818,,,,,,,,,,,,,,,,,,82,,,,,,,,,,0.02,2,1.8576,0,1,1,1,1,go out with my friends to meet and greet car meets,play clash of clans before bed,0.02,0.02,4.4,0,,,,
,,67094d6215b6d0fe3e8c3e39,6685aa9113c938e83b4f1ea0,671bd47b953b7ef32bfbb1bc,2024-10-25_12h28.58.174,WTP_SM_Choice,2022.2.1,Win32,181.8181818,,,,,,,,,,,,,,,,,,83,,,,,,,,,,0.03,1,0.9168,0,2,2,2,1,read the news before bed,get together with family to celebrate someone's birthday,0.03,0.02,1.1,1,,,,
,,67094d6215b6d0fe3e8c3e39,6685aa9113c938e83b4f1ea0,671bd47b953b7ef32bfbb1bc,2024-10-25_12h28.58.174,WTP_SM_Choice,2022.2.1,Win32,181.8181818,,,,,,,,,,,,,,,,,,84,,,,,,,,,,0.04,1,0.817,0,3,3,3,1,go out with my friends to meet and greet car meets,play video games while its raining,0.04,0.02,3.3,0,,,,
,,67094d6215b6d0fe3e8c3e39,6685aa9113c938e83b4f1ea0,671bd47b953b7ef32bfbb1bc,2024-10-25_12h28.58.174,WTP_SM_Choice,2022.2.1,Win32,181.8181818,,,,,,,,,,,,,,,,,,85,,,,,,,,,,0.05,1,0.7592,0,4,4,4,1,go for a late night swim,go out with my friends to the movies,0.05,0.02,3.3,1,,,,
,,67094d6215b6d0fe3e8c3e39,6685aa9113c938e83b4f1ea0,671bd47b953b7ef32bfbb1bc,2024-10-25_12h28.58.174,WTP_SM_Choice,2022.2.1,Win32,181.8181818,,,,,,,NAN,,NAN,3.14,2.86,,0,84,84,84,1,85,Sam,Rej,Participant_Images/67094d6215b6d0fe3e8c3e39/67094d6215b6d0fe3e8c3e39_Images/67094d6215b6d0fe3e8c3e39_Image_24.jpeg,did not like,3.602308302,,,,,,,,,,,,,,,,,,,,,,
,,67094d6215b6d0fe3e8c3e39,6685aa9113c938e83b4f1ea0,671bd47b953b7ef32bfbb1bc,2024-10-25_12h28.58.174,WTP_SM_Choice,2022.2.1,Win32,181.8181818,,,,,space,0.771,NAN,,NAN,3.14,2.86,,0,85,85,85,1,86,Sam,Rej,Participant_Images/67094d6215b6d0fe3e8c3e39/67094d6215b6d0fe3e8c3e39_Images/67094d6215b6d0fe3e8c3e39_Image_19.jpeg,liked,4.106391878,,,,,,,,,,,,,,,,,,,,,,
,,67094d6215b6d0fe3e8c3e39,6685aa9113c938e83b4f1ea0,671bd47b953b7ef32bfbb1bc,2024-10-25_12h28.58.174,WTP_SM_Choice,2022.2.1,Win32,181.8181818,,,,,space,0.8157,NAN,,NAN,3.14,2.86,,0,86,86,86,1,87,Sam,Rej,Participant_Images/67094d6215b6d0fe3e8c3e39/67094d6215b6d0fe3e8c3e39_Images/67094d6215b6d0fe3e8c3e39_Image_14.jpeg,liked,3.799433026,,,,,,,,,,,,,,,,,,,,,,
,,67094d6215b6d0fe3e8c3e39,6685aa9113c938e83b4f1ea0,671bd47b953b7ef32bfbb1bc,2024-10-25_12h28.58.174,WTP_SM_Choice,2022.2.1,Win32,181.8181818,,,,,space,4.9129,NAN,,NAN,3.14,2.86,,0,87,87,87,1,88,Sam,Rej,Participant_Images/67094d6215b6d0fe3e8c3e39/67094d6215b6d0fe3e8c3e39_Images/67094d6215b6d0fe3e8c3e39_Image_3.jpeg,did not like,5.246980764,,,,,,,,,,,,,,,,,,,,,,
,,67094d6215b6d0fe3e8c3e39,6685aa9113c938e83b4f1ea0,671bd47b953b7ef32bfbb1bc,2024-10-25_12h28.58.174,WTP_SM_Choice,2022.2.1,Win32,181.8181818,,,,,space,0.7629,NAN,,NAN,3.14,2.86,,0,88,88,88,1,89,Sam,Rej,Participant_Images/67094d6215b6d0fe3e8c3e39/67094d6215b6d0fe3e8c3e39_Images/67094d6215b6d0fe3e8c3e39_Image_4.jpeg,did not like,3.30081769,,,,,,,,,,,,,,,,,,,,,,
,,67094d6215b6d0fe3e8c3e39,6685aa9113c938e83b4f1ea0,671bd47b953b7ef32bfbb1bc,2024-10-25_12h28.58.174,WTP_SM_Choice,2022.2.1,Win32,181.8181818,,,,,,,,,,,,,,,,,,86,,,,,,space,0.4633,space,0.3595,0.03,2,1.0928,0,0,0,0,1,go out to the gym with my friends,go for a late night swim,0.01,0.03,1.1,0,,,,
,,67094d6215b6d0fe3e8c3e39,6685aa9113c938e83b4f1ea0,671bd47b953b7ef32bfbb1bc,2024-10-25_12h28.58.174,WTP_SM_Choice,2022.2.1,Win32,181.8181818,,,,,,,,,,,,,,,,,,87,,,,,,,,,,0.03,2,1.2402,0,1,1,1,1,go out with my friends to the movies,drive around late at night,0.02,0.03,4.4,0,,,,
,,67094d6215b6d0fe3e8c3e39,6685aa9113c938e83b4f1ea0,671bd47b953b7ef32bfbb1bc,2024-10-25_12h28.58.174,WTP_SM_Choice,2022.2.1,Win32,181.8181818,,,,,,,,,,,,,,,,,,88,,,,,,,,,,0.03,1,2.0051,0,2,2,2,1,eat cookies and milk,go out to the gym with my friends,0.03,0.03,1.1,1,,,,
,,67094d6215b6d0fe3e8c3e39,6685aa9113c938e83b4f1ea0,671bd47b953b7ef32bfbb1bc,2024-10-25_12h28.58.174,WTP_SM_Choice,2022.2.1,Win32,181.8181818,,,,,,,,,,,,,,,,,,89,,,,,,,,,,0.04,1,1.0933,0,3,3,3,1,take long hot showers after a solo workout,have family get together and barbecue,0.04,0.03,3.3,1,,,,
,,67094d6215b6d0fe3e8c3e39,6685aa9113c938e83b4f1ea0,671bd47b953b7ef32bfbb1bc,2024-10-25_12h28.58.174,WTP_SM_Choice,2022.2.1,Win32,181.8181818,,,,,,,,,,,,,,,,,,90,,,,,,,,,,0.05,1,0.948,0,4,4,4,1,clean my room in peace,go out to the gym with my friends,0.05,0.03,8.8,1,,,,
,,67094d6215b6d0fe3e8c3e39,6685aa9113c938e83b4f1ea0,671bd47b953b7ef32bfbb1bc,2024-10-25_12h28.58.174,WTP_SM_Choice,2022.2.1,Win32,181.8181818,,,,,,,NAN,,NAN,3.32,2.68,,0,89,89,89,1,90,Sam,Rej,Participant_Images/67094d6215b6d0fe3e8c3e39/67094d6215b6d0fe3e8c3e39_Images/67094d6215b6d0fe3e8c3e39_Image_20.jpeg,did not like,1.661473164,,,,,,,,,,,,,,,,,,,,,,
,,67094d6215b6d0fe3e8c3e39,6685aa9113c938e83b4f1ea0,671bd47b953b7ef32bfbb1bc,2024-10-25_12h28.58.174,WTP_SM_Choice,2022.2.1,Win32,181.8181818,,,,,space,0.9874,NAN,,NAN,3.32,2.68,,0,90,90,90,1,91,Sam,Rej,Participant_Images/67094d6215b6d0fe3e8c3e39/67094d6215b6d0fe3e8c3e39_Images/67094d6215b6d0fe3e8c3e39_Image_15.jpeg,did not like,3.613205605,,,,,,,,,,,,,,,,,,,,,,
,,67094d6215b6d0fe3e8c3e39,6685aa9113c938e83b4f1ea0,671bd47b953b7ef32bfbb1bc,2024-10-25_12h28.58.174,WTP_SM_Choice,2022.2.1,Win32,181.8181818,,,,,space,0.5235,NAN,,NAN,3.32,2.68,,0,91,91,91,1,92,Sam,Rej,Participant_Images/67094d6215b6d0fe3e8c3e39/67094d6215b6d0fe3e8c3e39_Images/67094d6215b6d0fe3e8c3e39_Image_6.jpeg,did not like,4.988446431,,,,,,,,,,,,,,,,,,,,,,
,,67094d6215b6d0fe3e8c3e39,6685aa9113c938e83b4f1ea0,671bd47b953b7ef32bfbb1bc,2024-10-25_12h28.58.174,WTP_SM_Choice,2022.2.1,Win32,181.8181818,,,,,space,0.5158,NAN,,NAN,3.32,2.68,,0,92,92,92,1,93,Sam,Rej,Participant_Images/67094d6215b6d0fe3e8c3e39/67094d6215b6d0fe3e8c3e39_Images/67094d6215b6d0fe3e8c3e39_Image_2.jpeg,liked,3.470791822,,,,,,,,,,,,,,,,,,,,,,
,,67094d6215b6d0fe3e8c3e39,6685aa9113c938e83b4f1ea0,671bd47b953b7ef32bfbb1bc,2024-10-25_12h28.58.174,WTP_SM_Choice,2022.2.1,Win32,181.8181818,,,,,space,1.255,NAN,,NAN,3.32,2.68,,0,93,93,93,1,94,Sam,Rej,Participant_Images/67094d6215b6d0fe3e8c3e39/67094d6215b6d0fe3e8c3e39_Images/67094d6215b6d0fe3e8c3e39_Image_18.jpeg,did not like,3.820572462,,,,,,,,,,,,,,,,,,,,,,
,,67094d6215b6d0fe3e8c3e39,6685aa9113c938e83b4f1ea0,671bd47b953b7ef32bfbb1bc,2024-10-25_12h28.58.174,WTP_SM_Choice,2022.2.1,Win32,181.8181818,,,,,,,,,,,,,,,,,,91,,,,,,space,1.3484,space,0.2445,0.04,2,1.5357,0,0,0,0,1,play clash of clans before bed,go out with siblings to do fun activities etc,0.01,0.04,3.3,1,,,,
,,67094d6215b6d0fe3e8c3e39,6685aa9113c938e83b4f1ea0,671bd47b953b7ef32bfbb1bc,2024-10-25_12h28.58.174,WTP_SM_Choice,2022.2.1,Win32,181.8181818,,,,,,,,,,,,,,,,,,92,,,,,,,,,,0.04,2,1.2594,0,1,1,1,1,go out with friends to a chinese buffet as we do every month,play video games while its raining,0.02,0.04,8.8,0,,,,
,,67094d6215b6d0fe3e8c3e39,6685aa9113c938e83b4f1ea0,671bd47b953b7ef32bfbb1bc,2024-10-25_12h28.58.174,WTP_SM_Choice,2022.2.1,Win32,181.8181818,,,,,,,,,,,,,,,,,,93,,,,,,,,,,0.04,2,1.0661,0,2,2,2,1,watch football with the boys on sunday,study with the fan on for background noise,0.03,0.04,1.1,0,,,,
,,67094d6215b6d0fe3e8c3e39,6685aa9113c938e83b4f1ea0,671bd47b953b7ef32bfbb1bc,2024-10-25_12h28.58.174,WTP_SM_Choice,2022.2.1,Win32,181.8181818,,,,,,,,,,,,,,,,,,94,,,,,,,,,,0.04,1,1.8101,0,3,3,3,1,play video games while its raining,go out with my friends to the movies,0.04,0.04,4.4,1,,,,
,,67094d6215b6d0fe3e8c3e39,6685aa9113c938e83b4f1ea0,671bd47b953b7ef32bfbb1bc,2024-10-25_12h28.58.174,WTP_SM_Choice,2022.2.1,Win32,181.8181818,,,,,,,,,,,,,,,,,,95,,,,,,,,,,0.05,1,0.9048,0,4,4,4,1,take long hot showers after a solo workout,get together with family to celebrate someone's birthday,0.05,0.04,4.4,1,,,,
,,67094d6215b6d0fe3e8c3e39,6685aa9113c938e83b4f1ea0,671bd47b953b7ef32bfbb1bc,2024-10-25_12h28.58.174,WTP_SM_Choice,2022.2.1,Win32,181.8181818,,,,,,,NAN,,NAN,3.53,2.47,,0,94,94,94,1,95,Sam,Rej,Participant_Images/67094d6215b6d0fe3e8c3e39/67094d6215b6d0fe3e8c3e39_Images/67094d6215b6d0fe3e8c3e39_Image_7.jpeg,did not like,2.455989137,,,,,,,,,,,,,,,,,,,,,,
,,67094d6215b6d0fe3e8c3e39,6685aa9113c938e83b4f1ea0,671bd47b953b7ef32bfbb1bc,2024-10-25_12h28.58.174,WTP_SM_Choice,2022.2.1,Win32,181.8181818,,,,,space,1.2156,NAN,,NAN,3.53,2.47,,0,95,95,95,1,96,Sam,Rej,Participant_Images/67094d6215b6d0fe3e8c3e39/67094d6215b6d0fe3e8c3e39_Images/67094d6215b6d0fe3e8c3e39_Image_22.jpeg,liked,3.79605092,,,,,,,,,,,,,,,,,,,,,,
,,67094d6215b6d0fe3e8c3e39,6685aa9113c938e83b4f1ea0,671bd47b953b7ef32bfbb1bc,2024-10-25_12h28.58.174,WTP_SM_Choice,2022.2.1,Win32,181.8181818,,,,,space,1.0496,NAN,,NAN,3.53,2.47,,0,96,96,96,1,97,Sam,Rej,Participant_Images/67094d6215b6d0fe3e8c3e39/67094d6215b6d0fe3e8c3e39_Images/67094d6215b6d0fe3e8c3e39_Image_9.jpeg,liked,3.562416326,,,,,,,,,,,,,,,,,,,,,,
,,67094d6215b6d0fe3e8c3e39,6685aa9113c938e83b4f1ea0,671bd47b953b7ef32bfbb1bc,2024-10-25_12h28.58.174,WTP_SM_Choice,2022.2.1,Win32,181.8181818,,,,,space,1.2132,NAN,,NAN,3.53,2.47,,0,97,97,97,1,98,Sam,Rej,Participant_Images/67094d6215b6d0fe3e8c3e39/67094d6215b6d0fe3e8c3e39_Images/67094d6215b6d0fe3e8c3e39_Image_8.jpeg,did not like,2.843822497,,,,,,,,,,,,,,,,,,,,,,
,,67094d6215b6d0fe3e8c3e39,6685aa9113c938e83b4f1ea0,671bd47b953b7ef32bfbb1bc,2024-10-25_12h28.58.174,WTP_SM_Choice,2022.2.1,Win32,181.8181818,,,,,space,3.0085,NAN,,NAN,3.53,2.47,,0,98,98,98,1,99,Sam,Rej,Participant_Images/67094d6215b6d0fe3e8c3e39/67094d6215b6d0fe3e8c3e39_Images/67094d6215b6d0fe3e8c3e39_Image_16.jpeg,did not like,3.546495948,,,,,,,,,,,,,,,,,,,,,,
,,67094d6215b6d0fe3e8c3e39,6685aa9113c938e83b4f1ea0,671bd47b953b7ef32bfbb1bc,2024-10-25_12h28.58.174,WTP_SM_Choice,2022.2.1,Win32,181.8181818,,,,,,,,,,,,,,,,,,96,,,,,,space,1.1469,space,0.2361,0.05,2,1.4916,0,0,0,0,1,go for a late night swim,go out with friends to a chinese buffet as we do every month,0.01,0.05,3.3,1,,,,
,,67094d6215b6d0fe3e8c3e39,6685aa9113c938e83b4f1ea0,671bd47b953b7ef32bfbb1bc,2024-10-25_12h28.58.174,WTP_SM_Choice,2022.2.1,Win32,181.8181818,,,,,,,,,,,,,,,,,,97,,,,,,,,,,0.05,2,1.1791,0,1,1,1,1,go out with my friends to the movies,eat cookies and milk,0.02,0.05,1.1,0,,,,
,,67094d6215b6d0fe3e8c3e39,6685aa9113c938e83b4f1ea0,671bd47b953b7ef32bfbb1bc,2024-10-25_12h28.58.174,WTP_SM_Choice,2022.2.1,Win32,181.8181818,,,,,,,,,,,,,,,,,,98,,,,,,,,,,0.05,2,1.2378,0,2,2,2,1,read the news before bed,go out with my friends to the movies,0.03,0.05,1.1,1,,,,
,,67094d6215b6d0fe3e8c3e39,6685aa9113c938e83b4f1ea0,671bd47b953b7ef32bfbb1bc,2024-10-25_12h28.58.174,WTP_SM_Choice,2022.2.1,Win32,181.8181818,,,,,,,,,,,,,,,,,,99,,,,,,,,,,0.05,2,1.4695,0,3,3,3,1,have family get together and barbecue,play clash of clans before bed,0.04,0.05,3.3,0,,,,
,,67094d6215b6d0fe3e8c3e39,6685aa9113c938e83b4f1ea0,671bd47b953b7ef32bfbb1bc,2024-10-25_12h28.58.174,WTP_SM_Choice,2022.2.1,Win32,181.8181818,,,,,,,,,,,,,,,,,,100,,,,,,,,,,0.05,2,1.6227,0,4,4,4,1,have family get together and barbecue,clean my room in peace,0.05,0.05,4.4,0,,,,
,,67094d6215b6d0fe3e8c3e39,6685aa9113c938e83b4f1ea0,671bd47b953b7ef32bfbb1bc,2024-10-25_12h28.58.174,WTP_SM_Choice,2022.2.1,Win32,181.8181818,,,,,,,3,,9,3.78,2.22,,0,99,99,99,1,100,Sam,Rej,Participant_Images/67094d6215b6d0fe3e8c3e39/67094d6215b6d0fe3e8c3e39_Images/67094d6215b6d0fe3e8c3e39_Image_23.jpeg,did not like,1.672012706,,,,,,,,,,,,,,,,,,,space,1.1287,,
,,67094d6215b6d0fe3e8c3e39,6685aa9113c938e83b4f1ea0,671bd47b953b7ef32bfbb1bc,2024-10-25_12h28.58.174,WTP_SM_Choice,2022.2.1,Win32,181.8181818,,,,,,,,,,,,,,,,,,,,,,,,,,,,,,,,,,,,,,,,,,,,space,2.6934
