endwelcomescreen_keys.keys,endwelcomescreen_keys.rt,participant,STUDY_ID,SESSION_ID,date,expName,psychopyVersion,OS,frameRate,endinstructionscreen_keys.keys,endinstructionscreen_keys.rt,endpartnermatch_keys.keys,endpartnermatch_keys.rt,sharenextphoto_key.keys,sharenextphoto_key.rt,salience_rating,key_resp.keys,stress_level,subtract_bonus,TOTAL_TASK_BONUS,stresslevel_keypress.keys,entiretaskloop.thisRepN,entiretaskloop.thisTrialN,entiretaskloop.thisN,entiretaskloop.thisIndex,entiretaskloop.ran,TrialNumber,Partner,Condition,Photos,Feedback,FeedbackWait,WTP_ins_keys1.keys,WTP_ins_keys1.rt,WTP_ins_keys2.keys,WTP_ins_keys2.rt,decision_price,responses.keys,responses.rt,WTPTaskLoop.thisRepN,WTPTaskLoop.thisTrialN,WTPTaskLoop.thisN,WTPTaskLoop.thisIndex,WTPTaskLoop.ran,right,left,leftmoney,rightmoney,WTP_ITI,social_left,Resume_keys.keys,Resume_keys.rt,key_resp.rt,end_screen_keys.keys,end_screen_keys.rt
space,6.4672,670d326c55fa3d6f10ebe253,6685aa9113c938e83b4f1ea0,671c534eec458c9e4d982071,2024-10-25_21h27.36.825,WTP_SM_Choice,2022.2.1,Win32,60.24096386,,,,,,,,,,,,,,,,,,,,,,,,,,,,,,,,,,,,,,,,,,,,,,
,,670d326c55fa3d6f10ebe253,6685aa9113c938e83b4f1ea0,671c534eec458c9e4d982071,2024-10-25_21h27.36.825,WTP_SM_Choice,2022.2.1,Win32,60.24096386,space,39.0131,,,,,,,,,,,,,,,,,,,,,,,,,,,,,,,,,,,,,,,,,,,,
,,670d326c55fa3d6f10ebe253,6685aa9113c938e83b4f1ea0,671c534eec458c9e4d982071,2024-10-25_21h27.36.825,WTP_SM_Choice,2022.2.1,Win32,60.24096386,,,space,3.0829,space,1.9949,NAN,,NAN,0,6,,0,0,0,0,1,1,Charlie,Acc,Participant_Images/670d326c55fa3d6f10ebe253/670d326c55fa3d6f10ebe253_Images/670d326c55fa3d6f10ebe253_Image_13.jpeg,liked,3.613205605,,,,,,,,,,,,,,,,,,,,,,,
,,670d326c55fa3d6f10ebe253,6685aa9113c938e83b4f1ea0,671c534eec458c9e4d982071,2024-10-25_21h27.36.825,WTP_SM_Choice,2022.2.1,Win32,60.24096386,,,,,space,1.9765,NAN,,NAN,0,6,,0,1,1,1,1,2,Charlie,Acc,Participant_Images/670d326c55fa3d6f10ebe253/670d326c55fa3d6f10ebe253_Images/670d326c55fa3d6f10ebe253_Image_16.jpeg,liked,4.988446431,,,,,,,,,,,,,,,,,,,,,,,
,,670d326c55fa3d6f10ebe253,6685aa9113c938e83b4f1ea0,671c534eec458c9e4d982071,2024-10-25_21h27.36.825,WTP_SM_Choice,2022.2.1,Win32,60.24096386,,,,,space,1.9196,NAN,,NAN,0,6,,0,2,2,2,1,3,Charlie,Acc,Participant_Images/670d326c55fa3d6f10ebe253/670d326c55fa3d6f10ebe253_Images/670d326c55fa3d6f10ebe253_Image_22.jpeg,liked,3.470791822,,,,,,,,,,,,,,,,,,,,,,,
,,670d326c55fa3d6f10ebe253,6685aa9113c938e83b4f1ea0,671c534eec458c9e4d982071,2024-10-25_21h27.36.825,WTP_SM_Choice,2022.2.1,Win32,60.24096386,,,,,space,2.1872,NAN,,NAN,0,6,,0,3,3,3,1,4,Charlie,Acc,Participant_Images/670d326c55fa3d6f10ebe253/670d326c55fa3d6f10ebe253_Images/670d326c55fa3d6f10ebe253_Image_2.jpeg,liked,3.820572462,,,,,,,,,,,,,,,,,,,,,,,
,,670d326c55fa3d6f10ebe253,6685aa9113c938e83b4f1ea0,671c534eec458c9e4d982071,2024-10-25_21h27.36.825,WTP_SM_Choice,2022.2.1,Win32,60.24096386,,,,,,,,,,,,,,,,,,1,,,,,,space,17.1151,space,17.5632,0.01,1,2.9702,0,0,0,0,1,Drive to go get coffee on a foggy day ,Meet at a plant store with my sisters to buy plants once a year,0.01,0.01,4.4,1,,,,,
,,670d326c55fa3d6f10ebe253,6685aa9113c938e83b4f1ea0,671c534eec458c9e4d982071,2024-10-25_21h27.36.825,WTP_SM_Choice,2022.2.1,Win32,60.24096386,,,,,,,,,,,,,,,,,,2,,,,,,,,,,0.02,1,2.6031,0,1,1,1,1,Watch football with nick my husband every weekend,Walk around the block during sunrise on a sunday for 30 mintues  ,0.02,0.01,8.8,0,,,,,
,,670d326c55fa3d6f10ebe253,6685aa9113c938e83b4f1ea0,671c534eec458c9e4d982071,2024-10-25_21h27.36.825,WTP_SM_Choice,2022.2.1,Win32,60.24096386,,,,,,,,,,,,,,,,,,3,,,,,,,,,,0.01,2,3.4292,0,2,2,2,1,Star gaze on my roof for the best view of the sky,Go to a cafe to see my bestfriends every 6 weeks ,0.03,0.01,3.3,1,,,,,
,,670d326c55fa3d6f10ebe253,6685aa9113c938e83b4f1ea0,671c534eec458c9e4d982071,2024-10-25_21h27.36.825,WTP_SM_Choice,2022.2.1,Win32,60.24096386,,,,,,,,,,,,,,,,,,4,,,,,,,,,,0.04,1,2.7409,0,3,3,3,1,Watch football with nick my husband every weekend,Star gaze on my roof for the best view of the sky,0.04,0.01,1.1,0,,,,,
,,670d326c55fa3d6f10ebe253,6685aa9113c938e83b4f1ea0,671c534eec458c9e4d982071,2024-10-25_21h27.36.825,WTP_SM_Choice,2022.2.1,Win32,60.24096386,,,,,,,,,,,,,,,,,,5,,,,,,,,,,0.01,2,4.9708,0,4,4,4,1,Go to a cafe to see my bestfriends every 6 weeks ,Meditate in my backyard at night to hear all the crickets sing ,0.05,0.01,1.1,0,,,,,
,,670d326c55fa3d6f10ebe253,6685aa9113c938e83b4f1ea0,671c534eec458c9e4d982071,2024-10-25_21h27.36.825,WTP_SM_Choice,2022.2.1,Win32,60.24096386,,,,,,,NAN,,NAN,0.09,5.91,,0,4,4,4,1,5,Charlie,Acc,Participant_Images/670d326c55fa3d6f10ebe253/670d326c55fa3d6f10ebe253_Images/670d326c55fa3d6f10ebe253_Image_19.jpeg,liked,2.455989137,,,,,,,,,,,,,,,,,,,,,,,
,,670d326c55fa3d6f10ebe253,6685aa9113c938e83b4f1ea0,671c534eec458c9e4d982071,2024-10-25_21h27.36.825,WTP_SM_Choice,2022.2.1,Win32,60.24096386,,,,,space,0.8218,NAN,,NAN,0.09,5.91,,0,5,5,5,1,6,Charlie,Acc,Participant_Images/670d326c55fa3d6f10ebe253/670d326c55fa3d6f10ebe253_Images/670d326c55fa3d6f10ebe253_Image_5.jpeg,liked,3.79605092,,,,,,,,,,,,,,,,,,,,,,,
,,670d326c55fa3d6f10ebe253,6685aa9113c938e83b4f1ea0,671c534eec458c9e4d982071,2024-10-25_21h27.36.825,WTP_SM_Choice,2022.2.1,Win32,60.24096386,,,,,space,0.9778,NAN,,NAN,0.09,5.91,,0,6,6,6,1,7,Charlie,Acc,Participant_Images/670d326c55fa3d6f10ebe253/670d326c55fa3d6f10ebe253_Images/670d326c55fa3d6f10ebe253_Image_18.jpeg,liked,3.562416326,,,,,,,,,,,,,,,,,,,,,,,
,,670d326c55fa3d6f10ebe253,6685aa9113c938e83b4f1ea0,671c534eec458c9e4d982071,2024-10-25_21h27.36.825,WTP_SM_Choice,2022.2.1,Win32,60.24096386,,,,,space,0.5841,NAN,,NAN,0.09,5.91,,0,7,7,7,1,8,Charlie,Acc,Participant_Images/670d326c55fa3d6f10ebe253/670d326c55fa3d6f10ebe253_Images/670d326c55fa3d6f10ebe253_Image_3.jpeg,liked,2.843822497,,,,,,,,,,,,,,,,,,,,,,,
,,670d326c55fa3d6f10ebe253,6685aa9113c938e83b4f1ea0,671c534eec458c9e4d982071,2024-10-25_21h27.36.825,WTP_SM_Choice,2022.2.1,Win32,60.24096386,,,,,space,2.6921,NAN,,NAN,0.09,5.91,,0,8,8,8,1,9,Charlie,Acc,Participant_Images/670d326c55fa3d6f10ebe253/670d326c55fa3d6f10ebe253_Images/670d326c55fa3d6f10ebe253_Image_24.jpeg,did not like,3.546495948,,,,,,,,,,,,,,,,,,,,,,,
,,670d326c55fa3d6f10ebe253,6685aa9113c938e83b4f1ea0,671c534eec458c9e4d982071,2024-10-25_21h27.36.825,WTP_SM_Choice,2022.2.1,Win32,60.24096386,,,,,,,,,,,,,,,,,,6,,,,,,space,17.2433,space,10.106,0.01,1,1.727,0,0,0,0,1,Meditate in my backyard at night to hear all the crickets sing ,Play video games with my best friend every night after 8,0.01,0.02,3.3,1,,,,,
,,670d326c55fa3d6f10ebe253,6685aa9113c938e83b4f1ea0,671c534eec458c9e4d982071,2024-10-25_21h27.36.825,WTP_SM_Choice,2022.2.1,Win32,60.24096386,,,,,,,,,,,,,,,,,,7,,,,,,,,,,0.02,1,2.4886,0,1,1,1,1,Paint on rocks during the summer ,Play video games with my best friend every night after 8,0.02,0.02,1.1,1,,,,,
,,670d326c55fa3d6f10ebe253,6685aa9113c938e83b4f1ea0,671c534eec458c9e4d982071,2024-10-25_21h27.36.825,WTP_SM_Choice,2022.2.1,Win32,60.24096386,,,,,,,,,,,,,,,,,,8,,,,,,,,,,0.02,2,1.7455,0,2,2,2,1,Meet at a plant store with my sisters to buy plants once a year,Binge watch a netflix show and finishing it the same day,0.03,0.02,1.1,0,,,,,
,,670d326c55fa3d6f10ebe253,6685aa9113c938e83b4f1ea0,671c534eec458c9e4d982071,2024-10-25_21h27.36.825,WTP_SM_Choice,2022.2.1,Win32,60.24096386,,,,,,,,,,,,,,,,,,9,,,,,,,,,,0.02,2,2.7287,0,3,3,3,1,Play video games with my best friend every night after 8, Water my plants on a slow friday morning outside,0.04,0.02,4.4,0,,,,,
,,670d326c55fa3d6f10ebe253,6685aa9113c938e83b4f1ea0,671c534eec458c9e4d982071,2024-10-25_21h27.36.825,WTP_SM_Choice,2022.2.1,Win32,60.24096386,,,,,,,,,,,,,,,,,,10,,,,,,,,,,0.02,2,2.1766,0,4,4,4,1,Play video games with my best friend every night after 8,Drive to go get coffee on a foggy day ,0.05,0.02,1.1,0,,,,,
,,670d326c55fa3d6f10ebe253,6685aa9113c938e83b4f1ea0,671c534eec458c9e4d982071,2024-10-25_21h27.36.825,WTP_SM_Choice,2022.2.1,Win32,60.24096386,,,,,,,NAN,,NAN,0.18,5.82,,0,9,9,9,1,10,Charlie,Acc,Participant_Images/670d326c55fa3d6f10ebe253/670d326c55fa3d6f10ebe253_Images/670d326c55fa3d6f10ebe253_Image_25.jpeg,liked,1.672012706,,,,,,,,,,,,,,,,,,,,,,,
,,670d326c55fa3d6f10ebe253,6685aa9113c938e83b4f1ea0,671c534eec458c9e4d982071,2024-10-25_21h27.36.825,WTP_SM_Choice,2022.2.1,Win32,60.24096386,,,,,space,3.7929,NAN,,NAN,0.18,5.82,,0,10,10,10,1,11,Charlie,Acc,Participant_Images/670d326c55fa3d6f10ebe253/670d326c55fa3d6f10ebe253_Images/670d326c55fa3d6f10ebe253_Image_6.jpeg,did not like,4.942172136,,,,,,,,,,,,,,,,,,,,,,,
,,670d326c55fa3d6f10ebe253,6685aa9113c938e83b4f1ea0,671c534eec458c9e4d982071,2024-10-25_21h27.36.825,WTP_SM_Choice,2022.2.1,Win32,60.24096386,,,,,space,8.1051,NAN,,NAN,0.18,5.82,,0,11,11,11,1,12,Charlie,Acc,Participant_Images/670d326c55fa3d6f10ebe253/670d326c55fa3d6f10ebe253_Images/670d326c55fa3d6f10ebe253_Image_1.jpeg,liked,2.50187214,,,,,,,,,,,,,,,,,,,,,,,
,,670d326c55fa3d6f10ebe253,6685aa9113c938e83b4f1ea0,671c534eec458c9e4d982071,2024-10-25_21h27.36.825,WTP_SM_Choice,2022.2.1,Win32,60.24096386,,,,,space,2.1535,NAN,,NAN,0.18,5.82,,0,12,12,12,1,13,Charlie,Acc,Participant_Images/670d326c55fa3d6f10ebe253/670d326c55fa3d6f10ebe253_Images/670d326c55fa3d6f10ebe253_Image_11.jpeg,liked,2.071164779,,,,,,,,,,,,,,,,,,,,,,,
,,670d326c55fa3d6f10ebe253,6685aa9113c938e83b4f1ea0,671c534eec458c9e4d982071,2024-10-25_21h27.36.825,WTP_SM_Choice,2022.2.1,Win32,60.24096386,,,,,space,0.6519,NAN,,NAN,0.18,5.82,,0,13,13,13,1,14,Charlie,Acc,Participant_Images/670d326c55fa3d6f10ebe253/670d326c55fa3d6f10ebe253_Images/670d326c55fa3d6f10ebe253_Image_21.jpeg,liked,5.336503566,,,,,,,,,,,,,,,,,,,,,,,
,,670d326c55fa3d6f10ebe253,6685aa9113c938e83b4f1ea0,671c534eec458c9e4d982071,2024-10-25_21h27.36.825,WTP_SM_Choice,2022.2.1,Win32,60.24096386,,,,,,,,,,,,,,,,,,11,,,,,,space,10.2433,space,21.4602,0.01,1,1.66,0,0,0,0,1,Meet up with old co workers every few months at a new restaurant,Meditate in my backyard at night to hear all the crickets sing ,0.01,0.03,3.3,0,,,,,
,,670d326c55fa3d6f10ebe253,6685aa9113c938e83b4f1ea0,671c534eec458c9e4d982071,2024-10-25_21h27.36.825,WTP_SM_Choice,2022.2.1,Win32,60.24096386,,,,,,,,,,,,,,,,,,12,,,,,,,,,,0.02,1,2.5794,0,1,1,1,1,Meet my family at church every sunday, Plant shop to see new kinds of plants they have ,0.02,0.03,4.4,0,,,,,
,,670d326c55fa3d6f10ebe253,6685aa9113c938e83b4f1ea0,671c534eec458c9e4d982071,2024-10-25_21h27.36.825,WTP_SM_Choice,2022.2.1,Win32,60.24096386,,,,,,,,,,,,,,,,,,13,,,,,,,,,,0.03,1,4.0446,0,2,2,2,1,Watch football with nick my husband every weekend,Drive to go get coffee on a foggy day ,0.03,0.03,1.1,0,,,,,
,,670d326c55fa3d6f10ebe253,6685aa9113c938e83b4f1ea0,671c534eec458c9e4d982071,2024-10-25_21h27.36.825,WTP_SM_Choice,2022.2.1,Win32,60.24096386,,,,,,,,,,,,,,,,,,14,,,,,,,,,,0.03,2,2.0478,0,3,3,3,1,Watch movies with my family once a month,Paint on rocks during the summer ,0.04,0.03,3.3,0,,,,,
,,670d326c55fa3d6f10ebe253,6685aa9113c938e83b4f1ea0,671c534eec458c9e4d982071,2024-10-25_21h27.36.825,WTP_SM_Choice,2022.2.1,Win32,60.24096386,,,,,,,,,,,,,,,,,,15,,,,,,,,,,0.03,2,2.4274,0,4,4,4,1,Play video games with my best friend every night after 8,Star gaze on my roof for the best view of the sky,0.05,0.03,4.4,0,,,,,
,,670d326c55fa3d6f10ebe253,6685aa9113c938e83b4f1ea0,671c534eec458c9e4d982071,2024-10-25_21h27.36.825,WTP_SM_Choice,2022.2.1,Win32,60.24096386,,,,,,,NAN,,NAN,0.3,5.7,,0,14,14,14,1,15,Charlie,Acc,Participant_Images/670d326c55fa3d6f10ebe253/670d326c55fa3d6f10ebe253_Images/670d326c55fa3d6f10ebe253_Image_4.jpeg,did not like,2.642157193,,,,,,,,,,,,,,,,,,,,,,,
,,670d326c55fa3d6f10ebe253,6685aa9113c938e83b4f1ea0,671c534eec458c9e4d982071,2024-10-25_21h27.36.825,WTP_SM_Choice,2022.2.1,Win32,60.24096386,,,,,space,2.0512,NAN,,NAN,0.3,5.7,,0,15,15,15,1,16,Charlie,Acc,Participant_Images/670d326c55fa3d6f10ebe253/670d326c55fa3d6f10ebe253_Images/670d326c55fa3d6f10ebe253_Image_14.jpeg,liked,4.456234322,,,,,,,,,,,,,,,,,,,,,,,
,,670d326c55fa3d6f10ebe253,6685aa9113c938e83b4f1ea0,671c534eec458c9e4d982071,2024-10-25_21h27.36.825,WTP_SM_Choice,2022.2.1,Win32,60.24096386,,,,,space,1.258,NAN,,NAN,0.3,5.7,,0,16,16,16,1,17,Charlie,Acc,Participant_Images/670d326c55fa3d6f10ebe253/670d326c55fa3d6f10ebe253_Images/670d326c55fa3d6f10ebe253_Image_12.jpeg,liked,4.438512181,,,,,,,,,,,,,,,,,,,,,,,
,,670d326c55fa3d6f10ebe253,6685aa9113c938e83b4f1ea0,671c534eec458c9e4d982071,2024-10-25_21h27.36.825,WTP_SM_Choice,2022.2.1,Win32,60.24096386,,,,,space,0.8504,NAN,,NAN,0.3,5.7,,0,17,17,17,1,18,Charlie,Acc,Participant_Images/670d326c55fa3d6f10ebe253/670d326c55fa3d6f10ebe253_Images/670d326c55fa3d6f10ebe253_Image_23.jpeg,liked,2.682944783,,,,,,,,,,,,,,,,,,,,,,,
,,670d326c55fa3d6f10ebe253,6685aa9113c938e83b4f1ea0,671c534eec458c9e4d982071,2024-10-25_21h27.36.825,WTP_SM_Choice,2022.2.1,Win32,60.24096386,,,,,space,0.7438,NAN,,NAN,0.3,5.7,,0,18,18,18,1,19,Charlie,Acc,Participant_Images/670d326c55fa3d6f10ebe253/670d326c55fa3d6f10ebe253_Images/670d326c55fa3d6f10ebe253_Image_15.jpeg,did not like,4.51984296,,,,,,,,,,,,,,,,,,,,,,,
,,670d326c55fa3d6f10ebe253,6685aa9113c938e83b4f1ea0,671c534eec458c9e4d982071,2024-10-25_21h27.36.825,WTP_SM_Choice,2022.2.1,Win32,60.24096386,,,,,,,,,,,,,,,,,,16,,,,,,space,12.0731,space,5.6874,0.01,1,1.6115,0,0,0,0,1,Roast smores with all my family on holidays allows us to catch up , Water my plants on a slow friday morning outside,0.01,0.04,1.1,0,,,,,
,,670d326c55fa3d6f10ebe253,6685aa9113c938e83b4f1ea0,671c534eec458c9e4d982071,2024-10-25_21h27.36.825,WTP_SM_Choice,2022.2.1,Win32,60.24096386,,,,,,,,,,,,,,,,,,17,,,,,,,,,,0.04,2,1.41,0,1,1,1,1,Star gaze on my roof for the best view of the sky,Watch movies with my family once a month,0.02,0.04,8.8,1,,,,,
,,670d326c55fa3d6f10ebe253,6685aa9113c938e83b4f1ea0,671c534eec458c9e4d982071,2024-10-25_21h27.36.825,WTP_SM_Choice,2022.2.1,Win32,60.24096386,,,,,,,,,,,,,,,,,,18,,,,,,,,,,0.03,1,1.7624,0,2,2,2,1,Star gaze on my roof for the best view of the sky,Meet up with old co workers every few months at a new restaurant,0.03,0.04,3.3,1,,,,,
,,670d326c55fa3d6f10ebe253,6685aa9113c938e83b4f1ea0,671c534eec458c9e4d982071,2024-10-25_21h27.36.825,WTP_SM_Choice,2022.2.1,Win32,60.24096386,,,,,,,,,,,,,,,,,,19,,,,,,,,,,0.04,2,3.2705,0,3,3,3,1,Watch football with nick my husband every weekend,Meditate in my backyard at night to hear all the crickets sing ,0.04,0.04,3.3,0,,,,,
,,670d326c55fa3d6f10ebe253,6685aa9113c938e83b4f1ea0,671c534eec458c9e4d982071,2024-10-25_21h27.36.825,WTP_SM_Choice,2022.2.1,Win32,60.24096386,,,,,,,,,,,,,,,,,,20,,,,,,,,,,0.04,2,3.5361,0,4,4,4,1,Meet at a plant store with my sisters to buy plants once a year,Star gaze on my roof for the best view of the sky,0.05,0.04,1.1,0,,,,,
,,670d326c55fa3d6f10ebe253,6685aa9113c938e83b4f1ea0,671c534eec458c9e4d982071,2024-10-25_21h27.36.825,WTP_SM_Choice,2022.2.1,Win32,60.24096386,,,,,,,NAN,,NAN,0.46,5.54,,0,19,19,19,1,20,Charlie,Acc,Participant_Images/670d326c55fa3d6f10ebe253/670d326c55fa3d6f10ebe253_Images/670d326c55fa3d6f10ebe253_Image_8.jpeg,liked,3.195382774,,,,,,,,,,,,,,,,,,,,,,,
,,670d326c55fa3d6f10ebe253,6685aa9113c938e83b4f1ea0,671c534eec458c9e4d982071,2024-10-25_21h27.36.825,WTP_SM_Choice,2022.2.1,Win32,60.24096386,,,,,space,2.6008,NAN,,NAN,0.46,5.54,,0,20,20,20,1,21,Charlie,Acc,Participant_Images/670d326c55fa3d6f10ebe253/670d326c55fa3d6f10ebe253_Images/670d326c55fa3d6f10ebe253_Image_9.jpeg,did not like,1.779333479,,,,,,,,,,,,,,,,,,,,,,,
,,670d326c55fa3d6f10ebe253,6685aa9113c938e83b4f1ea0,671c534eec458c9e4d982071,2024-10-25_21h27.36.825,WTP_SM_Choice,2022.2.1,Win32,60.24096386,,,,,space,1.7617,NAN,,NAN,0.46,5.54,,0,21,21,21,1,22,Charlie,Acc,Participant_Images/670d326c55fa3d6f10ebe253/670d326c55fa3d6f10ebe253_Images/670d326c55fa3d6f10ebe253_Image_17.jpeg,liked,4.312468682,,,,,,,,,,,,,,,,,,,,,,,
,,670d326c55fa3d6f10ebe253,6685aa9113c938e83b4f1ea0,671c534eec458c9e4d982071,2024-10-25_21h27.36.825,WTP_SM_Choice,2022.2.1,Win32,60.24096386,,,,,space,15.0713,NAN,,NAN,0.46,5.54,,0,22,22,22,1,23,Charlie,Acc,Participant_Images/670d326c55fa3d6f10ebe253/670d326c55fa3d6f10ebe253_Images/670d326c55fa3d6f10ebe253_Image_10.jpeg,did not like,4.940433059,,,,,,,,,,,,,,,,,,,,,,,
,,670d326c55fa3d6f10ebe253,6685aa9113c938e83b4f1ea0,671c534eec458c9e4d982071,2024-10-25_21h27.36.825,WTP_SM_Choice,2022.2.1,Win32,60.24096386,,,,,space,1.1174,NAN,,NAN,0.46,5.54,,0,23,23,23,1,24,Charlie,Acc,Participant_Images/670d326c55fa3d6f10ebe253/670d326c55fa3d6f10ebe253_Images/670d326c55fa3d6f10ebe253_Image_20.jpeg,liked,2.7105123,,,,,,,,,,,,,,,,,,,,,,,
,,670d326c55fa3d6f10ebe253,6685aa9113c938e83b4f1ea0,671c534eec458c9e4d982071,2024-10-25_21h27.36.825,WTP_SM_Choice,2022.2.1,Win32,60.24096386,,,,,,,,,,,,,,,,,,21,,,,,,space,3.2696,space,5.4065,0.01,1,2.0847,0,0,0,0,1,Watch football with nick my husband every weekend,Paint on rocks during the summer ,0.01,0.05,8.8,0,,,,,
,,670d326c55fa3d6f10ebe253,6685aa9113c938e83b4f1ea0,671c534eec458c9e4d982071,2024-10-25_21h27.36.825,WTP_SM_Choice,2022.2.1,Win32,60.24096386,,,,,,,,,,,,,,,,,,22,,,,,,,,,,0.02,1,3.5194,0,1,1,1,1,Go out to eat after at our favorite chinese spot church every sunday ,Walk around the block during sunrise on a sunday for 30 mintues  ,0.02,0.05,4.4,0,,,,,
,,670d326c55fa3d6f10ebe253,6685aa9113c938e83b4f1ea0,671c534eec458c9e4d982071,2024-10-25_21h27.36.825,WTP_SM_Choice,2022.2.1,Win32,60.24096386,,,,,,,,,,,,,,,,,,23,,,,,,,,,,0.05,2,2.2818,0,2,2,2,1,Roast smores with all my family on holidays allows us to catch up ,Star gaze on my roof for the best view of the sky,0.03,0.05,1.1,0,,,,,
,,670d326c55fa3d6f10ebe253,6685aa9113c938e83b4f1ea0,671c534eec458c9e4d982071,2024-10-25_21h27.36.825,WTP_SM_Choice,2022.2.1,Win32,60.24096386,,,,,,,,,,,,,,,,,,24,,,,,,,,,,0.05,2,2.9447,0,3,3,3,1,Go to a cafe to see my bestfriends every 6 weeks ,Drive to go get coffee on a foggy day ,0.04,0.05,4.4,0,,,,,
,,670d326c55fa3d6f10ebe253,6685aa9113c938e83b4f1ea0,671c534eec458c9e4d982071,2024-10-25_21h27.36.825,WTP_SM_Choice,2022.2.1,Win32,60.24096386,,,,,,,,,,,,,,,,,,25,,,,,,,,,,0.05,1,2.6694,0,4,4,4,1,Crochet new plushies with zero destractions in my room ,Meet up with old co workers every few months at a new restaurant,0.05,0.05,3.3,1,,,,,
,,670d326c55fa3d6f10ebe253,6685aa9113c938e83b4f1ea0,671c534eec458c9e4d982071,2024-10-25_21h27.36.825,WTP_SM_Choice,2022.2.1,Win32,60.24096386,,,,,,,5,space,7,0.64,5.36,,0,24,24,24,1,25,Charlie,Acc,Participant_Images/670d326c55fa3d6f10ebe253/670d326c55fa3d6f10ebe253_Images/670d326c55fa3d6f10ebe253_Image_7.jpeg,did not like,3.602308302,,,,,,,,,,,,,,,,,,,space,0.7211,11.3398,,
,,670d326c55fa3d6f10ebe253,6685aa9113c938e83b4f1ea0,671c534eec458c9e4d982071,2024-10-25_21h27.36.825,WTP_SM_Choice,2022.2.1,Win32,60.24096386,,,space,2.4463,space,2.4495,NAN,,NAN,0.64,5.36,,0,25,25,25,1,26,Riley,Rej,Participant_Images/670d326c55fa3d6f10ebe253/670d326c55fa3d6f10ebe253_Images/670d326c55fa3d6f10ebe253_Image_15.jpeg,did not like,4.106391878,,,,,,,,,,,,,,,,,,,,,,,
,,670d326c55fa3d6f10ebe253,6685aa9113c938e83b4f1ea0,671c534eec458c9e4d982071,2024-10-25_21h27.36.825,WTP_SM_Choice,2022.2.1,Win32,60.24096386,,,,,space,3.2692,NAN,,NAN,0.64,5.36,,0,26,26,26,1,27,Riley,Rej,Participant_Images/670d326c55fa3d6f10ebe253/670d326c55fa3d6f10ebe253_Images/670d326c55fa3d6f10ebe253_Image_12.jpeg,liked,3.799433026,,,,,,,,,,,,,,,,,,,,,,,
,,670d326c55fa3d6f10ebe253,6685aa9113c938e83b4f1ea0,671c534eec458c9e4d982071,2024-10-25_21h27.36.825,WTP_SM_Choice,2022.2.1,Win32,60.24096386,,,,,space,2.3091,NAN,,NAN,0.64,5.36,,0,27,27,27,1,28,Riley,Rej,Participant_Images/670d326c55fa3d6f10ebe253/670d326c55fa3d6f10ebe253_Images/670d326c55fa3d6f10ebe253_Image_20.jpeg,did not like,5.246980764,,,,,,,,,,,,,,,,,,,,,,,
,,670d326c55fa3d6f10ebe253,6685aa9113c938e83b4f1ea0,671c534eec458c9e4d982071,2024-10-25_21h27.36.825,WTP_SM_Choice,2022.2.1,Win32,60.24096386,,,,,space,3.4373,NAN,,NAN,0.64,5.36,,0,28,28,28,1,29,Riley,Rej,Participant_Images/670d326c55fa3d6f10ebe253/670d326c55fa3d6f10ebe253_Images/670d326c55fa3d6f10ebe253_Image_1.jpeg,did not like,3.30081769,,,,,,,,,,,,,,,,,,,,,,,
,,670d326c55fa3d6f10ebe253,6685aa9113c938e83b4f1ea0,671c534eec458c9e4d982071,2024-10-25_21h27.36.825,WTP_SM_Choice,2022.2.1,Win32,60.24096386,,,,,,,,,,,,,,,,,,26,,,,,,space,5.9462,space,2.5539,0.01,1,2.1505,0,0,0,0,1,Walk around the block during sunrise on a sunday for 30 mintues  ,Make cookies with my cousins on holidays,0.01,0.01,4.4,1,,,,,
,,670d326c55fa3d6f10ebe253,6685aa9113c938e83b4f1ea0,671c534eec458c9e4d982071,2024-10-25_21h27.36.825,WTP_SM_Choice,2022.2.1,Win32,60.24096386,,,,,,,,,,,,,,,,,,27,,,,,,,,,,0.01,2,2.7354,0,1,1,1,1,Meet up with old co workers every few months at a new restaurant,Run in the morning with the smell of rain in the air ,0.02,0.01,3.3,0,,,,,
,,670d326c55fa3d6f10ebe253,6685aa9113c938e83b4f1ea0,671c534eec458c9e4d982071,2024-10-25_21h27.36.825,WTP_SM_Choice,2022.2.1,Win32,60.24096386,,,,,,,,,,,,,,,,,,28,,,,,,,,,,0.03,1,2.8018,0,2,2,2,1,Meditate in my backyard at night to hear all the crickets sing ,Roast smores with all my family on holidays allows us to catch up ,0.03,0.01,3.3,1,,,,,
,,670d326c55fa3d6f10ebe253,6685aa9113c938e83b4f1ea0,671c534eec458c9e4d982071,2024-10-25_21h27.36.825,WTP_SM_Choice,2022.2.1,Win32,60.24096386,,,,,,,,,,,,,,,,,,29,,,,,,,,,,0.01,2,2.6363,0,3,3,3,1,Crochet new plushies with zero destractions in my room ,Watch football with nick my husband every weekend,0.04,0.01,4.4,1,,,,,
,,670d326c55fa3d6f10ebe253,6685aa9113c938e83b4f1ea0,671c534eec458c9e4d982071,2024-10-25_21h27.36.825,WTP_SM_Choice,2022.2.1,Win32,60.24096386,,,,,,,,,,,,,,,,,,30,,,,,,,,,,0.01,2,2.1752,0,4,4,4,1,Binge watch a netflix show and finishing it the same day,Make cookies with my cousins on holidays,0.05,0.01,8.8,1,,,,,
,,670d326c55fa3d6f10ebe253,6685aa9113c938e83b4f1ea0,671c534eec458c9e4d982071,2024-10-25_21h27.36.825,WTP_SM_Choice,2022.2.1,Win32,60.24096386,,,,,,,NAN,,NAN,0.71,5.29,,0,29,29,29,1,30,Riley,Rej,Participant_Images/670d326c55fa3d6f10ebe253/670d326c55fa3d6f10ebe253_Images/670d326c55fa3d6f10ebe253_Image_2.jpeg,liked,1.661473164,,,,,,,,,,,,,,,,,,,,,,,
,,670d326c55fa3d6f10ebe253,6685aa9113c938e83b4f1ea0,671c534eec458c9e4d982071,2024-10-25_21h27.36.825,WTP_SM_Choice,2022.2.1,Win32,60.24096386,,,,,space,1.4413,NAN,,NAN,0.71,5.29,,0,30,30,30,1,31,Riley,Rej,Participant_Images/670d326c55fa3d6f10ebe253/670d326c55fa3d6f10ebe253_Images/670d326c55fa3d6f10ebe253_Image_18.jpeg,liked,3.613205605,,,,,,,,,,,,,,,,,,,,,,,
,,670d326c55fa3d6f10ebe253,6685aa9113c938e83b4f1ea0,671c534eec458c9e4d982071,2024-10-25_21h27.36.825,WTP_SM_Choice,2022.2.1,Win32,60.24096386,,,,,space,0.8795,NAN,,NAN,0.71,5.29,,0,31,31,31,1,32,Riley,Rej,Participant_Images/670d326c55fa3d6f10ebe253/670d326c55fa3d6f10ebe253_Images/670d326c55fa3d6f10ebe253_Image_17.jpeg,liked,4.988446431,,,,,,,,,,,,,,,,,,,,,,,
,,670d326c55fa3d6f10ebe253,6685aa9113c938e83b4f1ea0,671c534eec458c9e4d982071,2024-10-25_21h27.36.825,WTP_SM_Choice,2022.2.1,Win32,60.24096386,,,,,space,0.9515,NAN,,NAN,0.71,5.29,,0,32,32,32,1,33,Riley,Rej,Participant_Images/670d326c55fa3d6f10ebe253/670d326c55fa3d6f10ebe253_Images/670d326c55fa3d6f10ebe253_Image_16.jpeg,did not like,3.470791822,,,,,,,,,,,,,,,,,,,,,,,
,,670d326c55fa3d6f10ebe253,6685aa9113c938e83b4f1ea0,671c534eec458c9e4d982071,2024-10-25_21h27.36.825,WTP_SM_Choice,2022.2.1,Win32,60.24096386,,,,,space,1.4838,NAN,,NAN,0.71,5.29,,0,33,33,33,1,34,Riley,Rej,Participant_Images/670d326c55fa3d6f10ebe253/670d326c55fa3d6f10ebe253_Images/670d326c55fa3d6f10ebe253_Image_11.jpeg,did not like,3.820572462,,,,,,,,,,,,,,,,,,,,,,,
,,670d326c55fa3d6f10ebe253,6685aa9113c938e83b4f1ea0,671c534eec458c9e4d982071,2024-10-25_21h27.36.825,WTP_SM_Choice,2022.2.1,Win32,60.24096386,,,,,,,,,,,,,,,,,,31,,,,,,space,7.8546,space,1.8048,0.01,1,1.7914,0,0,0,0,1,Drive to go get coffee on a foggy day ,Go out to eat after at our favorite chinese spot church every sunday ,0.01,0.02,8.8,1,,,,,
,,670d326c55fa3d6f10ebe253,6685aa9113c938e83b4f1ea0,671c534eec458c9e4d982071,2024-10-25_21h27.36.825,WTP_SM_Choice,2022.2.1,Win32,60.24096386,,,,,,,,,,,,,,,,,,32,,,,,,,,,,0.02,1,2.9715,0,1,1,1,1,Drive to go get coffee on a foggy day ,Meet up with old co workers every few months at a new restaurant,0.02,0.02,1.1,1,,,,,
,,670d326c55fa3d6f10ebe253,6685aa9113c938e83b4f1ea0,671c534eec458c9e4d982071,2024-10-25_21h27.36.825,WTP_SM_Choice,2022.2.1,Win32,60.24096386,,,,,,,,,,,,,,,,,,33,,,,,,,,,,0.03,1,2.5274,0,2,2,2,1,Run in the morning with the smell of rain in the air ,Make cookies with my cousins on holidays,0.03,0.02,4.4,1,,,,,
,,670d326c55fa3d6f10ebe253,6685aa9113c938e83b4f1ea0,671c534eec458c9e4d982071,2024-10-25_21h27.36.825,WTP_SM_Choice,2022.2.1,Win32,60.24096386,,,,,,,,,,,,,,,,,,34,,,,,,,,,,0.04,1,2.0274,0,3,3,3,1,Walk around the block during sunrise on a sunday for 30 mintues  ,Play video games with my best friend every night after 8,0.04,0.02,3.3,1,,,,,
,,670d326c55fa3d6f10ebe253,6685aa9113c938e83b4f1ea0,671c534eec458c9e4d982071,2024-10-25_21h27.36.825,WTP_SM_Choice,2022.2.1,Win32,60.24096386,,,,,,,,,,,,,,,,,,35,,,,,,,,,,0.02,2,2.4557,0,4,4,4,1,Roast smores with all my family on holidays allows us to catch up ,Paint on rocks during the summer ,0.05,0.02,1.1,0,,,,,
,,670d326c55fa3d6f10ebe253,6685aa9113c938e83b4f1ea0,671c534eec458c9e4d982071,2024-10-25_21h27.36.825,WTP_SM_Choice,2022.2.1,Win32,60.24096386,,,,,,,NAN,,NAN,0.83,5.17,,0,34,34,34,1,35,Riley,Rej,Participant_Images/670d326c55fa3d6f10ebe253/670d326c55fa3d6f10ebe253_Images/670d326c55fa3d6f10ebe253_Image_3.jpeg,did not like,2.455989137,,,,,,,,,,,,,,,,,,,,,,,
,,670d326c55fa3d6f10ebe253,6685aa9113c938e83b4f1ea0,671c534eec458c9e4d982071,2024-10-25_21h27.36.825,WTP_SM_Choice,2022.2.1,Win32,60.24096386,,,,,space,1.1426,NAN,,NAN,0.83,5.17,,0,35,35,35,1,36,Riley,Rej,Participant_Images/670d326c55fa3d6f10ebe253/670d326c55fa3d6f10ebe253_Images/670d326c55fa3d6f10ebe253_Image_21.jpeg,did not like,3.79605092,,,,,,,,,,,,,,,,,,,,,,,
,,670d326c55fa3d6f10ebe253,6685aa9113c938e83b4f1ea0,671c534eec458c9e4d982071,2024-10-25_21h27.36.825,WTP_SM_Choice,2022.2.1,Win32,60.24096386,,,,,space,0.7307,NAN,,NAN,0.83,5.17,,0,36,36,36,1,37,Riley,Rej,Participant_Images/670d326c55fa3d6f10ebe253/670d326c55fa3d6f10ebe253_Images/670d326c55fa3d6f10ebe253_Image_6.jpeg,liked,3.562416326,,,,,,,,,,,,,,,,,,,,,,,
,,670d326c55fa3d6f10ebe253,6685aa9113c938e83b4f1ea0,671c534eec458c9e4d982071,2024-10-25_21h27.36.825,WTP_SM_Choice,2022.2.1,Win32,60.24096386,,,,,space,0.6041,NAN,,NAN,0.83,5.17,,0,37,37,37,1,38,Riley,Rej,Participant_Images/670d326c55fa3d6f10ebe253/670d326c55fa3d6f10ebe253_Images/670d326c55fa3d6f10ebe253_Image_24.jpeg,did not like,2.843822497,,,,,,,,,,,,,,,,,,,,,,,
,,670d326c55fa3d6f10ebe253,6685aa9113c938e83b4f1ea0,671c534eec458c9e4d982071,2024-10-25_21h27.36.825,WTP_SM_Choice,2022.2.1,Win32,60.24096386,,,,,space,1.4905,NAN,,NAN,0.83,5.17,,0,38,38,38,1,39,Riley,Rej,Participant_Images/670d326c55fa3d6f10ebe253/670d326c55fa3d6f10ebe253_Images/670d326c55fa3d6f10ebe253_Image_22.jpeg,liked,3.546495948,,,,,,,,,,,,,,,,,,,,,,,
,,670d326c55fa3d6f10ebe253,6685aa9113c938e83b4f1ea0,671c534eec458c9e4d982071,2024-10-25_21h27.36.825,WTP_SM_Choice,2022.2.1,Win32,60.24096386,,,,,,,,,,,,,,,,,,36,,,,,,space,1.1685,space,5.5684,0.01,1,3.0218,0,0,0,0,1,Paint on rocks during the summer ,Go out to eat after at our favorite chinese spot church every sunday ,0.01,0.03,3.3,1,,,,,
,,670d326c55fa3d6f10ebe253,6685aa9113c938e83b4f1ea0,671c534eec458c9e4d982071,2024-10-25_21h27.36.825,WTP_SM_Choice,2022.2.1,Win32,60.24096386,,,,,,,,,,,,,,,,,,37,,,,,,,,,,0.02,1,3.791,0,1,1,1,1,Watch football with nick my husband every weekend,Run in the morning with the smell of rain in the air ,0.02,0.03,1.1,0,,,,,
,,670d326c55fa3d6f10ebe253,6685aa9113c938e83b4f1ea0,671c534eec458c9e4d982071,2024-10-25_21h27.36.825,WTP_SM_Choice,2022.2.1,Win32,60.24096386,,,,,,,,,,,,,,,,,,38,,,,,,,,,,0.03,1,1.451,0,2,2,2,1,Paint on rocks during the summer ,Make cookies with my cousins on holidays,0.03,0.03,1.1,1,,,,,
,,670d326c55fa3d6f10ebe253,6685aa9113c938e83b4f1ea0,671c534eec458c9e4d982071,2024-10-25_21h27.36.825,WTP_SM_Choice,2022.2.1,Win32,60.24096386,,,,,,,,,,,,,,,,,,39,,,,,,,,,,0.04,1,2.3415,0,3,3,3,1,Go out to eat after at our favorite chinese spot church every sunday ,Star gaze on my roof for the best view of the sky,0.04,0.03,3.3,0,,,,,
,,670d326c55fa3d6f10ebe253,6685aa9113c938e83b4f1ea0,671c534eec458c9e4d982071,2024-10-25_21h27.36.825,WTP_SM_Choice,2022.2.1,Win32,60.24096386,,,,,,,,,,,,,,,,,,40,,,,,,,,,,0.05,1,1.8175,0,4,4,4,1,Crochet new plushies with zero destractions in my room ,Roast smores with all my family on holidays allows us to catch up ,0.05,0.03,4.4,1,,,,,
,,670d326c55fa3d6f10ebe253,6685aa9113c938e83b4f1ea0,671c534eec458c9e4d982071,2024-10-25_21h27.36.825,WTP_SM_Choice,2022.2.1,Win32,60.24096386,,,,,,,NAN,,NAN,0.98,5.02,,0,39,39,39,1,40,Riley,Rej,Participant_Images/670d326c55fa3d6f10ebe253/670d326c55fa3d6f10ebe253_Images/670d326c55fa3d6f10ebe253_Image_23.jpeg,did not like,1.672012706,,,,,,,,,,,,,,,,,,,,,,,
,,670d326c55fa3d6f10ebe253,6685aa9113c938e83b4f1ea0,671c534eec458c9e4d982071,2024-10-25_21h27.36.825,WTP_SM_Choice,2022.2.1,Win32,60.24096386,,,,,space,2.151,NAN,,NAN,0.98,5.02,,0,40,40,40,1,41,Riley,Rej,Participant_Images/670d326c55fa3d6f10ebe253/670d326c55fa3d6f10ebe253_Images/670d326c55fa3d6f10ebe253_Image_4.jpeg,did not like,4.942172136,,,,,,,,,,,,,,,,,,,,,,,
,,670d326c55fa3d6f10ebe253,6685aa9113c938e83b4f1ea0,671c534eec458c9e4d982071,2024-10-25_21h27.36.825,WTP_SM_Choice,2022.2.1,Win32,60.24096386,,,,,space,0.8445,NAN,,NAN,0.98,5.02,,0,41,41,41,1,42,Riley,Rej,Participant_Images/670d326c55fa3d6f10ebe253/670d326c55fa3d6f10ebe253_Images/670d326c55fa3d6f10ebe253_Image_10.jpeg,did not like,2.50187214,,,,,,,,,,,,,,,,,,,,,,,
,,670d326c55fa3d6f10ebe253,6685aa9113c938e83b4f1ea0,671c534eec458c9e4d982071,2024-10-25_21h27.36.825,WTP_SM_Choice,2022.2.1,Win32,60.24096386,,,,,space,0.4573,NAN,,NAN,0.98,5.02,,0,42,42,42,1,43,Riley,Rej,Participant_Images/670d326c55fa3d6f10ebe253/670d326c55fa3d6f10ebe253_Images/670d326c55fa3d6f10ebe253_Image_25.jpeg,did not like,2.071164779,,,,,,,,,,,,,,,,,,,,,,,
,,670d326c55fa3d6f10ebe253,6685aa9113c938e83b4f1ea0,671c534eec458c9e4d982071,2024-10-25_21h27.36.825,WTP_SM_Choice,2022.2.1,Win32,60.24096386,,,,,space,1.0376,NAN,,NAN,0.98,5.02,,0,43,43,43,1,44,Riley,Rej,Participant_Images/670d326c55fa3d6f10ebe253/670d326c55fa3d6f10ebe253_Images/670d326c55fa3d6f10ebe253_Image_19.jpeg,did not like,5.336503566,,,,,,,,,,,,,,,,,,,,,,,
,,670d326c55fa3d6f10ebe253,6685aa9113c938e83b4f1ea0,671c534eec458c9e4d982071,2024-10-25_21h27.36.825,WTP_SM_Choice,2022.2.1,Win32,60.24096386,,,,,,,,,,,,,,,,,,41,,,,,,space,7.6071,space,1.3853,0.01,1,1.6118,0,0,0,0,1,Go to a cafe to see my bestfriends every 6 weeks ,Crochet new plushies with zero destractions in my room ,0.01,0.04,1.1,0,,,,,
,,670d326c55fa3d6f10ebe253,6685aa9113c938e83b4f1ea0,671c534eec458c9e4d982071,2024-10-25_21h27.36.825,WTP_SM_Choice,2022.2.1,Win32,60.24096386,,,,,,,,,,,,,,,,,,42,,,,,,,,,,0.02,1,1.9845,0,1,1,1,1,Go out to eat after at our favorite chinese spot church every sunday , Water my plants on a slow friday morning outside,0.02,0.04,3.3,0,,,,,
,,670d326c55fa3d6f10ebe253,6685aa9113c938e83b4f1ea0,671c534eec458c9e4d982071,2024-10-25_21h27.36.825,WTP_SM_Choice,2022.2.1,Win32,60.24096386,,,,,,,,,,,,,,,,,,43,,,,,,,,,,0.03,1,1.7171,0,2,2,2,1,Make cookies with my cousins on holidays, Water my plants on a slow friday morning outside,0.03,0.04,1.1,0,,,,,
,,670d326c55fa3d6f10ebe253,6685aa9113c938e83b4f1ea0,671c534eec458c9e4d982071,2024-10-25_21h27.36.825,WTP_SM_Choice,2022.2.1,Win32,60.24096386,,,,,,,,,,,,,,,,,,44,,,,,,,,,,0.04,1,2.5679,0,3,3,3,1,Run in the morning with the smell of rain in the air ,Meet my family at church every sunday,0.04,0.04,1.1,1,,,,,
,,670d326c55fa3d6f10ebe253,6685aa9113c938e83b4f1ea0,671c534eec458c9e4d982071,2024-10-25_21h27.36.825,WTP_SM_Choice,2022.2.1,Win32,60.24096386,,,,,,,,,,,,,,,,,,45,,,,,,,,,,0.04,2,1.9657,0,4,4,4,1,Paint on rocks during the summer ,Meet up with old co workers every few months at a new restaurant,0.05,0.04,4.4,1,,,,,
,,670d326c55fa3d6f10ebe253,6685aa9113c938e83b4f1ea0,671c534eec458c9e4d982071,2024-10-25_21h27.36.825,WTP_SM_Choice,2022.2.1,Win32,60.24096386,,,,,,,NAN,,NAN,1.12,4.88,,0,44,44,44,1,45,Riley,Rej,Participant_Images/670d326c55fa3d6f10ebe253/670d326c55fa3d6f10ebe253_Images/670d326c55fa3d6f10ebe253_Image_9.jpeg,liked,2.642157193,,,,,,,,,,,,,,,,,,,,,,,
,,670d326c55fa3d6f10ebe253,6685aa9113c938e83b4f1ea0,671c534eec458c9e4d982071,2024-10-25_21h27.36.825,WTP_SM_Choice,2022.2.1,Win32,60.24096386,,,,,space,2.7015,NAN,,NAN,1.12,4.88,,0,45,45,45,1,46,Riley,Rej,Participant_Images/670d326c55fa3d6f10ebe253/670d326c55fa3d6f10ebe253_Images/670d326c55fa3d6f10ebe253_Image_7.jpeg,did not like,4.456234322,,,,,,,,,,,,,,,,,,,,,,,
,,670d326c55fa3d6f10ebe253,6685aa9113c938e83b4f1ea0,671c534eec458c9e4d982071,2024-10-25_21h27.36.825,WTP_SM_Choice,2022.2.1,Win32,60.24096386,,,,,space,0.7078,NAN,,NAN,1.12,4.88,,0,46,46,46,1,47,Riley,Rej,Participant_Images/670d326c55fa3d6f10ebe253/670d326c55fa3d6f10ebe253_Images/670d326c55fa3d6f10ebe253_Image_13.jpeg,did not like,4.438512181,,,,,,,,,,,,,,,,,,,,,,,
,,670d326c55fa3d6f10ebe253,6685aa9113c938e83b4f1ea0,671c534eec458c9e4d982071,2024-10-25_21h27.36.825,WTP_SM_Choice,2022.2.1,Win32,60.24096386,,,,,space,0.9256,NAN,,NAN,1.12,4.88,,0,47,47,47,1,48,Riley,Rej,Participant_Images/670d326c55fa3d6f10ebe253/670d326c55fa3d6f10ebe253_Images/670d326c55fa3d6f10ebe253_Image_14.jpeg,did not like,2.682944783,,,,,,,,,,,,,,,,,,,,,,,
,,670d326c55fa3d6f10ebe253,6685aa9113c938e83b4f1ea0,671c534eec458c9e4d982071,2024-10-25_21h27.36.825,WTP_SM_Choice,2022.2.1,Win32,60.24096386,,,,,space,0.7184,NAN,,NAN,1.12,4.88,,0,48,48,48,1,49,Riley,Rej,Participant_Images/670d326c55fa3d6f10ebe253/670d326c55fa3d6f10ebe253_Images/670d326c55fa3d6f10ebe253_Image_5.jpeg,did not like,4.51984296,,,,,,,,,,,,,,,,,,,,,,,
,,670d326c55fa3d6f10ebe253,6685aa9113c938e83b4f1ea0,671c534eec458c9e4d982071,2024-10-25_21h27.36.825,WTP_SM_Choice,2022.2.1,Win32,60.24096386,,,,,,,,,,,,,,,,,,46,,,,,,space,1.4514,space,13.5487,0.01,1,2.2189,0,0,0,0,1,Star gaze on my roof for the best view of the sky,Make cookies with my cousins on holidays,0.01,0.05,8.8,1,,,,,
,,670d326c55fa3d6f10ebe253,6685aa9113c938e83b4f1ea0,671c534eec458c9e4d982071,2024-10-25_21h27.36.825,WTP_SM_Choice,2022.2.1,Win32,60.24096386,,,,,,,,,,,,,,,,,,47,,,,,,,,,,0.05,2,1.6759,0,1,1,1,1,Go out to eat after at our favorite chinese spot church every sunday ,Crochet new plushies with zero destractions in my room ,0.02,0.05,1.1,0,,,,,
,,670d326c55fa3d6f10ebe253,6685aa9113c938e83b4f1ea0,671c534eec458c9e4d982071,2024-10-25_21h27.36.825,WTP_SM_Choice,2022.2.1,Win32,60.24096386,,,,,,,,,,,,,,,,,,48,,,,,,,,,,0.03,1,2.5338,0,2,2,2,1,Run in the morning with the smell of rain in the air ,Play video games with my best friend every night after 8,0.03,0.05,4.4,1,,,,,
,,670d326c55fa3d6f10ebe253,6685aa9113c938e83b4f1ea0,671c534eec458c9e4d982071,2024-10-25_21h27.36.825,WTP_SM_Choice,2022.2.1,Win32,60.24096386,,,,,,,,,,,,,,,,,,49,,,,,,,,,,0.05,2,2.5212,0,3,3,3,1,Meet at a plant store with my sisters to buy plants once a year,Run in the morning with the smell of rain in the air ,0.04,0.05,3.3,0,,,,,
,,670d326c55fa3d6f10ebe253,6685aa9113c938e83b4f1ea0,671c534eec458c9e4d982071,2024-10-25_21h27.36.825,WTP_SM_Choice,2022.2.1,Win32,60.24096386,,,,,,,,,,,,,,,,,,50,,,,,,,,,,0.05,2,1.5491,0,4,4,4,1, Water my plants on a slow friday morning outside,Meet my family at church every sunday,0.05,0.05,1.1,1,,,,,
,,670d326c55fa3d6f10ebe253,6685aa9113c938e83b4f1ea0,671c534eec458c9e4d982071,2024-10-25_21h27.36.825,WTP_SM_Choice,2022.2.1,Win32,60.24096386,,,,,,,3,,6,1.31,4.69,,0,49,49,49,1,50,Riley,Rej,Participant_Images/670d326c55fa3d6f10ebe253/670d326c55fa3d6f10ebe253_Images/670d326c55fa3d6f10ebe253_Image_8.jpeg,did not like,3.195382774,,,,,,,,,,,,,,,,,,,space,0.8171,,,
,,670d326c55fa3d6f10ebe253,6685aa9113c938e83b4f1ea0,671c534eec458c9e4d982071,2024-10-25_21h27.36.825,WTP_SM_Choice,2022.2.1,Win32,60.24096386,,,space,1.9529,space,2.1682,NAN,,NAN,1.31,4.69,,0,50,50,50,1,51,Sam,Rej,Participant_Images/670d326c55fa3d6f10ebe253/670d326c55fa3d6f10ebe253_Images/670d326c55fa3d6f10ebe253_Image_17.jpeg,did not like,1.779333479,,,,,,,,,,,,,,,,,,,,,,,
,,670d326c55fa3d6f10ebe253,6685aa9113c938e83b4f1ea0,671c534eec458c9e4d982071,2024-10-25_21h27.36.825,WTP_SM_Choice,2022.2.1,Win32,60.24096386,,,,,space,0.7039,NAN,,NAN,1.31,4.69,,0,51,51,51,1,52,Sam,Rej,Participant_Images/670d326c55fa3d6f10ebe253/670d326c55fa3d6f10ebe253_Images/670d326c55fa3d6f10ebe253_Image_21.jpeg,did not like,4.312468682,,,,,,,,,,,,,,,,,,,,,,,
,,670d326c55fa3d6f10ebe253,6685aa9113c938e83b4f1ea0,671c534eec458c9e4d982071,2024-10-25_21h27.36.825,WTP_SM_Choice,2022.2.1,Win32,60.24096386,,,,,space,1.5009,NAN,,NAN,1.31,4.69,,0,52,52,52,1,53,Sam,Rej,Participant_Images/670d326c55fa3d6f10ebe253/670d326c55fa3d6f10ebe253_Images/670d326c55fa3d6f10ebe253_Image_14.jpeg,did not like,4.940433059,,,,,,,,,,,,,,,,,,,,,,,
,,670d326c55fa3d6f10ebe253,6685aa9113c938e83b4f1ea0,671c534eec458c9e4d982071,2024-10-25_21h27.36.825,WTP_SM_Choice,2022.2.1,Win32,60.24096386,,,,,space,1.2438,NAN,,NAN,1.31,4.69,,0,53,53,53,1,54,Sam,Rej,Participant_Images/670d326c55fa3d6f10ebe253/670d326c55fa3d6f10ebe253_Images/670d326c55fa3d6f10ebe253_Image_25.jpeg,did not like,2.7105123,,,,,,,,,,,,,,,,,,,,,,,
,,670d326c55fa3d6f10ebe253,6685aa9113c938e83b4f1ea0,671c534eec458c9e4d982071,2024-10-25_21h27.36.825,WTP_SM_Choice,2022.2.1,Win32,60.24096386,,,,,,,,,,,,,,,,,,51,,,,,,space,2.1849,space,1.1618,0.01,2,1.0476,0,0,0,0,1,Binge watch a netflix show and finishing it the same day,Roast smores with all my family on holidays allows us to catch up ,0.01,0.01,1.1,1,,,,,
,,670d326c55fa3d6f10ebe253,6685aa9113c938e83b4f1ea0,671c534eec458c9e4d982071,2024-10-25_21h27.36.825,WTP_SM_Choice,2022.2.1,Win32,60.24096386,,,,,,,,,,,,,,,,,,52,,,,,,,,,,0.02,1,2.8955,0,1,1,1,1,Go to a cafe to see my bestfriends every 6 weeks , Water my plants on a slow friday morning outside,0.02,0.01,3.3,0,,,,,
,,670d326c55fa3d6f10ebe253,6685aa9113c938e83b4f1ea0,671c534eec458c9e4d982071,2024-10-25_21h27.36.825,WTP_SM_Choice,2022.2.1,Win32,60.24096386,,,,,,,,,,,,,,,,,,53,,,,,,,,,,0.03,1,2.995,0,2,2,2,1,Run in the morning with the smell of rain in the air ,Roast smores with all my family on holidays allows us to catch up ,0.03,0.01,1.1,1,,,,,
,,670d326c55fa3d6f10ebe253,6685aa9113c938e83b4f1ea0,671c534eec458c9e4d982071,2024-10-25_21h27.36.825,WTP_SM_Choice,2022.2.1,Win32,60.24096386,,,,,,,,,,,,,,,,,,54,,,,,,,,,,0.01,2,2.6436,0,3,3,3,1,Binge watch a netflix show and finishing it the same day,Meet my family at church every sunday,0.04,0.01,4.4,1,,,,,
,,670d326c55fa3d6f10ebe253,6685aa9113c938e83b4f1ea0,671c534eec458c9e4d982071,2024-10-25_21h27.36.825,WTP_SM_Choice,2022.2.1,Win32,60.24096386,,,,,,,,,,,,,,,,,,55,,,,,,,,,,0.01,2,2.8078,0,4,4,4,1,Run in the morning with the smell of rain in the air ,Go out to eat after at our favorite chinese spot church every sunday ,0.05,0.01,1.1,1,,,,,
,,670d326c55fa3d6f10ebe253,6685aa9113c938e83b4f1ea0,671c534eec458c9e4d982071,2024-10-25_21h27.36.825,WTP_SM_Choice,2022.2.1,Win32,60.24096386,,,,,,,NAN,,NAN,1.39,4.61,,0,54,54,54,1,55,Sam,Rej,Participant_Images/670d326c55fa3d6f10ebe253/670d326c55fa3d6f10ebe253_Images/670d326c55fa3d6f10ebe253_Image_18.jpeg,did not like,3.602308302,,,,,,,,,,,,,,,,,,,,,,,
,,670d326c55fa3d6f10ebe253,6685aa9113c938e83b4f1ea0,671c534eec458c9e4d982071,2024-10-25_21h27.36.825,WTP_SM_Choice,2022.2.1,Win32,60.24096386,,,,,space,2.1831,NAN,,NAN,1.39,4.61,,0,55,55,55,1,56,Sam,Rej,Participant_Images/670d326c55fa3d6f10ebe253/670d326c55fa3d6f10ebe253_Images/670d326c55fa3d6f10ebe253_Image_22.jpeg,liked,4.106391878,,,,,,,,,,,,,,,,,,,,,,,
,,670d326c55fa3d6f10ebe253,6685aa9113c938e83b4f1ea0,671c534eec458c9e4d982071,2024-10-25_21h27.36.825,WTP_SM_Choice,2022.2.1,Win32,60.24096386,,,,,space,2.6296,NAN,,NAN,1.39,4.61,,0,56,56,56,1,57,Sam,Rej,Participant_Images/670d326c55fa3d6f10ebe253/670d326c55fa3d6f10ebe253_Images/670d326c55fa3d6f10ebe253_Image_4.jpeg,did not like,3.799433026,,,,,,,,,,,,,,,,,,,,,,,
,,670d326c55fa3d6f10ebe253,6685aa9113c938e83b4f1ea0,671c534eec458c9e4d982071,2024-10-25_21h27.36.825,WTP_SM_Choice,2022.2.1,Win32,60.24096386,,,,,space,1.3925,NAN,,NAN,1.39,4.61,,0,57,57,57,1,58,Sam,Rej,Participant_Images/670d326c55fa3d6f10ebe253/670d326c55fa3d6f10ebe253_Images/670d326c55fa3d6f10ebe253_Image_15.jpeg,did not like,5.246980764,,,,,,,,,,,,,,,,,,,,,,,
,,670d326c55fa3d6f10ebe253,6685aa9113c938e83b4f1ea0,671c534eec458c9e4d982071,2024-10-25_21h27.36.825,WTP_SM_Choice,2022.2.1,Win32,60.24096386,,,,,space,0.8681,NAN,,NAN,1.39,4.61,,0,58,58,58,1,59,Sam,Rej,Participant_Images/670d326c55fa3d6f10ebe253/670d326c55fa3d6f10ebe253_Images/670d326c55fa3d6f10ebe253_Image_16.jpeg,liked,3.30081769,,,,,,,,,,,,,,,,,,,,,,,
,,670d326c55fa3d6f10ebe253,6685aa9113c938e83b4f1ea0,671c534eec458c9e4d982071,2024-10-25_21h27.36.825,WTP_SM_Choice,2022.2.1,Win32,60.24096386,,,,,,,,,,,,,,,,,,56,,,,,,space,2.0534,space,2.473,0.02,2,1.976,0,0,0,0,1,Roast smores with all my family on holidays allows us to catch up ,Walk around the block during sunrise on a sunday for 30 mintues  ,0.01,0.02,8.8,0,,,,,
,,670d326c55fa3d6f10ebe253,6685aa9113c938e83b4f1ea0,671c534eec458c9e4d982071,2024-10-25_21h27.36.825,WTP_SM_Choice,2022.2.1,Win32,60.24096386,,,,,,,,,,,,,,,,,,57,,,,,,,,,,0.02,1,3.0349,0,1,1,1,1,Watch football with nick my husband every weekend,Binge watch a netflix show and finishing it the same day,0.02,0.02,4.4,0,,,,,
,,670d326c55fa3d6f10ebe253,6685aa9113c938e83b4f1ea0,671c534eec458c9e4d982071,2024-10-25_21h27.36.825,WTP_SM_Choice,2022.2.1,Win32,60.24096386,,,,,,,,,,,,,,,,,,58,,,,,,,,,,0.02,2,2.542,0,2,2,2,1,Go to a cafe to see my bestfriends every 6 weeks ,Walk around the block during sunrise on a sunday for 30 mintues  ,0.03,0.02,4.4,0,,,,,
,,670d326c55fa3d6f10ebe253,6685aa9113c938e83b4f1ea0,671c534eec458c9e4d982071,2024-10-25_21h27.36.825,WTP_SM_Choice,2022.2.1,Win32,60.24096386,,,,,,,,,,,,,,,,,,59,,,,,,,,,,0.04,1,2.0773,0,3,3,3,1,Meet up with old co workers every few months at a new restaurant, Plant shop to see new kinds of plants they have ,0.04,0.02,4.4,0,,,,,
,,670d326c55fa3d6f10ebe253,6685aa9113c938e83b4f1ea0,671c534eec458c9e4d982071,2024-10-25_21h27.36.825,WTP_SM_Choice,2022.2.1,Win32,60.24096386,,,,,,,,,,,,,,,,,,60,,,,,,,,,,0.05,1,2.4327,0,4,4,4,1,Walk around the block during sunrise on a sunday for 30 mintues  ,Meet at a plant store with my sisters to buy plants once a year,0.05,0.02,1.1,1,,,,,
,,670d326c55fa3d6f10ebe253,6685aa9113c938e83b4f1ea0,671c534eec458c9e4d982071,2024-10-25_21h27.36.825,WTP_SM_Choice,2022.2.1,Win32,60.24096386,,,,,,,NAN,,NAN,1.54,4.46,,0,59,59,59,1,60,Sam,Rej,Participant_Images/670d326c55fa3d6f10ebe253/670d326c55fa3d6f10ebe253_Images/670d326c55fa3d6f10ebe253_Image_11.jpeg,did not like,1.661473164,,,,,,,,,,,,,,,,,,,,,,,
,,670d326c55fa3d6f10ebe253,6685aa9113c938e83b4f1ea0,671c534eec458c9e4d982071,2024-10-25_21h27.36.825,WTP_SM_Choice,2022.2.1,Win32,60.24096386,,,,,space,3.2218,NAN,,NAN,1.54,4.46,,0,60,60,60,1,61,Sam,Rej,Participant_Images/670d326c55fa3d6f10ebe253/670d326c55fa3d6f10ebe253_Images/670d326c55fa3d6f10ebe253_Image_13.jpeg,did not like,3.613205605,,,,,,,,,,,,,,,,,,,,,,,
,,670d326c55fa3d6f10ebe253,6685aa9113c938e83b4f1ea0,671c534eec458c9e4d982071,2024-10-25_21h27.36.825,WTP_SM_Choice,2022.2.1,Win32,60.24096386,,,,,space,5.3152,NAN,,NAN,1.54,4.46,,0,61,61,61,1,62,Sam,Rej,Participant_Images/670d326c55fa3d6f10ebe253/670d326c55fa3d6f10ebe253_Images/670d326c55fa3d6f10ebe253_Image_9.jpeg,did not like,4.988446431,,,,,,,,,,,,,,,,,,,,,,,
,,670d326c55fa3d6f10ebe253,6685aa9113c938e83b4f1ea0,671c534eec458c9e4d982071,2024-10-25_21h27.36.825,WTP_SM_Choice,2022.2.1,Win32,60.24096386,,,,,space,1.067,NAN,,NAN,1.54,4.46,,0,62,62,62,1,63,Sam,Rej,Participant_Images/670d326c55fa3d6f10ebe253/670d326c55fa3d6f10ebe253_Images/670d326c55fa3d6f10ebe253_Image_6.jpeg,liked,3.470791822,,,,,,,,,,,,,,,,,,,,,,,
,,670d326c55fa3d6f10ebe253,6685aa9113c938e83b4f1ea0,671c534eec458c9e4d982071,2024-10-25_21h27.36.825,WTP_SM_Choice,2022.2.1,Win32,60.24096386,,,,,space,0.6239,NAN,,NAN,1.54,4.46,,0,63,63,63,1,64,Sam,Rej,Participant_Images/670d326c55fa3d6f10ebe253/670d326c55fa3d6f10ebe253_Images/670d326c55fa3d6f10ebe253_Image_23.jpeg,liked,3.820572462,,,,,,,,,,,,,,,,,,,,,,,
,,670d326c55fa3d6f10ebe253,6685aa9113c938e83b4f1ea0,671c534eec458c9e4d982071,2024-10-25_21h27.36.825,WTP_SM_Choice,2022.2.1,Win32,60.24096386,,,,,,,,,,,,,,,,,,61,,,,,,space,1.347,space,2.3548,0.03,2,2.6579,0,0,0,0,1,Star gaze on my roof for the best view of the sky,Meet my family at church every sunday,0.01,0.03,3.3,1,,,,,
,,670d326c55fa3d6f10ebe253,6685aa9113c938e83b4f1ea0,671c534eec458c9e4d982071,2024-10-25_21h27.36.825,WTP_SM_Choice,2022.2.1,Win32,60.24096386,,,,,,,,,,,,,,,,,,62,,,,,,,,,,0.02,1,1.91,0,1,1,1,1,Drive to go get coffee on a foggy day ,Make cookies with my cousins on holidays,0.02,0.03,3.3,1,,,,,
,,670d326c55fa3d6f10ebe253,6685aa9113c938e83b4f1ea0,671c534eec458c9e4d982071,2024-10-25_21h27.36.825,WTP_SM_Choice,2022.2.1,Win32,60.24096386,,,,,,,,,,,,,,,,,,63,,,,,,,,,,0.03,1,2.7848,0,2,2,2,1,Make cookies with my cousins on holidays, Plant shop to see new kinds of plants they have ,0.03,0.03,3.3,0,,,,,
,,670d326c55fa3d6f10ebe253,6685aa9113c938e83b4f1ea0,671c534eec458c9e4d982071,2024-10-25_21h27.36.825,WTP_SM_Choice,2022.2.1,Win32,60.24096386,,,,,,,,,,,,,,,,,,64,,,,,,,,,,0.03,2,1.8776,0,3,3,3,1,Meet at a plant store with my sisters to buy plants once a year,Meditate in my backyard at night to hear all the crickets sing ,0.04,0.03,1.1,0,,,,,
,,670d326c55fa3d6f10ebe253,6685aa9113c938e83b4f1ea0,671c534eec458c9e4d982071,2024-10-25_21h27.36.825,WTP_SM_Choice,2022.2.1,Win32,60.24096386,,,,,,,,,,,,,,,,,,65,,,,,,,,,,0.03,2,1.346,0,4,4,4,1, Plant shop to see new kinds of plants they have ,Go out to eat after at our favorite chinese spot church every sunday ,0.05,0.03,1.1,1,,,,,
,,670d326c55fa3d6f10ebe253,6685aa9113c938e83b4f1ea0,671c534eec458c9e4d982071,2024-10-25_21h27.36.825,WTP_SM_Choice,2022.2.1,Win32,60.24096386,,,,,,,NAN,,NAN,1.68,4.32,,0,64,64,64,1,65,Sam,Rej,Participant_Images/670d326c55fa3d6f10ebe253/670d326c55fa3d6f10ebe253_Images/670d326c55fa3d6f10ebe253_Image_24.jpeg,did not like,2.455989137,,,,,,,,,,,,,,,,,,,,,,,
,,670d326c55fa3d6f10ebe253,6685aa9113c938e83b4f1ea0,671c534eec458c9e4d982071,2024-10-25_21h27.36.825,WTP_SM_Choice,2022.2.1,Win32,60.24096386,,,,,space,3.0772,NAN,,NAN,1.68,4.32,,0,65,65,65,1,66,Sam,Rej,Participant_Images/670d326c55fa3d6f10ebe253/670d326c55fa3d6f10ebe253_Images/670d326c55fa3d6f10ebe253_Image_10.jpeg,did not like,3.79605092,,,,,,,,,,,,,,,,,,,,,,,
,,670d326c55fa3d6f10ebe253,6685aa9113c938e83b4f1ea0,671c534eec458c9e4d982071,2024-10-25_21h27.36.825,WTP_SM_Choice,2022.2.1,Win32,60.24096386,,,,,space,0.617,NAN,,NAN,1.68,4.32,,0,66,66,66,1,67,Sam,Rej,Participant_Images/670d326c55fa3d6f10ebe253/670d326c55fa3d6f10ebe253_Images/670d326c55fa3d6f10ebe253_Image_2.jpeg,liked,3.562416326,,,,,,,,,,,,,,,,,,,,,,,
,,670d326c55fa3d6f10ebe253,6685aa9113c938e83b4f1ea0,671c534eec458c9e4d982071,2024-10-25_21h27.36.825,WTP_SM_Choice,2022.2.1,Win32,60.24096386,,,,,space,0.9053,NAN,,NAN,1.68,4.32,,0,67,67,67,1,68,Sam,Rej,Participant_Images/670d326c55fa3d6f10ebe253/670d326c55fa3d6f10ebe253_Images/670d326c55fa3d6f10ebe253_Image_19.jpeg,did not like,2.843822497,,,,,,,,,,,,,,,,,,,,,,,
,,670d326c55fa3d6f10ebe253,6685aa9113c938e83b4f1ea0,671c534eec458c9e4d982071,2024-10-25_21h27.36.825,WTP_SM_Choice,2022.2.1,Win32,60.24096386,,,,,space,4.416,NAN,,NAN,1.68,4.32,,0,68,68,68,1,69,Sam,Rej,Participant_Images/670d326c55fa3d6f10ebe253/670d326c55fa3d6f10ebe253_Images/670d326c55fa3d6f10ebe253_Image_8.jpeg,did not like,3.546495948,,,,,,,,,,,,,,,,,,,,,,,
,,670d326c55fa3d6f10ebe253,6685aa9113c938e83b4f1ea0,671c534eec458c9e4d982071,2024-10-25_21h27.36.825,WTP_SM_Choice,2022.2.1,Win32,60.24096386,,,,,,,,,,,,,,,,,,66,,,,,,space,1.4714,space,0.7844,0.01,1,1.7113,0,0,0,0,1,Watch movies with my family once a month,Walk around the block during sunrise on a sunday for 30 mintues  ,0.01,0.04,1.1,0,,,,,
,,670d326c55fa3d6f10ebe253,6685aa9113c938e83b4f1ea0,671c534eec458c9e4d982071,2024-10-25_21h27.36.825,WTP_SM_Choice,2022.2.1,Win32,60.24096386,,,,,,,,,,,,,,,,,,67,,,,,,,,,,0.02,1,1.739,0,1,1,1,1,Meet my family at church every sunday,Paint on rocks during the summer ,0.02,0.04,8.8,0,,,,,
,,670d326c55fa3d6f10ebe253,6685aa9113c938e83b4f1ea0,671c534eec458c9e4d982071,2024-10-25_21h27.36.825,WTP_SM_Choice,2022.2.1,Win32,60.24096386,,,,,,,,,,,,,,,,,,68,,,,,,,,,,0.03,1,1.7307,0,2,2,2,1,Run in the morning with the smell of rain in the air ,Watch movies with my family once a month,0.03,0.04,4.4,1,,,,,
,,670d326c55fa3d6f10ebe253,6685aa9113c938e83b4f1ea0,671c534eec458c9e4d982071,2024-10-25_21h27.36.825,WTP_SM_Choice,2022.2.1,Win32,60.24096386,,,,,,,,,,,,,,,,,,69,,,,,,,,,,0.04,2,2.1698,0,3,3,3,1, Water my plants on a slow friday morning outside,Watch movies with my family once a month,0.04,0.04,1.1,1,,,,,
,,670d326c55fa3d6f10ebe253,6685aa9113c938e83b4f1ea0,671c534eec458c9e4d982071,2024-10-25_21h27.36.825,WTP_SM_Choice,2022.2.1,Win32,60.24096386,,,,,,,,,,,,,,,,,,70,,,,,,,,,,0.04,2,3.5949,0,4,4,4,1,Watch movies with my family once a month,Meditate in my backyard at night to hear all the crickets sing ,0.05,0.04,1.1,0,,,,,
,,670d326c55fa3d6f10ebe253,6685aa9113c938e83b4f1ea0,671c534eec458c9e4d982071,2024-10-25_21h27.36.825,WTP_SM_Choice,2022.2.1,Win32,60.24096386,,,,,,,NAN,,NAN,1.82,4.18,,0,69,69,69,1,70,Sam,Rej,Participant_Images/670d326c55fa3d6f10ebe253/670d326c55fa3d6f10ebe253_Images/670d326c55fa3d6f10ebe253_Image_12.jpeg,did not like,1.672012706,,,,,,,,,,,,,,,,,,,,,,,
,,670d326c55fa3d6f10ebe253,6685aa9113c938e83b4f1ea0,671c534eec458c9e4d982071,2024-10-25_21h27.36.825,WTP_SM_Choice,2022.2.1,Win32,60.24096386,,,,,space,2.4441,NAN,,NAN,1.82,4.18,,0,70,70,70,1,71,Sam,Rej,Participant_Images/670d326c55fa3d6f10ebe253/670d326c55fa3d6f10ebe253_Images/670d326c55fa3d6f10ebe253_Image_7.jpeg,liked,4.942172136,,,,,,,,,,,,,,,,,,,,,,,
,,670d326c55fa3d6f10ebe253,6685aa9113c938e83b4f1ea0,671c534eec458c9e4d982071,2024-10-25_21h27.36.825,WTP_SM_Choice,2022.2.1,Win32,60.24096386,,,,,space,1.7882,NAN,,NAN,1.82,4.18,,0,71,71,71,1,72,Sam,Rej,Participant_Images/670d326c55fa3d6f10ebe253/670d326c55fa3d6f10ebe253_Images/670d326c55fa3d6f10ebe253_Image_5.jpeg,did not like,2.50187214,,,,,,,,,,,,,,,,,,,,,,,
,,670d326c55fa3d6f10ebe253,6685aa9113c938e83b4f1ea0,671c534eec458c9e4d982071,2024-10-25_21h27.36.825,WTP_SM_Choice,2022.2.1,Win32,60.24096386,,,,,space,2.9166,NAN,,NAN,1.82,4.18,,0,72,72,72,1,73,Sam,Rej,Participant_Images/670d326c55fa3d6f10ebe253/670d326c55fa3d6f10ebe253_Images/670d326c55fa3d6f10ebe253_Image_1.jpeg,liked,2.071164779,,,,,,,,,,,,,,,,,,,,,,,
,,670d326c55fa3d6f10ebe253,6685aa9113c938e83b4f1ea0,671c534eec458c9e4d982071,2024-10-25_21h27.36.825,WTP_SM_Choice,2022.2.1,Win32,60.24096386,,,,,space,1.0245,NAN,,NAN,1.82,4.18,,0,73,73,73,1,74,Sam,Rej,Participant_Images/670d326c55fa3d6f10ebe253/670d326c55fa3d6f10ebe253_Images/670d326c55fa3d6f10ebe253_Image_20.jpeg,did not like,5.336503566,,,,,,,,,,,,,,,,,,,,,,,
,,670d326c55fa3d6f10ebe253,6685aa9113c938e83b4f1ea0,671c534eec458c9e4d982071,2024-10-25_21h27.36.825,WTP_SM_Choice,2022.2.1,Win32,60.24096386,,,,,,,,,,,,,,,,,,71,,,,,,space,0.7617,space,0.6507,0.05,2,2.1017,0,0,0,0,1,Binge watch a netflix show and finishing it the same day,Watch movies with my family once a month,0.01,0.05,3.3,1,,,,,
,,670d326c55fa3d6f10ebe253,6685aa9113c938e83b4f1ea0,671c534eec458c9e4d982071,2024-10-25_21h27.36.825,WTP_SM_Choice,2022.2.1,Win32,60.24096386,,,,,,,,,,,,,,,,,,72,,,,,,,,,,0.05,2,2.8124,0,1,1,1,1,Meet up with old co workers every few months at a new restaurant,Walk around the block during sunrise on a sunday for 30 mintues  ,0.02,0.05,8.8,0,,,,,
,,670d326c55fa3d6f10ebe253,6685aa9113c938e83b4f1ea0,671c534eec458c9e4d982071,2024-10-25_21h27.36.825,WTP_SM_Choice,2022.2.1,Win32,60.24096386,,,,,,,,,,,,,,,,,,73,,,,,,,,,,0.03,1,1.6259,0,2,2,2,1, Plant shop to see new kinds of plants they have ,Roast smores with all my family on holidays allows us to catch up ,0.03,0.05,3.3,1,,,,,
,,670d326c55fa3d6f10ebe253,6685aa9113c938e83b4f1ea0,671c534eec458c9e4d982071,2024-10-25_21h27.36.825,WTP_SM_Choice,2022.2.1,Win32,60.24096386,,,,,,,,,,,,,,,,,,74,,,,,,,,,,0.04,1,2.5163,0,3,3,3,1, Plant shop to see new kinds of plants they have ,Play video games with my best friend every night after 8,0.04,0.05,4.4,1,,,,,
,,670d326c55fa3d6f10ebe253,6685aa9113c938e83b4f1ea0,671c534eec458c9e4d982071,2024-10-25_21h27.36.825,WTP_SM_Choice,2022.2.1,Win32,60.24096386,,,,,,,,,,,,,,,,,,75,,,,,,,,,,0.05,2,1.4153,0,4,4,4,1,Go to a cafe to see my bestfriends every 6 weeks ,Run in the morning with the smell of rain in the air ,0.05,0.05,3.3,0,,,,,
,,670d326c55fa3d6f10ebe253,6685aa9113c938e83b4f1ea0,671c534eec458c9e4d982071,2024-10-25_21h27.36.825,WTP_SM_Choice,2022.2.1,Win32,60.24096386,,,,,,,1,,6,2.04,3.96,,0,74,74,74,1,75,Sam,Rej,Participant_Images/670d326c55fa3d6f10ebe253/670d326c55fa3d6f10ebe253_Images/670d326c55fa3d6f10ebe253_Image_3.jpeg,did not like,2.642157193,,,,,,,,,,,,,,,,,,,space,1.3343,,,
,,670d326c55fa3d6f10ebe253,6685aa9113c938e83b4f1ea0,671c534eec458c9e4d982071,2024-10-25_21h27.36.825,WTP_SM_Choice,2022.2.1,Win32,60.24096386,,,space,3.16,space,0.6009,NAN,,NAN,2.04,3.96,,0,75,75,75,1,76,Alex,Acc,Participant_Images/670d326c55fa3d6f10ebe253/670d326c55fa3d6f10ebe253_Images/670d326c55fa3d6f10ebe253_Image_24.jpeg,liked,4.456234322,,,,,,,,,,,,,,,,,,,,,,,
,,670d326c55fa3d6f10ebe253,6685aa9113c938e83b4f1ea0,671c534eec458c9e4d982071,2024-10-25_21h27.36.825,WTP_SM_Choice,2022.2.1,Win32,60.24096386,,,,,space,0.7021,NAN,,NAN,2.04,3.96,,0,76,76,76,1,77,Alex,Acc,Participant_Images/670d326c55fa3d6f10ebe253/670d326c55fa3d6f10ebe253_Images/670d326c55fa3d6f10ebe253_Image_7.jpeg,liked,4.438512181,,,,,,,,,,,,,,,,,,,,,,,
,,670d326c55fa3d6f10ebe253,6685aa9113c938e83b4f1ea0,671c534eec458c9e4d982071,2024-10-25_21h27.36.825,WTP_SM_Choice,2022.2.1,Win32,60.24096386,,,,,space,2.3176,NAN,,NAN,2.04,3.96,,0,77,77,77,1,78,Alex,Acc,Participant_Images/670d326c55fa3d6f10ebe253/670d326c55fa3d6f10ebe253_Images/670d326c55fa3d6f10ebe253_Image_18.jpeg,did not like,2.682944783,,,,,,,,,,,,,,,,,,,,,,,
,,670d326c55fa3d6f10ebe253,6685aa9113c938e83b4f1ea0,671c534eec458c9e4d982071,2024-10-25_21h27.36.825,WTP_SM_Choice,2022.2.1,Win32,60.24096386,,,,,space,0.1289,NAN,,NAN,2.04,3.96,,0,78,78,78,1,79,Alex,Acc,Participant_Images/670d326c55fa3d6f10ebe253/670d326c55fa3d6f10ebe253_Images/670d326c55fa3d6f10ebe253_Image_4.jpeg,did not like,4.51984296,,,,,,,,,,,,,,,,,,,,,,,
,,670d326c55fa3d6f10ebe253,6685aa9113c938e83b4f1ea0,671c534eec458c9e4d982071,2024-10-25_21h27.36.825,WTP_SM_Choice,2022.2.1,Win32,60.24096386,,,,,,,,,,,,,,,,,,76,,,,,,space,1.1682,space,0.9435,0.01,1,1.7469,0,0,0,0,1,Meet my family at church every sunday,Meditate in my backyard at night to hear all the crickets sing ,0.01,0.01,1.1,0,,,,,
,,670d326c55fa3d6f10ebe253,6685aa9113c938e83b4f1ea0,671c534eec458c9e4d982071,2024-10-25_21h27.36.825,WTP_SM_Choice,2022.2.1,Win32,60.24096386,,,,,,,,,,,,,,,,,,77,,,,,,,,,,0.01,2,2.3745,0,1,1,1,1,Go out to eat after at our favorite chinese spot church every sunday ,Meditate in my backyard at night to hear all the crickets sing ,0.02,0.01,8.8,0,,,,,
,,670d326c55fa3d6f10ebe253,6685aa9113c938e83b4f1ea0,671c534eec458c9e4d982071,2024-10-25_21h27.36.825,WTP_SM_Choice,2022.2.1,Win32,60.24096386,,,,,,,,,,,,,,,,,,78,,,,,,,,,,0.01,2,4.1635,0,2,2,2,1,Crochet new plushies with zero destractions in my room ,Watch movies with my family once a month,0.03,0.01,1.1,1,,,,,
,,670d326c55fa3d6f10ebe253,6685aa9113c938e83b4f1ea0,671c534eec458c9e4d982071,2024-10-25_21h27.36.825,WTP_SM_Choice,2022.2.1,Win32,60.24096386,,,,,,,,,,,,,,,,,,79,,,,,,,,,,0.04,1,2.8805,0,3,3,3,1,Watch movies with my family once a month, Plant shop to see new kinds of plants they have ,0.04,0.01,1.1,0,,,,,
,,670d326c55fa3d6f10ebe253,6685aa9113c938e83b4f1ea0,671c534eec458c9e4d982071,2024-10-25_21h27.36.825,WTP_SM_Choice,2022.2.1,Win32,60.24096386,,,,,,,,,,,,,,,,,,80,,,,,,,,,,0.01,2,2.098,0,4,4,4,1,Meet at a plant store with my sisters to buy plants once a year, Water my plants on a slow friday morning outside,0.05,0.01,4.4,0,,,,,
,,670d326c55fa3d6f10ebe253,6685aa9113c938e83b4f1ea0,671c534eec458c9e4d982071,2024-10-25_21h27.36.825,WTP_SM_Choice,2022.2.1,Win32,60.24096386,,,,,,,NAN,,NAN,2.12,3.88,,0,79,79,79,1,80,Alex,Acc,Participant_Images/670d326c55fa3d6f10ebe253/670d326c55fa3d6f10ebe253_Images/670d326c55fa3d6f10ebe253_Image_13.jpeg,liked,3.195382774,,,,,,,,,,,,,,,,,,,,,,,
,,670d326c55fa3d6f10ebe253,6685aa9113c938e83b4f1ea0,671c534eec458c9e4d982071,2024-10-25_21h27.36.825,WTP_SM_Choice,2022.2.1,Win32,60.24096386,,,,,space,2.2025,NAN,,NAN,2.12,3.88,,0,80,80,80,1,81,Alex,Acc,Participant_Images/670d326c55fa3d6f10ebe253/670d326c55fa3d6f10ebe253_Images/670d326c55fa3d6f10ebe253_Image_1.jpeg,liked,1.779333479,,,,,,,,,,,,,,,,,,,,,,,
,,670d326c55fa3d6f10ebe253,6685aa9113c938e83b4f1ea0,671c534eec458c9e4d982071,2024-10-25_21h27.36.825,WTP_SM_Choice,2022.2.1,Win32,60.24096386,,,,,space,0.029,NAN,,NAN,2.12,3.88,,0,81,81,81,1,82,Alex,Acc,Participant_Images/670d326c55fa3d6f10ebe253/670d326c55fa3d6f10ebe253_Images/670d326c55fa3d6f10ebe253_Image_20.jpeg,did not like,4.312468682,,,,,,,,,,,,,,,,,,,,,,,
,,670d326c55fa3d6f10ebe253,6685aa9113c938e83b4f1ea0,671c534eec458c9e4d982071,2024-10-25_21h27.36.825,WTP_SM_Choice,2022.2.1,Win32,60.24096386,,,,,space,9.4055,NAN,,NAN,2.12,3.88,,0,82,82,82,1,83,Alex,Acc,Participant_Images/670d326c55fa3d6f10ebe253/670d326c55fa3d6f10ebe253_Images/670d326c55fa3d6f10ebe253_Image_9.jpeg,liked,4.940433059,,,,,,,,,,,,,,,,,,,,,,,
,,670d326c55fa3d6f10ebe253,6685aa9113c938e83b4f1ea0,671c534eec458c9e4d982071,2024-10-25_21h27.36.825,WTP_SM_Choice,2022.2.1,Win32,60.24096386,,,,,space,1.8865,NAN,,NAN,2.12,3.88,,0,83,83,83,1,84,Alex,Acc,Participant_Images/670d326c55fa3d6f10ebe253/670d326c55fa3d6f10ebe253_Images/670d326c55fa3d6f10ebe253_Image_17.jpeg,liked,2.7105123,,,,,,,,,,,,,,,,,,,,,,,
,,670d326c55fa3d6f10ebe253,6685aa9113c938e83b4f1ea0,671c534eec458c9e4d982071,2024-10-25_21h27.36.825,WTP_SM_Choice,2022.2.1,Win32,60.24096386,,,,,,,,,,,,,,,,,,81,,,,,,space,3.6696,space,0.4353,0.02,2,2.3443,0,0,0,0,1,Play video games with my best friend every night after 8,Binge watch a netflix show and finishing it the same day,0.01,0.02,3.3,0,,,,,
,,670d326c55fa3d6f10ebe253,6685aa9113c938e83b4f1ea0,671c534eec458c9e4d982071,2024-10-25_21h27.36.825,WTP_SM_Choice,2022.2.1,Win32,60.24096386,,,,,,,,,,,,,,,,,,82,,,,,,,,,,0.02,1,1.7268,0,1,1,1,1,Drive to go get coffee on a foggy day ,Roast smores with all my family on holidays allows us to catch up ,0.02,0.02,4.4,1,,,,,
,,670d326c55fa3d6f10ebe253,6685aa9113c938e83b4f1ea0,671c534eec458c9e4d982071,2024-10-25_21h27.36.825,WTP_SM_Choice,2022.2.1,Win32,60.24096386,,,,,,,,,,,,,,,,,,83,,,,,,,,,,0.02,2,3.7813,0,2,2,2,1,Walk around the block during sunrise on a sunday for 30 mintues  ,Meet my family at church every sunday,0.03,0.02,1.1,1,,,,,
,,670d326c55fa3d6f10ebe253,6685aa9113c938e83b4f1ea0,671c534eec458c9e4d982071,2024-10-25_21h27.36.825,WTP_SM_Choice,2022.2.1,Win32,60.24096386,,,,,,,,,,,,,,,,,,84,,,,,,,,,,0.04,1,1.4394,0,3,3,3,1,Meditate in my backyard at night to hear all the crickets sing ,Make cookies with my cousins on holidays,0.04,0.02,3.3,1,,,,,
,,670d326c55fa3d6f10ebe253,6685aa9113c938e83b4f1ea0,671c534eec458c9e4d982071,2024-10-25_21h27.36.825,WTP_SM_Choice,2022.2.1,Win32,60.24096386,,,,,,,,,,,,,,,,,,85,,,,,,,,,,0.05,1,2.3989,0,4,4,4,1,Paint on rocks during the summer ,Go to a cafe to see my bestfriends every 6 weeks ,0.05,0.02,3.3,1,,,,,
,,670d326c55fa3d6f10ebe253,6685aa9113c938e83b4f1ea0,671c534eec458c9e4d982071,2024-10-25_21h27.36.825,WTP_SM_Choice,2022.2.1,Win32,60.24096386,,,,,,,NAN,,NAN,2.27,3.73,,0,84,84,84,1,85,Alex,Acc,Participant_Images/670d326c55fa3d6f10ebe253/670d326c55fa3d6f10ebe253_Images/670d326c55fa3d6f10ebe253_Image_6.jpeg,liked,3.602308302,,,,,,,,,,,,,,,,,,,,,,,
,,670d326c55fa3d6f10ebe253,6685aa9113c938e83b4f1ea0,671c534eec458c9e4d982071,2024-10-25_21h27.36.825,WTP_SM_Choice,2022.2.1,Win32,60.24096386,,,,,space,0.8028,NAN,,NAN,2.27,3.73,,0,85,85,85,1,86,Alex,Acc,Participant_Images/670d326c55fa3d6f10ebe253/670d326c55fa3d6f10ebe253_Images/670d326c55fa3d6f10ebe253_Image_19.jpeg,liked,4.106391878,,,,,,,,,,,,,,,,,,,,,,,
,,670d326c55fa3d6f10ebe253,6685aa9113c938e83b4f1ea0,671c534eec458c9e4d982071,2024-10-25_21h27.36.825,WTP_SM_Choice,2022.2.1,Win32,60.24096386,,,,,space,0.7673,NAN,,NAN,2.27,3.73,,0,86,86,86,1,87,Alex,Acc,Participant_Images/670d326c55fa3d6f10ebe253/670d326c55fa3d6f10ebe253_Images/670d326c55fa3d6f10ebe253_Image_10.jpeg,liked,3.799433026,,,,,,,,,,,,,,,,,,,,,,,
,,670d326c55fa3d6f10ebe253,6685aa9113c938e83b4f1ea0,671c534eec458c9e4d982071,2024-10-25_21h27.36.825,WTP_SM_Choice,2022.2.1,Win32,60.24096386,,,,,space,0.6911,NAN,,NAN,2.27,3.73,,0,87,87,87,1,88,Alex,Acc,Participant_Images/670d326c55fa3d6f10ebe253/670d326c55fa3d6f10ebe253_Images/670d326c55fa3d6f10ebe253_Image_2.jpeg,did not like,5.246980764,,,,,,,,,,,,,,,,,,,,,,,
,,670d326c55fa3d6f10ebe253,6685aa9113c938e83b4f1ea0,671c534eec458c9e4d982071,2024-10-25_21h27.36.825,WTP_SM_Choice,2022.2.1,Win32,60.24096386,,,,,space,0.6183,NAN,,NAN,2.27,3.73,,0,88,88,88,1,89,Alex,Acc,Participant_Images/670d326c55fa3d6f10ebe253/670d326c55fa3d6f10ebe253_Images/670d326c55fa3d6f10ebe253_Image_14.jpeg,did not like,3.30081769,,,,,,,,,,,,,,,,,,,,,,,
,,670d326c55fa3d6f10ebe253,6685aa9113c938e83b4f1ea0,671c534eec458c9e4d982071,2024-10-25_21h27.36.825,WTP_SM_Choice,2022.2.1,Win32,60.24096386,,,,,,,,,,,,,,,,,,86,,,,,,space,0.751,space,0.521,0.01,1,4.2435,0,0,0,0,1,Drive to go get coffee on a foggy day ,Meet my family at church every sunday,0.01,0.03,1.1,1,,,,,
,,670d326c55fa3d6f10ebe253,6685aa9113c938e83b4f1ea0,671c534eec458c9e4d982071,2024-10-25_21h27.36.825,WTP_SM_Choice,2022.2.1,Win32,60.24096386,,,,,,,,,,,,,,,,,,87,,,,,,,,,,0.02,1,4.1581,0,1,1,1,1,Binge watch a netflix show and finishing it the same day,Meet up with old co workers every few months at a new restaurant,0.02,0.03,4.4,1,,,,,
,,670d326c55fa3d6f10ebe253,6685aa9113c938e83b4f1ea0,671c534eec458c9e4d982071,2024-10-25_21h27.36.825,WTP_SM_Choice,2022.2.1,Win32,60.24096386,,,,,,,,,,,,,,,,,,88,,,,,,,,,,0.03,2,1.8851,0,2,2,2,1, Water my plants on a slow friday morning outside,Watch football with nick my husband every weekend,0.03,0.03,1.1,1,,,,,
,,670d326c55fa3d6f10ebe253,6685aa9113c938e83b4f1ea0,671c534eec458c9e4d982071,2024-10-25_21h27.36.825,WTP_SM_Choice,2022.2.1,Win32,60.24096386,,,,,,,,,,,,,,,,,,89,,,,,,,,,,0.04,1,2.8117,0,3,3,3,1,Crochet new plushies with zero destractions in my room ,Play video games with my best friend every night after 8,0.04,0.03,3.3,1,,,,,
,,670d326c55fa3d6f10ebe253,6685aa9113c938e83b4f1ea0,671c534eec458c9e4d982071,2024-10-25_21h27.36.825,WTP_SM_Choice,2022.2.1,Win32,60.24096386,,,,,,,,,,,,,,,,,,90,,,,,,,,,,0.03,2,3.6751,0,4,4,4,1,Binge watch a netflix show and finishing it the same day,Go out to eat after at our favorite chinese spot church every sunday ,0.05,0.03,8.8,1,,,,,
,,670d326c55fa3d6f10ebe253,6685aa9113c938e83b4f1ea0,671c534eec458c9e4d982071,2024-10-25_21h27.36.825,WTP_SM_Choice,2022.2.1,Win32,60.24096386,,,,,,,NAN,,NAN,2.4,3.6,,0,89,89,89,1,90,Alex,Acc,Participant_Images/670d326c55fa3d6f10ebe253/670d326c55fa3d6f10ebe253_Images/670d326c55fa3d6f10ebe253_Image_15.jpeg,liked,1.661473164,,,,,,,,,,,,,,,,,,,,,,,
,,670d326c55fa3d6f10ebe253,6685aa9113c938e83b4f1ea0,671c534eec458c9e4d982071,2024-10-25_21h27.36.825,WTP_SM_Choice,2022.2.1,Win32,60.24096386,,,,,space,1.2876,NAN,,NAN,2.4,3.6,,0,90,90,90,1,91,Alex,Acc,Participant_Images/670d326c55fa3d6f10ebe253/670d326c55fa3d6f10ebe253_Images/670d326c55fa3d6f10ebe253_Image_11.jpeg,liked,3.613205605,,,,,,,,,,,,,,,,,,,,,,,
,,670d326c55fa3d6f10ebe253,6685aa9113c938e83b4f1ea0,671c534eec458c9e4d982071,2024-10-25_21h27.36.825,WTP_SM_Choice,2022.2.1,Win32,60.24096386,,,,,space,1.6687,NAN,,NAN,2.4,3.6,,0,91,91,91,1,92,Alex,Acc,Participant_Images/670d326c55fa3d6f10ebe253/670d326c55fa3d6f10ebe253_Images/670d326c55fa3d6f10ebe253_Image_21.jpeg,liked,4.988446431,,,,,,,,,,,,,,,,,,,,,,,
,,670d326c55fa3d6f10ebe253,6685aa9113c938e83b4f1ea0,671c534eec458c9e4d982071,2024-10-25_21h27.36.825,WTP_SM_Choice,2022.2.1,Win32,60.24096386,,,,,space,0.6181,NAN,,NAN,2.4,3.6,,0,92,92,92,1,93,Alex,Acc,Participant_Images/670d326c55fa3d6f10ebe253/670d326c55fa3d6f10ebe253_Images/670d326c55fa3d6f10ebe253_Image_5.jpeg,did not like,3.470791822,,,,,,,,,,,,,,,,,,,,,,,
,,670d326c55fa3d6f10ebe253,6685aa9113c938e83b4f1ea0,671c534eec458c9e4d982071,2024-10-25_21h27.36.825,WTP_SM_Choice,2022.2.1,Win32,60.24096386,,,,,space,0.6315,NAN,,NAN,2.4,3.6,,0,93,93,93,1,94,Alex,Acc,Participant_Images/670d326c55fa3d6f10ebe253/670d326c55fa3d6f10ebe253_Images/670d326c55fa3d6f10ebe253_Image_8.jpeg,liked,3.820572462,,,,,,,,,,,,,,,,,,,,,,,
,,670d326c55fa3d6f10ebe253,6685aa9113c938e83b4f1ea0,671c534eec458c9e4d982071,2024-10-25_21h27.36.825,WTP_SM_Choice,2022.2.1,Win32,60.24096386,,,,,,,,,,,,,,,,,,91,,,,,,space,4.0343,space,7.0121,0.01,1,3.339,0,0,0,0,1,Meet my family at church every sunday,Crochet new plushies with zero destractions in my room ,0.01,0.04,3.3,0,,,,,
,,670d326c55fa3d6f10ebe253,6685aa9113c938e83b4f1ea0,671c534eec458c9e4d982071,2024-10-25_21h27.36.825,WTP_SM_Choice,2022.2.1,Win32,60.24096386,,,,,,,,,,,,,,,,,,92,,,,,,,,,,0.04,2,2.2083,0,1,1,1,1, Plant shop to see new kinds of plants they have ,Go to a cafe to see my bestfriends every 6 weeks ,0.02,0.04,8.8,1,,,,,
,,670d326c55fa3d6f10ebe253,6685aa9113c938e83b4f1ea0,671c534eec458c9e4d982071,2024-10-25_21h27.36.825,WTP_SM_Choice,2022.2.1,Win32,60.24096386,,,,,,,,,,,,,,,,,,93,,,,,,,,,,0.04,2,2.4712,0,2,2,2,1,Meet at a plant store with my sisters to buy plants once a year,Crochet new plushies with zero destractions in my room ,0.03,0.04,1.1,0,,,,,
,,670d326c55fa3d6f10ebe253,6685aa9113c938e83b4f1ea0,671c534eec458c9e4d982071,2024-10-25_21h27.36.825,WTP_SM_Choice,2022.2.1,Win32,60.24096386,,,,,,,,,,,,,,,,,,94,,,,,,,,,,0.04,2,2.9524,0,3,3,3,1,Watch movies with my family once a month,Drive to go get coffee on a foggy day ,0.04,0.04,4.4,0,,,,,
,,670d326c55fa3d6f10ebe253,6685aa9113c938e83b4f1ea0,671c534eec458c9e4d982071,2024-10-25_21h27.36.825,WTP_SM_Choice,2022.2.1,Win32,60.24096386,,,,,,,,,,,,,,,,,,95,,,,,,,,,,0.05,1,2.8382,0,4,4,4,1,Meet up with old co workers every few months at a new restaurant, Water my plants on a slow friday morning outside,0.05,0.04,4.4,0,,,,,
,,670d326c55fa3d6f10ebe253,6685aa9113c938e83b4f1ea0,671c534eec458c9e4d982071,2024-10-25_21h27.36.825,WTP_SM_Choice,2022.2.1,Win32,60.24096386,,,,,,,NAN,,NAN,2.58,3.42,,0,94,94,94,1,95,Alex,Acc,Participant_Images/670d326c55fa3d6f10ebe253/670d326c55fa3d6f10ebe253_Images/670d326c55fa3d6f10ebe253_Image_25.jpeg,liked,2.455989137,,,,,,,,,,,,,,,,,,,,,,,
,,670d326c55fa3d6f10ebe253,6685aa9113c938e83b4f1ea0,671c534eec458c9e4d982071,2024-10-25_21h27.36.825,WTP_SM_Choice,2022.2.1,Win32,60.24096386,,,,,space,5.7676,NAN,,NAN,2.58,3.42,,0,95,95,95,1,96,Alex,Acc,Participant_Images/670d326c55fa3d6f10ebe253/670d326c55fa3d6f10ebe253_Images/670d326c55fa3d6f10ebe253_Image_16.jpeg,did not like,3.79605092,,,,,,,,,,,,,,,,,,,,,,,
,,670d326c55fa3d6f10ebe253,6685aa9113c938e83b4f1ea0,671c534eec458c9e4d982071,2024-10-25_21h27.36.825,WTP_SM_Choice,2022.2.1,Win32,60.24096386,,,,,space,0.7739,NAN,,NAN,2.58,3.42,,0,96,96,96,1,97,Alex,Acc,Participant_Images/670d326c55fa3d6f10ebe253/670d326c55fa3d6f10ebe253_Images/670d326c55fa3d6f10ebe253_Image_22.jpeg,liked,3.562416326,,,,,,,,,,,,,,,,,,,,,,,
,,670d326c55fa3d6f10ebe253,6685aa9113c938e83b4f1ea0,671c534eec458c9e4d982071,2024-10-25_21h27.36.825,WTP_SM_Choice,2022.2.1,Win32,60.24096386,,,,,space,0.0035,NAN,,NAN,2.58,3.42,,0,97,97,97,1,98,Alex,Acc,Participant_Images/670d326c55fa3d6f10ebe253/670d326c55fa3d6f10ebe253_Images/670d326c55fa3d6f10ebe253_Image_23.jpeg,liked,2.843822497,,,,,,,,,,,,,,,,,,,,,,,
,,670d326c55fa3d6f10ebe253,6685aa9113c938e83b4f1ea0,671c534eec458c9e4d982071,2024-10-25_21h27.36.825,WTP_SM_Choice,2022.2.1,Win32,60.24096386,,,,,space,0.745,NAN,,NAN,2.58,3.42,,0,98,98,98,1,99,Alex,Acc,Participant_Images/670d326c55fa3d6f10ebe253/670d326c55fa3d6f10ebe253_Images/670d326c55fa3d6f10ebe253_Image_3.jpeg,liked,3.546495948,,,,,,,,,,,,,,,,,,,,,,,
,,670d326c55fa3d6f10ebe253,6685aa9113c938e83b4f1ea0,671c534eec458c9e4d982071,2024-10-25_21h27.36.825,WTP_SM_Choice,2022.2.1,Win32,60.24096386,,,,,,,,,,,,,,,,,,96,,,,,,space,2.2875,space,0.6464,0.01,1,1.601,0,0,0,0,1,Crochet new plushies with zero destractions in my room ,Make cookies with my cousins on holidays,0.01,0.05,3.3,1,,,,,
,,670d326c55fa3d6f10ebe253,6685aa9113c938e83b4f1ea0,671c534eec458c9e4d982071,2024-10-25_21h27.36.825,WTP_SM_Choice,2022.2.1,Win32,60.24096386,,,,,,,,,,,,,,,,,,97,,,,,,,,,,0.02,1,2.0049,0,1,1,1,1,Paint on rocks during the summer ,Meet at a plant store with my sisters to buy plants once a year,0.02,0.05,1.1,1,,,,,
,,670d326c55fa3d6f10ebe253,6685aa9113c938e83b4f1ea0,671c534eec458c9e4d982071,2024-10-25_21h27.36.825,WTP_SM_Choice,2022.2.1,Win32,60.24096386,,,,,,,,,,,,,,,,,,98,,,,,,,,,,0.03,1,3.1328,0,2,2,2,1,Go to a cafe to see my bestfriends every 6 weeks ,Binge watch a netflix show and finishing it the same day,0.03,0.05,1.1,0,,,,,
,,670d326c55fa3d6f10ebe253,6685aa9113c938e83b4f1ea0,671c534eec458c9e4d982071,2024-10-25_21h27.36.825,WTP_SM_Choice,2022.2.1,Win32,60.24096386,,,,,,,,,,,,,,,,,,99,,,,,,,,,,0.04,1,1.6872,0,3,3,3,1,Watch football with nick my husband every weekend, Plant shop to see new kinds of plants they have ,0.04,0.05,3.3,0,,,,,
,,670d326c55fa3d6f10ebe253,6685aa9113c938e83b4f1ea0,671c534eec458c9e4d982071,2024-10-25_21h27.36.825,WTP_SM_Choice,2022.2.1,Win32,60.24096386,,,,,,,,,,,,,,,,,,100,,,,,,,,,,0.05,2,3.948,0,4,4,4,1, Plant shop to see new kinds of plants they have ,Meet at a plant store with my sisters to buy plants once a year,0.05,0.05,4.4,1,,,,,
,,670d326c55fa3d6f10ebe253,6685aa9113c938e83b4f1ea0,671c534eec458c9e4d982071,2024-10-25_21h27.36.825,WTP_SM_Choice,2022.2.1,Win32,60.24096386,,,,,,,4,,7,2.73,3.27,,0,99,99,99,1,100,Alex,Acc,Participant_Images/670d326c55fa3d6f10ebe253/670d326c55fa3d6f10ebe253_Images/670d326c55fa3d6f10ebe253_Image_12.jpeg,liked,1.672012706,,,,,,,,,,,,,,,,,,,space,1.3018,,,
,,670d326c55fa3d6f10ebe253,6685aa9113c938e83b4f1ea0,671c534eec458c9e4d982071,2024-10-25_21h27.36.825,WTP_SM_Choice,2022.2.1,Win32,60.24096386,,,,,,,,,,,,,,,,,,,,,,,,,,,,,,,,,,,,,,,,,,,,,space,3.9671
