endwelcomescreen_keys.keys,endwelcomescreen_keys.rt,participant,STUDY_ID,SESSION_ID,date,expName,psychopyVersion,OS,frameRate,endinstructionscreen_keys.keys,endinstructionscreen_keys.rt,endpartnermatch_keys.keys,endpartnermatch_keys.rt,sharenextphoto_key.keys,sharenextphoto_key.rt,salience_rating,key_resp.keys,stress_level,subtract_bonus,TOTAL_TASK_BONUS,stresslevel_keypress.keys,entiretaskloop.thisRepN,entiretaskloop.thisTrialN,entiretaskloop.thisN,entiretaskloop.thisIndex,entiretaskloop.ran,TrialNumber,Partner,Condition,Photos,Feedback,FeedbackWait,WTP_ins_keys1.keys,WTP_ins_keys1.rt,WTP_ins_keys2.keys,WTP_ins_keys2.rt,decision_price,responses.keys,responses.rt,WTPTaskLoop.thisRepN,WTPTaskLoop.thisTrialN,WTPTaskLoop.thisN,WTPTaskLoop.thisIndex,WTPTaskLoop.ran,right,left,leftmoney,rightmoney,WTP_ITI,social_left,Resume_keys.keys,Resume_keys.rt,key_resp.rt,end_screen_keys.keys,end_screen_keys.rt
space,1.8528,6711f493bfc7c4e11953872d,6685aa9113c938e83b4f1ea0,672d3f532216c7f97cc24a03,2024-11-08_03h35.31.708,WTP_SM_Choice,2022.2.1,Win32,60.24096386,,,,,,,,,,,,,,,,,,,,,,,,,,,,,,,,,,,,,,,,,,,,,,
,,6711f493bfc7c4e11953872d,6685aa9113c938e83b4f1ea0,672d3f532216c7f97cc24a03,2024-11-08_03h35.31.708,WTP_SM_Choice,2022.2.1,Win32,60.24096386,space,21.1248,,,,,,,,,,,,,,,,,,,,,,,,,,,,,,,,,,,,,,,,,,,,
,,6711f493bfc7c4e11953872d,6685aa9113c938e83b4f1ea0,672d3f532216c7f97cc24a03,2024-11-08_03h35.31.708,WTP_SM_Choice,2022.2.1,Win32,60.24096386,,,space,18.7797,space,1.5587,NAN,,NAN,0,6,,0,0,0,0,1,1,Riley,Rej,Participant_Images/6711f493bfc7c4e11953872d/6711f493bfc7c4e11953872d_Images/6711f493bfc7c4e11953872d_Image_6.jpeg,liked,3.613205605,,,,,,,,,,,,,,,,,,,,,,,
,,6711f493bfc7c4e11953872d,6685aa9113c938e83b4f1ea0,672d3f532216c7f97cc24a03,2024-11-08_03h35.31.708,WTP_SM_Choice,2022.2.1,Win32,60.24096386,,,,,space,4.2555,NAN,,NAN,0,6,,0,1,1,1,1,2,Riley,Rej,Participant_Images/6711f493bfc7c4e11953872d/6711f493bfc7c4e11953872d_Images/6711f493bfc7c4e11953872d_Image_13.jpeg,liked,4.988446431,,,,,,,,,,,,,,,,,,,,,,,
,,6711f493bfc7c4e11953872d,6685aa9113c938e83b4f1ea0,672d3f532216c7f97cc24a03,2024-11-08_03h35.31.708,WTP_SM_Choice,2022.2.1,Win32,60.24096386,,,,,space,4.018,NAN,,NAN,0,6,,0,2,2,2,1,3,Riley,Rej,Participant_Images/6711f493bfc7c4e11953872d/6711f493bfc7c4e11953872d_Images/6711f493bfc7c4e11953872d_Image_11.jpeg,did not like,3.470791822,,,,,,,,,,,,,,,,,,,,,,,
,,6711f493bfc7c4e11953872d,6685aa9113c938e83b4f1ea0,672d3f532216c7f97cc24a03,2024-11-08_03h35.31.708,WTP_SM_Choice,2022.2.1,Win32,60.24096386,,,,,space,1.0022,NAN,,NAN,0,6,,0,3,3,3,1,4,Riley,Rej,Participant_Images/6711f493bfc7c4e11953872d/6711f493bfc7c4e11953872d_Images/6711f493bfc7c4e11953872d_Image_21.jpeg,did not like,3.820572462,,,,,,,,,,,,,,,,,,,,,,,
,,6711f493bfc7c4e11953872d,6685aa9113c938e83b4f1ea0,672d3f532216c7f97cc24a03,2024-11-08_03h35.31.708,WTP_SM_Choice,2022.2.1,Win32,60.24096386,,,,,,,,,,,,,,,,,,1,,,,,,space,37.696,space,14.2789,0.01,1,2.8181,0,0,0,0,1,rearrange my stuff,play some soccer with my old friends,0.01,0.01,4.4,1,,,,,
,,6711f493bfc7c4e11953872d,6685aa9113c938e83b4f1ea0,672d3f532216c7f97cc24a03,2024-11-08_03h35.31.708,WTP_SM_Choice,2022.2.1,Win32,60.24096386,,,,,,,,,,,,,,,,,,2,,,,,,,,,,0.02,1,3.3352,0,1,1,1,1,play cod with my dorm mates,play with chica,0.02,0.01,8.8,0,,,,,
,,6711f493bfc7c4e11953872d,6685aa9113c938e83b4f1ea0,672d3f532216c7f97cc24a03,2024-11-08_03h35.31.708,WTP_SM_Choice,2022.2.1,Win32,60.24096386,,,,,,,,,,,,,,,,,,3,,,,,,,,,,0.01,2,3.2817,0,2,2,2,1,have my favorite pasta as breakfast,play some soccer with my old friends,0.03,0.01,3.3,1,,,,,
,,6711f493bfc7c4e11953872d,6685aa9113c938e83b4f1ea0,672d3f532216c7f97cc24a03,2024-11-08_03h35.31.708,WTP_SM_Choice,2022.2.1,Win32,60.24096386,,,,,,,,,,,,,,,,,,4,,,,,,,,,,0.01,2,4.384,0,3,3,3,1,go to beach on a sunny day,watch lakers win ,0.04,0.01,1.1,0,,,,,
,,6711f493bfc7c4e11953872d,6685aa9113c938e83b4f1ea0,672d3f532216c7f97cc24a03,2024-11-08_03h35.31.708,WTP_SM_Choice,2022.2.1,Win32,60.24096386,,,,,,,,,,,,,,,,,,5,,,,,,,,,,0.01,2,3.6152,0,4,4,4,1,try a new restaurant in downtown,play some nba,0.05,0.01,1.1,0,,,,,
,,6711f493bfc7c4e11953872d,6685aa9113c938e83b4f1ea0,672d3f532216c7f97cc24a03,2024-11-08_03h35.31.708,WTP_SM_Choice,2022.2.1,Win32,60.24096386,,,,,,,NAN,,NAN,0.06,5.94,,0,4,4,4,1,5,Riley,Rej,Participant_Images/6711f493bfc7c4e11953872d/6711f493bfc7c4e11953872d_Images/6711f493bfc7c4e11953872d_Image_23.jpeg,did not like,2.455989137,,,,,,,,,,,,,,,,,,,,,,,
,,6711f493bfc7c4e11953872d,6685aa9113c938e83b4f1ea0,672d3f532216c7f97cc24a03,2024-11-08_03h35.31.708,WTP_SM_Choice,2022.2.1,Win32,60.24096386,,,,,space,1.3086,NAN,,NAN,0.06,5.94,,0,5,5,5,1,6,Riley,Rej,Participant_Images/6711f493bfc7c4e11953872d/6711f493bfc7c4e11953872d_Images/6711f493bfc7c4e11953872d_Image_4.jpeg,did not like,3.79605092,,,,,,,,,,,,,,,,,,,,,,,
,,6711f493bfc7c4e11953872d,6685aa9113c938e83b4f1ea0,672d3f532216c7f97cc24a03,2024-11-08_03h35.31.708,WTP_SM_Choice,2022.2.1,Win32,60.24096386,,,,,space,1.3267,NAN,,NAN,0.06,5.94,,0,6,6,6,1,7,Riley,Rej,Participant_Images/6711f493bfc7c4e11953872d/6711f493bfc7c4e11953872d_Images/6711f493bfc7c4e11953872d_Image_9.jpeg,liked,3.562416326,,,,,,,,,,,,,,,,,,,,,,,
,,6711f493bfc7c4e11953872d,6685aa9113c938e83b4f1ea0,672d3f532216c7f97cc24a03,2024-11-08_03h35.31.708,WTP_SM_Choice,2022.2.1,Win32,60.24096386,,,,,space,0.6095,NAN,,NAN,0.06,5.94,,0,7,7,7,1,8,Riley,Rej,Participant_Images/6711f493bfc7c4e11953872d/6711f493bfc7c4e11953872d_Images/6711f493bfc7c4e11953872d_Image_22.jpeg,did not like,2.843822497,,,,,,,,,,,,,,,,,,,,,,,
,,6711f493bfc7c4e11953872d,6685aa9113c938e83b4f1ea0,672d3f532216c7f97cc24a03,2024-11-08_03h35.31.708,WTP_SM_Choice,2022.2.1,Win32,60.24096386,,,,,space,0.6772,NAN,,NAN,0.06,5.94,,0,8,8,8,1,9,Riley,Rej,Participant_Images/6711f493bfc7c4e11953872d/6711f493bfc7c4e11953872d_Images/6711f493bfc7c4e11953872d_Image_18.jpeg,did not like,3.546495948,,,,,,,,,,,,,,,,,,,,,,,
,,6711f493bfc7c4e11953872d,6685aa9113c938e83b4f1ea0,672d3f532216c7f97cc24a03,2024-11-08_03h35.31.708,WTP_SM_Choice,2022.2.1,Win32,60.24096386,,,,,,,,,,,,,,,,,,6,,,,,,space,2.1242,space,0.8382,0.01,1,1.6126,0,0,0,0,1,rearrange my stuff,plan a trip to miami with my friends,0.01,0.02,3.3,1,,,,,
,,6711f493bfc7c4e11953872d,6685aa9113c938e83b4f1ea0,672d3f532216c7f97cc24a03,2024-11-08_03h35.31.708,WTP_SM_Choice,2022.2.1,Win32,60.24096386,,,,,,,,,,,,,,,,,,7,,,,,,,,,,0.02,2,3.1673,0,1,1,1,1,try some new music with friends,go to college on a rainy day,0.02,0.02,1.1,0,,,,,
,,6711f493bfc7c4e11953872d,6685aa9113c938e83b4f1ea0,672d3f532216c7f97cc24a03,2024-11-08_03h35.31.708,WTP_SM_Choice,2022.2.1,Win32,60.24096386,,,,,,,,,,,,,,,,,,8,,,,,,,,,,0.02,2,2.9365,0,2,2,2,1,early morning walk with my friends ,play call of duty on my ps ,0.03,0.02,1.1,0,,,,,
,,6711f493bfc7c4e11953872d,6685aa9113c938e83b4f1ea0,672d3f532216c7f97cc24a03,2024-11-08_03h35.31.708,WTP_SM_Choice,2022.2.1,Win32,60.24096386,,,,,,,,,,,,,,,,,,9,,,,,,,,,,0.02,2,2.0016,0,3,3,3,1,play with chica,try a new escape room with my mates,0.04,0.02,4.4,1,,,,,
,,6711f493bfc7c4e11953872d,6685aa9113c938e83b4f1ea0,672d3f532216c7f97cc24a03,2024-11-08_03h35.31.708,WTP_SM_Choice,2022.2.1,Win32,60.24096386,,,,,,,,,,,,,,,,,,10,,,,,,,,,,0.02,2,3.0354,0,4,4,4,1,play some nba,watch some crime show with my friends,0.05,0.02,1.1,1,,,,,
,,6711f493bfc7c4e11953872d,6685aa9113c938e83b4f1ea0,672d3f532216c7f97cc24a03,2024-11-08_03h35.31.708,WTP_SM_Choice,2022.2.1,Win32,60.24096386,,,,,,,NAN,,NAN,0.15,5.85,,0,9,9,9,1,10,Riley,Rej,Participant_Images/6711f493bfc7c4e11953872d/6711f493bfc7c4e11953872d_Images/6711f493bfc7c4e11953872d_Image_17.jpeg,did not like,1.672012706,,,,,,,,,,,,,,,,,,,,,,,
,,6711f493bfc7c4e11953872d,6685aa9113c938e83b4f1ea0,672d3f532216c7f97cc24a03,2024-11-08_03h35.31.708,WTP_SM_Choice,2022.2.1,Win32,60.24096386,,,,,space,3.1555,NAN,,NAN,0.15,5.85,,0,10,10,10,1,11,Riley,Rej,Participant_Images/6711f493bfc7c4e11953872d/6711f493bfc7c4e11953872d_Images/6711f493bfc7c4e11953872d_Image_15.jpeg,liked,4.942172136,,,,,,,,,,,,,,,,,,,,,,,
,,6711f493bfc7c4e11953872d,6685aa9113c938e83b4f1ea0,672d3f532216c7f97cc24a03,2024-11-08_03h35.31.708,WTP_SM_Choice,2022.2.1,Win32,60.24096386,,,,,space,0.9343,NAN,,NAN,0.15,5.85,,0,11,11,11,1,12,Riley,Rej,Participant_Images/6711f493bfc7c4e11953872d/6711f493bfc7c4e11953872d_Images/6711f493bfc7c4e11953872d_Image_3.jpeg,did not like,2.50187214,,,,,,,,,,,,,,,,,,,,,,,
,,6711f493bfc7c4e11953872d,6685aa9113c938e83b4f1ea0,672d3f532216c7f97cc24a03,2024-11-08_03h35.31.708,WTP_SM_Choice,2022.2.1,Win32,60.24096386,,,,,space,1.0917,NAN,,NAN,0.15,5.85,,0,12,12,12,1,13,Riley,Rej,Participant_Images/6711f493bfc7c4e11953872d/6711f493bfc7c4e11953872d_Images/6711f493bfc7c4e11953872d_Image_7.jpeg,liked,2.071164779,,,,,,,,,,,,,,,,,,,,,,,
,,6711f493bfc7c4e11953872d,6685aa9113c938e83b4f1ea0,672d3f532216c7f97cc24a03,2024-11-08_03h35.31.708,WTP_SM_Choice,2022.2.1,Win32,60.24096386,,,,,space,1.0566,NAN,,NAN,0.15,5.85,,0,13,13,13,1,14,Riley,Rej,Participant_Images/6711f493bfc7c4e11953872d/6711f493bfc7c4e11953872d_Images/6711f493bfc7c4e11953872d_Image_16.jpeg,did not like,5.336503566,,,,,,,,,,,,,,,,,,,,,,,
,,6711f493bfc7c4e11953872d,6685aa9113c938e83b4f1ea0,672d3f532216c7f97cc24a03,2024-11-08_03h35.31.708,WTP_SM_Choice,2022.2.1,Win32,60.24096386,,,,,,,,,,,,,,,,,,11,,,,,,space,1.2328,space,0.6716,0.01,1,2.0159,0,0,0,0,1,plan a trip to miami with my friends,Jog early morning,0.01,0.03,3.3,0,,,,,
,,6711f493bfc7c4e11953872d,6685aa9113c938e83b4f1ea0,672d3f532216c7f97cc24a03,2024-11-08_03h35.31.708,WTP_SM_Choice,2022.2.1,Win32,60.24096386,,,,,,,,,,,,,,,,,,12,,,,,,,,,,0.02,1,4.4755,0,1,1,1,1,watch some crime show with my friends,go to gym for some cardio,0.02,0.03,4.4,0,,,,,
,,6711f493bfc7c4e11953872d,6685aa9113c938e83b4f1ea0,672d3f532216c7f97cc24a03,2024-11-08_03h35.31.708,WTP_SM_Choice,2022.2.1,Win32,60.24096386,,,,,,,,,,,,,,,,,,13,,,,,,,,,,0.03,1,4.6833,0,2,2,2,1,go to college on a rainy day,watch some crime show with my friends,0.03,0.03,1.1,1,,,,,
,,6711f493bfc7c4e11953872d,6685aa9113c938e83b4f1ea0,672d3f532216c7f97cc24a03,2024-11-08_03h35.31.708,WTP_SM_Choice,2022.2.1,Win32,60.24096386,,,,,,,,,,,,,,,,,,14,,,,,,,,,,0.03,2,3.0589,0,3,3,3,1,try some new music with friends,watch lakers win ,0.04,0.03,3.3,0,,,,,
,,6711f493bfc7c4e11953872d,6685aa9113c938e83b4f1ea0,672d3f532216c7f97cc24a03,2024-11-08_03h35.31.708,WTP_SM_Choice,2022.2.1,Win32,60.24096386,,,,,,,,,,,,,,,,,,15,,,,,,,,,,0.03,2,2.9402,0,4,4,4,1,play call of duty on my ps ,try some new music with friends,0.05,0.03,4.4,1,,,,,
,,6711f493bfc7c4e11953872d,6685aa9113c938e83b4f1ea0,672d3f532216c7f97cc24a03,2024-11-08_03h35.31.708,WTP_SM_Choice,2022.2.1,Win32,60.24096386,,,,,,,NAN,,NAN,0.27,5.73,,0,14,14,14,1,15,Riley,Rej,Participant_Images/6711f493bfc7c4e11953872d/6711f493bfc7c4e11953872d_Images/6711f493bfc7c4e11953872d_Image_24.jpeg,did not like,2.642157193,,,,,,,,,,,,,,,,,,,,,,,
,,6711f493bfc7c4e11953872d,6685aa9113c938e83b4f1ea0,672d3f532216c7f97cc24a03,2024-11-08_03h35.31.708,WTP_SM_Choice,2022.2.1,Win32,60.24096386,,,,,space,0.8207,NAN,,NAN,0.27,5.73,,0,15,15,15,1,16,Riley,Rej,Participant_Images/6711f493bfc7c4e11953872d/6711f493bfc7c4e11953872d_Images/6711f493bfc7c4e11953872d_Image_19.jpeg,did not like,4.456234322,,,,,,,,,,,,,,,,,,,,,,,
,,6711f493bfc7c4e11953872d,6685aa9113c938e83b4f1ea0,672d3f532216c7f97cc24a03,2024-11-08_03h35.31.708,WTP_SM_Choice,2022.2.1,Win32,60.24096386,,,,,space,1.117,NAN,,NAN,0.27,5.73,,0,16,16,16,1,17,Riley,Rej,Participant_Images/6711f493bfc7c4e11953872d/6711f493bfc7c4e11953872d_Images/6711f493bfc7c4e11953872d_Image_14.jpeg,did not like,4.438512181,,,,,,,,,,,,,,,,,,,,,,,
,,6711f493bfc7c4e11953872d,6685aa9113c938e83b4f1ea0,672d3f532216c7f97cc24a03,2024-11-08_03h35.31.708,WTP_SM_Choice,2022.2.1,Win32,60.24096386,,,,,space,0.9682,NAN,,NAN,0.27,5.73,,0,17,17,17,1,18,Riley,Rej,Participant_Images/6711f493bfc7c4e11953872d/6711f493bfc7c4e11953872d_Images/6711f493bfc7c4e11953872d_Image_2.jpeg,liked,2.682944783,,,,,,,,,,,,,,,,,,,,,,,
,,6711f493bfc7c4e11953872d,6685aa9113c938e83b4f1ea0,672d3f532216c7f97cc24a03,2024-11-08_03h35.31.708,WTP_SM_Choice,2022.2.1,Win32,60.24096386,,,,,space,2.3494,NAN,,NAN,0.27,5.73,,0,18,18,18,1,19,Riley,Rej,Participant_Images/6711f493bfc7c4e11953872d/6711f493bfc7c4e11953872d_Images/6711f493bfc7c4e11953872d_Image_25.jpeg,did not like,4.51984296,,,,,,,,,,,,,,,,,,,,,,,
,,6711f493bfc7c4e11953872d,6685aa9113c938e83b4f1ea0,672d3f532216c7f97cc24a03,2024-11-08_03h35.31.708,WTP_SM_Choice,2022.2.1,Win32,60.24096386,,,,,,,,,,,,,,,,,,16,,,,,,space,1.1667,space,1.0005,0.01,1,2.9159,0,0,0,0,1,play call of duty on my ps ,play some soccer with my old friends,0.01,0.04,1.1,1,,,,,
,,6711f493bfc7c4e11953872d,6685aa9113c938e83b4f1ea0,672d3f532216c7f97cc24a03,2024-11-08_03h35.31.708,WTP_SM_Choice,2022.2.1,Win32,60.24096386,,,,,,,,,,,,,,,,,,17,,,,,,,,,,0.04,2,1.6402,0,1,1,1,1,try a new restaurant in downtown,rearrange my stuff,0.02,0.04,8.8,0,,,,,
,,6711f493bfc7c4e11953872d,6685aa9113c938e83b4f1ea0,672d3f532216c7f97cc24a03,2024-11-08_03h35.31.708,WTP_SM_Choice,2022.2.1,Win32,60.24096386,,,,,,,,,,,,,,,,,,18,,,,,,,,,,0.03,1,3.0667,0,2,2,2,1,have my favorite pasta as breakfast,watch some crime show with my friends,0.03,0.04,3.3,1,,,,,
,,6711f493bfc7c4e11953872d,6685aa9113c938e83b4f1ea0,672d3f532216c7f97cc24a03,2024-11-08_03h35.31.708,WTP_SM_Choice,2022.2.1,Win32,60.24096386,,,,,,,,,,,,,,,,,,19,,,,,,,,,,0.04,2,2.2542,0,3,3,3,1,do some target runs with my family,clean my room,0.04,0.04,3.3,0,,,,,
,,6711f493bfc7c4e11953872d,6685aa9113c938e83b4f1ea0,672d3f532216c7f97cc24a03,2024-11-08_03h35.31.708,WTP_SM_Choice,2022.2.1,Win32,60.24096386,,,,,,,,,,,,,,,,,,20,,,,,,,,,,0.05,1,2.5181,0,4,4,4,1,go to college on a rainy day,play some soccer with my old friends,0.05,0.04,1.1,1,,,,,
,,6711f493bfc7c4e11953872d,6685aa9113c938e83b4f1ea0,672d3f532216c7f97cc24a03,2024-11-08_03h35.31.708,WTP_SM_Choice,2022.2.1,Win32,60.24096386,,,,,,,NAN,,NAN,0.44,5.56,,0,19,19,19,1,20,Riley,Rej,Participant_Images/6711f493bfc7c4e11953872d/6711f493bfc7c4e11953872d_Images/6711f493bfc7c4e11953872d_Image_12.jpeg,did not like,3.195382774,,,,,,,,,,,,,,,,,,,,,,,
,,6711f493bfc7c4e11953872d,6685aa9113c938e83b4f1ea0,672d3f532216c7f97cc24a03,2024-11-08_03h35.31.708,WTP_SM_Choice,2022.2.1,Win32,60.24096386,,,,,space,0.1535,NAN,,NAN,0.44,5.56,,0,20,20,20,1,21,Riley,Rej,Participant_Images/6711f493bfc7c4e11953872d/6711f493bfc7c4e11953872d_Images/6711f493bfc7c4e11953872d_Image_8.jpeg,did not like,1.779333479,,,,,,,,,,,,,,,,,,,,,,,
,,6711f493bfc7c4e11953872d,6685aa9113c938e83b4f1ea0,672d3f532216c7f97cc24a03,2024-11-08_03h35.31.708,WTP_SM_Choice,2022.2.1,Win32,60.24096386,,,,,space,0.5271,NAN,,NAN,0.44,5.56,,0,21,21,21,1,22,Riley,Rej,Participant_Images/6711f493bfc7c4e11953872d/6711f493bfc7c4e11953872d_Images/6711f493bfc7c4e11953872d_Image_10.jpeg,did not like,4.312468682,,,,,,,,,,,,,,,,,,,,,,,
,,6711f493bfc7c4e11953872d,6685aa9113c938e83b4f1ea0,672d3f532216c7f97cc24a03,2024-11-08_03h35.31.708,WTP_SM_Choice,2022.2.1,Win32,60.24096386,,,,,space,0.8798,NAN,,NAN,0.44,5.56,,0,22,22,22,1,23,Riley,Rej,Participant_Images/6711f493bfc7c4e11953872d/6711f493bfc7c4e11953872d_Images/6711f493bfc7c4e11953872d_Image_5.jpeg,did not like,4.940433059,,,,,,,,,,,,,,,,,,,,,,,
,,6711f493bfc7c4e11953872d,6685aa9113c938e83b4f1ea0,672d3f532216c7f97cc24a03,2024-11-08_03h35.31.708,WTP_SM_Choice,2022.2.1,Win32,60.24096386,,,,,space,0.6976,NAN,,NAN,0.44,5.56,,0,23,23,23,1,24,Riley,Rej,Participant_Images/6711f493bfc7c4e11953872d/6711f493bfc7c4e11953872d_Images/6711f493bfc7c4e11953872d_Image_20.jpeg,liked,2.7105123,,,,,,,,,,,,,,,,,,,,,,,
,,6711f493bfc7c4e11953872d,6685aa9113c938e83b4f1ea0,672d3f532216c7f97cc24a03,2024-11-08_03h35.31.708,WTP_SM_Choice,2022.2.1,Win32,60.24096386,,,,,,,,,,,,,,,,,,21,,,,,,space,1.1913,space,0.5625,0.01,1,2.1053,0,0,0,0,1,watch lakers win ,plan a trip to miami with my friends,0.01,0.05,8.8,1,,,,,
,,6711f493bfc7c4e11953872d,6685aa9113c938e83b4f1ea0,672d3f532216c7f97cc24a03,2024-11-08_03h35.31.708,WTP_SM_Choice,2022.2.1,Win32,60.24096386,,,,,,,,,,,,,,,,,,22,,,,,,,,,,0.02,1,2.0504,0,1,1,1,1,rearrange my stuff,early morning walk with my friends ,0.02,0.05,4.4,1,,,,,
,,6711f493bfc7c4e11953872d,6685aa9113c938e83b4f1ea0,672d3f532216c7f97cc24a03,2024-11-08_03h35.31.708,WTP_SM_Choice,2022.2.1,Win32,60.24096386,,,,,,,,,,,,,,,,,,23,,,,,,,,,,0.05,2,2.5829,0,2,2,2,1,try some new music with friends,play some nba,0.03,0.05,1.1,0,,,,,
,,6711f493bfc7c4e11953872d,6685aa9113c938e83b4f1ea0,672d3f532216c7f97cc24a03,2024-11-08_03h35.31.708,WTP_SM_Choice,2022.2.1,Win32,60.24096386,,,,,,,,,,,,,,,,,,24,,,,,,,,,,0.05,2,2.4223,0,3,3,3,1,play some soccer with my old friends,watch lakers win ,0.04,0.05,4.4,0,,,,,
,,6711f493bfc7c4e11953872d,6685aa9113c938e83b4f1ea0,672d3f532216c7f97cc24a03,2024-11-08_03h35.31.708,WTP_SM_Choice,2022.2.1,Win32,60.24096386,,,,,,,,,,,,,,,,,,25,,,,,,,,,,0.05,1,1.3854,0,4,4,4,1,plan a trip to miami with my friends,go to gym for some cardio,0.05,0.05,3.3,0,,,,,
,,6711f493bfc7c4e11953872d,6685aa9113c938e83b4f1ea0,672d3f532216c7f97cc24a03,2024-11-08_03h35.31.708,WTP_SM_Choice,2022.2.1,Win32,60.24096386,,,,,,,2,,6,0.62,5.38,,0,24,24,24,1,25,Riley,Rej,Participant_Images/6711f493bfc7c4e11953872d/6711f493bfc7c4e11953872d_Images/6711f493bfc7c4e11953872d_Image_1.jpeg,did not like,3.602308302,,,,,,,,,,,,,,,,,,,space,1.073,,,
,,6711f493bfc7c4e11953872d,6685aa9113c938e83b4f1ea0,672d3f532216c7f97cc24a03,2024-11-08_03h35.31.708,WTP_SM_Choice,2022.2.1,Win32,60.24096386,,,space,1.8538,space,0.338,NAN,,NAN,0.62,5.38,,0,25,25,25,1,26,Alex,Acc,Participant_Images/6711f493bfc7c4e11953872d/6711f493bfc7c4e11953872d_Images/6711f493bfc7c4e11953872d_Image_9.jpeg,did not like,4.106391878,,,,,,,,,,,,,,,,,,,,,,,
,,6711f493bfc7c4e11953872d,6685aa9113c938e83b4f1ea0,672d3f532216c7f97cc24a03,2024-11-08_03h35.31.708,WTP_SM_Choice,2022.2.1,Win32,60.24096386,,,,,space,0.4336,NAN,,NAN,0.62,5.38,,0,26,26,26,1,27,Alex,Acc,Participant_Images/6711f493bfc7c4e11953872d/6711f493bfc7c4e11953872d_Images/6711f493bfc7c4e11953872d_Image_15.jpeg,liked,3.799433026,,,,,,,,,,,,,,,,,,,,,,,
,,6711f493bfc7c4e11953872d,6685aa9113c938e83b4f1ea0,672d3f532216c7f97cc24a03,2024-11-08_03h35.31.708,WTP_SM_Choice,2022.2.1,Win32,60.24096386,,,,,space,0.5306,NAN,,NAN,0.62,5.38,,0,27,27,27,1,28,Alex,Acc,Participant_Images/6711f493bfc7c4e11953872d/6711f493bfc7c4e11953872d_Images/6711f493bfc7c4e11953872d_Image_19.jpeg,did not like,5.246980764,,,,,,,,,,,,,,,,,,,,,,,
,,6711f493bfc7c4e11953872d,6685aa9113c938e83b4f1ea0,672d3f532216c7f97cc24a03,2024-11-08_03h35.31.708,WTP_SM_Choice,2022.2.1,Win32,60.24096386,,,,,space,0.5136,NAN,,NAN,0.62,5.38,,0,28,28,28,1,29,Alex,Acc,Participant_Images/6711f493bfc7c4e11953872d/6711f493bfc7c4e11953872d_Images/6711f493bfc7c4e11953872d_Image_18.jpeg,liked,3.30081769,,,,,,,,,,,,,,,,,,,,,,,
,,6711f493bfc7c4e11953872d,6685aa9113c938e83b4f1ea0,672d3f532216c7f97cc24a03,2024-11-08_03h35.31.708,WTP_SM_Choice,2022.2.1,Win32,60.24096386,,,,,,,,,,,,,,,,,,26,,,,,,space,0.1522,space,0.5135,0.01,1,1.9552,0,0,0,0,1,play cod with my dorm mates,play call of duty on my ps ,0.01,0.01,4.4,0,,,,,
,,6711f493bfc7c4e11953872d,6685aa9113c938e83b4f1ea0,672d3f532216c7f97cc24a03,2024-11-08_03h35.31.708,WTP_SM_Choice,2022.2.1,Win32,60.24096386,,,,,,,,,,,,,,,,,,27,,,,,,,,,,0.01,2,0.0524,0,1,1,1,1,plan a trip to miami with my friends,play call of duty on my ps ,0.02,0.01,3.3,0,,,,,
,,6711f493bfc7c4e11953872d,6685aa9113c938e83b4f1ea0,672d3f532216c7f97cc24a03,2024-11-08_03h35.31.708,WTP_SM_Choice,2022.2.1,Win32,60.24096386,,,,,,,,,,,,,,,,,,28,,,,,,,,,,0.03,1,0.5686,0,2,2,2,1,clean my room,try some new music with friends,0.03,0.01,3.3,1,,,,,
,,6711f493bfc7c4e11953872d,6685aa9113c938e83b4f1ea0,672d3f532216c7f97cc24a03,2024-11-08_03h35.31.708,WTP_SM_Choice,2022.2.1,Win32,60.24096386,,,,,,,,,,,,,,,,,,29,,,,,,,,,,0.01,2,1.9156,0,3,3,3,1,clean my room,try a new escape room with my mates,0.04,0.01,4.4,1,,,,,
,,6711f493bfc7c4e11953872d,6685aa9113c938e83b4f1ea0,672d3f532216c7f97cc24a03,2024-11-08_03h35.31.708,WTP_SM_Choice,2022.2.1,Win32,60.24096386,,,,,,,,,,,,,,,,,,30,,,,,,,,,,0.01,2,2.2565,0,4,4,4,1,play with chica,try a new restaurant in downtown,0.05,0.01,8.8,1,,,,,
,,6711f493bfc7c4e11953872d,6685aa9113c938e83b4f1ea0,672d3f532216c7f97cc24a03,2024-11-08_03h35.31.708,WTP_SM_Choice,2022.2.1,Win32,60.24096386,,,,,,,NAN,,NAN,0.69,5.31,,0,29,29,29,1,30,Alex,Acc,Participant_Images/6711f493bfc7c4e11953872d/6711f493bfc7c4e11953872d_Images/6711f493bfc7c4e11953872d_Image_17.jpeg,did not like,1.661473164,,,,,,,,,,,,,,,,,,,,,,,
,,6711f493bfc7c4e11953872d,6685aa9113c938e83b4f1ea0,672d3f532216c7f97cc24a03,2024-11-08_03h35.31.708,WTP_SM_Choice,2022.2.1,Win32,60.24096386,,,,,space,0.5225,NAN,,NAN,0.69,5.31,,0,30,30,30,1,31,Alex,Acc,Participant_Images/6711f493bfc7c4e11953872d/6711f493bfc7c4e11953872d_Images/6711f493bfc7c4e11953872d_Image_23.jpeg,did not like,3.613205605,,,,,,,,,,,,,,,,,,,,,,,
,,6711f493bfc7c4e11953872d,6685aa9113c938e83b4f1ea0,672d3f532216c7f97cc24a03,2024-11-08_03h35.31.708,WTP_SM_Choice,2022.2.1,Win32,60.24096386,,,,,space,0.1797,NAN,,NAN,0.69,5.31,,0,31,31,31,1,32,Alex,Acc,Participant_Images/6711f493bfc7c4e11953872d/6711f493bfc7c4e11953872d_Images/6711f493bfc7c4e11953872d_Image_6.jpeg,liked,4.988446431,,,,,,,,,,,,,,,,,,,,,,,
,,6711f493bfc7c4e11953872d,6685aa9113c938e83b4f1ea0,672d3f532216c7f97cc24a03,2024-11-08_03h35.31.708,WTP_SM_Choice,2022.2.1,Win32,60.24096386,,,,,space,0.4707,NAN,,NAN,0.69,5.31,,0,32,32,32,1,33,Alex,Acc,Participant_Images/6711f493bfc7c4e11953872d/6711f493bfc7c4e11953872d_Images/6711f493bfc7c4e11953872d_Image_2.jpeg,did not like,3.470791822,,,,,,,,,,,,,,,,,,,,,,,
,,6711f493bfc7c4e11953872d,6685aa9113c938e83b4f1ea0,672d3f532216c7f97cc24a03,2024-11-08_03h35.31.708,WTP_SM_Choice,2022.2.1,Win32,60.24096386,,,,,space,12.18,NAN,,NAN,0.69,5.31,,0,33,33,33,1,34,Alex,Acc,Participant_Images/6711f493bfc7c4e11953872d/6711f493bfc7c4e11953872d_Images/6711f493bfc7c4e11953872d_Image_22.jpeg,liked,3.820572462,,,,,,,,,,,,,,,,,,,,,,,
,,6711f493bfc7c4e11953872d,6685aa9113c938e83b4f1ea0,672d3f532216c7f97cc24a03,2024-11-08_03h35.31.708,WTP_SM_Choice,2022.2.1,Win32,60.24096386,,,,,,,,,,,,,,,,,,31,,,,,,space,0.9624,space,0.6602,0.01,1,1.5451,0,0,0,0,1,Jog early morning,play cod with my dorm mates,0.01,0.02,8.8,1,,,,,
,,6711f493bfc7c4e11953872d,6685aa9113c938e83b4f1ea0,672d3f532216c7f97cc24a03,2024-11-08_03h35.31.708,WTP_SM_Choice,2022.2.1,Win32,60.24096386,,,,,,,,,,,,,,,,,,32,,,,,,,,,,0.02,1,1.6591,0,1,1,1,1,clean my room,watch some crime show with my friends,0.02,0.02,1.1,1,,,,,
,,6711f493bfc7c4e11953872d,6685aa9113c938e83b4f1ea0,672d3f532216c7f97cc24a03,2024-11-08_03h35.31.708,WTP_SM_Choice,2022.2.1,Win32,60.24096386,,,,,,,,,,,,,,,,,,33,,,,,,,,,,0.02,2,1.2695,0,2,2,2,1,play cod with my dorm mates,go to gym for some cardio,0.03,0.02,4.4,0,,,,,
,,6711f493bfc7c4e11953872d,6685aa9113c938e83b4f1ea0,672d3f532216c7f97cc24a03,2024-11-08_03h35.31.708,WTP_SM_Choice,2022.2.1,Win32,60.24096386,,,,,,,,,,,,,,,,,,34,,,,,,,,,,,,,0,3,3,3,1,rearrange my stuff,try some new music with friends,0.04,0.02,3.3,1,,,,,
,,6711f493bfc7c4e11953872d,6685aa9113c938e83b4f1ea0,672d3f532216c7f97cc24a03,2024-11-08_03h35.31.708,WTP_SM_Choice,2022.2.1,Win32,60.24096386,,,,,,,,,,,,,,,,,,35,,,,,,,,,,0.02,2,7.0155,0,4,4,4,1,rearrange my stuff,watch some crime show with my friends,0.05,0.02,1.1,1,,,,,
,,6711f493bfc7c4e11953872d,6685aa9113c938e83b4f1ea0,672d3f532216c7f97cc24a03,2024-11-08_03h35.31.708,WTP_SM_Choice,2022.2.1,Win32,60.24096386,,,,,,,NAN,,NAN,0.76,5.24,,0,34,34,34,1,35,Alex,Acc,Participant_Images/6711f493bfc7c4e11953872d/6711f493bfc7c4e11953872d_Images/6711f493bfc7c4e11953872d_Image_7.jpeg,liked,2.455989137,,,,,,,,,,,,,,,,,,,,,,,
,,6711f493bfc7c4e11953872d,6685aa9113c938e83b4f1ea0,672d3f532216c7f97cc24a03,2024-11-08_03h35.31.708,WTP_SM_Choice,2022.2.1,Win32,60.24096386,,,,,space,3.7337,NAN,,NAN,0.76,5.24,,0,35,35,35,1,36,Alex,Acc,Participant_Images/6711f493bfc7c4e11953872d/6711f493bfc7c4e11953872d_Images/6711f493bfc7c4e11953872d_Image_1.jpeg,did not like,3.79605092,,,,,,,,,,,,,,,,,,,,,,,
,,6711f493bfc7c4e11953872d,6685aa9113c938e83b4f1ea0,672d3f532216c7f97cc24a03,2024-11-08_03h35.31.708,WTP_SM_Choice,2022.2.1,Win32,60.24096386,,,,,space,0.5215,NAN,,NAN,0.76,5.24,,0,36,36,36,1,37,Alex,Acc,Participant_Images/6711f493bfc7c4e11953872d/6711f493bfc7c4e11953872d_Images/6711f493bfc7c4e11953872d_Image_8.jpeg,liked,3.562416326,,,,,,,,,,,,,,,,,,,,,,,
,,6711f493bfc7c4e11953872d,6685aa9113c938e83b4f1ea0,672d3f532216c7f97cc24a03,2024-11-08_03h35.31.708,WTP_SM_Choice,2022.2.1,Win32,60.24096386,,,,,space,0.4183,NAN,,NAN,0.76,5.24,,0,37,37,37,1,38,Alex,Acc,Participant_Images/6711f493bfc7c4e11953872d/6711f493bfc7c4e11953872d_Images/6711f493bfc7c4e11953872d_Image_21.jpeg,liked,2.843822497,,,,,,,,,,,,,,,,,,,,,,,
,,6711f493bfc7c4e11953872d,6685aa9113c938e83b4f1ea0,672d3f532216c7f97cc24a03,2024-11-08_03h35.31.708,WTP_SM_Choice,2022.2.1,Win32,60.24096386,,,,,space,0.0709,NAN,,NAN,0.76,5.24,,0,38,38,38,1,39,Alex,Acc,Participant_Images/6711f493bfc7c4e11953872d/6711f493bfc7c4e11953872d_Images/6711f493bfc7c4e11953872d_Image_10.jpeg,liked,3.546495948,,,,,,,,,,,,,,,,,,,,,,,
,,6711f493bfc7c4e11953872d,6685aa9113c938e83b4f1ea0,672d3f532216c7f97cc24a03,2024-11-08_03h35.31.708,WTP_SM_Choice,2022.2.1,Win32,60.24096386,,,,,,,,,,,,,,,,,,36,,,,,,space,7.9036,space,0.4504,0.01,1,1.1338,0,0,0,0,1,go to beach on a sunny day,go to gym for some cardio,0.01,0.03,3.3,0,,,,,
,,6711f493bfc7c4e11953872d,6685aa9113c938e83b4f1ea0,672d3f532216c7f97cc24a03,2024-11-08_03h35.31.708,WTP_SM_Choice,2022.2.1,Win32,60.24096386,,,,,,,,,,,,,,,,,,37,,,,,,,,,,0.02,1,0.8862,0,1,1,1,1,have my favorite pasta as breakfast,try a new restaurant in downtown,0.02,0.03,1.1,1,,,,,
,,6711f493bfc7c4e11953872d,6685aa9113c938e83b4f1ea0,672d3f532216c7f97cc24a03,2024-11-08_03h35.31.708,WTP_SM_Choice,2022.2.1,Win32,60.24096386,,,,,,,,,,,,,,,,,,38,,,,,,,,,,0.03,1,1.4192,0,2,2,2,1,watch lakers win ,do some target runs with my family,0.03,0.03,1.1,1,,,,,
,,6711f493bfc7c4e11953872d,6685aa9113c938e83b4f1ea0,672d3f532216c7f97cc24a03,2024-11-08_03h35.31.708,WTP_SM_Choice,2022.2.1,Win32,60.24096386,,,,,,,,,,,,,,,,,,39,,,,,,,,,,0.03,2,0.5501,0,3,3,3,1,play cod with my dorm mates,have my favorite pasta as breakfast,0.04,0.03,3.3,0,,,,,
,,6711f493bfc7c4e11953872d,6685aa9113c938e83b4f1ea0,672d3f532216c7f97cc24a03,2024-11-08_03h35.31.708,WTP_SM_Choice,2022.2.1,Win32,60.24096386,,,,,,,,,,,,,,,,,,40,,,,,,,,,,0.05,1,1.002,0,4,4,4,1,try some new music with friends,play with chica,0.05,0.03,4.4,0,,,,,
,,6711f493bfc7c4e11953872d,6685aa9113c938e83b4f1ea0,672d3f532216c7f97cc24a03,2024-11-08_03h35.31.708,WTP_SM_Choice,2022.2.1,Win32,60.24096386,,,,,,,NAN,,NAN,0.9,5.1,,0,39,39,39,1,40,Alex,Acc,Participant_Images/6711f493bfc7c4e11953872d/6711f493bfc7c4e11953872d_Images/6711f493bfc7c4e11953872d_Image_4.jpeg,did not like,1.672012706,,,,,,,,,,,,,,,,,,,,,,,
,,6711f493bfc7c4e11953872d,6685aa9113c938e83b4f1ea0,672d3f532216c7f97cc24a03,2024-11-08_03h35.31.708,WTP_SM_Choice,2022.2.1,Win32,60.24096386,,,,,space,0.1175,NAN,,NAN,0.9,5.1,,0,40,40,40,1,41,Alex,Acc,Participant_Images/6711f493bfc7c4e11953872d/6711f493bfc7c4e11953872d_Images/6711f493bfc7c4e11953872d_Image_11.jpeg,liked,4.942172136,,,,,,,,,,,,,,,,,,,,,,,
,,6711f493bfc7c4e11953872d,6685aa9113c938e83b4f1ea0,672d3f532216c7f97cc24a03,2024-11-08_03h35.31.708,WTP_SM_Choice,2022.2.1,Win32,60.24096386,,,,,space,1.3188,NAN,,NAN,0.9,5.1,,0,41,41,41,1,42,Alex,Acc,Participant_Images/6711f493bfc7c4e11953872d/6711f493bfc7c4e11953872d_Images/6711f493bfc7c4e11953872d_Image_3.jpeg,liked,2.50187214,,,,,,,,,,,,,,,,,,,,,,,
,,6711f493bfc7c4e11953872d,6685aa9113c938e83b4f1ea0,672d3f532216c7f97cc24a03,2024-11-08_03h35.31.708,WTP_SM_Choice,2022.2.1,Win32,60.24096386,,,,,space,0.1006,NAN,,NAN,0.9,5.1,,0,42,42,42,1,43,Alex,Acc,Participant_Images/6711f493bfc7c4e11953872d/6711f493bfc7c4e11953872d_Images/6711f493bfc7c4e11953872d_Image_14.jpeg,liked,2.071164779,,,,,,,,,,,,,,,,,,,,,,,
,,6711f493bfc7c4e11953872d,6685aa9113c938e83b4f1ea0,672d3f532216c7f97cc24a03,2024-11-08_03h35.31.708,WTP_SM_Choice,2022.2.1,Win32,60.24096386,,,,,space,3.4776,NAN,,NAN,0.9,5.1,,0,43,43,43,1,44,Alex,Acc,Participant_Images/6711f493bfc7c4e11953872d/6711f493bfc7c4e11953872d_Images/6711f493bfc7c4e11953872d_Image_20.jpeg,liked,5.336503566,,,,,,,,,,,,,,,,,,,,,,,
,,6711f493bfc7c4e11953872d,6685aa9113c938e83b4f1ea0,672d3f532216c7f97cc24a03,2024-11-08_03h35.31.708,WTP_SM_Choice,2022.2.1,Win32,60.24096386,,,,,,,,,,,,,,,,,,41,,,,,,space,0.9998,space,5.85,0.01,1,3.0683,0,0,0,0,1,play with chica,watch some crime show with my friends,0.01,0.04,1.1,1,,,,,
,,6711f493bfc7c4e11953872d,6685aa9113c938e83b4f1ea0,672d3f532216c7f97cc24a03,2024-11-08_03h35.31.708,WTP_SM_Choice,2022.2.1,Win32,60.24096386,,,,,,,,,,,,,,,,,,42,,,,,,,,,,0.02,1,1.8053,0,1,1,1,1,try a new restaurant in downtown,go to gym for some cardio,0.02,0.04,3.3,0,,,,,
,,6711f493bfc7c4e11953872d,6685aa9113c938e83b4f1ea0,672d3f532216c7f97cc24a03,2024-11-08_03h35.31.708,WTP_SM_Choice,2022.2.1,Win32,60.24096386,,,,,,,,,,,,,,,,,,43,,,,,,,,,,0.04,2,1.6847,0,2,2,2,1,try a new restaurant in downtown,go to college on a rainy day,0.03,0.04,1.1,0,,,,,
,,6711f493bfc7c4e11953872d,6685aa9113c938e83b4f1ea0,672d3f532216c7f97cc24a03,2024-11-08_03h35.31.708,WTP_SM_Choice,2022.2.1,Win32,60.24096386,,,,,,,,,,,,,,,,,,44,,,,,,,,,,0.04,1,1.3887,0,3,3,3,1,plan a trip to miami with my friends,play with chica,0.04,0.04,1.1,0,,,,,
,,6711f493bfc7c4e11953872d,6685aa9113c938e83b4f1ea0,672d3f532216c7f97cc24a03,2024-11-08_03h35.31.708,WTP_SM_Choice,2022.2.1,Win32,60.24096386,,,,,,,,,,,,,,,,,,45,,,,,,,,,,0.05,1,1.5742,0,4,4,4,1,rearrange my stuff,try a new escape room with my mates,0.05,0.04,4.4,1,,,,,
,,6711f493bfc7c4e11953872d,6685aa9113c938e83b4f1ea0,672d3f532216c7f97cc24a03,2024-11-08_03h35.31.708,WTP_SM_Choice,2022.2.1,Win32,60.24096386,,,,,,,NAN,,NAN,1.06,4.94,,0,44,44,44,1,45,Alex,Acc,Participant_Images/6711f493bfc7c4e11953872d/6711f493bfc7c4e11953872d_Images/6711f493bfc7c4e11953872d_Image_25.jpeg,liked,2.642157193,,,,,,,,,,,,,,,,,,,,,,,
,,6711f493bfc7c4e11953872d,6685aa9113c938e83b4f1ea0,672d3f532216c7f97cc24a03,2024-11-08_03h35.31.708,WTP_SM_Choice,2022.2.1,Win32,60.24096386,,,,,space,0.347,NAN,,NAN,1.06,4.94,,0,45,45,45,1,46,Alex,Acc,Participant_Images/6711f493bfc7c4e11953872d/6711f493bfc7c4e11953872d_Images/6711f493bfc7c4e11953872d_Image_5.jpeg,liked,4.456234322,,,,,,,,,,,,,,,,,,,,,,,
,,6711f493bfc7c4e11953872d,6685aa9113c938e83b4f1ea0,672d3f532216c7f97cc24a03,2024-11-08_03h35.31.708,WTP_SM_Choice,2022.2.1,Win32,60.24096386,,,,,space,6.9756,NAN,,NAN,1.06,4.94,,0,46,46,46,1,47,Alex,Acc,Participant_Images/6711f493bfc7c4e11953872d/6711f493bfc7c4e11953872d_Images/6711f493bfc7c4e11953872d_Image_12.jpeg,liked,4.438512181,,,,,,,,,,,,,,,,,,,,,,,
,,6711f493bfc7c4e11953872d,6685aa9113c938e83b4f1ea0,672d3f532216c7f97cc24a03,2024-11-08_03h35.31.708,WTP_SM_Choice,2022.2.1,Win32,60.24096386,,,,,space,3.0781,NAN,,NAN,1.06,4.94,,0,47,47,47,1,48,Alex,Acc,Participant_Images/6711f493bfc7c4e11953872d/6711f493bfc7c4e11953872d_Images/6711f493bfc7c4e11953872d_Image_16.jpeg,liked,2.682944783,,,,,,,,,,,,,,,,,,,,,,,
,,6711f493bfc7c4e11953872d,6685aa9113c938e83b4f1ea0,672d3f532216c7f97cc24a03,2024-11-08_03h35.31.708,WTP_SM_Choice,2022.2.1,Win32,60.24096386,,,,,space,0.1512,NAN,,NAN,1.06,4.94,,0,48,48,48,1,49,Alex,Acc,Participant_Images/6711f493bfc7c4e11953872d/6711f493bfc7c4e11953872d_Images/6711f493bfc7c4e11953872d_Image_24.jpeg,liked,4.51984296,,,,,,,,,,,,,,,,,,,,,,,
,,6711f493bfc7c4e11953872d,6685aa9113c938e83b4f1ea0,672d3f532216c7f97cc24a03,2024-11-08_03h35.31.708,WTP_SM_Choice,2022.2.1,Win32,60.24096386,,,,,,,,,,,,,,,,,,46,,,,,,space,5.7116,space,0.4834,0.01,1,1.3489,0,0,0,0,1,do some target runs with my family,have my favorite pasta as breakfast,0.01,0.05,8.8,0,,,,,
,,6711f493bfc7c4e11953872d,6685aa9113c938e83b4f1ea0,672d3f532216c7f97cc24a03,2024-11-08_03h35.31.708,WTP_SM_Choice,2022.2.1,Win32,60.24096386,,,,,,,,,,,,,,,,,,47,,,,,,,,,,0.05,2,4.8505,0,1,1,1,1,plan a trip to miami with my friends,have my favorite pasta as breakfast,0.02,0.05,1.1,0,,,,,
,,6711f493bfc7c4e11953872d,6685aa9113c938e83b4f1ea0,672d3f532216c7f97cc24a03,2024-11-08_03h35.31.708,WTP_SM_Choice,2022.2.1,Win32,60.24096386,,,,,,,,,,,,,,,,,,48,,,,,,,,,,0.03,1,2.0206,0,2,2,2,1,play with chica,do some target runs with my family,0.03,0.05,4.4,1,,,,,
,,6711f493bfc7c4e11953872d,6685aa9113c938e83b4f1ea0,672d3f532216c7f97cc24a03,2024-11-08_03h35.31.708,WTP_SM_Choice,2022.2.1,Win32,60.24096386,,,,,,,,,,,,,,,,,,49,,,,,,,,,,0.05,2,3.9158,0,3,3,3,1,go to gym for some cardio,early morning walk with my friends ,0.04,0.05,3.3,1,,,,,
,,6711f493bfc7c4e11953872d,6685aa9113c938e83b4f1ea0,672d3f532216c7f97cc24a03,2024-11-08_03h35.31.708,WTP_SM_Choice,2022.2.1,Win32,60.24096386,,,,,,,,,,,,,,,,,,50,,,,,,,,,,0.05,1,0.7184,0,4,4,4,1,clean my room,play cod with my dorm mates,0.05,0.05,1.1,1,,,,,
,,6711f493bfc7c4e11953872d,6685aa9113c938e83b4f1ea0,672d3f532216c7f97cc24a03,2024-11-08_03h35.31.708,WTP_SM_Choice,2022.2.1,Win32,60.24096386,,,,,,,4,,5,1.25,4.75,,0,49,49,49,1,50,Alex,Acc,Participant_Images/6711f493bfc7c4e11953872d/6711f493bfc7c4e11953872d_Images/6711f493bfc7c4e11953872d_Image_13.jpeg,liked,3.195382774,,,,,,,,,,,,,,,,,,,space,2.317,,,
,,6711f493bfc7c4e11953872d,6685aa9113c938e83b4f1ea0,672d3f532216c7f97cc24a03,2024-11-08_03h35.31.708,WTP_SM_Choice,2022.2.1,Win32,60.24096386,,,space,30.046,space,2.1019,NAN,,NAN,1.25,4.75,,0,50,50,50,1,51,Charlie,Acc,Participant_Images/6711f493bfc7c4e11953872d/6711f493bfc7c4e11953872d_Images/6711f493bfc7c4e11953872d_Image_15.jpeg,liked,1.779333479,,,,,,,,,,,,,,,,,,,,,,,
,,6711f493bfc7c4e11953872d,6685aa9113c938e83b4f1ea0,672d3f532216c7f97cc24a03,2024-11-08_03h35.31.708,WTP_SM_Choice,2022.2.1,Win32,60.24096386,,,,,space,1.2664,NAN,,NAN,1.25,4.75,,0,51,51,51,1,52,Charlie,Acc,Participant_Images/6711f493bfc7c4e11953872d/6711f493bfc7c4e11953872d_Images/6711f493bfc7c4e11953872d_Image_21.jpeg,liked,4.312468682,,,,,,,,,,,,,,,,,,,,,,,
,,6711f493bfc7c4e11953872d,6685aa9113c938e83b4f1ea0,672d3f532216c7f97cc24a03,2024-11-08_03h35.31.708,WTP_SM_Choice,2022.2.1,Win32,60.24096386,,,,,space,0.2794,NAN,,NAN,1.25,4.75,,0,52,52,52,1,53,Charlie,Acc,Participant_Images/6711f493bfc7c4e11953872d/6711f493bfc7c4e11953872d_Images/6711f493bfc7c4e11953872d_Image_24.jpeg,liked,4.940433059,,,,,,,,,,,,,,,,,,,,,,,
,,6711f493bfc7c4e11953872d,6685aa9113c938e83b4f1ea0,672d3f532216c7f97cc24a03,2024-11-08_03h35.31.708,WTP_SM_Choice,2022.2.1,Win32,60.24096386,,,,,space,6.4339,NAN,,NAN,1.25,4.75,,0,53,53,53,1,54,Charlie,Acc,Participant_Images/6711f493bfc7c4e11953872d/6711f493bfc7c4e11953872d_Images/6711f493bfc7c4e11953872d_Image_7.jpeg,liked,2.7105123,,,,,,,,,,,,,,,,,,,,,,,
,,6711f493bfc7c4e11953872d,6685aa9113c938e83b4f1ea0,672d3f532216c7f97cc24a03,2024-11-08_03h35.31.708,WTP_SM_Choice,2022.2.1,Win32,60.24096386,,,,,,,,,,,,,,,,,,51,,,,,,space,0.3994,space,0.584,0.01,1,1.001,0,0,0,0,1,rearrange my stuff,do some target runs with my family,0.01,0.01,1.1,1,,,,,
,,6711f493bfc7c4e11953872d,6685aa9113c938e83b4f1ea0,672d3f532216c7f97cc24a03,2024-11-08_03h35.31.708,WTP_SM_Choice,2022.2.1,Win32,60.24096386,,,,,,,,,,,,,,,,,,52,,,,,,,,,,0.01,2,0.2509,0,1,1,1,1,try a new restaurant in downtown,Jog early morning,0.02,0.01,3.3,0,,,,,
,,6711f493bfc7c4e11953872d,6685aa9113c938e83b4f1ea0,672d3f532216c7f97cc24a03,2024-11-08_03h35.31.708,WTP_SM_Choice,2022.2.1,Win32,60.24096386,,,,,,,,,,,,,,,,,,53,,,,,,,,,,0.03,1,0.6581,0,2,2,2,1,try some new music with friends,Jog early morning,0.03,0.01,1.1,0,,,,,
,,6711f493bfc7c4e11953872d,6685aa9113c938e83b4f1ea0,672d3f532216c7f97cc24a03,2024-11-08_03h35.31.708,WTP_SM_Choice,2022.2.1,Win32,60.24096386,,,,,,,,,,,,,,,,,,54,,,,,,,,,,0.01,2,1.3606,0,3,3,3,1,try a new restaurant in downtown,watch lakers win ,0.04,0.01,4.4,0,,,,,
,,6711f493bfc7c4e11953872d,6685aa9113c938e83b4f1ea0,672d3f532216c7f97cc24a03,2024-11-08_03h35.31.708,WTP_SM_Choice,2022.2.1,Win32,60.24096386,,,,,,,,,,,,,,,,,,55,,,,,,,,,,0.05,1,0.7665,0,4,4,4,1,play cod with my dorm mates,play some nba,0.05,0.01,1.1,0,,,,,
,,6711f493bfc7c4e11953872d,6685aa9113c938e83b4f1ea0,672d3f532216c7f97cc24a03,2024-11-08_03h35.31.708,WTP_SM_Choice,2022.2.1,Win32,60.24096386,,,,,,,NAN,,NAN,1.36,4.64,,0,54,54,54,1,55,Charlie,Acc,Participant_Images/6711f493bfc7c4e11953872d/6711f493bfc7c4e11953872d_Images/6711f493bfc7c4e11953872d_Image_3.jpeg,did not like,3.602308302,,,,,,,,,,,,,,,,,,,,,,,
,,6711f493bfc7c4e11953872d,6685aa9113c938e83b4f1ea0,672d3f532216c7f97cc24a03,2024-11-08_03h35.31.708,WTP_SM_Choice,2022.2.1,Win32,60.24096386,,,,,space,0.1931,NAN,,NAN,1.36,4.64,,0,55,55,55,1,56,Charlie,Acc,Participant_Images/6711f493bfc7c4e11953872d/6711f493bfc7c4e11953872d_Images/6711f493bfc7c4e11953872d_Image_1.jpeg,liked,4.106391878,,,,,,,,,,,,,,,,,,,,,,,
,,6711f493bfc7c4e11953872d,6685aa9113c938e83b4f1ea0,672d3f532216c7f97cc24a03,2024-11-08_03h35.31.708,WTP_SM_Choice,2022.2.1,Win32,60.24096386,,,,,space,5.8964,NAN,,NAN,1.36,4.64,,0,56,56,56,1,57,Charlie,Acc,Participant_Images/6711f493bfc7c4e11953872d/6711f493bfc7c4e11953872d_Images/6711f493bfc7c4e11953872d_Image_14.jpeg,liked,3.799433026,,,,,,,,,,,,,,,,,,,,,,,
,,6711f493bfc7c4e11953872d,6685aa9113c938e83b4f1ea0,672d3f532216c7f97cc24a03,2024-11-08_03h35.31.708,WTP_SM_Choice,2022.2.1,Win32,60.24096386,,,,,space,0.1002,NAN,,NAN,1.36,4.64,,0,57,57,57,1,58,Charlie,Acc,Participant_Images/6711f493bfc7c4e11953872d/6711f493bfc7c4e11953872d_Images/6711f493bfc7c4e11953872d_Image_16.jpeg,liked,5.246980764,,,,,,,,,,,,,,,,,,,,,,,
,,6711f493bfc7c4e11953872d,6685aa9113c938e83b4f1ea0,672d3f532216c7f97cc24a03,2024-11-08_03h35.31.708,WTP_SM_Choice,2022.2.1,Win32,60.24096386,,,,,space,0.1499,NAN,,NAN,1.36,4.64,,0,58,58,58,1,59,Charlie,Acc,Participant_Images/6711f493bfc7c4e11953872d/6711f493bfc7c4e11953872d_Images/6711f493bfc7c4e11953872d_Image_17.jpeg,did not like,3.30081769,,,,,,,,,,,,,,,,,,,,,,,
,,6711f493bfc7c4e11953872d,6685aa9113c938e83b4f1ea0,672d3f532216c7f97cc24a03,2024-11-08_03h35.31.708,WTP_SM_Choice,2022.2.1,Win32,60.24096386,,,,,,,,,,,,,,,,,,56,,,,,,space,0.3331,space,0.418,0.01,1,3.8551,0,0,0,0,1,watch some crime show with my friends,Jog early morning,0.01,0.02,8.8,0,,,,,
,,6711f493bfc7c4e11953872d,6685aa9113c938e83b4f1ea0,672d3f532216c7f97cc24a03,2024-11-08_03h35.31.708,WTP_SM_Choice,2022.2.1,Win32,60.24096386,,,,,,,,,,,,,,,,,,57,,,,,,,,,,0.02,1,0.6674,0,1,1,1,1,go to beach on a sunny day,play with chica,0.02,0.02,4.4,0,,,,,
,,6711f493bfc7c4e11953872d,6685aa9113c938e83b4f1ea0,672d3f532216c7f97cc24a03,2024-11-08_03h35.31.708,WTP_SM_Choice,2022.2.1,Win32,60.24096386,,,,,,,,,,,,,,,,,,58,,,,,,,,,,0.03,1,3.8493,0,2,2,2,1,Jog early morning,early morning walk with my friends ,0.03,0.02,4.4,1,,,,,
,,6711f493bfc7c4e11953872d,6685aa9113c938e83b4f1ea0,672d3f532216c7f97cc24a03,2024-11-08_03h35.31.708,WTP_SM_Choice,2022.2.1,Win32,60.24096386,,,,,,,,,,,,,,,,,,59,,,,,,,,,,0.04,1,0.567,0,3,3,3,1,go to college on a rainy day,go to beach on a sunny day,0.04,0.02,4.4,1,,,,,
,,6711f493bfc7c4e11953872d,6685aa9113c938e83b4f1ea0,672d3f532216c7f97cc24a03,2024-11-08_03h35.31.708,WTP_SM_Choice,2022.2.1,Win32,60.24096386,,,,,,,,,,,,,,,,,,60,,,,,,,,,,0.02,2,2.7667,0,4,4,4,1,rearrange my stuff,play cod with my dorm mates,0.05,0.02,1.1,1,,,,,
,,6711f493bfc7c4e11953872d,6685aa9113c938e83b4f1ea0,672d3f532216c7f97cc24a03,2024-11-08_03h35.31.708,WTP_SM_Choice,2022.2.1,Win32,60.24096386,,,,,,,NAN,,NAN,1.48,4.52,,0,59,59,59,1,60,Charlie,Acc,Participant_Images/6711f493bfc7c4e11953872d/6711f493bfc7c4e11953872d_Images/6711f493bfc7c4e11953872d_Image_6.jpeg,did not like,1.661473164,,,,,,,,,,,,,,,,,,,,,,,
,,6711f493bfc7c4e11953872d,6685aa9113c938e83b4f1ea0,672d3f532216c7f97cc24a03,2024-11-08_03h35.31.708,WTP_SM_Choice,2022.2.1,Win32,60.24096386,,,,,space,0.8624,NAN,,NAN,1.48,4.52,,0,60,60,60,1,61,Charlie,Acc,Participant_Images/6711f493bfc7c4e11953872d/6711f493bfc7c4e11953872d_Images/6711f493bfc7c4e11953872d_Image_11.jpeg,liked,3.613205605,,,,,,,,,,,,,,,,,,,,,,,
,,6711f493bfc7c4e11953872d,6685aa9113c938e83b4f1ea0,672d3f532216c7f97cc24a03,2024-11-08_03h35.31.708,WTP_SM_Choice,2022.2.1,Win32,60.24096386,,,,,space,0.4018,NAN,,NAN,1.48,4.52,,0,61,61,61,1,62,Charlie,Acc,Participant_Images/6711f493bfc7c4e11953872d/6711f493bfc7c4e11953872d_Images/6711f493bfc7c4e11953872d_Image_22.jpeg,liked,4.988446431,,,,,,,,,,,,,,,,,,,,,,,
,,6711f493bfc7c4e11953872d,6685aa9113c938e83b4f1ea0,672d3f532216c7f97cc24a03,2024-11-08_03h35.31.708,WTP_SM_Choice,2022.2.1,Win32,60.24096386,,,,,space,11.9296,NAN,,NAN,1.48,4.52,,0,62,62,62,1,63,Charlie,Acc,Participant_Images/6711f493bfc7c4e11953872d/6711f493bfc7c4e11953872d_Images/6711f493bfc7c4e11953872d_Image_8.jpeg,liked,3.470791822,,,,,,,,,,,,,,,,,,,,,,,
,,6711f493bfc7c4e11953872d,6685aa9113c938e83b4f1ea0,672d3f532216c7f97cc24a03,2024-11-08_03h35.31.708,WTP_SM_Choice,2022.2.1,Win32,60.24096386,,,,,space,3.1309,NAN,,NAN,1.48,4.52,,0,63,63,63,1,64,Charlie,Acc,Participant_Images/6711f493bfc7c4e11953872d/6711f493bfc7c4e11953872d_Images/6711f493bfc7c4e11953872d_Image_5.jpeg,liked,3.820572462,,,,,,,,,,,,,,,,,,,,,,,
,,6711f493bfc7c4e11953872d,6685aa9113c938e83b4f1ea0,672d3f532216c7f97cc24a03,2024-11-08_03h35.31.708,WTP_SM_Choice,2022.2.1,Win32,60.24096386,,,,,,,,,,,,,,,,,,61,,,,,,space,10.4495,space,16.6575,0.03,2,1.5488,0,0,0,0,1,do some target runs with my family,go to college on a rainy day,0.01,0.03,3.3,0,,,,,
,,6711f493bfc7c4e11953872d,6685aa9113c938e83b4f1ea0,672d3f532216c7f97cc24a03,2024-11-08_03h35.31.708,WTP_SM_Choice,2022.2.1,Win32,60.24096386,,,,,,,,,,,,,,,,,,62,,,,,,,,,,0.03,2,0.2611,0,1,1,1,1,Jog early morning,play some soccer with my old friends,0.02,0.03,3.3,1,,,,,
,,6711f493bfc7c4e11953872d,6685aa9113c938e83b4f1ea0,672d3f532216c7f97cc24a03,2024-11-08_03h35.31.708,WTP_SM_Choice,2022.2.1,Win32,60.24096386,,,,,,,,,,,,,,,,,,63,,,,,,,,,,0.03,1,0.8784,0,2,2,2,1,clean my room,early morning walk with my friends ,0.03,0.03,3.3,1,,,,,
,,6711f493bfc7c4e11953872d,6685aa9113c938e83b4f1ea0,672d3f532216c7f97cc24a03,2024-11-08_03h35.31.708,WTP_SM_Choice,2022.2.1,Win32,60.24096386,,,,,,,,,,,,,,,,,,64,,,,,,,,,,0.03,2,0.4211,0,3,3,3,1,go to beach on a sunny day,play call of duty on my ps ,0.04,0.03,1.1,0,,,,,
,,6711f493bfc7c4e11953872d,6685aa9113c938e83b4f1ea0,672d3f532216c7f97cc24a03,2024-11-08_03h35.31.708,WTP_SM_Choice,2022.2.1,Win32,60.24096386,,,,,,,,,,,,,,,,,,65,,,,,,,,,,0.05,1,0.1036,0,4,4,4,1,try some new music with friends,have my favorite pasta as breakfast,0.05,0.03,1.1,0,,,,,
,,6711f493bfc7c4e11953872d,6685aa9113c938e83b4f1ea0,672d3f532216c7f97cc24a03,2024-11-08_03h35.31.708,WTP_SM_Choice,2022.2.1,Win32,60.24096386,,,,,,,NAN,,NAN,1.65,4.35,,0,64,64,64,1,65,Charlie,Acc,Participant_Images/6711f493bfc7c4e11953872d/6711f493bfc7c4e11953872d_Images/6711f493bfc7c4e11953872d_Image_23.jpeg,liked,2.455989137,,,,,,,,,,,,,,,,,,,,,,,
,,6711f493bfc7c4e11953872d,6685aa9113c938e83b4f1ea0,672d3f532216c7f97cc24a03,2024-11-08_03h35.31.708,WTP_SM_Choice,2022.2.1,Win32,60.24096386,,,,,space,0.0574,NAN,,NAN,1.65,4.35,,0,65,65,65,1,66,Charlie,Acc,Participant_Images/6711f493bfc7c4e11953872d/6711f493bfc7c4e11953872d_Images/6711f493bfc7c4e11953872d_Image_12.jpeg,liked,3.79605092,,,,,,,,,,,,,,,,,,,,,,,
,,6711f493bfc7c4e11953872d,6685aa9113c938e83b4f1ea0,672d3f532216c7f97cc24a03,2024-11-08_03h35.31.708,WTP_SM_Choice,2022.2.1,Win32,60.24096386,,,,,space,0.4086,NAN,,NAN,1.65,4.35,,0,66,66,66,1,67,Charlie,Acc,Participant_Images/6711f493bfc7c4e11953872d/6711f493bfc7c4e11953872d_Images/6711f493bfc7c4e11953872d_Image_4.jpeg,liked,3.562416326,,,,,,,,,,,,,,,,,,,,,,,
,,6711f493bfc7c4e11953872d,6685aa9113c938e83b4f1ea0,672d3f532216c7f97cc24a03,2024-11-08_03h35.31.708,WTP_SM_Choice,2022.2.1,Win32,60.24096386,,,,,space,0.117,NAN,,NAN,1.65,4.35,,0,67,67,67,1,68,Charlie,Acc,Participant_Images/6711f493bfc7c4e11953872d/6711f493bfc7c4e11953872d_Images/6711f493bfc7c4e11953872d_Image_10.jpeg,liked,2.843822497,,,,,,,,,,,,,,,,,,,,,,,
,,6711f493bfc7c4e11953872d,6685aa9113c938e83b4f1ea0,672d3f532216c7f97cc24a03,2024-11-08_03h35.31.708,WTP_SM_Choice,2022.2.1,Win32,60.24096386,,,,,space,2.4175,NAN,,NAN,1.65,4.35,,0,68,68,68,1,69,Charlie,Acc,Participant_Images/6711f493bfc7c4e11953872d/6711f493bfc7c4e11953872d_Images/6711f493bfc7c4e11953872d_Image_19.jpeg,liked,3.546495948,,,,,,,,,,,,,,,,,,,,,,,
,,6711f493bfc7c4e11953872d,6685aa9113c938e83b4f1ea0,672d3f532216c7f97cc24a03,2024-11-08_03h35.31.708,WTP_SM_Choice,2022.2.1,Win32,60.24096386,,,,,,,,,,,,,,,,,,66,,,,,,space,2.8164,space,1.0504,0.01,1,0.5343,0,0,0,0,1,go to beach on a sunny day,rearrange my stuff,0.01,0.04,1.1,0,,,,,
,,6711f493bfc7c4e11953872d,6685aa9113c938e83b4f1ea0,672d3f532216c7f97cc24a03,2024-11-08_03h35.31.708,WTP_SM_Choice,2022.2.1,Win32,60.24096386,,,,,,,,,,,,,,,,,,67,,,,,,,,,,0.04,2,0.2113,0,1,1,1,1,try some new music with friends,go to gym for some cardio,0.02,0.04,8.8,0,,,,,
,,6711f493bfc7c4e11953872d,6685aa9113c938e83b4f1ea0,672d3f532216c7f97cc24a03,2024-11-08_03h35.31.708,WTP_SM_Choice,2022.2.1,Win32,60.24096386,,,,,,,,,,,,,,,,,,68,,,,,,,,,,0.03,1,0.5337,0,2,2,2,1,have my favorite pasta as breakfast,try a new escape room with my mates,0.03,0.04,4.4,1,,,,,
,,6711f493bfc7c4e11953872d,6685aa9113c938e83b4f1ea0,672d3f532216c7f97cc24a03,2024-11-08_03h35.31.708,WTP_SM_Choice,2022.2.1,Win32,60.24096386,,,,,,,,,,,,,,,,,,69,,,,,,,,,,0.04,2,0.9194,0,3,3,3,1,play cod with my dorm mates,watch lakers win ,0.04,0.04,1.1,0,,,,,
,,6711f493bfc7c4e11953872d,6685aa9113c938e83b4f1ea0,672d3f532216c7f97cc24a03,2024-11-08_03h35.31.708,WTP_SM_Choice,2022.2.1,Win32,60.24096386,,,,,,,,,,,,,,,,,,70,,,,,,,,,,0.05,1,3.7836,0,4,4,4,1,go to gym for some cardio,try a new escape room with my mates,0.05,0.04,1.1,1,,,,,
,,6711f493bfc7c4e11953872d,6685aa9113c938e83b4f1ea0,672d3f532216c7f97cc24a03,2024-11-08_03h35.31.708,WTP_SM_Choice,2022.2.1,Win32,60.24096386,,,,,,,NAN,,NAN,1.82,4.18,,0,69,69,69,1,70,Charlie,Acc,Participant_Images/6711f493bfc7c4e11953872d/6711f493bfc7c4e11953872d_Images/6711f493bfc7c4e11953872d_Image_2.jpeg,did not like,1.672012706,,,,,,,,,,,,,,,,,,,,,,,
,,6711f493bfc7c4e11953872d,6685aa9113c938e83b4f1ea0,672d3f532216c7f97cc24a03,2024-11-08_03h35.31.708,WTP_SM_Choice,2022.2.1,Win32,60.24096386,,,,,space,0.4647,NAN,,NAN,1.82,4.18,,0,70,70,70,1,71,Charlie,Acc,Participant_Images/6711f493bfc7c4e11953872d/6711f493bfc7c4e11953872d_Images/6711f493bfc7c4e11953872d_Image_13.jpeg,liked,4.942172136,,,,,,,,,,,,,,,,,,,,,,,
,,6711f493bfc7c4e11953872d,6685aa9113c938e83b4f1ea0,672d3f532216c7f97cc24a03,2024-11-08_03h35.31.708,WTP_SM_Choice,2022.2.1,Win32,60.24096386,,,,,space,0.4163,NAN,,NAN,1.82,4.18,,0,71,71,71,1,72,Charlie,Acc,Participant_Images/6711f493bfc7c4e11953872d/6711f493bfc7c4e11953872d_Images/6711f493bfc7c4e11953872d_Image_25.jpeg,did not like,2.50187214,,,,,,,,,,,,,,,,,,,,,,,
,,6711f493bfc7c4e11953872d,6685aa9113c938e83b4f1ea0,672d3f532216c7f97cc24a03,2024-11-08_03h35.31.708,WTP_SM_Choice,2022.2.1,Win32,60.24096386,,,,,space,3.3218,NAN,,NAN,1.82,4.18,,0,72,72,72,1,73,Charlie,Acc,Participant_Images/6711f493bfc7c4e11953872d/6711f493bfc7c4e11953872d_Images/6711f493bfc7c4e11953872d_Image_18.jpeg,did not like,2.071164779,,,,,,,,,,,,,,,,,,,,,,,
,,6711f493bfc7c4e11953872d,6685aa9113c938e83b4f1ea0,672d3f532216c7f97cc24a03,2024-11-08_03h35.31.708,WTP_SM_Choice,2022.2.1,Win32,60.24096386,,,,,space,0.1879,NAN,,NAN,1.82,4.18,,0,73,73,73,1,74,Charlie,Acc,Participant_Images/6711f493bfc7c4e11953872d/6711f493bfc7c4e11953872d_Images/6711f493bfc7c4e11953872d_Image_9.jpeg,liked,5.336503566,,,,,,,,,,,,,,,,,,,,,,,
,,6711f493bfc7c4e11953872d,6685aa9113c938e83b4f1ea0,672d3f532216c7f97cc24a03,2024-11-08_03h35.31.708,WTP_SM_Choice,2022.2.1,Win32,60.24096386,,,,,,,,,,,,,,,,,,71,,,,,,space,0.2328,space,0.1677,0.01,1,1.9349,0,0,0,0,1,play some nba,try a new escape room with my mates,0.01,0.05,3.3,1,,,,,
,,6711f493bfc7c4e11953872d,6685aa9113c938e83b4f1ea0,672d3f532216c7f97cc24a03,2024-11-08_03h35.31.708,WTP_SM_Choice,2022.2.1,Win32,60.24096386,,,,,,,,,,,,,,,,,,72,,,,,,,,,,0.02,1,1.0666,0,1,1,1,1,clean my room,try a new restaurant in downtown,0.02,0.05,8.8,1,,,,,
,,6711f493bfc7c4e11953872d,6685aa9113c938e83b4f1ea0,672d3f532216c7f97cc24a03,2024-11-08_03h35.31.708,WTP_SM_Choice,2022.2.1,Win32,60.24096386,,,,,,,,,,,,,,,,,,73,,,,,,,,,,0.03,1,0.6089,0,2,2,2,1,try a new restaurant in downtown,play call of duty on my ps ,0.03,0.05,3.3,0,,,,,
,,6711f493bfc7c4e11953872d,6685aa9113c938e83b4f1ea0,672d3f532216c7f97cc24a03,2024-11-08_03h35.31.708,WTP_SM_Choice,2022.2.1,Win32,60.24096386,,,,,,,,,,,,,,,,,,74,,,,,,,,,,0.05,2,0.5281,0,3,3,3,1,watch some crime show with my friends,play call of duty on my ps ,0.04,0.05,4.4,0,,,,,
,,6711f493bfc7c4e11953872d,6685aa9113c938e83b4f1ea0,672d3f532216c7f97cc24a03,2024-11-08_03h35.31.708,WTP_SM_Choice,2022.2.1,Win32,60.24096386,,,,,,,,,,,,,,,,,,75,,,,,,,,,,0.05,1,0.0335,0,4,4,4,1,Jog early morning,try a new escape room with my mates,0.05,0.05,3.3,1,,,,,
,,6711f493bfc7c4e11953872d,6685aa9113c938e83b4f1ea0,672d3f532216c7f97cc24a03,2024-11-08_03h35.31.708,WTP_SM_Choice,2022.2.1,Win32,60.24096386,,,,,,,3,,3,1.98,4.02,,0,74,74,74,1,75,Charlie,Acc,Participant_Images/6711f493bfc7c4e11953872d/6711f493bfc7c4e11953872d_Images/6711f493bfc7c4e11953872d_Image_20.jpeg,did not like,2.642157193,,,,,,,,,,,,,,,,,,,space,2.9664,,,
,,6711f493bfc7c4e11953872d,6685aa9113c938e83b4f1ea0,672d3f532216c7f97cc24a03,2024-11-08_03h35.31.708,WTP_SM_Choice,2022.2.1,Win32,60.24096386,,,space,3.7166,space,0.1844,NAN,,NAN,1.98,4.02,,0,75,75,75,1,76,Sam,Rej,Participant_Images/6711f493bfc7c4e11953872d/6711f493bfc7c4e11953872d_Images/6711f493bfc7c4e11953872d_Image_18.jpeg,did not like,4.456234322,,,,,,,,,,,,,,,,,,,,,,,
,,6711f493bfc7c4e11953872d,6685aa9113c938e83b4f1ea0,672d3f532216c7f97cc24a03,2024-11-08_03h35.31.708,WTP_SM_Choice,2022.2.1,Win32,60.24096386,,,,,space,0.2143,NAN,,NAN,1.98,4.02,,0,76,76,76,1,77,Sam,Rej,Participant_Images/6711f493bfc7c4e11953872d/6711f493bfc7c4e11953872d_Images/6711f493bfc7c4e11953872d_Image_2.jpeg,liked,4.438512181,,,,,,,,,,,,,,,,,,,,,,,
,,6711f493bfc7c4e11953872d,6685aa9113c938e83b4f1ea0,672d3f532216c7f97cc24a03,2024-11-08_03h35.31.708,WTP_SM_Choice,2022.2.1,Win32,60.24096386,,,,,space,6.7439,NAN,,NAN,1.98,4.02,,0,77,77,77,1,78,Sam,Rej,Participant_Images/6711f493bfc7c4e11953872d/6711f493bfc7c4e11953872d_Images/6711f493bfc7c4e11953872d_Image_6.jpeg,did not like,2.682944783,,,,,,,,,,,,,,,,,,,,,,,
,,6711f493bfc7c4e11953872d,6685aa9113c938e83b4f1ea0,672d3f532216c7f97cc24a03,2024-11-08_03h35.31.708,WTP_SM_Choice,2022.2.1,Win32,60.24096386,,,,,space,0.1718,NAN,,NAN,1.98,4.02,,0,78,78,78,1,79,Sam,Rej,Participant_Images/6711f493bfc7c4e11953872d/6711f493bfc7c4e11953872d_Images/6711f493bfc7c4e11953872d_Image_9.jpeg,did not like,4.51984296,,,,,,,,,,,,,,,,,,,,,,,
,,6711f493bfc7c4e11953872d,6685aa9113c938e83b4f1ea0,672d3f532216c7f97cc24a03,2024-11-08_03h35.31.708,WTP_SM_Choice,2022.2.1,Win32,60.24096386,,,,,,,,,,,,,,,,,,76,,,,,,space,0.001,space,0.317,0.01,1,9.9488,0,0,0,0,1,do some target runs with my family,go to gym for some cardio,0.01,0.01,1.1,0,,,,,
,,6711f493bfc7c4e11953872d,6685aa9113c938e83b4f1ea0,672d3f532216c7f97cc24a03,2024-11-08_03h35.31.708,WTP_SM_Choice,2022.2.1,Win32,60.24096386,,,,,,,,,,,,,,,,,,77,,,,,,,,,,0.02,1,3.7501,0,1,1,1,1,go to college on a rainy day,early morning walk with my friends ,0.02,0.01,8.8,1,,,,,
,,6711f493bfc7c4e11953872d,6685aa9113c938e83b4f1ea0,672d3f532216c7f97cc24a03,2024-11-08_03h35.31.708,WTP_SM_Choice,2022.2.1,Win32,60.24096386,,,,,,,,,,,,,,,,,,78,,,,,,,,,,0.01,2,1.9991,0,2,2,2,1,try a new escape room with my mates,play call of duty on my ps ,0.03,0.01,1.1,0,,,,,
,,6711f493bfc7c4e11953872d,6685aa9113c938e83b4f1ea0,672d3f532216c7f97cc24a03,2024-11-08_03h35.31.708,WTP_SM_Choice,2022.2.1,Win32,60.24096386,,,,,,,,,,,,,,,,,,79,,,,,,,,,,0.04,1,6.0001,0,3,3,3,1,play with chica,early morning walk with my friends ,0.04,0.01,1.1,1,,,,,
,,6711f493bfc7c4e11953872d,6685aa9113c938e83b4f1ea0,672d3f532216c7f97cc24a03,2024-11-08_03h35.31.708,WTP_SM_Choice,2022.2.1,Win32,60.24096386,,,,,,,,,,,,,,,,,,80,,,,,,,,,,0.01,2,2.9192,0,4,4,4,1,play call of duty on my ps ,do some target runs with my family,0.05,0.01,4.4,1,,,,,
,,6711f493bfc7c4e11953872d,6685aa9113c938e83b4f1ea0,672d3f532216c7f97cc24a03,2024-11-08_03h35.31.708,WTP_SM_Choice,2022.2.1,Win32,60.24096386,,,,,,,NAN,,NAN,2.07,3.93,,0,79,79,79,1,80,Sam,Rej,Participant_Images/6711f493bfc7c4e11953872d/6711f493bfc7c4e11953872d_Images/6711f493bfc7c4e11953872d_Image_16.jpeg,did not like,3.195382774,,,,,,,,,,,,,,,,,,,,,,,
,,6711f493bfc7c4e11953872d,6685aa9113c938e83b4f1ea0,672d3f532216c7f97cc24a03,2024-11-08_03h35.31.708,WTP_SM_Choice,2022.2.1,Win32,60.24096386,,,,,space,1.4708,NAN,,NAN,2.07,3.93,,0,80,80,80,1,81,Sam,Rej,Participant_Images/6711f493bfc7c4e11953872d/6711f493bfc7c4e11953872d_Images/6711f493bfc7c4e11953872d_Image_24.jpeg,did not like,1.779333479,,,,,,,,,,,,,,,,,,,,,,,
,,6711f493bfc7c4e11953872d,6685aa9113c938e83b4f1ea0,672d3f532216c7f97cc24a03,2024-11-08_03h35.31.708,WTP_SM_Choice,2022.2.1,Win32,60.24096386,,,,,space,3.533,NAN,,NAN,2.07,3.93,,0,81,81,81,1,82,Sam,Rej,Participant_Images/6711f493bfc7c4e11953872d/6711f493bfc7c4e11953872d_Images/6711f493bfc7c4e11953872d_Image_3.jpeg,did not like,4.312468682,,,,,,,,,,,,,,,,,,,,,,,
,,6711f493bfc7c4e11953872d,6685aa9113c938e83b4f1ea0,672d3f532216c7f97cc24a03,2024-11-08_03h35.31.708,WTP_SM_Choice,2022.2.1,Win32,60.24096386,,,,,space,1.8804,NAN,,NAN,2.07,3.93,,0,82,82,82,1,83,Sam,Rej,Participant_Images/6711f493bfc7c4e11953872d/6711f493bfc7c4e11953872d_Images/6711f493bfc7c4e11953872d_Image_14.jpeg,liked,4.940433059,,,,,,,,,,,,,,,,,,,,,,,
,,6711f493bfc7c4e11953872d,6685aa9113c938e83b4f1ea0,672d3f532216c7f97cc24a03,2024-11-08_03h35.31.708,WTP_SM_Choice,2022.2.1,Win32,60.24096386,,,,,space,3.1853,NAN,,NAN,2.07,3.93,,0,83,83,83,1,84,Sam,Rej,Participant_Images/6711f493bfc7c4e11953872d/6711f493bfc7c4e11953872d_Images/6711f493bfc7c4e11953872d_Image_11.jpeg,did not like,2.7105123,,,,,,,,,,,,,,,,,,,,,,,
,,6711f493bfc7c4e11953872d,6685aa9113c938e83b4f1ea0,672d3f532216c7f97cc24a03,2024-11-08_03h35.31.708,WTP_SM_Choice,2022.2.1,Win32,60.24096386,,,,,,,,,,,,,,,,,,81,,,,,,space,0.7835,space,0.6393,0.01,1,0.8831,0,0,0,0,1,try a new escape room with my mates,go to college on a rainy day,0.01,0.02,3.3,0,,,,,
,,6711f493bfc7c4e11953872d,6685aa9113c938e83b4f1ea0,672d3f532216c7f97cc24a03,2024-11-08_03h35.31.708,WTP_SM_Choice,2022.2.1,Win32,60.24096386,,,,,,,,,,,,,,,,,,82,,,,,,,,,,0.02,1,0.5743,0,1,1,1,1,play cod with my dorm mates,go to college on a rainy day,0.02,0.02,4.4,0,,,,,
,,6711f493bfc7c4e11953872d,6685aa9113c938e83b4f1ea0,672d3f532216c7f97cc24a03,2024-11-08_03h35.31.708,WTP_SM_Choice,2022.2.1,Win32,60.24096386,,,,,,,,,,,,,,,,,,83,,,,,,,,,,0.02,2,0.5455,0,2,2,2,1,clean my room,go to beach on a sunny day,0.03,0.02,1.1,1,,,,,
,,6711f493bfc7c4e11953872d,6685aa9113c938e83b4f1ea0,672d3f532216c7f97cc24a03,2024-11-08_03h35.31.708,WTP_SM_Choice,2022.2.1,Win32,60.24096386,,,,,,,,,,,,,,,,,,84,,,,,,,,,,0.04,1,3.0831,0,3,3,3,1,watch some crime show with my friends,watch lakers win ,0.04,0.02,3.3,0,,,,,
,,6711f493bfc7c4e11953872d,6685aa9113c938e83b4f1ea0,672d3f532216c7f97cc24a03,2024-11-08_03h35.31.708,WTP_SM_Choice,2022.2.1,Win32,60.24096386,,,,,,,,,,,,,,,,,,85,,,,,,,,,,0.02,2,2.2186,0,4,4,4,1,plan a trip to miami with my friends,go to college on a rainy day,0.05,0.02,3.3,0,,,,,
,,6711f493bfc7c4e11953872d,6685aa9113c938e83b4f1ea0,672d3f532216c7f97cc24a03,2024-11-08_03h35.31.708,WTP_SM_Choice,2022.2.1,Win32,60.24096386,,,,,,,NAN,,NAN,2.18,3.82,,0,84,84,84,1,85,Sam,Rej,Participant_Images/6711f493bfc7c4e11953872d/6711f493bfc7c4e11953872d_Images/6711f493bfc7c4e11953872d_Image_12.jpeg,did not like,3.602308302,,,,,,,,,,,,,,,,,,,,,,,
,,6711f493bfc7c4e11953872d,6685aa9113c938e83b4f1ea0,672d3f532216c7f97cc24a03,2024-11-08_03h35.31.708,WTP_SM_Choice,2022.2.1,Win32,60.24096386,,,,,space,3.5672,NAN,,NAN,2.18,3.82,,0,85,85,85,1,86,Sam,Rej,Participant_Images/6711f493bfc7c4e11953872d/6711f493bfc7c4e11953872d_Images/6711f493bfc7c4e11953872d_Image_4.jpeg,did not like,4.106391878,,,,,,,,,,,,,,,,,,,,,,,
,,6711f493bfc7c4e11953872d,6685aa9113c938e83b4f1ea0,672d3f532216c7f97cc24a03,2024-11-08_03h35.31.708,WTP_SM_Choice,2022.2.1,Win32,60.24096386,,,,,space,1.4748,NAN,,NAN,2.18,3.82,,0,86,86,86,1,87,Sam,Rej,Participant_Images/6711f493bfc7c4e11953872d/6711f493bfc7c4e11953872d_Images/6711f493bfc7c4e11953872d_Image_10.jpeg,did not like,3.799433026,,,,,,,,,,,,,,,,,,,,,,,
,,6711f493bfc7c4e11953872d,6685aa9113c938e83b4f1ea0,672d3f532216c7f97cc24a03,2024-11-08_03h35.31.708,WTP_SM_Choice,2022.2.1,Win32,60.24096386,,,,,space,4.7069,NAN,,NAN,2.18,3.82,,0,87,87,87,1,88,Sam,Rej,Participant_Images/6711f493bfc7c4e11953872d/6711f493bfc7c4e11953872d_Images/6711f493bfc7c4e11953872d_Image_22.jpeg,did not like,5.246980764,,,,,,,,,,,,,,,,,,,,,,,
,,6711f493bfc7c4e11953872d,6685aa9113c938e83b4f1ea0,672d3f532216c7f97cc24a03,2024-11-08_03h35.31.708,WTP_SM_Choice,2022.2.1,Win32,60.24096386,,,,,space,0.8667,NAN,,NAN,2.18,3.82,,0,88,88,88,1,89,Sam,Rej,Participant_Images/6711f493bfc7c4e11953872d/6711f493bfc7c4e11953872d_Images/6711f493bfc7c4e11953872d_Image_21.jpeg,liked,3.30081769,,,,,,,,,,,,,,,,,,,,,,,
,,6711f493bfc7c4e11953872d,6685aa9113c938e83b4f1ea0,672d3f532216c7f97cc24a03,2024-11-08_03h35.31.708,WTP_SM_Choice,2022.2.1,Win32,60.24096386,,,,,,,,,,,,,,,,,,86,,,,,,space,39.6567,space,0.5181,0.01,1,0.9567,0,0,0,0,1,clean my room,plan a trip to miami with my friends,0.01,0.03,1.1,1,,,,,
,,6711f493bfc7c4e11953872d,6685aa9113c938e83b4f1ea0,672d3f532216c7f97cc24a03,2024-11-08_03h35.31.708,WTP_SM_Choice,2022.2.1,Win32,60.24096386,,,,,,,,,,,,,,,,,,87,,,,,,,,,,0.03,2,0.7085,0,1,1,1,1,go to gym for some cardio,play some soccer with my old friends,0.02,0.03,4.4,1,,,,,
,,6711f493bfc7c4e11953872d,6685aa9113c938e83b4f1ea0,672d3f532216c7f97cc24a03,2024-11-08_03h35.31.708,WTP_SM_Choice,2022.2.1,Win32,60.24096386,,,,,,,,,,,,,,,,,,88,,,,,,,,,,0.03,1,0.8885,0,2,2,2,1,play some nba,play some soccer with my old friends,0.03,0.03,1.1,1,,,,,
,,6711f493bfc7c4e11953872d,6685aa9113c938e83b4f1ea0,672d3f532216c7f97cc24a03,2024-11-08_03h35.31.708,WTP_SM_Choice,2022.2.1,Win32,60.24096386,,,,,,,,,,,,,,,,,,89,,,,,,,,,,0.04,1,0.0503,0,3,3,3,1,play some soccer with my old friends,play with chica,0.04,0.03,3.3,0,,,,,
,,6711f493bfc7c4e11953872d,6685aa9113c938e83b4f1ea0,672d3f532216c7f97cc24a03,2024-11-08_03h35.31.708,WTP_SM_Choice,2022.2.1,Win32,60.24096386,,,,,,,,,,,,,,,,,,90,,,,,,,,,,0.05,1,0.0509,0,4,4,4,1,play some nba,do some target runs with my family,0.05,0.03,8.8,1,,,,,
,,6711f493bfc7c4e11953872d,6685aa9113c938e83b4f1ea0,672d3f532216c7f97cc24a03,2024-11-08_03h35.31.708,WTP_SM_Choice,2022.2.1,Win32,60.24096386,,,,,,,NAN,,NAN,2.34,3.66,,0,89,89,89,1,90,Sam,Rej,Participant_Images/6711f493bfc7c4e11953872d/6711f493bfc7c4e11953872d_Images/6711f493bfc7c4e11953872d_Image_25.jpeg,liked,1.661473164,,,,,,,,,,,,,,,,,,,,,,,
,,6711f493bfc7c4e11953872d,6685aa9113c938e83b4f1ea0,672d3f532216c7f97cc24a03,2024-11-08_03h35.31.708,WTP_SM_Choice,2022.2.1,Win32,60.24096386,,,,,space,2.616,NAN,,NAN,2.34,3.66,,0,90,90,90,1,91,Sam,Rej,Participant_Images/6711f493bfc7c4e11953872d/6711f493bfc7c4e11953872d_Images/6711f493bfc7c4e11953872d_Image_17.jpeg,did not like,3.613205605,,,,,,,,,,,,,,,,,,,,,,,
,,6711f493bfc7c4e11953872d,6685aa9113c938e83b4f1ea0,672d3f532216c7f97cc24a03,2024-11-08_03h35.31.708,WTP_SM_Choice,2022.2.1,Win32,60.24096386,,,,,space,0.4498,NAN,,NAN,2.34,3.66,,0,91,91,91,1,92,Sam,Rej,Participant_Images/6711f493bfc7c4e11953872d/6711f493bfc7c4e11953872d_Images/6711f493bfc7c4e11953872d_Image_7.jpeg,liked,4.988446431,,,,,,,,,,,,,,,,,,,,,,,
,,6711f493bfc7c4e11953872d,6685aa9113c938e83b4f1ea0,672d3f532216c7f97cc24a03,2024-11-08_03h35.31.708,WTP_SM_Choice,2022.2.1,Win32,60.24096386,,,,,space,3.5499,NAN,,NAN,2.34,3.66,,0,92,92,92,1,93,Sam,Rej,Participant_Images/6711f493bfc7c4e11953872d/6711f493bfc7c4e11953872d_Images/6711f493bfc7c4e11953872d_Image_8.jpeg,liked,3.470791822,,,,,,,,,,,,,,,,,,,,,,,
,,6711f493bfc7c4e11953872d,6685aa9113c938e83b4f1ea0,672d3f532216c7f97cc24a03,2024-11-08_03h35.31.708,WTP_SM_Choice,2022.2.1,Win32,60.24096386,,,,,space,4.3532,NAN,,NAN,2.34,3.66,,0,93,93,93,1,94,Sam,Rej,Participant_Images/6711f493bfc7c4e11953872d/6711f493bfc7c4e11953872d_Images/6711f493bfc7c4e11953872d_Image_1.jpeg,did not like,3.820572462,,,,,,,,,,,,,,,,,,,,,,,
,,6711f493bfc7c4e11953872d,6685aa9113c938e83b4f1ea0,672d3f532216c7f97cc24a03,2024-11-08_03h35.31.708,WTP_SM_Choice,2022.2.1,Win32,60.24096386,,,,,,,,,,,,,,,,,,91,,,,,,space,0.5032,space,0.4506,0.01,1,6.7923,0,0,0,0,1,play some nba,plan a trip to miami with my friends,0.01,0.04,3.3,1,,,,,
,,6711f493bfc7c4e11953872d,6685aa9113c938e83b4f1ea0,672d3f532216c7f97cc24a03,2024-11-08_03h35.31.708,WTP_SM_Choice,2022.2.1,Win32,60.24096386,,,,,,,,,,,,,,,,,,92,,,,,,,,,,0.02,1,2.0103,0,1,1,1,1,watch lakers win ,early morning walk with my friends ,0.02,0.04,8.8,1,,,,,
,,6711f493bfc7c4e11953872d,6685aa9113c938e83b4f1ea0,672d3f532216c7f97cc24a03,2024-11-08_03h35.31.708,WTP_SM_Choice,2022.2.1,Win32,60.24096386,,,,,,,,,,,,,,,,,,93,,,,,,,,,,0.03,1,0.9939,0,2,2,2,1,go to beach on a sunny day,Jog early morning,0.03,0.04,1.1,0,,,,,
,,6711f493bfc7c4e11953872d,6685aa9113c938e83b4f1ea0,672d3f532216c7f97cc24a03,2024-11-08_03h35.31.708,WTP_SM_Choice,2022.2.1,Win32,60.24096386,,,,,,,,,,,,,,,,,,94,,,,,,,,,,0.04,2,5.5947,0,3,3,3,1,clean my room,play some soccer with my old friends,0.04,0.04,4.4,1,,,,,
,,6711f493bfc7c4e11953872d,6685aa9113c938e83b4f1ea0,672d3f532216c7f97cc24a03,2024-11-08_03h35.31.708,WTP_SM_Choice,2022.2.1,Win32,60.24096386,,,,,,,,,,,,,,,,,,95,,,,,,,,,,0.05,1,0.4663,0,4,4,4,1,have my favorite pasta as breakfast,early morning walk with my friends ,0.05,0.04,4.4,1,,,,,
,,6711f493bfc7c4e11953872d,6685aa9113c938e83b4f1ea0,672d3f532216c7f97cc24a03,2024-11-08_03h35.31.708,WTP_SM_Choice,2022.2.1,Win32,60.24096386,,,,,,,NAN,,NAN,2.49,3.51,,0,94,94,94,1,95,Sam,Rej,Participant_Images/6711f493bfc7c4e11953872d/6711f493bfc7c4e11953872d_Images/6711f493bfc7c4e11953872d_Image_13.jpeg,did not like,2.455989137,,,,,,,,,,,,,,,,,,,,,,,
,,6711f493bfc7c4e11953872d,6685aa9113c938e83b4f1ea0,672d3f532216c7f97cc24a03,2024-11-08_03h35.31.708,WTP_SM_Choice,2022.2.1,Win32,60.24096386,,,,,space,3.4986,NAN,,NAN,2.49,3.51,,0,95,95,95,1,96,Sam,Rej,Participant_Images/6711f493bfc7c4e11953872d/6711f493bfc7c4e11953872d_Images/6711f493bfc7c4e11953872d_Image_5.jpeg,did not like,3.79605092,,,,,,,,,,,,,,,,,,,,,,,
,,6711f493bfc7c4e11953872d,6685aa9113c938e83b4f1ea0,672d3f532216c7f97cc24a03,2024-11-08_03h35.31.708,WTP_SM_Choice,2022.2.1,Win32,60.24096386,,,,,space,1.271,NAN,,NAN,2.49,3.51,,0,96,96,96,1,97,Sam,Rej,Participant_Images/6711f493bfc7c4e11953872d/6711f493bfc7c4e11953872d_Images/6711f493bfc7c4e11953872d_Image_20.jpeg,did not like,3.562416326,,,,,,,,,,,,,,,,,,,,,,,
,,6711f493bfc7c4e11953872d,6685aa9113c938e83b4f1ea0,672d3f532216c7f97cc24a03,2024-11-08_03h35.31.708,WTP_SM_Choice,2022.2.1,Win32,60.24096386,,,,,space,19.4937,NAN,,NAN,2.49,3.51,,0,97,97,97,1,98,Sam,Rej,Participant_Images/6711f493bfc7c4e11953872d/6711f493bfc7c4e11953872d_Images/6711f493bfc7c4e11953872d_Image_15.jpeg,liked,2.843822497,,,,,,,,,,,,,,,,,,,,,,,
,,6711f493bfc7c4e11953872d,6685aa9113c938e83b4f1ea0,672d3f532216c7f97cc24a03,2024-11-08_03h35.31.708,WTP_SM_Choice,2022.2.1,Win32,60.24096386,,,,,space,8.969,NAN,,NAN,2.49,3.51,,0,98,98,98,1,99,Sam,Rej,Participant_Images/6711f493bfc7c4e11953872d/6711f493bfc7c4e11953872d_Images/6711f493bfc7c4e11953872d_Image_23.jpeg,did not like,3.546495948,,,,,,,,,,,,,,,,,,,,,,,
,,6711f493bfc7c4e11953872d,6685aa9113c938e83b4f1ea0,672d3f532216c7f97cc24a03,2024-11-08_03h35.31.708,WTP_SM_Choice,2022.2.1,Win32,60.24096386,,,,,,,,,,,,,,,,,,96,,,,,,space,0.2704,space,0.5684,0.05,2,1.0058,0,0,0,0,1,go to beach on a sunny day,have my favorite pasta as breakfast,0.01,0.05,3.3,0,,,,,
,,6711f493bfc7c4e11953872d,6685aa9113c938e83b4f1ea0,672d3f532216c7f97cc24a03,2024-11-08_03h35.31.708,WTP_SM_Choice,2022.2.1,Win32,60.24096386,,,,,,,,,,,,,,,,,,97,,,,,,,,,,0.02,1,0.0603,0,1,1,1,1,do some target runs with my family,Jog early morning,0.02,0.05,1.1,0,,,,,
,,6711f493bfc7c4e11953872d,6685aa9113c938e83b4f1ea0,672d3f532216c7f97cc24a03,2024-11-08_03h35.31.708,WTP_SM_Choice,2022.2.1,Win32,60.24096386,,,,,,,,,,,,,,,,,,98,,,,,,,,,,0.03,1,0.954,0,2,2,2,1,go to beach on a sunny day,play some nba,0.03,0.05,1.1,0,,,,,
,,6711f493bfc7c4e11953872d,6685aa9113c938e83b4f1ea0,672d3f532216c7f97cc24a03,2024-11-08_03h35.31.708,WTP_SM_Choice,2022.2.1,Win32,60.24096386,,,,,,,,,,,,,,,,,,99,,,,,,,,,,0.04,1,0.9162,0,3,3,3,1,try a new escape room with my mates,watch lakers win ,0.04,0.05,3.3,0,,,,,
,,6711f493bfc7c4e11953872d,6685aa9113c938e83b4f1ea0,672d3f532216c7f97cc24a03,2024-11-08_03h35.31.708,WTP_SM_Choice,2022.2.1,Win32,60.24096386,,,,,,,,,,,,,,,,,,100,,,,,,,,,,0.05,2,0.4499,0,4,4,4,1,play some nba,early morning walk with my friends ,0.05,0.05,4.4,1,,,,,
,,6711f493bfc7c4e11953872d,6685aa9113c938e83b4f1ea0,672d3f532216c7f97cc24a03,2024-11-08_03h35.31.708,WTP_SM_Choice,2022.2.1,Win32,60.24096386,,,,,,,NAN,space,8,2.68,3.32,,0,99,99,99,1,100,Sam,Rej,Participant_Images/6711f493bfc7c4e11953872d/6711f493bfc7c4e11953872d_Images/6711f493bfc7c4e11953872d_Image_19.jpeg,did not like,1.672012706,,,,,,,,,,,,,,,,,,,space,6.4003,2.1088,,
,,6711f493bfc7c4e11953872d,6685aa9113c938e83b4f1ea0,672d3f532216c7f97cc24a03,2024-11-08_03h35.31.708,WTP_SM_Choice,2022.2.1,Win32,60.24096386,,,,,,,,,,,,,,,,,,,,,,,,,,,,,,,,,,,,,,,,,,,,,space,1.6465
