endwelcomescreen_keys.keys,endwelcomescreen_keys.rt,participant,STUDY_ID,SESSION_ID,date,expName,psychopyVersion,OS,frameRate,endinstructionscreen_keys.keys,endinstructionscreen_keys.rt,endpartnermatch_keys.keys,endpartnermatch_keys.rt,sharenextphoto_key.keys,sharenextphoto_key.rt,salience_rating,key_resp.keys,stress_level,subtract_bonus,TOTAL_TASK_BONUS,stresslevel_keypress.keys,entiretaskloop.thisRepN,entiretaskloop.thisTrialN,entiretaskloop.thisN,entiretaskloop.thisIndex,entiretaskloop.ran,TrialNumber,Partner,Condition,Photos,Feedback,FeedbackWait,WTP_ins_keys1.keys,WTP_ins_keys1.rt,WTP_ins_keys2.keys,WTP_ins_keys2.rt,responses.keys,WTPTaskLoop.thisRepN,WTPTaskLoop.thisTrialN,WTPTaskLoop.thisN,WTPTaskLoop.thisIndex,WTPTaskLoop.ran,right,left,leftmoney,rightmoney,WTP_ITI,social_left,decision_price,responses.rt,Resume_keys.keys,Resume_keys.rt,end_screen_keys.keys,end_screen_keys.rt
space,9.2063,671469967e2a4f2e612e3846,6685aa9113c938e83b4f1ea0,672c17a370a6216d81522a8c,2024-11-06_18h29.58.865,WTP_SM_Choice,2022.2.1,Win32,60.24096386,,,,,,,,,,,,,,,,,,,,,,,,,,,,,,,,,,,,,,,,,,,,,
,,671469967e2a4f2e612e3846,6685aa9113c938e83b4f1ea0,672c17a370a6216d81522a8c,2024-11-06_18h29.58.865,WTP_SM_Choice,2022.2.1,Win32,60.24096386,space,14.048,,,,,,,,,,,,,,,,,,,,,,,,,,,,,,,,,,,,,,,,,,,
,,671469967e2a4f2e612e3846,6685aa9113c938e83b4f1ea0,672c17a370a6216d81522a8c,2024-11-06_18h29.58.865,WTP_SM_Choice,2022.2.1,Win32,60.24096386,,,space,1.946,space,1.5623,NAN,,NAN,0,6,,0,0,0,0,1,1,Alex,Acc,Participant_Images/671469967e2a4f2e612e3846/671469967e2a4f2e612e3846_Images/671469967e2a4f2e612e3846_Image_5.jpeg,liked,3.613205605,,,,,,,,,,,,,,,,,,,,,,
,,671469967e2a4f2e612e3846,6685aa9113c938e83b4f1ea0,672c17a370a6216d81522a8c,2024-11-06_18h29.58.865,WTP_SM_Choice,2022.2.1,Win32,60.24096386,,,,,space,0.6497,NAN,,NAN,0,6,,0,1,1,1,1,2,Alex,Acc,Participant_Images/671469967e2a4f2e612e3846/671469967e2a4f2e612e3846_Images/671469967e2a4f2e612e3846_Image_1.jpeg,did not like,4.988446431,,,,,,,,,,,,,,,,,,,,,,
,,671469967e2a4f2e612e3846,6685aa9113c938e83b4f1ea0,672c17a370a6216d81522a8c,2024-11-06_18h29.58.865,WTP_SM_Choice,2022.2.1,Win32,60.24096386,,,,,space,0.4698,NAN,,NAN,0,6,,0,2,2,2,1,3,Alex,Acc,Participant_Images/671469967e2a4f2e612e3846/671469967e2a4f2e612e3846_Images/671469967e2a4f2e612e3846_Image_9.jpeg,liked,3.470791822,,,,,,,,,,,,,,,,,,,,,,
,,671469967e2a4f2e612e3846,6685aa9113c938e83b4f1ea0,672c17a370a6216d81522a8c,2024-11-06_18h29.58.865,WTP_SM_Choice,2022.2.1,Win32,60.24096386,,,,,space,0.4107,NAN,,NAN,0,6,,0,3,3,3,1,4,Alex,Acc,Participant_Images/671469967e2a4f2e612e3846/671469967e2a4f2e612e3846_Images/671469967e2a4f2e612e3846_Image_6.jpeg,liked,3.820572462,,,,,,,,,,,,,,,,,,,,,,
,,671469967e2a4f2e612e3846,6685aa9113c938e83b4f1ea0,672c17a370a6216d81522a8c,2024-11-06_18h29.58.865,WTP_SM_Choice,2022.2.1,Win32,60.24096386,,,,,,,,,,,,,,,,,,1,,,,,,space,15.9481,space,7.5633,,0,0,0,0,1,Get together for Christmas with my family,Listen to music and dancing in my room,0.01,0.01,4.4,0,,,,,,
,,671469967e2a4f2e612e3846,6685aa9113c938e83b4f1ea0,672c17a370a6216d81522a8c,2024-11-06_18h29.58.865,WTP_SM_Choice,2022.2.1,Win32,60.24096386,,,,,,,,,,,,,,,,,,2,,,,,,,,,,2,0,1,1,1,1,Sing along with music I like in my car,Get together for Christmas with my family,0.02,0.01,8.8,1,0.01,2.9137,,,,
,,671469967e2a4f2e612e3846,6685aa9113c938e83b4f1ea0,672c17a370a6216d81522a8c,2024-11-06_18h29.58.865,WTP_SM_Choice,2022.2.1,Win32,60.24096386,,,,,,,,,,,,,,,,,,3,,,,,,,,,,2,0,2,2,2,1,Stay out late talking with a friend,Listen to music and dancing in my room,0.03,0.01,3.3,0,0.01,1.7998,,,,
,,671469967e2a4f2e612e3846,6685aa9113c938e83b4f1ea0,672c17a370a6216d81522a8c,2024-11-06_18h29.58.865,WTP_SM_Choice,2022.2.1,Win32,60.24096386,,,,,,,,,,,,,,,,,,4,,,,,,,,,,2,0,3,3,3,1,Go on a hike with a friend,Go on a river walk and reading a book next to the water,0.04,0.01,1.1,0,0.01,1.3987,,,,
,,671469967e2a4f2e612e3846,6685aa9113c938e83b4f1ea0,672c17a370a6216d81522a8c,2024-11-06_18h29.58.865,WTP_SM_Choice,2022.2.1,Win32,60.24096386,,,,,,,,,,,,,,,,,,5,,,,,,,,,,2,0,4,4,4,1,Stay out late talking with a friend,Go on a long bike ride in the summer,0.05,0.01,1.1,0,0.01,1.3773,,,,
,,671469967e2a4f2e612e3846,6685aa9113c938e83b4f1ea0,672c17a370a6216d81522a8c,2024-11-06_18h29.58.865,WTP_SM_Choice,2022.2.1,Win32,60.24096386,,,,,,,NAN,,NAN,0.04,5.96,,0,4,4,4,1,5,Alex,Acc,Participant_Images/671469967e2a4f2e612e3846/671469967e2a4f2e612e3846_Images/671469967e2a4f2e612e3846_Image_4.jpeg,liked,2.455989137,,,,,,,,,,,,,,,,,,,,,,
,,671469967e2a4f2e612e3846,6685aa9113c938e83b4f1ea0,672c17a370a6216d81522a8c,2024-11-06_18h29.58.865,WTP_SM_Choice,2022.2.1,Win32,60.24096386,,,,,space,1.6687,NAN,,NAN,0.04,5.96,,0,5,5,5,1,6,Alex,Acc,Participant_Images/671469967e2a4f2e612e3846/671469967e2a4f2e612e3846_Images/671469967e2a4f2e612e3846_Image_16.jpeg,did not like,3.79605092,,,,,,,,,,,,,,,,,,,,,,
,,671469967e2a4f2e612e3846,6685aa9113c938e83b4f1ea0,672c17a370a6216d81522a8c,2024-11-06_18h29.58.865,WTP_SM_Choice,2022.2.1,Win32,60.24096386,,,,,space,1.1106,NAN,,NAN,0.04,5.96,,0,6,6,6,1,7,Alex,Acc,Participant_Images/671469967e2a4f2e612e3846/671469967e2a4f2e612e3846_Images/671469967e2a4f2e612e3846_Image_7.jpeg,liked,3.562416326,,,,,,,,,,,,,,,,,,,,,,
,,671469967e2a4f2e612e3846,6685aa9113c938e83b4f1ea0,672c17a370a6216d81522a8c,2024-11-06_18h29.58.865,WTP_SM_Choice,2022.2.1,Win32,60.24096386,,,,,space,0.9461,NAN,,NAN,0.04,5.96,,0,7,7,7,1,8,Alex,Acc,Participant_Images/671469967e2a4f2e612e3846/671469967e2a4f2e612e3846_Images/671469967e2a4f2e612e3846_Image_14.jpeg,liked,2.843822497,,,,,,,,,,,,,,,,,,,,,,
,,671469967e2a4f2e612e3846,6685aa9113c938e83b4f1ea0,672c17a370a6216d81522a8c,2024-11-06_18h29.58.865,WTP_SM_Choice,2022.2.1,Win32,60.24096386,,,,,space,0.5631,NAN,,NAN,0.04,5.96,,0,8,8,8,1,9,Alex,Acc,Participant_Images/671469967e2a4f2e612e3846/671469967e2a4f2e612e3846_Images/671469967e2a4f2e612e3846_Image_8.jpeg,liked,3.546495948,,,,,,,,,,,,,,,,,,,,,,
,,671469967e2a4f2e612e3846,6685aa9113c938e83b4f1ea0,672c17a370a6216d81522a8c,2024-11-06_18h29.58.865,WTP_SM_Choice,2022.2.1,Win32,60.24096386,,,,,,,,,,,,,,,,,,6,,,,,,space,5.6527,space,2.5426,1,0,0,0,0,1,Watch movies on a rainy day in my bedroom,Stay out late talking with a friend,0.01,0.02,3.3,1,0.01,1.5533,,,,
,,671469967e2a4f2e612e3846,6685aa9113c938e83b4f1ea0,672c17a370a6216d81522a8c,2024-11-06_18h29.58.865,WTP_SM_Choice,2022.2.1,Win32,60.24096386,,,,,,,,,,,,,,,,,,7,,,,,,,,,,2,0,1,1,1,1,Listen to music and dancing in my room,Make dinner with a significant other,0.02,0.02,1.1,1,0.02,1.9776,,,,
,,671469967e2a4f2e612e3846,6685aa9113c938e83b4f1ea0,672c17a370a6216d81522a8c,2024-11-06_18h29.58.865,WTP_SM_Choice,2022.2.1,Win32,60.24096386,,,,,,,,,,,,,,,,,,8,,,,,,,,,,2,0,2,2,2,1,Take myself out for a sushi lunch,Go out for a family dinner,0.03,0.02,1.1,1,0.02,1.8218,,,,
,,671469967e2a4f2e612e3846,6685aa9113c938e83b4f1ea0,672c17a370a6216d81522a8c,2024-11-06_18h29.58.865,WTP_SM_Choice,2022.2.1,Win32,60.24096386,,,,,,,,,,,,,,,,,,9,,,,,,,,,,2,0,3,3,3,1,Go on a river walk and reading a book next to the water,Go out for a family dinner,0.04,0.02,4.4,1,0.02,1.5271,,,,
,,671469967e2a4f2e612e3846,6685aa9113c938e83b4f1ea0,672c17a370a6216d81522a8c,2024-11-06_18h29.58.865,WTP_SM_Choice,2022.2.1,Win32,60.24096386,,,,,,,,,,,,,,,,,,10,,,,,,,,,,2,0,4,4,4,1,Take myself out for a sushi lunch,Go on a hike with a friend,0.05,0.02,1.1,1,0.02,1.3194,,,,
,,671469967e2a4f2e612e3846,6685aa9113c938e83b4f1ea0,672c17a370a6216d81522a8c,2024-11-06_18h29.58.865,WTP_SM_Choice,2022.2.1,Win32,60.24096386,,,,,,,NAN,,NAN,0.13,5.87,,0,9,9,9,1,10,Alex,Acc,Participant_Images/671469967e2a4f2e612e3846/671469967e2a4f2e612e3846_Images/671469967e2a4f2e612e3846_Image_25.jpeg,liked,1.672012706,,,,,,,,,,,,,,,,,,,,,,
,,671469967e2a4f2e612e3846,6685aa9113c938e83b4f1ea0,672c17a370a6216d81522a8c,2024-11-06_18h29.58.865,WTP_SM_Choice,2022.2.1,Win32,60.24096386,,,,,space,0.3776,NAN,,NAN,0.13,5.87,,0,10,10,10,1,11,Alex,Acc,Participant_Images/671469967e2a4f2e612e3846/671469967e2a4f2e612e3846_Images/671469967e2a4f2e612e3846_Image_24.jpeg,liked,4.942172136,,,,,,,,,,,,,,,,,,,,,,
,,671469967e2a4f2e612e3846,6685aa9113c938e83b4f1ea0,672c17a370a6216d81522a8c,2024-11-06_18h29.58.865,WTP_SM_Choice,2022.2.1,Win32,60.24096386,,,,,space,0.4351,NAN,,NAN,0.13,5.87,,0,11,11,11,1,12,Alex,Acc,Participant_Images/671469967e2a4f2e612e3846/671469967e2a4f2e612e3846_Images/671469967e2a4f2e612e3846_Image_20.jpeg,liked,2.50187214,,,,,,,,,,,,,,,,,,,,,,
,,671469967e2a4f2e612e3846,6685aa9113c938e83b4f1ea0,672c17a370a6216d81522a8c,2024-11-06_18h29.58.865,WTP_SM_Choice,2022.2.1,Win32,60.24096386,,,,,space,0.5838,NAN,,NAN,0.13,5.87,,0,12,12,12,1,13,Alex,Acc,Participant_Images/671469967e2a4f2e612e3846/671469967e2a4f2e612e3846_Images/671469967e2a4f2e612e3846_Image_3.jpeg,did not like,2.071164779,,,,,,,,,,,,,,,,,,,,,,
,,671469967e2a4f2e612e3846,6685aa9113c938e83b4f1ea0,672c17a370a6216d81522a8c,2024-11-06_18h29.58.865,WTP_SM_Choice,2022.2.1,Win32,60.24096386,,,,,space,0.8335,NAN,,NAN,0.13,5.87,,0,13,13,13,1,14,Alex,Acc,Participant_Images/671469967e2a4f2e612e3846/671469967e2a4f2e612e3846_Images/671469967e2a4f2e612e3846_Image_23.jpeg,did not like,5.336503566,,,,,,,,,,,,,,,,,,,,,,
,,671469967e2a4f2e612e3846,6685aa9113c938e83b4f1ea0,672c17a370a6216d81522a8c,2024-11-06_18h29.58.865,WTP_SM_Choice,2022.2.1,Win32,60.24096386,,,,,,,,,,,,,,,,,,11,,,,,,space,1.4118,space,0.9827,1,0,0,0,0,1,Watch movies on a rainy day in my bedroom,Help a friend move plants,0.01,0.03,3.3,1,0.01,1.7064,,,,
,,671469967e2a4f2e612e3846,6685aa9113c938e83b4f1ea0,672c17a370a6216d81522a8c,2024-11-06_18h29.58.865,WTP_SM_Choice,2022.2.1,Win32,60.24096386,,,,,,,,,,,,,,,,,,12,,,,,,,,,,1,0,1,1,1,1,Listen to music and dancing in my room,Help a friend collect seeds,0.02,0.03,4.4,1,0.02,1.8487,,,,
,,671469967e2a4f2e612e3846,6685aa9113c938e83b4f1ea0,672c17a370a6216d81522a8c,2024-11-06_18h29.58.865,WTP_SM_Choice,2022.2.1,Win32,60.24096386,,,,,,,,,,,,,,,,,,13,,,,,,,,,,2,0,2,2,2,1,Stay out late talking with a friend,Go shopping for special items for me,0.03,0.03,1.1,0,0.03,3.4186,,,,
,,671469967e2a4f2e612e3846,6685aa9113c938e83b4f1ea0,672c17a370a6216d81522a8c,2024-11-06_18h29.58.865,WTP_SM_Choice,2022.2.1,Win32,60.24096386,,,,,,,,,,,,,,,,,,14,,,,,,,,,,2,0,3,3,3,1,Watch movies on a rainy day in my bedroom,Watch a series with a significant other,0.04,0.03,3.3,1,0.03,2.6163,,,,
,,671469967e2a4f2e612e3846,6685aa9113c938e83b4f1ea0,672c17a370a6216d81522a8c,2024-11-06_18h29.58.865,WTP_SM_Choice,2022.2.1,Win32,60.24096386,,,,,,,,,,,,,,,,,,15,,,,,,,,,,2,0,4,4,4,1,Help a friend move plants,Listen to music and dancing in my room,0.05,0.03,4.4,0,0.03,1.694,,,,
,,671469967e2a4f2e612e3846,6685aa9113c938e83b4f1ea0,672c17a370a6216d81522a8c,2024-11-06_18h29.58.865,WTP_SM_Choice,2022.2.1,Win32,60.24096386,,,,,,,NAN,,NAN,0.25,5.75,,0,14,14,14,1,15,Alex,Acc,Participant_Images/671469967e2a4f2e612e3846/671469967e2a4f2e612e3846_Images/671469967e2a4f2e612e3846_Image_17.jpeg,did not like,2.642157193,,,,,,,,,,,,,,,,,,,,,,
,,671469967e2a4f2e612e3846,6685aa9113c938e83b4f1ea0,672c17a370a6216d81522a8c,2024-11-06_18h29.58.865,WTP_SM_Choice,2022.2.1,Win32,60.24096386,,,,,space,0.6338,NAN,,NAN,0.25,5.75,,0,15,15,15,1,16,Alex,Acc,Participant_Images/671469967e2a4f2e612e3846/671469967e2a4f2e612e3846_Images/671469967e2a4f2e612e3846_Image_22.jpeg,liked,4.456234322,,,,,,,,,,,,,,,,,,,,,,
,,671469967e2a4f2e612e3846,6685aa9113c938e83b4f1ea0,672c17a370a6216d81522a8c,2024-11-06_18h29.58.865,WTP_SM_Choice,2022.2.1,Win32,60.24096386,,,,,space,0.8876,NAN,,NAN,0.25,5.75,,0,16,16,16,1,17,Alex,Acc,Participant_Images/671469967e2a4f2e612e3846/671469967e2a4f2e612e3846_Images/671469967e2a4f2e612e3846_Image_10.jpeg,liked,4.438512181,,,,,,,,,,,,,,,,,,,,,,
,,671469967e2a4f2e612e3846,6685aa9113c938e83b4f1ea0,672c17a370a6216d81522a8c,2024-11-06_18h29.58.865,WTP_SM_Choice,2022.2.1,Win32,60.24096386,,,,,space,0.7869,NAN,,NAN,0.25,5.75,,0,17,17,17,1,18,Alex,Acc,Participant_Images/671469967e2a4f2e612e3846/671469967e2a4f2e612e3846_Images/671469967e2a4f2e612e3846_Image_18.jpeg,liked,2.682944783,,,,,,,,,,,,,,,,,,,,,,
,,671469967e2a4f2e612e3846,6685aa9113c938e83b4f1ea0,672c17a370a6216d81522a8c,2024-11-06_18h29.58.865,WTP_SM_Choice,2022.2.1,Win32,60.24096386,,,,,space,0.6009,NAN,,NAN,0.25,5.75,,0,18,18,18,1,19,Alex,Acc,Participant_Images/671469967e2a4f2e612e3846/671469967e2a4f2e612e3846_Images/671469967e2a4f2e612e3846_Image_12.jpeg,liked,4.51984296,,,,,,,,,,,,,,,,,,,,,,
,,671469967e2a4f2e612e3846,6685aa9113c938e83b4f1ea0,672c17a370a6216d81522a8c,2024-11-06_18h29.58.865,WTP_SM_Choice,2022.2.1,Win32,60.24096386,,,,,,,,,,,,,,,,,,16,,,,,,space,1.011,space,0.5802,1,0,0,0,0,1,Go out for a family dinner,Listen to music and dancing in my room,0.01,0.04,1.1,0,0.01,1.4398,,,,
,,671469967e2a4f2e612e3846,6685aa9113c938e83b4f1ea0,672c17a370a6216d81522a8c,2024-11-06_18h29.58.865,WTP_SM_Choice,2022.2.1,Win32,60.24096386,,,,,,,,,,,,,,,,,,17,,,,,,,,,,1,0,1,1,1,1,Go on a long bike ride in the summer,Go out for a family dinner,0.02,0.04,8.8,1,0.02,3.1449,,,,
,,671469967e2a4f2e612e3846,6685aa9113c938e83b4f1ea0,672c17a370a6216d81522a8c,2024-11-06_18h29.58.865,WTP_SM_Choice,2022.2.1,Win32,60.24096386,,,,,,,,,,,,,,,,,,18,,,,,,,,,,2,0,2,2,2,1,Work out at home to build my strength,Get together for Christmas with my family,0.03,0.04,3.3,1,0.04,2.6719,,,,
,,671469967e2a4f2e612e3846,6685aa9113c938e83b4f1ea0,672c17a370a6216d81522a8c,2024-11-06_18h29.58.865,WTP_SM_Choice,2022.2.1,Win32,60.24096386,,,,,,,,,,,,,,,,,,19,,,,,,,,,,1,0,3,3,3,1,Watch movies on a rainy day in my bedroom,Help a friend collect seeds,0.04,0.04,3.3,1,0.04,1.9249,,,,
,,671469967e2a4f2e612e3846,6685aa9113c938e83b4f1ea0,672c17a370a6216d81522a8c,2024-11-06_18h29.58.865,WTP_SM_Choice,2022.2.1,Win32,60.24096386,,,,,,,,,,,,,,,,,,20,,,,,,,,,,2,0,4,4,4,1,Sing along with music I like in my car,Go on a hike with a friend,0.05,0.04,1.1,1,0.04,1.738,,,,
,,671469967e2a4f2e612e3846,6685aa9113c938e83b4f1ea0,672c17a370a6216d81522a8c,2024-11-06_18h29.58.865,WTP_SM_Choice,2022.2.1,Win32,60.24096386,,,,,,,NAN,,NAN,0.4,5.6,,0,19,19,19,1,20,Alex,Acc,Participant_Images/671469967e2a4f2e612e3846/671469967e2a4f2e612e3846_Images/671469967e2a4f2e612e3846_Image_19.jpeg,did not like,3.195382774,,,,,,,,,,,,,,,,,,,,,,
,,671469967e2a4f2e612e3846,6685aa9113c938e83b4f1ea0,672c17a370a6216d81522a8c,2024-11-06_18h29.58.865,WTP_SM_Choice,2022.2.1,Win32,60.24096386,,,,,space,0.5621,NAN,,NAN,0.4,5.6,,0,20,20,20,1,21,Alex,Acc,Participant_Images/671469967e2a4f2e612e3846/671469967e2a4f2e612e3846_Images/671469967e2a4f2e612e3846_Image_11.jpeg,liked,1.779333479,,,,,,,,,,,,,,,,,,,,,,
,,671469967e2a4f2e612e3846,6685aa9113c938e83b4f1ea0,672c17a370a6216d81522a8c,2024-11-06_18h29.58.865,WTP_SM_Choice,2022.2.1,Win32,60.24096386,,,,,space,0.7963,NAN,,NAN,0.4,5.6,,0,21,21,21,1,22,Alex,Acc,Participant_Images/671469967e2a4f2e612e3846/671469967e2a4f2e612e3846_Images/671469967e2a4f2e612e3846_Image_2.jpeg,did not like,4.312468682,,,,,,,,,,,,,,,,,,,,,,
,,671469967e2a4f2e612e3846,6685aa9113c938e83b4f1ea0,672c17a370a6216d81522a8c,2024-11-06_18h29.58.865,WTP_SM_Choice,2022.2.1,Win32,60.24096386,,,,,space,0.9705,NAN,,NAN,0.4,5.6,,0,22,22,22,1,23,Alex,Acc,Participant_Images/671469967e2a4f2e612e3846/671469967e2a4f2e612e3846_Images/671469967e2a4f2e612e3846_Image_21.jpeg,liked,4.940433059,,,,,,,,,,,,,,,,,,,,,,
,,671469967e2a4f2e612e3846,6685aa9113c938e83b4f1ea0,672c17a370a6216d81522a8c,2024-11-06_18h29.58.865,WTP_SM_Choice,2022.2.1,Win32,60.24096386,,,,,space,0.9431,NAN,,NAN,0.4,5.6,,0,23,23,23,1,24,Alex,Acc,Participant_Images/671469967e2a4f2e612e3846/671469967e2a4f2e612e3846_Images/671469967e2a4f2e612e3846_Image_15.jpeg,liked,2.7105123,,,,,,,,,,,,,,,,,,,,,,
,,671469967e2a4f2e612e3846,6685aa9113c938e83b4f1ea0,672c17a370a6216d81522a8c,2024-11-06_18h29.58.865,WTP_SM_Choice,2022.2.1,Win32,60.24096386,,,,,,,,,,,,,,,,,,21,,,,,,space,1.4308,space,0.7862,1,0,0,0,0,1,Take myself out for a sushi lunch,Stay out late talking with a friend,0.01,0.05,8.8,1,0.01,1.8547,,,,
,,671469967e2a4f2e612e3846,6685aa9113c938e83b4f1ea0,672c17a370a6216d81522a8c,2024-11-06_18h29.58.865,WTP_SM_Choice,2022.2.1,Win32,60.24096386,,,,,,,,,,,,,,,,,,22,,,,,,,,,,1,0,1,1,1,1,Get coffee with a friend,Write poetry to sort through my emotions,0.02,0.05,4.4,0,0.02,1.5427,,,,
,,671469967e2a4f2e612e3846,6685aa9113c938e83b4f1ea0,672c17a370a6216d81522a8c,2024-11-06_18h29.58.865,WTP_SM_Choice,2022.2.1,Win32,60.24096386,,,,,,,,,,,,,,,,,,23,,,,,,,,,,1,0,2,2,2,1,Watch movies on a rainy day in my bedroom,Help a friend with shopping,0.03,0.05,1.1,1,0.03,1.5697,,,,
,,671469967e2a4f2e612e3846,6685aa9113c938e83b4f1ea0,672c17a370a6216d81522a8c,2024-11-06_18h29.58.865,WTP_SM_Choice,2022.2.1,Win32,60.24096386,,,,,,,,,,,,,,,,,,24,,,,,,,,,,1,0,3,3,3,1,Help a friend with shopping,Do a long yoga session at night before bed,0.04,0.05,4.4,0,0.04,1.8195,,,,
,,671469967e2a4f2e612e3846,6685aa9113c938e83b4f1ea0,672c17a370a6216d81522a8c,2024-11-06_18h29.58.865,WTP_SM_Choice,2022.2.1,Win32,60.24096386,,,,,,,,,,,,,,,,,,25,,,,,,,,,,2,0,4,4,4,1,Watch movies on a rainy day in my bedroom,Get together for Christmas with my family,0.05,0.05,3.3,1,0.05,2.0906,,,,
,,671469967e2a4f2e612e3846,6685aa9113c938e83b4f1ea0,672c17a370a6216d81522a8c,2024-11-06_18h29.58.865,WTP_SM_Choice,2022.2.1,Win32,60.24096386,,,,,,,5,,9,0.55,5.45,,0,24,24,24,1,25,Alex,Acc,Participant_Images/671469967e2a4f2e612e3846/671469967e2a4f2e612e3846_Images/671469967e2a4f2e612e3846_Image_13.jpeg,liked,3.602308302,,,,,,,,,,,,,,,,,,,space,1.4039,,
,,671469967e2a4f2e612e3846,6685aa9113c938e83b4f1ea0,672c17a370a6216d81522a8c,2024-11-06_18h29.58.865,WTP_SM_Choice,2022.2.1,Win32,60.24096386,,,space,1.9052,space,0.7379,NAN,,NAN,0.55,5.45,,0,25,25,25,1,26,Charlie,Acc,Participant_Images/671469967e2a4f2e612e3846/671469967e2a4f2e612e3846_Images/671469967e2a4f2e612e3846_Image_13.jpeg,did not like,4.106391878,,,,,,,,,,,,,,,,,,,,,,
,,671469967e2a4f2e612e3846,6685aa9113c938e83b4f1ea0,672c17a370a6216d81522a8c,2024-11-06_18h29.58.865,WTP_SM_Choice,2022.2.1,Win32,60.24096386,,,,,space,1.3301,NAN,,NAN,0.55,5.45,,0,26,26,26,1,27,Charlie,Acc,Participant_Images/671469967e2a4f2e612e3846/671469967e2a4f2e612e3846_Images/671469967e2a4f2e612e3846_Image_7.jpeg,liked,3.799433026,,,,,,,,,,,,,,,,,,,,,,
,,671469967e2a4f2e612e3846,6685aa9113c938e83b4f1ea0,672c17a370a6216d81522a8c,2024-11-06_18h29.58.865,WTP_SM_Choice,2022.2.1,Win32,60.24096386,,,,,space,0.9966,NAN,,NAN,0.55,5.45,,0,27,27,27,1,28,Charlie,Acc,Participant_Images/671469967e2a4f2e612e3846/671469967e2a4f2e612e3846_Images/671469967e2a4f2e612e3846_Image_25.jpeg,liked,5.246980764,,,,,,,,,,,,,,,,,,,,,,
,,671469967e2a4f2e612e3846,6685aa9113c938e83b4f1ea0,672c17a370a6216d81522a8c,2024-11-06_18h29.58.865,WTP_SM_Choice,2022.2.1,Win32,60.24096386,,,,,space,0.9648,NAN,,NAN,0.55,5.45,,0,28,28,28,1,29,Charlie,Acc,Participant_Images/671469967e2a4f2e612e3846/671469967e2a4f2e612e3846_Images/671469967e2a4f2e612e3846_Image_12.jpeg,liked,3.30081769,,,,,,,,,,,,,,,,,,,,,,
,,671469967e2a4f2e612e3846,6685aa9113c938e83b4f1ea0,672c17a370a6216d81522a8c,2024-11-06_18h29.58.865,WTP_SM_Choice,2022.2.1,Win32,60.24096386,,,,,,,,,,,,,,,,,,26,,,,,,space,1.671,space,0.9591,2,0,0,0,0,1,Go shopping for special items for me,Watch a series with a significant other,0.01,0.01,4.4,1,0.01,2.3054,,,,
,,671469967e2a4f2e612e3846,6685aa9113c938e83b4f1ea0,672c17a370a6216d81522a8c,2024-11-06_18h29.58.865,WTP_SM_Choice,2022.2.1,Win32,60.24096386,,,,,,,,,,,,,,,,,,27,,,,,,,,,,2,0,1,1,1,1,Get coffee with a friend,Go on a long bike ride in the summer,0.02,0.01,3.3,0,0.01,1.9062,,,,
,,671469967e2a4f2e612e3846,6685aa9113c938e83b4f1ea0,672c17a370a6216d81522a8c,2024-11-06_18h29.58.865,WTP_SM_Choice,2022.2.1,Win32,60.24096386,,,,,,,,,,,,,,,,,,28,,,,,,,,,,2,0,2,2,2,1,Watch a series with a significant other,Go on a river walk and reading a book next to the water,0.03,0.01,3.3,0,0.01,1.976,,,,
,,671469967e2a4f2e612e3846,6685aa9113c938e83b4f1ea0,672c17a370a6216d81522a8c,2024-11-06_18h29.58.865,WTP_SM_Choice,2022.2.1,Win32,60.24096386,,,,,,,,,,,,,,,,,,29,,,,,,,,,,2,0,3,3,3,1,Help a friend with shopping,Listen to music and dancing in my room,0.04,0.01,4.4,0,0.01,1.3084,,,,
,,671469967e2a4f2e612e3846,6685aa9113c938e83b4f1ea0,672c17a370a6216d81522a8c,2024-11-06_18h29.58.865,WTP_SM_Choice,2022.2.1,Win32,60.24096386,,,,,,,,,,,,,,,,,,30,,,,,,,,,,2,0,4,4,4,1,Get together for Christmas with my family,Go on a river walk and reading a book next to the water,0.05,0.01,8.8,0,0.01,1.3394,,,,
,,671469967e2a4f2e612e3846,6685aa9113c938e83b4f1ea0,672c17a370a6216d81522a8c,2024-11-06_18h29.58.865,WTP_SM_Choice,2022.2.1,Win32,60.24096386,,,,,,,NAN,,NAN,0.6,5.4,,0,29,29,29,1,30,Charlie,Acc,Participant_Images/671469967e2a4f2e612e3846/671469967e2a4f2e612e3846_Images/671469967e2a4f2e612e3846_Image_2.jpeg,did not like,1.661473164,,,,,,,,,,,,,,,,,,,,,,
,,671469967e2a4f2e612e3846,6685aa9113c938e83b4f1ea0,672c17a370a6216d81522a8c,2024-11-06_18h29.58.865,WTP_SM_Choice,2022.2.1,Win32,60.24096386,,,,,space,0.6857,NAN,,NAN,0.6,5.4,,0,30,30,30,1,31,Charlie,Acc,Participant_Images/671469967e2a4f2e612e3846/671469967e2a4f2e612e3846_Images/671469967e2a4f2e612e3846_Image_3.jpeg,did not like,3.613205605,,,,,,,,,,,,,,,,,,,,,,
,,671469967e2a4f2e612e3846,6685aa9113c938e83b4f1ea0,672c17a370a6216d81522a8c,2024-11-06_18h29.58.865,WTP_SM_Choice,2022.2.1,Win32,60.24096386,,,,,space,0.6978,NAN,,NAN,0.6,5.4,,0,31,31,31,1,32,Charlie,Acc,Participant_Images/671469967e2a4f2e612e3846/671469967e2a4f2e612e3846_Images/671469967e2a4f2e612e3846_Image_15.jpeg,did not like,4.988446431,,,,,,,,,,,,,,,,,,,,,,
,,671469967e2a4f2e612e3846,6685aa9113c938e83b4f1ea0,672c17a370a6216d81522a8c,2024-11-06_18h29.58.865,WTP_SM_Choice,2022.2.1,Win32,60.24096386,,,,,space,1.0109,NAN,,NAN,0.6,5.4,,0,32,32,32,1,33,Charlie,Acc,Participant_Images/671469967e2a4f2e612e3846/671469967e2a4f2e612e3846_Images/671469967e2a4f2e612e3846_Image_22.jpeg,liked,3.470791822,,,,,,,,,,,,,,,,,,,,,,
,,671469967e2a4f2e612e3846,6685aa9113c938e83b4f1ea0,672c17a370a6216d81522a8c,2024-11-06_18h29.58.865,WTP_SM_Choice,2022.2.1,Win32,60.24096386,,,,,space,0.9276,NAN,,NAN,0.6,5.4,,0,33,33,33,1,34,Charlie,Acc,Participant_Images/671469967e2a4f2e612e3846/671469967e2a4f2e612e3846_Images/671469967e2a4f2e612e3846_Image_19.jpeg,liked,3.820572462,,,,,,,,,,,,,,,,,,,,,,
,,671469967e2a4f2e612e3846,6685aa9113c938e83b4f1ea0,672c17a370a6216d81522a8c,2024-11-06_18h29.58.865,WTP_SM_Choice,2022.2.1,Win32,60.24096386,,,,,,,,,,,,,,,,,,31,,,,,,space,0.9384,space,0.6329,1,0,0,0,0,1,Make dinner with a significant other,Go on a river walk and reading a book next to the water,0.01,0.02,8.8,0,0.01,1.3111,,,,
,,671469967e2a4f2e612e3846,6685aa9113c938e83b4f1ea0,672c17a370a6216d81522a8c,2024-11-06_18h29.58.865,WTP_SM_Choice,2022.2.1,Win32,60.24096386,,,,,,,,,,,,,,,,,,32,,,,,,,,,,2,0,1,1,1,1,Work out at home to build my strength,Go out for a family dinner,0.02,0.02,1.1,1,0.02,1.8283,,,,
,,671469967e2a4f2e612e3846,6685aa9113c938e83b4f1ea0,672c17a370a6216d81522a8c,2024-11-06_18h29.58.865,WTP_SM_Choice,2022.2.1,Win32,60.24096386,,,,,,,,,,,,,,,,,,33,,,,,,,,,,2,0,2,2,2,1,Go out for a family dinner,Do a long yoga session at night before bed,0.03,0.02,4.4,0,0.02,2.4963,,,,
,,671469967e2a4f2e612e3846,6685aa9113c938e83b4f1ea0,672c17a370a6216d81522a8c,2024-11-06_18h29.58.865,WTP_SM_Choice,2022.2.1,Win32,60.24096386,,,,,,,,,,,,,,,,,,34,,,,,,,,,,2,0,3,3,3,1,Listen to music and dancing in my room,Go on a hike with a friend,0.04,0.02,3.3,1,0.02,1.2559,,,,
,,671469967e2a4f2e612e3846,6685aa9113c938e83b4f1ea0,672c17a370a6216d81522a8c,2024-11-06_18h29.58.865,WTP_SM_Choice,2022.2.1,Win32,60.24096386,,,,,,,,,,,,,,,,,,35,,,,,,,,,,2,0,4,4,4,1,Take myself out for a sushi lunch,Get coffee with a friend,0.05,0.02,1.1,1,0.02,1.2335,,,,
,,671469967e2a4f2e612e3846,6685aa9113c938e83b4f1ea0,672c17a370a6216d81522a8c,2024-11-06_18h29.58.865,WTP_SM_Choice,2022.2.1,Win32,60.24096386,,,,,,,NAN,,NAN,0.69,5.31,,0,34,34,34,1,35,Charlie,Acc,Participant_Images/671469967e2a4f2e612e3846/671469967e2a4f2e612e3846_Images/671469967e2a4f2e612e3846_Image_17.jpeg,liked,2.455989137,,,,,,,,,,,,,,,,,,,,,,
,,671469967e2a4f2e612e3846,6685aa9113c938e83b4f1ea0,672c17a370a6216d81522a8c,2024-11-06_18h29.58.865,WTP_SM_Choice,2022.2.1,Win32,60.24096386,,,,,space,0.4981,NAN,,NAN,0.69,5.31,,0,35,35,35,1,36,Charlie,Acc,Participant_Images/671469967e2a4f2e612e3846/671469967e2a4f2e612e3846_Images/671469967e2a4f2e612e3846_Image_10.jpeg,liked,3.79605092,,,,,,,,,,,,,,,,,,,,,,
,,671469967e2a4f2e612e3846,6685aa9113c938e83b4f1ea0,672c17a370a6216d81522a8c,2024-11-06_18h29.58.865,WTP_SM_Choice,2022.2.1,Win32,60.24096386,,,,,space,0.5628,NAN,,NAN,0.69,5.31,,0,36,36,36,1,37,Charlie,Acc,Participant_Images/671469967e2a4f2e612e3846/671469967e2a4f2e612e3846_Images/671469967e2a4f2e612e3846_Image_1.jpeg,did not like,3.562416326,,,,,,,,,,,,,,,,,,,,,,
,,671469967e2a4f2e612e3846,6685aa9113c938e83b4f1ea0,672c17a370a6216d81522a8c,2024-11-06_18h29.58.865,WTP_SM_Choice,2022.2.1,Win32,60.24096386,,,,,space,0.5086,NAN,,NAN,0.69,5.31,,0,37,37,37,1,38,Charlie,Acc,Participant_Images/671469967e2a4f2e612e3846/671469967e2a4f2e612e3846_Images/671469967e2a4f2e612e3846_Image_20.jpeg,liked,2.843822497,,,,,,,,,,,,,,,,,,,,,,
,,671469967e2a4f2e612e3846,6685aa9113c938e83b4f1ea0,672c17a370a6216d81522a8c,2024-11-06_18h29.58.865,WTP_SM_Choice,2022.2.1,Win32,60.24096386,,,,,space,0.9394,NAN,,NAN,0.69,5.31,,0,38,38,38,1,39,Charlie,Acc,Participant_Images/671469967e2a4f2e612e3846/671469967e2a4f2e612e3846_Images/671469967e2a4f2e612e3846_Image_5.jpeg,liked,3.546495948,,,,,,,,,,,,,,,,,,,,,,
,,671469967e2a4f2e612e3846,6685aa9113c938e83b4f1ea0,672c17a370a6216d81522a8c,2024-11-06_18h29.58.865,WTP_SM_Choice,2022.2.1,Win32,60.24096386,,,,,,,,,,,,,,,,,,36,,,,,,space,0.8748,space,0.601,1,0,0,0,0,1,Write poetry to sort through my emotions,Help a friend with shopping,0.01,0.03,3.3,1,0.01,1.2144,,,,
,,671469967e2a4f2e612e3846,6685aa9113c938e83b4f1ea0,672c17a370a6216d81522a8c,2024-11-06_18h29.58.865,WTP_SM_Choice,2022.2.1,Win32,60.24096386,,,,,,,,,,,,,,,,,,37,,,,,,,,,,1,0,1,1,1,1,Go on a river walk and reading a book next to the water,Get coffee with a friend,0.02,0.03,1.1,1,0.02,1.369,,,,
,,671469967e2a4f2e612e3846,6685aa9113c938e83b4f1ea0,672c17a370a6216d81522a8c,2024-11-06_18h29.58.865,WTP_SM_Choice,2022.2.1,Win32,60.24096386,,,,,,,,,,,,,,,,,,38,,,,,,,,,,1,0,2,2,2,1,Sing along with music I like in my car,Stay out late talking with a friend,0.03,0.03,1.1,1,0.03,3.4005,,,,
,,671469967e2a4f2e612e3846,6685aa9113c938e83b4f1ea0,672c17a370a6216d81522a8c,2024-11-06_18h29.58.865,WTP_SM_Choice,2022.2.1,Win32,60.24096386,,,,,,,,,,,,,,,,,,39,,,,,,,,,,2,0,3,3,3,1,Sing along with music I like in my car,Help a friend move plants,0.04,0.03,3.3,1,0.03,1.4502,,,,
,,671469967e2a4f2e612e3846,6685aa9113c938e83b4f1ea0,672c17a370a6216d81522a8c,2024-11-06_18h29.58.865,WTP_SM_Choice,2022.2.1,Win32,60.24096386,,,,,,,,,,,,,,,,,,40,,,,,,,,,,2,0,4,4,4,1,Help a friend collect seeds,Go on a long bike ride in the summer,0.05,0.03,4.4,0,0.03,1.398,,,,
,,671469967e2a4f2e612e3846,6685aa9113c938e83b4f1ea0,672c17a370a6216d81522a8c,2024-11-06_18h29.58.865,WTP_SM_Choice,2022.2.1,Win32,60.24096386,,,,,,,NAN,,NAN,0.81,5.19,,0,39,39,39,1,40,Charlie,Acc,Participant_Images/671469967e2a4f2e612e3846/671469967e2a4f2e612e3846_Images/671469967e2a4f2e612e3846_Image_18.jpeg,liked,1.672012706,,,,,,,,,,,,,,,,,,,,,,
,,671469967e2a4f2e612e3846,6685aa9113c938e83b4f1ea0,672c17a370a6216d81522a8c,2024-11-06_18h29.58.865,WTP_SM_Choice,2022.2.1,Win32,60.24096386,,,,,space,0.8511,NAN,,NAN,0.81,5.19,,0,40,40,40,1,41,Charlie,Acc,Participant_Images/671469967e2a4f2e612e3846/671469967e2a4f2e612e3846_Images/671469967e2a4f2e612e3846_Image_11.jpeg,liked,4.942172136,,,,,,,,,,,,,,,,,,,,,,
,,671469967e2a4f2e612e3846,6685aa9113c938e83b4f1ea0,672c17a370a6216d81522a8c,2024-11-06_18h29.58.865,WTP_SM_Choice,2022.2.1,Win32,60.24096386,,,,,space,0.6409,NAN,,NAN,0.81,5.19,,0,41,41,41,1,42,Charlie,Acc,Participant_Images/671469967e2a4f2e612e3846/671469967e2a4f2e612e3846_Images/671469967e2a4f2e612e3846_Image_24.jpeg,did not like,2.50187214,,,,,,,,,,,,,,,,,,,,,,
,,671469967e2a4f2e612e3846,6685aa9113c938e83b4f1ea0,672c17a370a6216d81522a8c,2024-11-06_18h29.58.865,WTP_SM_Choice,2022.2.1,Win32,60.24096386,,,,,space,0.7033,NAN,,NAN,0.81,5.19,,0,42,42,42,1,43,Charlie,Acc,Participant_Images/671469967e2a4f2e612e3846/671469967e2a4f2e612e3846_Images/671469967e2a4f2e612e3846_Image_21.jpeg,liked,2.071164779,,,,,,,,,,,,,,,,,,,,,,
,,671469967e2a4f2e612e3846,6685aa9113c938e83b4f1ea0,672c17a370a6216d81522a8c,2024-11-06_18h29.58.865,WTP_SM_Choice,2022.2.1,Win32,60.24096386,,,,,space,0.7998,NAN,,NAN,0.81,5.19,,0,43,43,43,1,44,Charlie,Acc,Participant_Images/671469967e2a4f2e612e3846/671469967e2a4f2e612e3846_Images/671469967e2a4f2e612e3846_Image_9.jpeg,liked,5.336503566,,,,,,,,,,,,,,,,,,,,,,
,,671469967e2a4f2e612e3846,6685aa9113c938e83b4f1ea0,672c17a370a6216d81522a8c,2024-11-06_18h29.58.865,WTP_SM_Choice,2022.2.1,Win32,60.24096386,,,,,,,,,,,,,,,,,,41,,,,,,space,0.9035,space,0.5587,1,0,0,0,0,1,Go on a river walk and reading a book next to the water,Stay out late talking with a friend,0.01,0.04,1.1,1,0.01,1.3524,,,,
,,671469967e2a4f2e612e3846,6685aa9113c938e83b4f1ea0,672c17a370a6216d81522a8c,2024-11-06_18h29.58.865,WTP_SM_Choice,2022.2.1,Win32,60.24096386,,,,,,,,,,,,,,,,,,42,,,,,,,,,,1,0,1,1,1,1,Make dinner with a significant other,Go shopping for special items for me,0.02,0.04,3.3,0,0.02,1.0732,,,,
,,671469967e2a4f2e612e3846,6685aa9113c938e83b4f1ea0,672c17a370a6216d81522a8c,2024-11-06_18h29.58.865,WTP_SM_Choice,2022.2.1,Win32,60.24096386,,,,,,,,,,,,,,,,,,43,,,,,,,,,,1,0,2,2,2,1,Listen to music and dancing in my room,Watch a series with a significant other,0.03,0.04,1.1,1,0.03,1.0967,,,,
,,671469967e2a4f2e612e3846,6685aa9113c938e83b4f1ea0,672c17a370a6216d81522a8c,2024-11-06_18h29.58.865,WTP_SM_Choice,2022.2.1,Win32,60.24096386,,,,,,,,,,,,,,,,,,44,,,,,,,,,,1,0,3,3,3,1,Help a friend with shopping,Work out at home to build my strength,0.04,0.04,1.1,0,0.04,2.6137,,,,
,,671469967e2a4f2e612e3846,6685aa9113c938e83b4f1ea0,672c17a370a6216d81522a8c,2024-11-06_18h29.58.865,WTP_SM_Choice,2022.2.1,Win32,60.24096386,,,,,,,,,,,,,,,,,,45,,,,,,,,,,2,0,4,4,4,1,Make dinner with a significant other,Go on a long bike ride in the summer,0.05,0.04,4.4,0,0.04,2.8549,,,,
,,671469967e2a4f2e612e3846,6685aa9113c938e83b4f1ea0,672c17a370a6216d81522a8c,2024-11-06_18h29.58.865,WTP_SM_Choice,2022.2.1,Win32,60.24096386,,,,,,,NAN,,NAN,0.95,5.05,,0,44,44,44,1,45,Charlie,Acc,Participant_Images/671469967e2a4f2e612e3846/671469967e2a4f2e612e3846_Images/671469967e2a4f2e612e3846_Image_4.jpeg,liked,2.642157193,,,,,,,,,,,,,,,,,,,,,,
,,671469967e2a4f2e612e3846,6685aa9113c938e83b4f1ea0,672c17a370a6216d81522a8c,2024-11-06_18h29.58.865,WTP_SM_Choice,2022.2.1,Win32,60.24096386,,,,,space,0.4541,NAN,,NAN,0.95,5.05,,0,45,45,45,1,46,Charlie,Acc,Participant_Images/671469967e2a4f2e612e3846/671469967e2a4f2e612e3846_Images/671469967e2a4f2e612e3846_Image_8.jpeg,liked,4.456234322,,,,,,,,,,,,,,,,,,,,,,
,,671469967e2a4f2e612e3846,6685aa9113c938e83b4f1ea0,672c17a370a6216d81522a8c,2024-11-06_18h29.58.865,WTP_SM_Choice,2022.2.1,Win32,60.24096386,,,,,space,0.5654,NAN,,NAN,0.95,5.05,,0,46,46,46,1,47,Charlie,Acc,Participant_Images/671469967e2a4f2e612e3846/671469967e2a4f2e612e3846_Images/671469967e2a4f2e612e3846_Image_14.jpeg,liked,4.438512181,,,,,,,,,,,,,,,,,,,,,,
,,671469967e2a4f2e612e3846,6685aa9113c938e83b4f1ea0,672c17a370a6216d81522a8c,2024-11-06_18h29.58.865,WTP_SM_Choice,2022.2.1,Win32,60.24096386,,,,,space,0.5946,NAN,,NAN,0.95,5.05,,0,47,47,47,1,48,Charlie,Acc,Participant_Images/671469967e2a4f2e612e3846/671469967e2a4f2e612e3846_Images/671469967e2a4f2e612e3846_Image_23.jpeg,did not like,2.682944783,,,,,,,,,,,,,,,,,,,,,,
,,671469967e2a4f2e612e3846,6685aa9113c938e83b4f1ea0,672c17a370a6216d81522a8c,2024-11-06_18h29.58.865,WTP_SM_Choice,2022.2.1,Win32,60.24096386,,,,,space,0.5706,NAN,,NAN,0.95,5.05,,0,48,48,48,1,49,Charlie,Acc,Participant_Images/671469967e2a4f2e612e3846/671469967e2a4f2e612e3846_Images/671469967e2a4f2e612e3846_Image_6.jpeg,liked,4.51984296,,,,,,,,,,,,,,,,,,,,,,
,,671469967e2a4f2e612e3846,6685aa9113c938e83b4f1ea0,672c17a370a6216d81522a8c,2024-11-06_18h29.58.865,WTP_SM_Choice,2022.2.1,Win32,60.24096386,,,,,,,,,,,,,,,,,,46,,,,,,space,0.6271,space,0.5926,1,0,0,0,0,1,Help a friend move plants,Do a long yoga session at night before bed,0.01,0.05,8.8,0,0.01,1.0524,,,,
,,671469967e2a4f2e612e3846,6685aa9113c938e83b4f1ea0,672c17a370a6216d81522a8c,2024-11-06_18h29.58.865,WTP_SM_Choice,2022.2.1,Win32,60.24096386,,,,,,,,,,,,,,,,,,47,,,,,,,,,,1,0,1,1,1,1,Watch a series with a significant other,Work out at home to build my strength,0.02,0.05,1.1,0,0.02,1.0221,,,,
,,671469967e2a4f2e612e3846,6685aa9113c938e83b4f1ea0,672c17a370a6216d81522a8c,2024-11-06_18h29.58.865,WTP_SM_Choice,2022.2.1,Win32,60.24096386,,,,,,,,,,,,,,,,,,48,,,,,,,,,,1,0,2,2,2,1,Take myself out for a sushi lunch,Watch a series with a significant other,0.03,0.05,4.4,1,0.03,1.3827,,,,
,,671469967e2a4f2e612e3846,6685aa9113c938e83b4f1ea0,672c17a370a6216d81522a8c,2024-11-06_18h29.58.865,WTP_SM_Choice,2022.2.1,Win32,60.24096386,,,,,,,,,,,,,,,,,,49,,,,,,,,,,1,0,3,3,3,1,Help a friend collect seeds,Go on a river walk and reading a book next to the water,0.04,0.05,3.3,0,0.04,1.2951,,,,
,,671469967e2a4f2e612e3846,6685aa9113c938e83b4f1ea0,672c17a370a6216d81522a8c,2024-11-06_18h29.58.865,WTP_SM_Choice,2022.2.1,Win32,60.24096386,,,,,,,,,,,,,,,,,,50,,,,,,,,,,2,0,4,4,4,1,Stay out late talking with a friend,Work out at home to build my strength,0.05,0.05,1.1,0,0.05,3.058,,,,
,,671469967e2a4f2e612e3846,6685aa9113c938e83b4f1ea0,672c17a370a6216d81522a8c,2024-11-06_18h29.58.865,WTP_SM_Choice,2022.2.1,Win32,60.24096386,,,,,,,3,,6,1.1,4.9,,0,49,49,49,1,50,Charlie,Acc,Participant_Images/671469967e2a4f2e612e3846/671469967e2a4f2e612e3846_Images/671469967e2a4f2e612e3846_Image_16.jpeg,liked,3.195382774,,,,,,,,,,,,,,,,,,,space,1.2336,,
,,671469967e2a4f2e612e3846,6685aa9113c938e83b4f1ea0,672c17a370a6216d81522a8c,2024-11-06_18h29.58.865,WTP_SM_Choice,2022.2.1,Win32,60.24096386,,,space,2.7931,space,1.3323,NAN,,NAN,1.1,4.9,,0,50,50,50,1,51,Riley,Rej,Participant_Images/671469967e2a4f2e612e3846/671469967e2a4f2e612e3846_Images/671469967e2a4f2e612e3846_Image_19.jpeg,did not like,1.779333479,,,,,,,,,,,,,,,,,,,,,,
,,671469967e2a4f2e612e3846,6685aa9113c938e83b4f1ea0,672c17a370a6216d81522a8c,2024-11-06_18h29.58.865,WTP_SM_Choice,2022.2.1,Win32,60.24096386,,,,,space,0.5835,NAN,,NAN,1.1,4.9,,0,51,51,51,1,52,Riley,Rej,Participant_Images/671469967e2a4f2e612e3846/671469967e2a4f2e612e3846_Images/671469967e2a4f2e612e3846_Image_15.jpeg,liked,4.312468682,,,,,,,,,,,,,,,,,,,,,,
,,671469967e2a4f2e612e3846,6685aa9113c938e83b4f1ea0,672c17a370a6216d81522a8c,2024-11-06_18h29.58.865,WTP_SM_Choice,2022.2.1,Win32,60.24096386,,,,,space,0.5194,NAN,,NAN,1.1,4.9,,0,52,52,52,1,53,Riley,Rej,Participant_Images/671469967e2a4f2e612e3846/671469967e2a4f2e612e3846_Images/671469967e2a4f2e612e3846_Image_24.jpeg,liked,4.940433059,,,,,,,,,,,,,,,,,,,,,,
,,671469967e2a4f2e612e3846,6685aa9113c938e83b4f1ea0,672c17a370a6216d81522a8c,2024-11-06_18h29.58.865,WTP_SM_Choice,2022.2.1,Win32,60.24096386,,,,,space,0.61,NAN,,NAN,1.1,4.9,,0,53,53,53,1,54,Riley,Rej,Participant_Images/671469967e2a4f2e612e3846/671469967e2a4f2e612e3846_Images/671469967e2a4f2e612e3846_Image_3.jpeg,did not like,2.7105123,,,,,,,,,,,,,,,,,,,,,,
,,671469967e2a4f2e612e3846,6685aa9113c938e83b4f1ea0,672c17a370a6216d81522a8c,2024-11-06_18h29.58.865,WTP_SM_Choice,2022.2.1,Win32,60.24096386,,,,,,,,,,,,,,,,,,51,,,,,,space,0.8121,space,0.572,1,0,0,0,0,1,Take myself out for a sushi lunch,Help a friend collect seeds,0.01,0.01,1.1,1,0.01,0.9991,,,,
,,671469967e2a4f2e612e3846,6685aa9113c938e83b4f1ea0,672c17a370a6216d81522a8c,2024-11-06_18h29.58.865,WTP_SM_Choice,2022.2.1,Win32,60.24096386,,,,,,,,,,,,,,,,,,52,,,,,,,,,,1,0,1,1,1,1,Go out for a family dinner,Watch movies on a rainy day in my bedroom,0.02,0.01,3.3,0,0.02,2.6465,,,,
,,671469967e2a4f2e612e3846,6685aa9113c938e83b4f1ea0,672c17a370a6216d81522a8c,2024-11-06_18h29.58.865,WTP_SM_Choice,2022.2.1,Win32,60.24096386,,,,,,,,,,,,,,,,,,53,,,,,,,,,,2,0,2,2,2,1,Watch a series with a significant other,Write poetry to sort through my emotions,0.03,0.01,1.1,0,0.01,2.0163,,,,
,,671469967e2a4f2e612e3846,6685aa9113c938e83b4f1ea0,672c17a370a6216d81522a8c,2024-11-06_18h29.58.865,WTP_SM_Choice,2022.2.1,Win32,60.24096386,,,,,,,,,,,,,,,,,,54,,,,,,,,,,2,0,3,3,3,1,Sing along with music I like in my car,Make dinner with a significant other,0.04,0.01,4.4,1,0.01,1.527,,,,
,,671469967e2a4f2e612e3846,6685aa9113c938e83b4f1ea0,672c17a370a6216d81522a8c,2024-11-06_18h29.58.865,WTP_SM_Choice,2022.2.1,Win32,60.24096386,,,,,,,,,,,,,,,,,,55,,,,,,,,,,2,0,4,4,4,1,Stay out late talking with a friend,Do a long yoga session at night before bed,0.05,0.01,1.1,0,0.01,1.003,,,,
,,671469967e2a4f2e612e3846,6685aa9113c938e83b4f1ea0,672c17a370a6216d81522a8c,2024-11-06_18h29.58.865,WTP_SM_Choice,2022.2.1,Win32,60.24096386,,,,,,,NAN,,NAN,1.16,4.84,,0,54,54,54,1,55,Riley,Rej,Participant_Images/671469967e2a4f2e612e3846/671469967e2a4f2e612e3846_Images/671469967e2a4f2e612e3846_Image_11.jpeg,did not like,3.602308302,,,,,,,,,,,,,,,,,,,,,,
,,671469967e2a4f2e612e3846,6685aa9113c938e83b4f1ea0,672c17a370a6216d81522a8c,2024-11-06_18h29.58.865,WTP_SM_Choice,2022.2.1,Win32,60.24096386,,,,,space,0.9391,NAN,,NAN,1.16,4.84,,0,55,55,55,1,56,Riley,Rej,Participant_Images/671469967e2a4f2e612e3846/671469967e2a4f2e612e3846_Images/671469967e2a4f2e612e3846_Image_4.jpeg,did not like,4.106391878,,,,,,,,,,,,,,,,,,,,,,
,,671469967e2a4f2e612e3846,6685aa9113c938e83b4f1ea0,672c17a370a6216d81522a8c,2024-11-06_18h29.58.865,WTP_SM_Choice,2022.2.1,Win32,60.24096386,,,,,space,0.9147,NAN,,NAN,1.16,4.84,,0,56,56,56,1,57,Riley,Rej,Participant_Images/671469967e2a4f2e612e3846/671469967e2a4f2e612e3846_Images/671469967e2a4f2e612e3846_Image_1.jpeg,did not like,3.799433026,,,,,,,,,,,,,,,,,,,,,,
,,671469967e2a4f2e612e3846,6685aa9113c938e83b4f1ea0,672c17a370a6216d81522a8c,2024-11-06_18h29.58.865,WTP_SM_Choice,2022.2.1,Win32,60.24096386,,,,,space,0.5323,NAN,,NAN,1.16,4.84,,0,57,57,57,1,58,Riley,Rej,Participant_Images/671469967e2a4f2e612e3846/671469967e2a4f2e612e3846_Images/671469967e2a4f2e612e3846_Image_6.jpeg,did not like,5.246980764,,,,,,,,,,,,,,,,,,,,,,
,,671469967e2a4f2e612e3846,6685aa9113c938e83b4f1ea0,672c17a370a6216d81522a8c,2024-11-06_18h29.58.865,WTP_SM_Choice,2022.2.1,Win32,60.24096386,,,,,space,0.5933,NAN,,NAN,1.16,4.84,,0,58,58,58,1,59,Riley,Rej,Participant_Images/671469967e2a4f2e612e3846/671469967e2a4f2e612e3846_Images/671469967e2a4f2e612e3846_Image_13.jpeg,did not like,3.30081769,,,,,,,,,,,,,,,,,,,,,,
,,671469967e2a4f2e612e3846,6685aa9113c938e83b4f1ea0,672c17a370a6216d81522a8c,2024-11-06_18h29.58.865,WTP_SM_Choice,2022.2.1,Win32,60.24096386,,,,,,,,,,,,,,,,,,56,,,,,,space,0.5708,space,0.4393,1,0,0,0,0,1,Help a friend collect seeds,Go shopping for special items for me,0.01,0.02,8.8,0,0.01,1.3645,,,,
,,671469967e2a4f2e612e3846,6685aa9113c938e83b4f1ea0,672c17a370a6216d81522a8c,2024-11-06_18h29.58.865,WTP_SM_Choice,2022.2.1,Win32,60.24096386,,,,,,,,,,,,,,,,,,57,,,,,,,,,,2,0,1,1,1,1,Write poetry to sort through my emotions,Help a friend collect seeds,0.02,0.02,4.4,1,0.02,1.6907,,,,
,,671469967e2a4f2e612e3846,6685aa9113c938e83b4f1ea0,672c17a370a6216d81522a8c,2024-11-06_18h29.58.865,WTP_SM_Choice,2022.2.1,Win32,60.24096386,,,,,,,,,,,,,,,,,,58,,,,,,,,,,2,0,2,2,2,1,Go on a hike with a friend,Watch movies on a rainy day in my bedroom,0.03,0.02,4.4,0,0.02,1.7419,,,,
,,671469967e2a4f2e612e3846,6685aa9113c938e83b4f1ea0,672c17a370a6216d81522a8c,2024-11-06_18h29.58.865,WTP_SM_Choice,2022.2.1,Win32,60.24096386,,,,,,,,,,,,,,,,,,59,,,,,,,,,,2,0,3,3,3,1,Do a long yoga session at night before bed,Get together for Christmas with my family,0.04,0.02,4.4,1,0.02,1.21,,,,
,,671469967e2a4f2e612e3846,6685aa9113c938e83b4f1ea0,672c17a370a6216d81522a8c,2024-11-06_18h29.58.865,WTP_SM_Choice,2022.2.1,Win32,60.24096386,,,,,,,,,,,,,,,,,,60,,,,,,,,,,2,0,4,4,4,1,Go on a long bike ride in the summer,Get together for Christmas with my family,0.05,0.02,1.1,1,0.02,1.241,,,,
,,671469967e2a4f2e612e3846,6685aa9113c938e83b4f1ea0,672c17a370a6216d81522a8c,2024-11-06_18h29.58.865,WTP_SM_Choice,2022.2.1,Win32,60.24096386,,,,,,,NAN,,NAN,1.25,4.75,,0,59,59,59,1,60,Riley,Rej,Participant_Images/671469967e2a4f2e612e3846/671469967e2a4f2e612e3846_Images/671469967e2a4f2e612e3846_Image_18.jpeg,liked,1.661473164,,,,,,,,,,,,,,,,,,,,,,
,,671469967e2a4f2e612e3846,6685aa9113c938e83b4f1ea0,672c17a370a6216d81522a8c,2024-11-06_18h29.58.865,WTP_SM_Choice,2022.2.1,Win32,60.24096386,,,,,space,0.519,NAN,,NAN,1.25,4.75,,0,60,60,60,1,61,Riley,Rej,Participant_Images/671469967e2a4f2e612e3846/671469967e2a4f2e612e3846_Images/671469967e2a4f2e612e3846_Image_9.jpeg,did not like,3.613205605,,,,,,,,,,,,,,,,,,,,,,
,,671469967e2a4f2e612e3846,6685aa9113c938e83b4f1ea0,672c17a370a6216d81522a8c,2024-11-06_18h29.58.865,WTP_SM_Choice,2022.2.1,Win32,60.24096386,,,,,space,0.8311,NAN,,NAN,1.25,4.75,,0,61,61,61,1,62,Riley,Rej,Participant_Images/671469967e2a4f2e612e3846/671469967e2a4f2e612e3846_Images/671469967e2a4f2e612e3846_Image_7.jpeg,did not like,4.988446431,,,,,,,,,,,,,,,,,,,,,,
,,671469967e2a4f2e612e3846,6685aa9113c938e83b4f1ea0,672c17a370a6216d81522a8c,2024-11-06_18h29.58.865,WTP_SM_Choice,2022.2.1,Win32,60.24096386,,,,,space,0.5162,NAN,,NAN,1.25,4.75,,0,62,62,62,1,63,Riley,Rej,Participant_Images/671469967e2a4f2e612e3846/671469967e2a4f2e612e3846_Images/671469967e2a4f2e612e3846_Image_22.jpeg,did not like,3.470791822,,,,,,,,,,,,,,,,,,,,,,
,,671469967e2a4f2e612e3846,6685aa9113c938e83b4f1ea0,672c17a370a6216d81522a8c,2024-11-06_18h29.58.865,WTP_SM_Choice,2022.2.1,Win32,60.24096386,,,,,space,0.5419,NAN,,NAN,1.25,4.75,,0,63,63,63,1,64,Riley,Rej,Participant_Images/671469967e2a4f2e612e3846/671469967e2a4f2e612e3846_Images/671469967e2a4f2e612e3846_Image_14.jpeg,did not like,3.820572462,,,,,,,,,,,,,,,,,,,,,,
,,671469967e2a4f2e612e3846,6685aa9113c938e83b4f1ea0,672c17a370a6216d81522a8c,2024-11-06_18h29.58.865,WTP_SM_Choice,2022.2.1,Win32,60.24096386,,,,,,,,,,,,,,,,,,61,,,,,,space,0.6705,space,0.4311,1,0,0,0,0,1,Take myself out for a sushi lunch,Get together for Christmas with my family,0.01,0.03,3.3,1,0.01,1.1743,,,,
,,671469967e2a4f2e612e3846,6685aa9113c938e83b4f1ea0,672c17a370a6216d81522a8c,2024-11-06_18h29.58.865,WTP_SM_Choice,2022.2.1,Win32,60.24096386,,,,,,,,,,,,,,,,,,62,,,,,,,,,,1,0,1,1,1,1,Do a long yoga session at night before bed,Get coffee with a friend,0.02,0.03,3.3,1,0.02,1.715,,,,
,,671469967e2a4f2e612e3846,6685aa9113c938e83b4f1ea0,672c17a370a6216d81522a8c,2024-11-06_18h29.58.865,WTP_SM_Choice,2022.2.1,Win32,60.24096386,,,,,,,,,,,,,,,,,,63,,,,,,,,,,2,0,2,2,2,1,Help a friend collect seeds,Work out at home to build my strength,0.03,0.03,3.3,0,0.03,2.237,,,,
,,671469967e2a4f2e612e3846,6685aa9113c938e83b4f1ea0,672c17a370a6216d81522a8c,2024-11-06_18h29.58.865,WTP_SM_Choice,2022.2.1,Win32,60.24096386,,,,,,,,,,,,,,,,,,64,,,,,,,,,,2,0,3,3,3,1,Help a friend with shopping,Sing along with music I like in my car,0.04,0.03,1.1,0,0.03,2.2166,,,,
,,671469967e2a4f2e612e3846,6685aa9113c938e83b4f1ea0,672c17a370a6216d81522a8c,2024-11-06_18h29.58.865,WTP_SM_Choice,2022.2.1,Win32,60.24096386,,,,,,,,,,,,,,,,,,65,,,,,,,,,,2,0,4,4,4,1,Get coffee with a friend,Listen to music and dancing in my room,0.05,0.03,1.1,0,0.03,1.9623,,,,
,,671469967e2a4f2e612e3846,6685aa9113c938e83b4f1ea0,672c17a370a6216d81522a8c,2024-11-06_18h29.58.865,WTP_SM_Choice,2022.2.1,Win32,60.24096386,,,,,,,NAN,,NAN,1.37,4.63,,0,64,64,64,1,65,Riley,Rej,Participant_Images/671469967e2a4f2e612e3846/671469967e2a4f2e612e3846_Images/671469967e2a4f2e612e3846_Image_5.jpeg,liked,2.455989137,,,,,,,,,,,,,,,,,,,,,,
,,671469967e2a4f2e612e3846,6685aa9113c938e83b4f1ea0,672c17a370a6216d81522a8c,2024-11-06_18h29.58.865,WTP_SM_Choice,2022.2.1,Win32,60.24096386,,,,,space,0.4698,NAN,,NAN,1.37,4.63,,0,65,65,65,1,66,Riley,Rej,Participant_Images/671469967e2a4f2e612e3846/671469967e2a4f2e612e3846_Images/671469967e2a4f2e612e3846_Image_17.jpeg,did not like,3.79605092,,,,,,,,,,,,,,,,,,,,,,
,,671469967e2a4f2e612e3846,6685aa9113c938e83b4f1ea0,672c17a370a6216d81522a8c,2024-11-06_18h29.58.865,WTP_SM_Choice,2022.2.1,Win32,60.24096386,,,,,space,0.6675,NAN,,NAN,1.37,4.63,,0,66,66,66,1,67,Riley,Rej,Participant_Images/671469967e2a4f2e612e3846/671469967e2a4f2e612e3846_Images/671469967e2a4f2e612e3846_Image_21.jpeg,liked,3.562416326,,,,,,,,,,,,,,,,,,,,,,
,,671469967e2a4f2e612e3846,6685aa9113c938e83b4f1ea0,672c17a370a6216d81522a8c,2024-11-06_18h29.58.865,WTP_SM_Choice,2022.2.1,Win32,60.24096386,,,,,space,0.5963,NAN,,NAN,1.37,4.63,,0,67,67,67,1,68,Riley,Rej,Participant_Images/671469967e2a4f2e612e3846/671469967e2a4f2e612e3846_Images/671469967e2a4f2e612e3846_Image_10.jpeg,liked,2.843822497,,,,,,,,,,,,,,,,,,,,,,
,,671469967e2a4f2e612e3846,6685aa9113c938e83b4f1ea0,672c17a370a6216d81522a8c,2024-11-06_18h29.58.865,WTP_SM_Choice,2022.2.1,Win32,60.24096386,,,,,space,0.6009,NAN,,NAN,1.37,4.63,,0,68,68,68,1,69,Riley,Rej,Participant_Images/671469967e2a4f2e612e3846/671469967e2a4f2e612e3846_Images/671469967e2a4f2e612e3846_Image_25.jpeg,did not like,3.546495948,,,,,,,,,,,,,,,,,,,,,,
,,671469967e2a4f2e612e3846,6685aa9113c938e83b4f1ea0,672c17a370a6216d81522a8c,2024-11-06_18h29.58.865,WTP_SM_Choice,2022.2.1,Win32,60.24096386,,,,,,,,,,,,,,,,,,66,,,,,,space,1.1315,space,0.4586,1,0,0,0,0,1,Get together for Christmas with my family,Go shopping for special items for me,0.01,0.04,1.1,0,0.01,1.4359,,,,
,,671469967e2a4f2e612e3846,6685aa9113c938e83b4f1ea0,672c17a370a6216d81522a8c,2024-11-06_18h29.58.865,WTP_SM_Choice,2022.2.1,Win32,60.24096386,,,,,,,,,,,,,,,,,,67,,,,,,,,,,1,0,1,1,1,1,Go on a hike with a friend,Work out at home to build my strength,0.02,0.04,8.8,0,0.02,1.5127,,,,
,,671469967e2a4f2e612e3846,6685aa9113c938e83b4f1ea0,672c17a370a6216d81522a8c,2024-11-06_18h29.58.865,WTP_SM_Choice,2022.2.1,Win32,60.24096386,,,,,,,,,,,,,,,,,,68,,,,,,,,,,1,0,2,2,2,1,Go on a long bike ride in the summer,Help a friend move plants,0.03,0.04,4.4,1,0.03,1.2715,,,,
,,671469967e2a4f2e612e3846,6685aa9113c938e83b4f1ea0,672c17a370a6216d81522a8c,2024-11-06_18h29.58.865,WTP_SM_Choice,2022.2.1,Win32,60.24096386,,,,,,,,,,,,,,,,,,69,,,,,,,,,,1,0,3,3,3,1,Go on a hike with a friend,Go on a long bike ride in the summer,0.04,0.04,1.1,0,0.04,2.0647,,,,
,,671469967e2a4f2e612e3846,6685aa9113c938e83b4f1ea0,672c17a370a6216d81522a8c,2024-11-06_18h29.58.865,WTP_SM_Choice,2022.2.1,Win32,60.24096386,,,,,,,,,,,,,,,,,,70,,,,,,,,,,2,0,4,4,4,1,Take myself out for a sushi lunch,Help a friend with shopping,0.05,0.04,1.1,1,0.04,1.8124,,,,
,,671469967e2a4f2e612e3846,6685aa9113c938e83b4f1ea0,672c17a370a6216d81522a8c,2024-11-06_18h29.58.865,WTP_SM_Choice,2022.2.1,Win32,60.24096386,,,,,,,NAN,,NAN,1.51,4.49,,0,69,69,69,1,70,Riley,Rej,Participant_Images/671469967e2a4f2e612e3846/671469967e2a4f2e612e3846_Images/671469967e2a4f2e612e3846_Image_12.jpeg,liked,1.672012706,,,,,,,,,,,,,,,,,,,,,,
,,671469967e2a4f2e612e3846,6685aa9113c938e83b4f1ea0,672c17a370a6216d81522a8c,2024-11-06_18h29.58.865,WTP_SM_Choice,2022.2.1,Win32,60.24096386,,,,,space,1.1146,NAN,,NAN,1.51,4.49,,0,70,70,70,1,71,Riley,Rej,Participant_Images/671469967e2a4f2e612e3846/671469967e2a4f2e612e3846_Images/671469967e2a4f2e612e3846_Image_16.jpeg,did not like,4.942172136,,,,,,,,,,,,,,,,,,,,,,
,,671469967e2a4f2e612e3846,6685aa9113c938e83b4f1ea0,672c17a370a6216d81522a8c,2024-11-06_18h29.58.865,WTP_SM_Choice,2022.2.1,Win32,60.24096386,,,,,space,0.671,NAN,,NAN,1.51,4.49,,0,71,71,71,1,72,Riley,Rej,Participant_Images/671469967e2a4f2e612e3846/671469967e2a4f2e612e3846_Images/671469967e2a4f2e612e3846_Image_20.jpeg,did not like,2.50187214,,,,,,,,,,,,,,,,,,,,,,
,,671469967e2a4f2e612e3846,6685aa9113c938e83b4f1ea0,672c17a370a6216d81522a8c,2024-11-06_18h29.58.865,WTP_SM_Choice,2022.2.1,Win32,60.24096386,,,,,space,1.2382,NAN,,NAN,1.51,4.49,,0,72,72,72,1,73,Riley,Rej,Participant_Images/671469967e2a4f2e612e3846/671469967e2a4f2e612e3846_Images/671469967e2a4f2e612e3846_Image_23.jpeg,did not like,2.071164779,,,,,,,,,,,,,,,,,,,,,,
,,671469967e2a4f2e612e3846,6685aa9113c938e83b4f1ea0,672c17a370a6216d81522a8c,2024-11-06_18h29.58.865,WTP_SM_Choice,2022.2.1,Win32,60.24096386,,,,,space,1.1997,NAN,,NAN,1.51,4.49,,0,73,73,73,1,74,Riley,Rej,Participant_Images/671469967e2a4f2e612e3846/671469967e2a4f2e612e3846_Images/671469967e2a4f2e612e3846_Image_2.jpeg,did not like,5.336503566,,,,,,,,,,,,,,,,,,,,,,
,,671469967e2a4f2e612e3846,6685aa9113c938e83b4f1ea0,672c17a370a6216d81522a8c,2024-11-06_18h29.58.865,WTP_SM_Choice,2022.2.1,Win32,60.24096386,,,,,,,,,,,,,,,,,,71,,,,,,space,0.792,space,0.4994,1,0,0,0,0,1,Help a friend with shopping,Go shopping for special items for me,0.01,0.05,3.3,0,0.01,1.2039,,,,
,,671469967e2a4f2e612e3846,6685aa9113c938e83b4f1ea0,672c17a370a6216d81522a8c,2024-11-06_18h29.58.865,WTP_SM_Choice,2022.2.1,Win32,60.24096386,,,,,,,,,,,,,,,,,,72,,,,,,,,,,1,0,1,1,1,1,Go on a river walk and reading a book next to the water,Help a friend with shopping,0.02,0.05,8.8,1,0.02,0.9109,,,,
,,671469967e2a4f2e612e3846,6685aa9113c938e83b4f1ea0,672c17a370a6216d81522a8c,2024-11-06_18h29.58.865,WTP_SM_Choice,2022.2.1,Win32,60.24096386,,,,,,,,,,,,,,,,,,73,,,,,,,,,,1,0,2,2,2,1,Write poetry to sort through my emotions,Get together for Christmas with my family,0.03,0.05,3.3,1,0.03,1.1464,,,,
,,671469967e2a4f2e612e3846,6685aa9113c938e83b4f1ea0,672c17a370a6216d81522a8c,2024-11-06_18h29.58.865,WTP_SM_Choice,2022.2.1,Win32,60.24096386,,,,,,,,,,,,,,,,,,74,,,,,,,,,,1,0,3,3,3,1,Help a friend move plants,Take myself out for a sushi lunch,0.04,0.05,4.4,0,0.04,5.5878,,,,
,,671469967e2a4f2e612e3846,6685aa9113c938e83b4f1ea0,672c17a370a6216d81522a8c,2024-11-06_18h29.58.865,WTP_SM_Choice,2022.2.1,Win32,60.24096386,,,,,,,,,,,,,,,,,,75,,,,,,,,,,2,0,4,4,4,1,Get coffee with a friend,Sing along with music I like in my car,0.05,0.05,3.3,0,0.05,2.2553,,,,
,,671469967e2a4f2e612e3846,6685aa9113c938e83b4f1ea0,672c17a370a6216d81522a8c,2024-11-06_18h29.58.865,WTP_SM_Choice,2022.2.1,Win32,60.24096386,,,,,,,2,,5,1.66,4.34,,0,74,74,74,1,75,Riley,Rej,Participant_Images/671469967e2a4f2e612e3846/671469967e2a4f2e612e3846_Images/671469967e2a4f2e612e3846_Image_8.jpeg,did not like,2.642157193,,,,,,,,,,,,,,,,,,,space,2.7889,,
,,671469967e2a4f2e612e3846,6685aa9113c938e83b4f1ea0,672c17a370a6216d81522a8c,2024-11-06_18h29.58.865,WTP_SM_Choice,2022.2.1,Win32,60.24096386,,,space,34.1927,space,0.5,NAN,,NAN,1.66,4.34,,0,75,75,75,1,76,Sam,Rej,Participant_Images/671469967e2a4f2e612e3846/671469967e2a4f2e612e3846_Images/671469967e2a4f2e612e3846_Image_10.jpeg,liked,4.456234322,,,,,,,,,,,,,,,,,,,,,,
,,671469967e2a4f2e612e3846,6685aa9113c938e83b4f1ea0,672c17a370a6216d81522a8c,2024-11-06_18h29.58.865,WTP_SM_Choice,2022.2.1,Win32,60.24096386,,,,,space,0.4954,NAN,,NAN,1.66,4.34,,0,76,76,76,1,77,Sam,Rej,Participant_Images/671469967e2a4f2e612e3846/671469967e2a4f2e612e3846_Images/671469967e2a4f2e612e3846_Image_16.jpeg,did not like,4.438512181,,,,,,,,,,,,,,,,,,,,,,
,,671469967e2a4f2e612e3846,6685aa9113c938e83b4f1ea0,672c17a370a6216d81522a8c,2024-11-06_18h29.58.865,WTP_SM_Choice,2022.2.1,Win32,60.24096386,,,,,space,0.7555,NAN,,NAN,1.66,4.34,,0,77,77,77,1,78,Sam,Rej,Participant_Images/671469967e2a4f2e612e3846/671469967e2a4f2e612e3846_Images/671469967e2a4f2e612e3846_Image_8.jpeg,did not like,2.682944783,,,,,,,,,,,,,,,,,,,,,,
,,671469967e2a4f2e612e3846,6685aa9113c938e83b4f1ea0,672c17a370a6216d81522a8c,2024-11-06_18h29.58.865,WTP_SM_Choice,2022.2.1,Win32,60.24096386,,,,,space,0.5677,NAN,,NAN,1.66,4.34,,0,78,78,78,1,79,Sam,Rej,Participant_Images/671469967e2a4f2e612e3846/671469967e2a4f2e612e3846_Images/671469967e2a4f2e612e3846_Image_17.jpeg,did not like,4.51984296,,,,,,,,,,,,,,,,,,,,,,
,,671469967e2a4f2e612e3846,6685aa9113c938e83b4f1ea0,672c17a370a6216d81522a8c,2024-11-06_18h29.58.865,WTP_SM_Choice,2022.2.1,Win32,60.24096386,,,,,,,,,,,,,,,,,,76,,,,,,space,0.7459,space,0.7144,2,0,0,0,0,1,Watch movies on a rainy day in my bedroom,Make dinner with a significant other,0.01,0.01,1.1,1,0.01,2.1305,,,,
,,671469967e2a4f2e612e3846,6685aa9113c938e83b4f1ea0,672c17a370a6216d81522a8c,2024-11-06_18h29.58.865,WTP_SM_Choice,2022.2.1,Win32,60.24096386,,,,,,,,,,,,,,,,,,77,,,,,,,,,,2,0,1,1,1,1,Watch movies on a rainy day in my bedroom,Get coffee with a friend,0.02,0.01,8.8,1,0.01,1.495,,,,
,,671469967e2a4f2e612e3846,6685aa9113c938e83b4f1ea0,672c17a370a6216d81522a8c,2024-11-06_18h29.58.865,WTP_SM_Choice,2022.2.1,Win32,60.24096386,,,,,,,,,,,,,,,,,,78,,,,,,,,,,2,0,2,2,2,1,Do a long yoga session at night before bed,Watch a series with a significant other,0.03,0.01,1.1,1,0.01,0.9529,,,,
,,671469967e2a4f2e612e3846,6685aa9113c938e83b4f1ea0,672c17a370a6216d81522a8c,2024-11-06_18h29.58.865,WTP_SM_Choice,2022.2.1,Win32,60.24096386,,,,,,,,,,,,,,,,,,79,,,,,,,,,,2,0,3,3,3,1,Make dinner with a significant other,Write poetry to sort through my emotions,0.04,0.01,1.1,0,0.01,3.2139,,,,
,,671469967e2a4f2e612e3846,6685aa9113c938e83b4f1ea0,672c17a370a6216d81522a8c,2024-11-06_18h29.58.865,WTP_SM_Choice,2022.2.1,Win32,60.24096386,,,,,,,,,,,,,,,,,,80,,,,,,,,,,2,0,4,4,4,1,Sing along with music I like in my car,Go out for a family dinner,0.05,0.01,4.4,1,0.01,1.3393,,,,
,,671469967e2a4f2e612e3846,6685aa9113c938e83b4f1ea0,672c17a370a6216d81522a8c,2024-11-06_18h29.58.865,WTP_SM_Choice,2022.2.1,Win32,60.24096386,,,,,,,NAN,,NAN,1.71,4.29,,0,79,79,79,1,80,Sam,Rej,Participant_Images/671469967e2a4f2e612e3846/671469967e2a4f2e612e3846_Images/671469967e2a4f2e612e3846_Image_18.jpeg,did not like,3.195382774,,,,,,,,,,,,,,,,,,,,,,
,,671469967e2a4f2e612e3846,6685aa9113c938e83b4f1ea0,672c17a370a6216d81522a8c,2024-11-06_18h29.58.865,WTP_SM_Choice,2022.2.1,Win32,60.24096386,,,,,space,0.5802,NAN,,NAN,1.71,4.29,,0,80,80,80,1,81,Sam,Rej,Participant_Images/671469967e2a4f2e612e3846/671469967e2a4f2e612e3846_Images/671469967e2a4f2e612e3846_Image_15.jpeg,liked,1.779333479,,,,,,,,,,,,,,,,,,,,,,
,,671469967e2a4f2e612e3846,6685aa9113c938e83b4f1ea0,672c17a370a6216d81522a8c,2024-11-06_18h29.58.865,WTP_SM_Choice,2022.2.1,Win32,60.24096386,,,,,space,0.5909,NAN,,NAN,1.71,4.29,,0,81,81,81,1,82,Sam,Rej,Participant_Images/671469967e2a4f2e612e3846/671469967e2a4f2e612e3846_Images/671469967e2a4f2e612e3846_Image_1.jpeg,did not like,4.312468682,,,,,,,,,,,,,,,,,,,,,,
,,671469967e2a4f2e612e3846,6685aa9113c938e83b4f1ea0,672c17a370a6216d81522a8c,2024-11-06_18h29.58.865,WTP_SM_Choice,2022.2.1,Win32,60.24096386,,,,,space,0.4618,NAN,,NAN,1.71,4.29,,0,82,82,82,1,83,Sam,Rej,Participant_Images/671469967e2a4f2e612e3846/671469967e2a4f2e612e3846_Images/671469967e2a4f2e612e3846_Image_7.jpeg,did not like,4.940433059,,,,,,,,,,,,,,,,,,,,,,
,,671469967e2a4f2e612e3846,6685aa9113c938e83b4f1ea0,672c17a370a6216d81522a8c,2024-11-06_18h29.58.865,WTP_SM_Choice,2022.2.1,Win32,60.24096386,,,,,space,0.5052,NAN,,NAN,1.71,4.29,,0,83,83,83,1,84,Sam,Rej,Participant_Images/671469967e2a4f2e612e3846/671469967e2a4f2e612e3846_Images/671469967e2a4f2e612e3846_Image_23.jpeg,liked,2.7105123,,,,,,,,,,,,,,,,,,,,,,
,,671469967e2a4f2e612e3846,6685aa9113c938e83b4f1ea0,672c17a370a6216d81522a8c,2024-11-06_18h29.58.865,WTP_SM_Choice,2022.2.1,Win32,60.24096386,,,,,,,,,,,,,,,,,,81,,,,,,space,0.7909,space,0.4856,1,0,0,0,0,1,Help a friend with shopping,Go on a long bike ride in the summer,0.01,0.02,3.3,0,0.01,1.3122,,,,
,,671469967e2a4f2e612e3846,6685aa9113c938e83b4f1ea0,672c17a370a6216d81522a8c,2024-11-06_18h29.58.865,WTP_SM_Choice,2022.2.1,Win32,60.24096386,,,,,,,,,,,,,,,,,,82,,,,,,,,,,1,0,1,1,1,1,Make dinner with a significant other,Work out at home to build my strength,0.02,0.02,4.4,0,0.02,1.6297,,,,
,,671469967e2a4f2e612e3846,6685aa9113c938e83b4f1ea0,672c17a370a6216d81522a8c,2024-11-06_18h29.58.865,WTP_SM_Choice,2022.2.1,Win32,60.24096386,,,,,,,,,,,,,,,,,,83,,,,,,,,,,2,0,2,2,2,1,Take myself out for a sushi lunch,Make dinner with a significant other,0.03,0.02,1.1,1,0.02,1.0612,,,,
,,671469967e2a4f2e612e3846,6685aa9113c938e83b4f1ea0,672c17a370a6216d81522a8c,2024-11-06_18h29.58.865,WTP_SM_Choice,2022.2.1,Win32,60.24096386,,,,,,,,,,,,,,,,,,84,,,,,,,,,,2,0,3,3,3,1,Help a friend move plants,Go on a river walk and reading a book next to the water,0.04,0.02,3.3,0,0.02,1.1117,,,,
,,671469967e2a4f2e612e3846,6685aa9113c938e83b4f1ea0,672c17a370a6216d81522a8c,2024-11-06_18h29.58.865,WTP_SM_Choice,2022.2.1,Win32,60.24096386,,,,,,,,,,,,,,,,,,85,,,,,,,,,,2,0,4,4,4,1,Do a long yoga session at night before bed,Go on a hike with a friend,0.05,0.02,3.3,1,0.02,1.3097,,,,
,,671469967e2a4f2e612e3846,6685aa9113c938e83b4f1ea0,672c17a370a6216d81522a8c,2024-11-06_18h29.58.865,WTP_SM_Choice,2022.2.1,Win32,60.24096386,,,,,,,NAN,,NAN,1.8,4.2,,0,84,84,84,1,85,Sam,Rej,Participant_Images/671469967e2a4f2e612e3846/671469967e2a4f2e612e3846_Images/671469967e2a4f2e612e3846_Image_3.jpeg,did not like,3.602308302,,,,,,,,,,,,,,,,,,,,,,
,,671469967e2a4f2e612e3846,6685aa9113c938e83b4f1ea0,672c17a370a6216d81522a8c,2024-11-06_18h29.58.865,WTP_SM_Choice,2022.2.1,Win32,60.24096386,,,,,space,0.6035,NAN,,NAN,1.8,4.2,,0,85,85,85,1,86,Sam,Rej,Participant_Images/671469967e2a4f2e612e3846/671469967e2a4f2e612e3846_Images/671469967e2a4f2e612e3846_Image_21.jpeg,did not like,4.106391878,,,,,,,,,,,,,,,,,,,,,,
,,671469967e2a4f2e612e3846,6685aa9113c938e83b4f1ea0,672c17a370a6216d81522a8c,2024-11-06_18h29.58.865,WTP_SM_Choice,2022.2.1,Win32,60.24096386,,,,,space,0.5815,NAN,,NAN,1.8,4.2,,0,86,86,86,1,87,Sam,Rej,Participant_Images/671469967e2a4f2e612e3846/671469967e2a4f2e612e3846_Images/671469967e2a4f2e612e3846_Image_2.jpeg,did not like,3.799433026,,,,,,,,,,,,,,,,,,,,,,
,,671469967e2a4f2e612e3846,6685aa9113c938e83b4f1ea0,672c17a370a6216d81522a8c,2024-11-06_18h29.58.865,WTP_SM_Choice,2022.2.1,Win32,60.24096386,,,,,space,0.5002,NAN,,NAN,1.8,4.2,,0,87,87,87,1,88,Sam,Rej,Participant_Images/671469967e2a4f2e612e3846/671469967e2a4f2e612e3846_Images/671469967e2a4f2e612e3846_Image_13.jpeg,did not like,5.246980764,,,,,,,,,,,,,,,,,,,,,,
,,671469967e2a4f2e612e3846,6685aa9113c938e83b4f1ea0,672c17a370a6216d81522a8c,2024-11-06_18h29.58.865,WTP_SM_Choice,2022.2.1,Win32,60.24096386,,,,,space,0.8475,NAN,,NAN,1.8,4.2,,0,88,88,88,1,89,Sam,Rej,Participant_Images/671469967e2a4f2e612e3846/671469967e2a4f2e612e3846_Images/671469967e2a4f2e612e3846_Image_25.jpeg,liked,3.30081769,,,,,,,,,,,,,,,,,,,,,,
,,671469967e2a4f2e612e3846,6685aa9113c938e83b4f1ea0,672c17a370a6216d81522a8c,2024-11-06_18h29.58.865,WTP_SM_Choice,2022.2.1,Win32,60.24096386,,,,,,,,,,,,,,,,,,86,,,,,,space,0.7618,space,0.5596,1,0,0,0,0,1,Work out at home to build my strength,Help a friend move plants,0.01,0.03,1.1,1,0.01,1.4129,,,,
,,671469967e2a4f2e612e3846,6685aa9113c938e83b4f1ea0,672c17a370a6216d81522a8c,2024-11-06_18h29.58.865,WTP_SM_Choice,2022.2.1,Win32,60.24096386,,,,,,,,,,,,,,,,,,87,,,,,,,,,,1,0,1,1,1,1,Help a friend move plants,Write poetry to sort through my emotions,0.02,0.03,4.4,0,0.02,1.1937,,,,
,,671469967e2a4f2e612e3846,6685aa9113c938e83b4f1ea0,672c17a370a6216d81522a8c,2024-11-06_18h29.58.865,WTP_SM_Choice,2022.2.1,Win32,60.24096386,,,,,,,,,,,,,,,,,,88,,,,,,,,,,2,0,2,2,2,1,Do a long yoga session at night before bed,Help a friend collect seeds,0.03,0.03,1.1,1,0.03,1.6181,,,,
,,671469967e2a4f2e612e3846,6685aa9113c938e83b4f1ea0,672c17a370a6216d81522a8c,2024-11-06_18h29.58.865,WTP_SM_Choice,2022.2.1,Win32,60.24096386,,,,,,,,,,,,,,,,,,89,,,,,,,,,,2,0,3,3,3,1,Write poetry to sort through my emotions,Stay out late talking with a friend,0.04,0.03,3.3,1,0.03,1.3128,,,,
,,671469967e2a4f2e612e3846,6685aa9113c938e83b4f1ea0,672c17a370a6216d81522a8c,2024-11-06_18h29.58.865,WTP_SM_Choice,2022.2.1,Win32,60.24096386,,,,,,,,,,,,,,,,,,90,,,,,,,,,,2,0,4,4,4,1,Go on a hike with a friend,Go shopping for special items for me,0.05,0.03,8.8,0,0.03,1.2303,,,,
,,671469967e2a4f2e612e3846,6685aa9113c938e83b4f1ea0,672c17a370a6216d81522a8c,2024-11-06_18h29.58.865,WTP_SM_Choice,2022.2.1,Win32,60.24096386,,,,,,,NAN,,NAN,1.92,4.08,,0,89,89,89,1,90,Sam,Rej,Participant_Images/671469967e2a4f2e612e3846/671469967e2a4f2e612e3846_Images/671469967e2a4f2e612e3846_Image_22.jpeg,did not like,1.661473164,,,,,,,,,,,,,,,,,,,,,,
,,671469967e2a4f2e612e3846,6685aa9113c938e83b4f1ea0,672c17a370a6216d81522a8c,2024-11-06_18h29.58.865,WTP_SM_Choice,2022.2.1,Win32,60.24096386,,,,,space,1.0914,NAN,,NAN,1.92,4.08,,0,90,90,90,1,91,Sam,Rej,Participant_Images/671469967e2a4f2e612e3846/671469967e2a4f2e612e3846_Images/671469967e2a4f2e612e3846_Image_20.jpeg,did not like,3.613205605,,,,,,,,,,,,,,,,,,,,,,
,,671469967e2a4f2e612e3846,6685aa9113c938e83b4f1ea0,672c17a370a6216d81522a8c,2024-11-06_18h29.58.865,WTP_SM_Choice,2022.2.1,Win32,60.24096386,,,,,space,0.5848,NAN,,NAN,1.92,4.08,,0,91,91,91,1,92,Sam,Rej,Participant_Images/671469967e2a4f2e612e3846/671469967e2a4f2e612e3846_Images/671469967e2a4f2e612e3846_Image_4.jpeg,did not like,4.988446431,,,,,,,,,,,,,,,,,,,,,,
,,671469967e2a4f2e612e3846,6685aa9113c938e83b4f1ea0,672c17a370a6216d81522a8c,2024-11-06_18h29.58.865,WTP_SM_Choice,2022.2.1,Win32,60.24096386,,,,,space,0.6529,NAN,,NAN,1.92,4.08,,0,92,92,92,1,93,Sam,Rej,Participant_Images/671469967e2a4f2e612e3846/671469967e2a4f2e612e3846_Images/671469967e2a4f2e612e3846_Image_6.jpeg,did not like,3.470791822,,,,,,,,,,,,,,,,,,,,,,
,,671469967e2a4f2e612e3846,6685aa9113c938e83b4f1ea0,672c17a370a6216d81522a8c,2024-11-06_18h29.58.865,WTP_SM_Choice,2022.2.1,Win32,60.24096386,,,,,space,0.5452,NAN,,NAN,1.92,4.08,,0,93,93,93,1,94,Sam,Rej,Participant_Images/671469967e2a4f2e612e3846/671469967e2a4f2e612e3846_Images/671469967e2a4f2e612e3846_Image_11.jpeg,liked,3.820572462,,,,,,,,,,,,,,,,,,,,,,
,,671469967e2a4f2e612e3846,6685aa9113c938e83b4f1ea0,672c17a370a6216d81522a8c,2024-11-06_18h29.58.865,WTP_SM_Choice,2022.2.1,Win32,60.24096386,,,,,,,,,,,,,,,,,,91,,,,,,space,0.6157,space,0.4842,1,0,0,0,0,1,Get coffee with a friend,Work out at home to build my strength,0.01,0.04,3.3,0,0.01,1.1851,,,,
,,671469967e2a4f2e612e3846,6685aa9113c938e83b4f1ea0,672c17a370a6216d81522a8c,2024-11-06_18h29.58.865,WTP_SM_Choice,2022.2.1,Win32,60.24096386,,,,,,,,,,,,,,,,,,92,,,,,,,,,,1,0,1,1,1,1,Sing along with music I like in my car,Help a friend collect seeds,0.02,0.04,8.8,1,0.02,1.5061,,,,
,,671469967e2a4f2e612e3846,6685aa9113c938e83b4f1ea0,672c17a370a6216d81522a8c,2024-11-06_18h29.58.865,WTP_SM_Choice,2022.2.1,Win32,60.24096386,,,,,,,,,,,,,,,,,,93,,,,,,,,,,1,0,2,2,2,1,Go out for a family dinner,Write poetry to sort through my emotions,0.03,0.04,1.1,0,0.03,1.671,,,,
,,671469967e2a4f2e612e3846,6685aa9113c938e83b4f1ea0,672c17a370a6216d81522a8c,2024-11-06_18h29.58.865,WTP_SM_Choice,2022.2.1,Win32,60.24096386,,,,,,,,,,,,,,,,,,94,,,,,,,,,,2,0,3,3,3,1,Go shopping for special items for me,Help a friend move plants,0.04,0.04,4.4,1,0.04,2.7352,,,,
,,671469967e2a4f2e612e3846,6685aa9113c938e83b4f1ea0,672c17a370a6216d81522a8c,2024-11-06_18h29.58.865,WTP_SM_Choice,2022.2.1,Win32,60.24096386,,,,,,,,,,,,,,,,,,95,,,,,,,,,,2,0,4,4,4,1,Go on a hike with a friend,Write poetry to sort through my emotions,0.05,0.04,4.4,0,0.04,1.6576,,,,
,,671469967e2a4f2e612e3846,6685aa9113c938e83b4f1ea0,672c17a370a6216d81522a8c,2024-11-06_18h29.58.865,WTP_SM_Choice,2022.2.1,Win32,60.24096386,,,,,,,NAN,,NAN,2.06,3.94,,0,94,94,94,1,95,Sam,Rej,Participant_Images/671469967e2a4f2e612e3846/671469967e2a4f2e612e3846_Images/671469967e2a4f2e612e3846_Image_19.jpeg,liked,2.455989137,,,,,,,,,,,,,,,,,,,,,,
,,671469967e2a4f2e612e3846,6685aa9113c938e83b4f1ea0,672c17a370a6216d81522a8c,2024-11-06_18h29.58.865,WTP_SM_Choice,2022.2.1,Win32,60.24096386,,,,,space,1.0944,NAN,,NAN,2.06,3.94,,0,95,95,95,1,96,Sam,Rej,Participant_Images/671469967e2a4f2e612e3846/671469967e2a4f2e612e3846_Images/671469967e2a4f2e612e3846_Image_24.jpeg,did not like,3.79605092,,,,,,,,,,,,,,,,,,,,,,
,,671469967e2a4f2e612e3846,6685aa9113c938e83b4f1ea0,672c17a370a6216d81522a8c,2024-11-06_18h29.58.865,WTP_SM_Choice,2022.2.1,Win32,60.24096386,,,,,space,0.4627,NAN,,NAN,2.06,3.94,,0,96,96,96,1,97,Sam,Rej,Participant_Images/671469967e2a4f2e612e3846/671469967e2a4f2e612e3846_Images/671469967e2a4f2e612e3846_Image_9.jpeg,did not like,3.562416326,,,,,,,,,,,,,,,,,,,,,,
,,671469967e2a4f2e612e3846,6685aa9113c938e83b4f1ea0,672c17a370a6216d81522a8c,2024-11-06_18h29.58.865,WTP_SM_Choice,2022.2.1,Win32,60.24096386,,,,,space,0.7322,NAN,,NAN,2.06,3.94,,0,97,97,97,1,98,Sam,Rej,Participant_Images/671469967e2a4f2e612e3846/671469967e2a4f2e612e3846_Images/671469967e2a4f2e612e3846_Image_14.jpeg,did not like,2.843822497,,,,,,,,,,,,,,,,,,,,,,
,,671469967e2a4f2e612e3846,6685aa9113c938e83b4f1ea0,672c17a370a6216d81522a8c,2024-11-06_18h29.58.865,WTP_SM_Choice,2022.2.1,Win32,60.24096386,,,,,space,0.6153,NAN,,NAN,2.06,3.94,,0,98,98,98,1,99,Sam,Rej,Participant_Images/671469967e2a4f2e612e3846/671469967e2a4f2e612e3846_Images/671469967e2a4f2e612e3846_Image_12.jpeg,did not like,3.546495948,,,,,,,,,,,,,,,,,,,,,,
,,671469967e2a4f2e612e3846,6685aa9113c938e83b4f1ea0,672c17a370a6216d81522a8c,2024-11-06_18h29.58.865,WTP_SM_Choice,2022.2.1,Win32,60.24096386,,,,,,,,,,,,,,,,,,96,,,,,,space,0.4322,space,0.597,1,0,0,0,0,1,Watch a series with a significant other,Go on a long bike ride in the summer,0.01,0.05,3.3,0,0.01,1.5607,,,,
,,671469967e2a4f2e612e3846,6685aa9113c938e83b4f1ea0,672c17a370a6216d81522a8c,2024-11-06_18h29.58.865,WTP_SM_Choice,2022.2.1,Win32,60.24096386,,,,,,,,,,,,,,,,,,97,,,,,,,,,,1,0,1,1,1,1,Go out for a family dinner,Go shopping for special items for me,0.02,0.05,1.1,0,0.02,1.275,,,,
,,671469967e2a4f2e612e3846,6685aa9113c938e83b4f1ea0,672c17a370a6216d81522a8c,2024-11-06_18h29.58.865,WTP_SM_Choice,2022.2.1,Win32,60.24096386,,,,,,,,,,,,,,,,,,98,,,,,,,,,,1,0,2,2,2,1,Make dinner with a significant other,Do a long yoga session at night before bed,0.03,0.05,1.1,0,0.03,2.0433,,,,
,,671469967e2a4f2e612e3846,6685aa9113c938e83b4f1ea0,672c17a370a6216d81522a8c,2024-11-06_18h29.58.865,WTP_SM_Choice,2022.2.1,Win32,60.24096386,,,,,,,,,,,,,,,,,,99,,,,,,,,,,1,0,3,3,3,1,Get coffee with a friend,Go shopping for special items for me,0.04,0.05,3.3,0,0.04,1.0758,,,,
,,671469967e2a4f2e612e3846,6685aa9113c938e83b4f1ea0,672c17a370a6216d81522a8c,2024-11-06_18h29.58.865,WTP_SM_Choice,2022.2.1,Win32,60.24096386,,,,,,,,,,,,,,,,,,100,,,,,,,,,,2,0,4,4,4,1,Sing along with music I like in my car,Watch a series with a significant other,0.05,0.05,4.4,1,0.05,1.9949,,,,
,,671469967e2a4f2e612e3846,6685aa9113c938e83b4f1ea0,672c17a370a6216d81522a8c,2024-11-06_18h29.58.865,WTP_SM_Choice,2022.2.1,Win32,60.24096386,,,,,,,2,,5,2.21,3.79,,0,99,99,99,1,100,Sam,Rej,Participant_Images/671469967e2a4f2e612e3846/671469967e2a4f2e612e3846_Images/671469967e2a4f2e612e3846_Image_5.jpeg,liked,1.672012706,,,,,,,,,,,,,,,,,,,space,1.163,,
,,671469967e2a4f2e612e3846,6685aa9113c938e83b4f1ea0,672c17a370a6216d81522a8c,2024-11-06_18h29.58.865,WTP_SM_Choice,2022.2.1,Win32,60.24096386,,,,,,,,,,,,,,,,,,,,,,,,,,,,,,,,,,,,,,,,,,,,space,2.2023
