endwelcomescreen_keys.keys,endwelcomescreen_keys.rt,participant,STUDY_ID,SESSION_ID,date,expName,psychopyVersion,OS,frameRate,endinstructionscreen_keys.keys,endinstructionscreen_keys.rt,endpartnermatch_keys.keys,endpartnermatch_keys.rt,sharenextphoto_key.keys,sharenextphoto_key.rt,salience_rating,key_resp.keys,stress_level,subtract_bonus,TOTAL_TASK_BONUS,stresslevel_keypress.keys,entiretaskloop.thisRepN,entiretaskloop.thisTrialN,entiretaskloop.thisN,entiretaskloop.thisIndex,entiretaskloop.ran,TrialNumber,Partner,Condition,Photos,Feedback,FeedbackWait,WTP_ins_keys1.keys,WTP_ins_keys1.rt,WTP_ins_keys2.keys,WTP_ins_keys2.rt,decision_price,responses.keys,responses.rt,WTPTaskLoop.thisRepN,WTPTaskLoop.thisTrialN,WTPTaskLoop.thisN,WTPTaskLoop.thisIndex,WTPTaskLoop.ran,right,left,leftmoney,rightmoney,WTP_ITI,social_left,Resume_keys.keys,Resume_keys.rt,end_screen_keys.keys,end_screen_keys.rt
space,8.8767,6722ca2b1f3ebd2d544608c3,6685aa9113c938e83b4f1ea0,672c16f030faac29eec5f213,2024-11-06_19h26.23.687,WTP_SM_Choice,2022.2.1,MacIntel,61.34969325,,,,,,,,,,,,,,,,,,,,,,,,,,,,,,,,,,,,,,,,,,,,,
,,6722ca2b1f3ebd2d544608c3,6685aa9113c938e83b4f1ea0,672c16f030faac29eec5f213,2024-11-06_19h26.23.687,WTP_SM_Choice,2022.2.1,MacIntel,61.34969325,space,25.4395,,,,,,,,,,,,,,,,,,,,,,,,,,,,,,,,,,,,,,,,,,,
,,6722ca2b1f3ebd2d544608c3,6685aa9113c938e83b4f1ea0,672c16f030faac29eec5f213,2024-11-06_19h26.23.687,WTP_SM_Choice,2022.2.1,MacIntel,61.34969325,,,space,3.4932,space,2.0075,NAN,,NAN,0,6,,0,0,0,0,1,1,Sam,Rej,Participant_Images/6722ca2b1f3ebd2d544608c3/6722ca2b1f3ebd2d544608c3_Images/6722ca2b1f3ebd2d544608c3_Image_16.jpeg,did not like,3.613205605,,,,,,,,,,,,,,,,,,,,,,
,,6722ca2b1f3ebd2d544608c3,6685aa9113c938e83b4f1ea0,672c16f030faac29eec5f213,2024-11-06_19h26.23.687,WTP_SM_Choice,2022.2.1,MacIntel,61.34969325,,,,,space,0.9651,NAN,,NAN,0,6,,0,1,1,1,1,2,Sam,Rej,Participant_Images/6722ca2b1f3ebd2d544608c3/6722ca2b1f3ebd2d544608c3_Images/6722ca2b1f3ebd2d544608c3_Image_10.jpeg,did not like,4.988446431,,,,,,,,,,,,,,,,,,,,,,
,,6722ca2b1f3ebd2d544608c3,6685aa9113c938e83b4f1ea0,672c16f030faac29eec5f213,2024-11-06_19h26.23.687,WTP_SM_Choice,2022.2.1,MacIntel,61.34969325,,,,,space,0.9498,NAN,,NAN,0,6,,0,2,2,2,1,3,Sam,Rej,Participant_Images/6722ca2b1f3ebd2d544608c3/6722ca2b1f3ebd2d544608c3_Images/6722ca2b1f3ebd2d544608c3_Image_3.jpeg,liked,3.470791822,,,,,,,,,,,,,,,,,,,,,,
,,6722ca2b1f3ebd2d544608c3,6685aa9113c938e83b4f1ea0,672c16f030faac29eec5f213,2024-11-06_19h26.23.687,WTP_SM_Choice,2022.2.1,MacIntel,61.34969325,,,,,space,1.6727,NAN,,NAN,0,6,,0,3,3,3,1,4,Sam,Rej,Participant_Images/6722ca2b1f3ebd2d544608c3/6722ca2b1f3ebd2d544608c3_Images/6722ca2b1f3ebd2d544608c3_Image_24.jpeg,did not like,3.820572462,,,,,,,,,,,,,,,,,,,,,,
,,6722ca2b1f3ebd2d544608c3,6685aa9113c938e83b4f1ea0,672c16f030faac29eec5f213,2024-11-06_19h26.23.687,WTP_SM_Choice,2022.2.1,MacIntel,61.34969325,,,,,,,,,,,,,,,,,,1,,,,,,space,17.4641,space,10.9216,0.01,1,6.1385,0,0,0,0,1,Journal my goals thoughts and future events,Go out to dinner at UMIs a seafood buffet with my family,0.01,0.01,4.4,1,,,,
,,6722ca2b1f3ebd2d544608c3,6685aa9113c938e83b4f1ea0,672c16f030faac29eec5f213,2024-11-06_19h26.23.687,WTP_SM_Choice,2022.2.1,MacIntel,61.34969325,,,,,,,,,,,,,,,,,,2,,,,,,,,,,0.01,2,3.0158,0,1,1,1,1,Go with my mom and I to the bahamas on a 4 day cruise with carnival cruise line to see dolphins and water that was as minty green and translucent like an unused yet overly clean  swimming pool.,Do chores while blasting music on alexa,0.02,0.01,8.8,0,,,,
,,6722ca2b1f3ebd2d544608c3,6685aa9113c938e83b4f1ea0,672c16f030faac29eec5f213,2024-11-06_19h26.23.687,WTP_SM_Choice,2022.2.1,MacIntel,61.34969325,,,,,,,,,,,,,,,,,,3,,,,,,,,,,0.03,1,1.1501,0,2,2,2,1,Soak in a hot bubble bath with lavender aromas while netflix is playing on my laptop nearby,Watch Harry Potter movie marathons with my significant other on our comfy couch all day on the weekends from morning till night with homemade pasta and drinks on the coffee table,0.03,0.01,3.3,1,,,,
,,6722ca2b1f3ebd2d544608c3,6685aa9113c938e83b4f1ea0,672c16f030faac29eec5f213,2024-11-06_19h26.23.687,WTP_SM_Choice,2022.2.1,MacIntel,61.34969325,,,,,,,,,,,,,,,,,,4,,,,,,,,,,0.04,1,1.2166,0,3,3,3,1,Read about new podcasters and credited books that talk about my career interests to be up to date on new ideologies and systems,On a Friday night preparing homemade caramel popcorn hot cocoa and steak tv dinner with my significant other watching rom com movies,0.04,0.01,1.1,1,,,,
,,6722ca2b1f3ebd2d544608c3,6685aa9113c938e83b4f1ea0,672c16f030faac29eec5f213,2024-11-06_19h26.23.687,WTP_SM_Choice,2022.2.1,MacIntel,61.34969325,,,,,,,,,,,,,,,,,,5,,,,,,,,,,0.01,2,2.325,0,4,4,4,1,Bring the pets out to the empty but spacious neighborhood park with my significant other and run around until we all wear out on a sunny afternoon,Journal my goals thoughts and future events,0.05,0.01,1.1,0,,,,
,,6722ca2b1f3ebd2d544608c3,6685aa9113c938e83b4f1ea0,672c16f030faac29eec5f213,2024-11-06_19h26.23.687,WTP_SM_Choice,2022.2.1,MacIntel,61.34969325,,,,,,,NAN,,NAN,0.1,5.9,,0,4,4,4,1,5,Sam,Rej,Participant_Images/6722ca2b1f3ebd2d544608c3/6722ca2b1f3ebd2d544608c3_Images/6722ca2b1f3ebd2d544608c3_Image_9.jpeg,did not like,2.455989137,,,,,,,,,,,,,,,,,,,,,,
,,6722ca2b1f3ebd2d544608c3,6685aa9113c938e83b4f1ea0,672c16f030faac29eec5f213,2024-11-06_19h26.23.687,WTP_SM_Choice,2022.2.1,MacIntel,61.34969325,,,,,space,1.4369,NAN,,NAN,0.1,5.9,,0,5,5,5,1,6,Sam,Rej,Participant_Images/6722ca2b1f3ebd2d544608c3/6722ca2b1f3ebd2d544608c3_Images/6722ca2b1f3ebd2d544608c3_Image_8.jpeg,did not like,3.79605092,,,,,,,,,,,,,,,,,,,,,,
,,6722ca2b1f3ebd2d544608c3,6685aa9113c938e83b4f1ea0,672c16f030faac29eec5f213,2024-11-06_19h26.23.687,WTP_SM_Choice,2022.2.1,MacIntel,61.34969325,,,,,space,2.0182,NAN,,NAN,0.1,5.9,,0,6,6,6,1,7,Sam,Rej,Participant_Images/6722ca2b1f3ebd2d544608c3/6722ca2b1f3ebd2d544608c3_Images/6722ca2b1f3ebd2d544608c3_Image_1.jpeg,did not like,3.562416326,,,,,,,,,,,,,,,,,,,,,,
,,6722ca2b1f3ebd2d544608c3,6685aa9113c938e83b4f1ea0,672c16f030faac29eec5f213,2024-11-06_19h26.23.687,WTP_SM_Choice,2022.2.1,MacIntel,61.34969325,,,,,space,1.7881,NAN,,NAN,0.1,5.9,,0,7,7,7,1,8,Sam,Rej,Participant_Images/6722ca2b1f3ebd2d544608c3/6722ca2b1f3ebd2d544608c3_Images/6722ca2b1f3ebd2d544608c3_Image_7.jpeg,liked,2.843822497,,,,,,,,,,,,,,,,,,,,,,
,,6722ca2b1f3ebd2d544608c3,6685aa9113c938e83b4f1ea0,672c16f030faac29eec5f213,2024-11-06_19h26.23.687,WTP_SM_Choice,2022.2.1,MacIntel,61.34969325,,,,,space,1.2401,NAN,,NAN,0.1,5.9,,0,8,8,8,1,9,Sam,Rej,Participant_Images/6722ca2b1f3ebd2d544608c3/6722ca2b1f3ebd2d544608c3_Images/6722ca2b1f3ebd2d544608c3_Image_4.jpeg,did not like,3.546495948,,,,,,,,,,,,,,,,,,,,,,
,,6722ca2b1f3ebd2d544608c3,6685aa9113c938e83b4f1ea0,672c16f030faac29eec5f213,2024-11-06_19h26.23.687,WTP_SM_Choice,2022.2.1,MacIntel,61.34969325,,,,,,,,,,,,,,,,,,6,,,,,,space,12.4442,space,4.8487,0.01,1,2.3697,0,0,0,0,1,Go to a coffee shop to study with a friend and catch up on life for a few hours on a rainy afternoon,Do home workouts by following a youtube video guide for 30 minutes each day on my yoga mat,0.01,0.02,3.3,0,,,,
,,6722ca2b1f3ebd2d544608c3,6685aa9113c938e83b4f1ea0,672c16f030faac29eec5f213,2024-11-06_19h26.23.687,WTP_SM_Choice,2022.2.1,MacIntel,61.34969325,,,,,,,,,,,,,,,,,,7,,,,,,,,,,0.02,1,2.409,0,1,1,1,1,Go with my mom and I to the bahamas on a 4 day cruise with carnival cruise line to see dolphins and water that was as minty green and translucent like an unused yet overly clean  swimming pool.,Read about new podcasters and credited books that talk about my career interests to be up to date on new ideologies and systems,0.02,0.02,1.1,0,,,,
,,6722ca2b1f3ebd2d544608c3,6685aa9113c938e83b4f1ea0,672c16f030faac29eec5f213,2024-11-06_19h26.23.687,WTP_SM_Choice,2022.2.1,MacIntel,61.34969325,,,,,,,,,,,,,,,,,,8,,,,,,,,,,0.02,2,1.1728,0,2,2,2,1,Read true crime studies on a dark rainy night in bed,Play a couple rounds of badminton at my university with some friendly classmates after classes end,0.03,0.02,1.1,1,,,,
,,6722ca2b1f3ebd2d544608c3,6685aa9113c938e83b4f1ea0,672c16f030faac29eec5f213,2024-11-06_19h26.23.687,WTP_SM_Choice,2022.2.1,MacIntel,61.34969325,,,,,,,,,,,,,,,,,,9,,,,,,,,,,0.02,2,1.0516,0,3,3,3,1,Take a stroll in my neighborhood park on a sunny afternoon,Bring the pets out to the empty but spacious neighborhood park with my significant other and run around until we all wear out on a sunny afternoon,0.04,0.02,4.4,1,,,,
,,6722ca2b1f3ebd2d544608c3,6685aa9113c938e83b4f1ea0,672c16f030faac29eec5f213,2024-11-06_19h26.23.687,WTP_SM_Choice,2022.2.1,MacIntel,61.34969325,,,,,,,,,,,,,,,,,,10,,,,,,,,,,0.02,2,1.3362,0,4,4,4,1,Brew thai leaves to make my favorite drink on a calm and cozy morning,On a Friday night preparing homemade caramel popcorn hot cocoa and steak tv dinner with my significant other watching rom com movies,0.05,0.02,1.1,1,,,,
,,6722ca2b1f3ebd2d544608c3,6685aa9113c938e83b4f1ea0,672c16f030faac29eec5f213,2024-11-06_19h26.23.687,WTP_SM_Choice,2022.2.1,MacIntel,61.34969325,,,,,,,NAN,,NAN,0.19,5.81,,0,9,9,9,1,10,Sam,Rej,Participant_Images/6722ca2b1f3ebd2d544608c3/6722ca2b1f3ebd2d544608c3_Images/6722ca2b1f3ebd2d544608c3_Image_19.jpeg,did not like,1.672012706,,,,,,,,,,,,,,,,,,,,,,
,,6722ca2b1f3ebd2d544608c3,6685aa9113c938e83b4f1ea0,672c16f030faac29eec5f213,2024-11-06_19h26.23.687,WTP_SM_Choice,2022.2.1,MacIntel,61.34969325,,,,,space,2.3554,NAN,,NAN,0.19,5.81,,0,10,10,10,1,11,Sam,Rej,Participant_Images/6722ca2b1f3ebd2d544608c3/6722ca2b1f3ebd2d544608c3_Images/6722ca2b1f3ebd2d544608c3_Image_13.jpeg,liked,4.942172136,,,,,,,,,,,,,,,,,,,,,,
,,6722ca2b1f3ebd2d544608c3,6685aa9113c938e83b4f1ea0,672c16f030faac29eec5f213,2024-11-06_19h26.23.687,WTP_SM_Choice,2022.2.1,MacIntel,61.34969325,,,,,space,0.7379,NAN,,NAN,0.19,5.81,,0,11,11,11,1,12,Sam,Rej,Participant_Images/6722ca2b1f3ebd2d544608c3/6722ca2b1f3ebd2d544608c3_Images/6722ca2b1f3ebd2d544608c3_Image_22.jpeg,did not like,2.50187214,,,,,,,,,,,,,,,,,,,,,,
,,6722ca2b1f3ebd2d544608c3,6685aa9113c938e83b4f1ea0,672c16f030faac29eec5f213,2024-11-06_19h26.23.687,WTP_SM_Choice,2022.2.1,MacIntel,61.34969325,,,,,space,0.7143,NAN,,NAN,0.19,5.81,,0,12,12,12,1,13,Sam,Rej,Participant_Images/6722ca2b1f3ebd2d544608c3/6722ca2b1f3ebd2d544608c3_Images/6722ca2b1f3ebd2d544608c3_Image_18.jpeg,did not like,2.071164779,,,,,,,,,,,,,,,,,,,,,,
,,6722ca2b1f3ebd2d544608c3,6685aa9113c938e83b4f1ea0,672c16f030faac29eec5f213,2024-11-06_19h26.23.687,WTP_SM_Choice,2022.2.1,MacIntel,61.34969325,,,,,space,0.6567,NAN,,NAN,0.19,5.81,,0,13,13,13,1,14,Sam,Rej,Participant_Images/6722ca2b1f3ebd2d544608c3/6722ca2b1f3ebd2d544608c3_Images/6722ca2b1f3ebd2d544608c3_Image_25.jpeg,liked,5.336503566,,,,,,,,,,,,,,,,,,,,,,
,,6722ca2b1f3ebd2d544608c3,6685aa9113c938e83b4f1ea0,672c16f030faac29eec5f213,2024-11-06_19h26.23.687,WTP_SM_Choice,2022.2.1,MacIntel,61.34969325,,,,,,,,,,,,,,,,,,11,,,,,,space,4.6859,space,1.0031,0.01,1,0.7993,0,0,0,0,1,Do home workouts by following a youtube video guide for 30 minutes each day on my yoga mat,Bring the pets out to the empty but spacious neighborhood park with my significant other and run around until we all wear out on a sunny afternoon,0.01,0.03,3.3,1,,,,
,,6722ca2b1f3ebd2d544608c3,6685aa9113c938e83b4f1ea0,672c16f030faac29eec5f213,2024-11-06_19h26.23.687,WTP_SM_Choice,2022.2.1,MacIntel,61.34969325,,,,,,,,,,,,,,,,,,12,,,,,,,,,,0.02,1,0.9652,0,1,1,1,1,Take a out of town trip with my family to florida and walk around disney world for a week and stay at a water resort,Journal my goals thoughts and future events,0.02,0.03,4.4,0,,,,
,,6722ca2b1f3ebd2d544608c3,6685aa9113c938e83b4f1ea0,672c16f030faac29eec5f213,2024-11-06_19h26.23.687,WTP_SM_Choice,2022.2.1,MacIntel,61.34969325,,,,,,,,,,,,,,,,,,13,,,,,,,,,,0.03,1,1.8422,0,2,2,2,1,Pla a solo game on my PC after work,Bring the pets out to the empty but spacious neighborhood park with my significant other and run around until we all wear out on a sunny afternoon,0.03,0.03,1.1,1,,,,
,,6722ca2b1f3ebd2d544608c3,6685aa9113c938e83b4f1ea0,672c16f030faac29eec5f213,2024-11-06_19h26.23.687,WTP_SM_Choice,2022.2.1,MacIntel,61.34969325,,,,,,,,,,,,,,,,,,14,,,,,,,,,,0.03,2,1.0148,0,3,3,3,1,Read about new podcasters and credited books that talk about my career interests to be up to date on new ideologies and systems,Bring the pets out to the empty but spacious neighborhood park with my significant other and run around until we all wear out on a sunny afternoon,0.04,0.03,3.3,1,,,,
,,6722ca2b1f3ebd2d544608c3,6685aa9113c938e83b4f1ea0,672c16f030faac29eec5f213,2024-11-06_19h26.23.687,WTP_SM_Choice,2022.2.1,MacIntel,61.34969325,,,,,,,,,,,,,,,,,,15,,,,,,,,,,0.03,2,0.8596,0,4,4,4,1,Bring the pets out to the empty but spacious neighborhood park with my significant other and run around until we all wear out on a sunny afternoon,Soak in a hot bubble bath with lavender aromas while netflix is playing on my laptop nearby,0.05,0.03,4.4,0,,,,
,,6722ca2b1f3ebd2d544608c3,6685aa9113c938e83b4f1ea0,672c16f030faac29eec5f213,2024-11-06_19h26.23.687,WTP_SM_Choice,2022.2.1,MacIntel,61.34969325,,,,,,,NAN,,NAN,0.31,5.69,,0,14,14,14,1,15,Sam,Rej,Participant_Images/6722ca2b1f3ebd2d544608c3/6722ca2b1f3ebd2d544608c3_Images/6722ca2b1f3ebd2d544608c3_Image_15.jpeg,liked,2.642157193,,,,,,,,,,,,,,,,,,,,,,
,,6722ca2b1f3ebd2d544608c3,6685aa9113c938e83b4f1ea0,672c16f030faac29eec5f213,2024-11-06_19h26.23.687,WTP_SM_Choice,2022.2.1,MacIntel,61.34969325,,,,,space,0.6305,NAN,,NAN,0.31,5.69,,0,15,15,15,1,16,Sam,Rej,Participant_Images/6722ca2b1f3ebd2d544608c3/6722ca2b1f3ebd2d544608c3_Images/6722ca2b1f3ebd2d544608c3_Image_14.jpeg,did not like,4.456234322,,,,,,,,,,,,,,,,,,,,,,
,,6722ca2b1f3ebd2d544608c3,6685aa9113c938e83b4f1ea0,672c16f030faac29eec5f213,2024-11-06_19h26.23.687,WTP_SM_Choice,2022.2.1,MacIntel,61.34969325,,,,,space,0.5163,NAN,,NAN,0.31,5.69,,0,16,16,16,1,17,Sam,Rej,Participant_Images/6722ca2b1f3ebd2d544608c3/6722ca2b1f3ebd2d544608c3_Images/6722ca2b1f3ebd2d544608c3_Image_21.jpeg,did not like,4.438512181,,,,,,,,,,,,,,,,,,,,,,
,,6722ca2b1f3ebd2d544608c3,6685aa9113c938e83b4f1ea0,672c16f030faac29eec5f213,2024-11-06_19h26.23.687,WTP_SM_Choice,2022.2.1,MacIntel,61.34969325,,,,,space,0.5839,NAN,,NAN,0.31,5.69,,0,17,17,17,1,18,Sam,Rej,Participant_Images/6722ca2b1f3ebd2d544608c3/6722ca2b1f3ebd2d544608c3_Images/6722ca2b1f3ebd2d544608c3_Image_23.jpeg,liked,2.682944783,,,,,,,,,,,,,,,,,,,,,,
,,6722ca2b1f3ebd2d544608c3,6685aa9113c938e83b4f1ea0,672c16f030faac29eec5f213,2024-11-06_19h26.23.687,WTP_SM_Choice,2022.2.1,MacIntel,61.34969325,,,,,space,0.6457,NAN,,NAN,0.31,5.69,,0,18,18,18,1,19,Sam,Rej,Participant_Images/6722ca2b1f3ebd2d544608c3/6722ca2b1f3ebd2d544608c3_Images/6722ca2b1f3ebd2d544608c3_Image_5.jpeg,did not like,4.51984296,,,,,,,,,,,,,,,,,,,,,,
,,6722ca2b1f3ebd2d544608c3,6685aa9113c938e83b4f1ea0,672c16f030faac29eec5f213,2024-11-06_19h26.23.687,WTP_SM_Choice,2022.2.1,MacIntel,61.34969325,,,,,,,,,,,,,,,,,,16,,,,,,space,2.2813,space,0.7541,0.01,1,0.8918,0,0,0,0,1,Meditate to release my body from stress thoughts and emotions for a short period of time in an empty and quiet room ,On a Friday night preparing homemade caramel popcorn hot cocoa and steak tv dinner with my significant other watching rom com movies,0.01,0.04,1.1,1,,,,
,,6722ca2b1f3ebd2d544608c3,6685aa9113c938e83b4f1ea0,672c16f030faac29eec5f213,2024-11-06_19h26.23.687,WTP_SM_Choice,2022.2.1,MacIntel,61.34969325,,,,,,,,,,,,,,,,,,17,,,,,,,,,,0.02,1,1.074,0,1,1,1,1,Read true crime studies on a dark rainy night in bed,Watch Harry Potter movie marathons with my significant other on our comfy couch all day on the weekends from morning till night with homemade pasta and drinks on the coffee table,0.02,0.04,8.8,1,,,,
,,6722ca2b1f3ebd2d544608c3,6685aa9113c938e83b4f1ea0,672c16f030faac29eec5f213,2024-11-06_19h26.23.687,WTP_SM_Choice,2022.2.1,MacIntel,61.34969325,,,,,,,,,,,,,,,,,,18,,,,,,,,,,0.03,1,1.143,0,2,2,2,1,Play a couple rounds of badminton at my university with some friendly classmates after classes end,Do home workouts by following a youtube video guide for 30 minutes each day on my yoga mat,0.03,0.04,3.3,0,,,,
,,6722ca2b1f3ebd2d544608c3,6685aa9113c938e83b4f1ea0,672c16f030faac29eec5f213,2024-11-06_19h26.23.687,WTP_SM_Choice,2022.2.1,MacIntel,61.34969325,,,,,,,,,,,,,,,,,,19,,,,,,,,,,0.04,2,4.2845,0,3,3,3,1,On a Friday night preparing homemade caramel popcorn hot cocoa and steak tv dinner with my significant other watching rom com movies,Read true crime studies on a dark rainy night in bed,0.04,0.04,3.3,0,,,,
,,6722ca2b1f3ebd2d544608c3,6685aa9113c938e83b4f1ea0,672c16f030faac29eec5f213,2024-11-06_19h26.23.687,WTP_SM_Choice,2022.2.1,MacIntel,61.34969325,,,,,,,,,,,,,,,,,,20,,,,,,,,,,0.04,2,1.9579,0,4,4,4,1,Bring the pets out to the empty but spacious neighborhood park with my significant other and run around until we all wear out on a sunny afternoon,Read true crime studies on a dark rainy night in bed,0.05,0.04,1.1,0,,,,
,,6722ca2b1f3ebd2d544608c3,6685aa9113c938e83b4f1ea0,672c16f030faac29eec5f213,2024-11-06_19h26.23.687,WTP_SM_Choice,2022.2.1,MacIntel,61.34969325,,,,,,,NAN,,NAN,0.45,5.55,,0,19,19,19,1,20,Sam,Rej,Participant_Images/6722ca2b1f3ebd2d544608c3/6722ca2b1f3ebd2d544608c3_Images/6722ca2b1f3ebd2d544608c3_Image_12.jpeg,liked,3.195382774,,,,,,,,,,,,,,,,,,,,,,
,,6722ca2b1f3ebd2d544608c3,6685aa9113c938e83b4f1ea0,672c16f030faac29eec5f213,2024-11-06_19h26.23.687,WTP_SM_Choice,2022.2.1,MacIntel,61.34969325,,,,,space,0.9335,NAN,,NAN,0.45,5.55,,0,20,20,20,1,21,Sam,Rej,Participant_Images/6722ca2b1f3ebd2d544608c3/6722ca2b1f3ebd2d544608c3_Images/6722ca2b1f3ebd2d544608c3_Image_6.jpeg,did not like,1.779333479,,,,,,,,,,,,,,,,,,,,,,
,,6722ca2b1f3ebd2d544608c3,6685aa9113c938e83b4f1ea0,672c16f030faac29eec5f213,2024-11-06_19h26.23.687,WTP_SM_Choice,2022.2.1,MacIntel,61.34969325,,,,,space,0.5839,NAN,,NAN,0.45,5.55,,0,21,21,21,1,22,Sam,Rej,Participant_Images/6722ca2b1f3ebd2d544608c3/6722ca2b1f3ebd2d544608c3_Images/6722ca2b1f3ebd2d544608c3_Image_17.jpeg,did not like,4.312468682,,,,,,,,,,,,,,,,,,,,,,
,,6722ca2b1f3ebd2d544608c3,6685aa9113c938e83b4f1ea0,672c16f030faac29eec5f213,2024-11-06_19h26.23.687,WTP_SM_Choice,2022.2.1,MacIntel,61.34969325,,,,,space,0.5055,NAN,,NAN,0.45,5.55,,0,22,22,22,1,23,Sam,Rej,Participant_Images/6722ca2b1f3ebd2d544608c3/6722ca2b1f3ebd2d544608c3_Images/6722ca2b1f3ebd2d544608c3_Image_2.jpeg,did not like,4.940433059,,,,,,,,,,,,,,,,,,,,,,
,,6722ca2b1f3ebd2d544608c3,6685aa9113c938e83b4f1ea0,672c16f030faac29eec5f213,2024-11-06_19h26.23.687,WTP_SM_Choice,2022.2.1,MacIntel,61.34969325,,,,,space,0.5462,NAN,,NAN,0.45,5.55,,0,23,23,23,1,24,Sam,Rej,Participant_Images/6722ca2b1f3ebd2d544608c3/6722ca2b1f3ebd2d544608c3_Images/6722ca2b1f3ebd2d544608c3_Image_11.jpeg,did not like,2.7105123,,,,,,,,,,,,,,,,,,,,,,
,,6722ca2b1f3ebd2d544608c3,6685aa9113c938e83b4f1ea0,672c16f030faac29eec5f213,2024-11-06_19h26.23.687,WTP_SM_Choice,2022.2.1,MacIntel,61.34969325,,,,,,,,,,,,,,,,,,21,,,,,,space,0.5497,space,0.588,0.01,1,1.0382,0,0,0,0,1,Play and communicate through Discord with online friends and play steam games together in the middle of the night,Journal my goals thoughts and future events,0.01,0.05,8.8,0,,,,
,,6722ca2b1f3ebd2d544608c3,6685aa9113c938e83b4f1ea0,672c16f030faac29eec5f213,2024-11-06_19h26.23.687,WTP_SM_Choice,2022.2.1,MacIntel,61.34969325,,,,,,,,,,,,,,,,,,22,,,,,,,,,,0.02,1,1.142,0,1,1,1,1,Pla a solo game on my PC after work,On a Friday night preparing homemade caramel popcorn hot cocoa and steak tv dinner with my significant other watching rom com movies,0.02,0.05,4.4,1,,,,
,,6722ca2b1f3ebd2d544608c3,6685aa9113c938e83b4f1ea0,672c16f030faac29eec5f213,2024-11-06_19h26.23.687,WTP_SM_Choice,2022.2.1,MacIntel,61.34969325,,,,,,,,,,,,,,,,,,23,,,,,,,,,,0.03,1,0.9835,0,2,2,2,1,Read about new podcasters and credited books that talk about my career interests to be up to date on new ideologies and systems,Go out to dinner at UMIs a seafood buffet with my family,0.03,0.05,1.1,1,,,,
,,6722ca2b1f3ebd2d544608c3,6685aa9113c938e83b4f1ea0,672c16f030faac29eec5f213,2024-11-06_19h26.23.687,WTP_SM_Choice,2022.2.1,MacIntel,61.34969325,,,,,,,,,,,,,,,,,,24,,,,,,,,,,0.04,1,1.4025,0,3,3,3,1,Meditate to release my body from stress thoughts and emotions for a short period of time in an empty and quiet room ,Take a out of town trip with my family to florida and walk around disney world for a week and stay at a water resort,0.04,0.05,4.4,1,,,,
,,6722ca2b1f3ebd2d544608c3,6685aa9113c938e83b4f1ea0,672c16f030faac29eec5f213,2024-11-06_19h26.23.687,WTP_SM_Choice,2022.2.1,MacIntel,61.34969325,,,,,,,,,,,,,,,,,,25,,,,,,,,,,0.05,2,4.0213,0,4,4,4,1,Do home workouts by following a youtube video guide for 30 minutes each day on my yoga mat,Watch Harry Potter movie marathons with my significant other on our comfy couch all day on the weekends from morning till night with homemade pasta and drinks on the coffee table,0.05,0.05,3.3,1,,,,
,,6722ca2b1f3ebd2d544608c3,6685aa9113c938e83b4f1ea0,672c16f030faac29eec5f213,2024-11-06_19h26.23.687,WTP_SM_Choice,2022.2.1,MacIntel,61.34969325,,,,,,,1,,4,0.6,5.4,,0,24,24,24,1,25,Sam,Rej,Participant_Images/6722ca2b1f3ebd2d544608c3/6722ca2b1f3ebd2d544608c3_Images/6722ca2b1f3ebd2d544608c3_Image_20.jpeg,did not like,3.602308302,,,,,,,,,,,,,,,,,,,space,0.9365,,
,,6722ca2b1f3ebd2d544608c3,6685aa9113c938e83b4f1ea0,672c16f030faac29eec5f213,2024-11-06_19h26.23.687,WTP_SM_Choice,2022.2.1,MacIntel,61.34969325,,,space,0.8574,space,0.9024,NAN,,NAN,0.6,5.4,,0,25,25,25,1,26,Charlie,Acc,Participant_Images/6722ca2b1f3ebd2d544608c3/6722ca2b1f3ebd2d544608c3_Images/6722ca2b1f3ebd2d544608c3_Image_10.jpeg,liked,4.106391878,,,,,,,,,,,,,,,,,,,,,,
,,6722ca2b1f3ebd2d544608c3,6685aa9113c938e83b4f1ea0,672c16f030faac29eec5f213,2024-11-06_19h26.23.687,WTP_SM_Choice,2022.2.1,MacIntel,61.34969325,,,,,space,0.708,NAN,,NAN,0.6,5.4,,0,26,26,26,1,27,Charlie,Acc,Participant_Images/6722ca2b1f3ebd2d544608c3/6722ca2b1f3ebd2d544608c3_Images/6722ca2b1f3ebd2d544608c3_Image_20.jpeg,liked,3.799433026,,,,,,,,,,,,,,,,,,,,,,
,,6722ca2b1f3ebd2d544608c3,6685aa9113c938e83b4f1ea0,672c16f030faac29eec5f213,2024-11-06_19h26.23.687,WTP_SM_Choice,2022.2.1,MacIntel,61.34969325,,,,,space,0.5829,NAN,,NAN,0.6,5.4,,0,27,27,27,1,28,Charlie,Acc,Participant_Images/6722ca2b1f3ebd2d544608c3/6722ca2b1f3ebd2d544608c3_Images/6722ca2b1f3ebd2d544608c3_Image_22.jpeg,liked,5.246980764,,,,,,,,,,,,,,,,,,,,,,
,,6722ca2b1f3ebd2d544608c3,6685aa9113c938e83b4f1ea0,672c16f030faac29eec5f213,2024-11-06_19h26.23.687,WTP_SM_Choice,2022.2.1,MacIntel,61.34969325,,,,,space,0.8693,NAN,,NAN,0.6,5.4,,0,28,28,28,1,29,Charlie,Acc,Participant_Images/6722ca2b1f3ebd2d544608c3/6722ca2b1f3ebd2d544608c3_Images/6722ca2b1f3ebd2d544608c3_Image_9.jpeg,liked,3.30081769,,,,,,,,,,,,,,,,,,,,,,
,,6722ca2b1f3ebd2d544608c3,6685aa9113c938e83b4f1ea0,672c16f030faac29eec5f213,2024-11-06_19h26.23.687,WTP_SM_Choice,2022.2.1,MacIntel,61.34969325,,,,,,,,,,,,,,,,,,26,,,,,,space,0.7668,space,0.5557,0.01,1,1.039,0,0,0,0,1,Take a out of town trip with my family to florida and walk around disney world for a week and stay at a water resort,Pla a solo game on my PC after work,0.01,0.01,4.4,0,,,,
,,6722ca2b1f3ebd2d544608c3,6685aa9113c938e83b4f1ea0,672c16f030faac29eec5f213,2024-11-06_19h26.23.687,WTP_SM_Choice,2022.2.1,MacIntel,61.34969325,,,,,,,,,,,,,,,,,,27,,,,,,,,,,0.01,2,1.0195,0,1,1,1,1,Play a couple rounds of badminton at my university with some friendly classmates after classes end,Take a stroll in my neighborhood park on a sunny afternoon,0.02,0.01,3.3,0,,,,
,,6722ca2b1f3ebd2d544608c3,6685aa9113c938e83b4f1ea0,672c16f030faac29eec5f213,2024-11-06_19h26.23.687,WTP_SM_Choice,2022.2.1,MacIntel,61.34969325,,,,,,,,,,,,,,,,,,28,,,,,,,,,,0.01,2,0.9762,0,2,2,2,1,Go to a coffee shop to study with a friend and catch up on life for a few hours on a rainy afternoon,Soak in a hot bubble bath with lavender aromas while netflix is playing on my laptop nearby,0.03,0.01,3.3,0,,,,
,,6722ca2b1f3ebd2d544608c3,6685aa9113c938e83b4f1ea0,672c16f030faac29eec5f213,2024-11-06_19h26.23.687,WTP_SM_Choice,2022.2.1,MacIntel,61.34969325,,,,,,,,,,,,,,,,,,29,,,,,,,,,,0.01,2,0.7566,0,3,3,3,1,Go out to dinner at UMIs a seafood buffet with my family,Brew thai leaves to make my favorite drink on a calm and cozy morning,0.04,0.01,4.4,0,,,,
,,6722ca2b1f3ebd2d544608c3,6685aa9113c938e83b4f1ea0,672c16f030faac29eec5f213,2024-11-06_19h26.23.687,WTP_SM_Choice,2022.2.1,MacIntel,61.34969325,,,,,,,,,,,,,,,,,,30,,,,,,,,,,0.01,2,0.5215,0,4,4,4,1,Pla a solo game on my PC after work,Host a friends giving potluck dinner with friends to celebrate the joy of being together as friends,0.05,0.01,8.8,1,,,,
,,6722ca2b1f3ebd2d544608c3,6685aa9113c938e83b4f1ea0,672c16f030faac29eec5f213,2024-11-06_19h26.23.687,WTP_SM_Choice,2022.2.1,MacIntel,61.34969325,,,,,,,NAN,,NAN,0.65,5.35,,0,29,29,29,1,30,Charlie,Acc,Participant_Images/6722ca2b1f3ebd2d544608c3/6722ca2b1f3ebd2d544608c3_Images/6722ca2b1f3ebd2d544608c3_Image_11.jpeg,did not like,1.661473164,,,,,,,,,,,,,,,,,,,,,,
,,6722ca2b1f3ebd2d544608c3,6685aa9113c938e83b4f1ea0,672c16f030faac29eec5f213,2024-11-06_19h26.23.687,WTP_SM_Choice,2022.2.1,MacIntel,61.34969325,,,,,space,1.2647,NAN,,NAN,0.65,5.35,,0,30,30,30,1,31,Charlie,Acc,Participant_Images/6722ca2b1f3ebd2d544608c3/6722ca2b1f3ebd2d544608c3_Images/6722ca2b1f3ebd2d544608c3_Image_6.jpeg,liked,3.613205605,,,,,,,,,,,,,,,,,,,,,,
,,6722ca2b1f3ebd2d544608c3,6685aa9113c938e83b4f1ea0,672c16f030faac29eec5f213,2024-11-06_19h26.23.687,WTP_SM_Choice,2022.2.1,MacIntel,61.34969325,,,,,space,0.7719,NAN,,NAN,0.65,5.35,,0,31,31,31,1,32,Charlie,Acc,Participant_Images/6722ca2b1f3ebd2d544608c3/6722ca2b1f3ebd2d544608c3_Images/6722ca2b1f3ebd2d544608c3_Image_19.jpeg,did not like,4.988446431,,,,,,,,,,,,,,,,,,,,,,
,,6722ca2b1f3ebd2d544608c3,6685aa9113c938e83b4f1ea0,672c16f030faac29eec5f213,2024-11-06_19h26.23.687,WTP_SM_Choice,2022.2.1,MacIntel,61.34969325,,,,,space,0.4338,NAN,,NAN,0.65,5.35,,0,32,32,32,1,33,Charlie,Acc,Participant_Images/6722ca2b1f3ebd2d544608c3/6722ca2b1f3ebd2d544608c3_Images/6722ca2b1f3ebd2d544608c3_Image_12.jpeg,did not like,3.470791822,,,,,,,,,,,,,,,,,,,,,,
,,6722ca2b1f3ebd2d544608c3,6685aa9113c938e83b4f1ea0,672c16f030faac29eec5f213,2024-11-06_19h26.23.687,WTP_SM_Choice,2022.2.1,MacIntel,61.34969325,,,,,space,0.3512,NAN,,NAN,0.65,5.35,,0,33,33,33,1,34,Charlie,Acc,Participant_Images/6722ca2b1f3ebd2d544608c3/6722ca2b1f3ebd2d544608c3_Images/6722ca2b1f3ebd2d544608c3_Image_23.jpeg,did not like,3.820572462,,,,,,,,,,,,,,,,,,,,,,
,,6722ca2b1f3ebd2d544608c3,6685aa9113c938e83b4f1ea0,672c16f030faac29eec5f213,2024-11-06_19h26.23.687,WTP_SM_Choice,2022.2.1,MacIntel,61.34969325,,,,,,,,,,,,,,,,,,31,,,,,,space,0.6827,space,0.522,0.01,1,1.0226,0,0,0,0,1,Take a stroll in my neighborhood park on a sunny afternoon,Go out to dinner at UMIs a seafood buffet with my family,0.01,0.02,8.8,1,,,,
,,6722ca2b1f3ebd2d544608c3,6685aa9113c938e83b4f1ea0,672c16f030faac29eec5f213,2024-11-06_19h26.23.687,WTP_SM_Choice,2022.2.1,MacIntel,61.34969325,,,,,,,,,,,,,,,,,,32,,,,,,,,,,0.02,1,1.5004,0,1,1,1,1,Host a friends giving potluck dinner with friends to celebrate the joy of being together as friends,Meditate to release my body from stress thoughts and emotions for a short period of time in an empty and quiet room ,0.02,0.02,1.1,0,,,,
,,6722ca2b1f3ebd2d544608c3,6685aa9113c938e83b4f1ea0,672c16f030faac29eec5f213,2024-11-06_19h26.23.687,WTP_SM_Choice,2022.2.1,MacIntel,61.34969325,,,,,,,,,,,,,,,,,,33,,,,,,,,,,0.02,2,1.0728,0,2,2,2,1,Soak in a hot bubble bath with lavender aromas while netflix is playing on my laptop nearby,On a Friday night preparing homemade caramel popcorn hot cocoa and steak tv dinner with my significant other watching rom com movies,0.03,0.02,4.4,1,,,,
,,6722ca2b1f3ebd2d544608c3,6685aa9113c938e83b4f1ea0,672c16f030faac29eec5f213,2024-11-06_19h26.23.687,WTP_SM_Choice,2022.2.1,MacIntel,61.34969325,,,,,,,,,,,,,,,,,,34,,,,,,,,,,0.02,2,0.9538,0,3,3,3,1,Meditate to release my body from stress thoughts and emotions for a short period of time in an empty and quiet room ,Go with my mom and I to the bahamas on a 4 day cruise with carnival cruise line to see dolphins and water that was as minty green and translucent like an unused yet overly clean  swimming pool.,0.04,0.02,3.3,1,,,,
,,6722ca2b1f3ebd2d544608c3,6685aa9113c938e83b4f1ea0,672c16f030faac29eec5f213,2024-11-06_19h26.23.687,WTP_SM_Choice,2022.2.1,MacIntel,61.34969325,,,,,,,,,,,,,,,,,,35,,,,,,,,,,0.02,2,1.0269,0,4,4,4,1,Play and communicate through Discord with online friends and play steam games together in the middle of the night,Take a stroll in my neighborhood park on a sunny afternoon,0.05,0.02,1.1,0,,,,
,,6722ca2b1f3ebd2d544608c3,6685aa9113c938e83b4f1ea0,672c16f030faac29eec5f213,2024-11-06_19h26.23.687,WTP_SM_Choice,2022.2.1,MacIntel,61.34969325,,,,,,,NAN,,NAN,0.74,5.26,,0,34,34,34,1,35,Charlie,Acc,Participant_Images/6722ca2b1f3ebd2d544608c3/6722ca2b1f3ebd2d544608c3_Images/6722ca2b1f3ebd2d544608c3_Image_1.jpeg,liked,2.455989137,,,,,,,,,,,,,,,,,,,,,,
,,6722ca2b1f3ebd2d544608c3,6685aa9113c938e83b4f1ea0,672c16f030faac29eec5f213,2024-11-06_19h26.23.687,WTP_SM_Choice,2022.2.1,MacIntel,61.34969325,,,,,space,0.5261,NAN,,NAN,0.74,5.26,,0,35,35,35,1,36,Charlie,Acc,Participant_Images/6722ca2b1f3ebd2d544608c3/6722ca2b1f3ebd2d544608c3_Images/6722ca2b1f3ebd2d544608c3_Image_13.jpeg,liked,3.79605092,,,,,,,,,,,,,,,,,,,,,,
,,6722ca2b1f3ebd2d544608c3,6685aa9113c938e83b4f1ea0,672c16f030faac29eec5f213,2024-11-06_19h26.23.687,WTP_SM_Choice,2022.2.1,MacIntel,61.34969325,,,,,space,0.5678,NAN,,NAN,0.74,5.26,,0,36,36,36,1,37,Charlie,Acc,Participant_Images/6722ca2b1f3ebd2d544608c3/6722ca2b1f3ebd2d544608c3_Images/6722ca2b1f3ebd2d544608c3_Image_21.jpeg,liked,3.562416326,,,,,,,,,,,,,,,,,,,,,,
,,6722ca2b1f3ebd2d544608c3,6685aa9113c938e83b4f1ea0,672c16f030faac29eec5f213,2024-11-06_19h26.23.687,WTP_SM_Choice,2022.2.1,MacIntel,61.34969325,,,,,space,0.4758,NAN,,NAN,0.74,5.26,,0,37,37,37,1,38,Charlie,Acc,Participant_Images/6722ca2b1f3ebd2d544608c3/6722ca2b1f3ebd2d544608c3_Images/6722ca2b1f3ebd2d544608c3_Image_18.jpeg,liked,2.843822497,,,,,,,,,,,,,,,,,,,,,,
,,6722ca2b1f3ebd2d544608c3,6685aa9113c938e83b4f1ea0,672c16f030faac29eec5f213,2024-11-06_19h26.23.687,WTP_SM_Choice,2022.2.1,MacIntel,61.34969325,,,,,space,0.4992,NAN,,NAN,0.74,5.26,,0,38,38,38,1,39,Charlie,Acc,Participant_Images/6722ca2b1f3ebd2d544608c3/6722ca2b1f3ebd2d544608c3_Images/6722ca2b1f3ebd2d544608c3_Image_2.jpeg,liked,3.546495948,,,,,,,,,,,,,,,,,,,,,,
,,6722ca2b1f3ebd2d544608c3,6685aa9113c938e83b4f1ea0,672c16f030faac29eec5f213,2024-11-06_19h26.23.687,WTP_SM_Choice,2022.2.1,MacIntel,61.34969325,,,,,,,,,,,,,,,,,,36,,,,,,space,0.6303,space,0.524,0.01,1,0.8679,0,0,0,0,1,Play and communicate through Discord with online friends and play steam games together in the middle of the night,Meditate to release my body from stress thoughts and emotions for a short period of time in an empty and quiet room ,0.01,0.03,3.3,0,,,,
,,6722ca2b1f3ebd2d544608c3,6685aa9113c938e83b4f1ea0,672c16f030faac29eec5f213,2024-11-06_19h26.23.687,WTP_SM_Choice,2022.2.1,MacIntel,61.34969325,,,,,,,,,,,,,,,,,,37,,,,,,,,,,0.02,1,2.2037,0,1,1,1,1,Do home workouts by following a youtube video guide for 30 minutes each day on my yoga mat,Host a friends giving potluck dinner with friends to celebrate the joy of being together as friends,0.02,0.03,1.1,1,,,,
,,6722ca2b1f3ebd2d544608c3,6685aa9113c938e83b4f1ea0,672c16f030faac29eec5f213,2024-11-06_19h26.23.687,WTP_SM_Choice,2022.2.1,MacIntel,61.34969325,,,,,,,,,,,,,,,,,,38,,,,,,,,,,0.03,1,4.0255,0,2,2,2,1,Read about new podcasters and credited books that talk about my career interests to be up to date on new ideologies and systems,Take a out of town trip with my family to florida and walk around disney world for a week and stay at a water resort,0.03,0.03,1.1,1,,,,
,,6722ca2b1f3ebd2d544608c3,6685aa9113c938e83b4f1ea0,672c16f030faac29eec5f213,2024-11-06_19h26.23.687,WTP_SM_Choice,2022.2.1,MacIntel,61.34969325,,,,,,,,,,,,,,,,,,39,,,,,,,,,,0.03,2,1.3192,0,3,3,3,1,Play and communicate through Discord with online friends and play steam games together in the middle of the night,Read about new podcasters and credited books that talk about my career interests to be up to date on new ideologies and systems,0.04,0.03,3.3,0,,,,
,,6722ca2b1f3ebd2d544608c3,6685aa9113c938e83b4f1ea0,672c16f030faac29eec5f213,2024-11-06_19h26.23.687,WTP_SM_Choice,2022.2.1,MacIntel,61.34969325,,,,,,,,,,,,,,,,,,40,,,,,,,,,,0.03,2,2.3928,0,4,4,4,1,Go to a coffee shop to study with a friend and catch up on life for a few hours on a rainy afternoon,Do chores while blasting music on alexa,0.05,0.03,4.4,0,,,,
,,6722ca2b1f3ebd2d544608c3,6685aa9113c938e83b4f1ea0,672c16f030faac29eec5f213,2024-11-06_19h26.23.687,WTP_SM_Choice,2022.2.1,MacIntel,61.34969325,,,,,,,NAN,,NAN,0.86,5.14,,0,39,39,39,1,40,Charlie,Acc,Participant_Images/6722ca2b1f3ebd2d544608c3/6722ca2b1f3ebd2d544608c3_Images/6722ca2b1f3ebd2d544608c3_Image_7.jpeg,liked,1.672012706,,,,,,,,,,,,,,,,,,,,,,
,,6722ca2b1f3ebd2d544608c3,6685aa9113c938e83b4f1ea0,672c16f030faac29eec5f213,2024-11-06_19h26.23.687,WTP_SM_Choice,2022.2.1,MacIntel,61.34969325,,,,,space,0.6409,NAN,,NAN,0.86,5.14,,0,40,40,40,1,41,Charlie,Acc,Participant_Images/6722ca2b1f3ebd2d544608c3/6722ca2b1f3ebd2d544608c3_Images/6722ca2b1f3ebd2d544608c3_Image_15.jpeg,liked,4.942172136,,,,,,,,,,,,,,,,,,,,,,
,,6722ca2b1f3ebd2d544608c3,6685aa9113c938e83b4f1ea0,672c16f030faac29eec5f213,2024-11-06_19h26.23.687,WTP_SM_Choice,2022.2.1,MacIntel,61.34969325,,,,,space,0.4414,NAN,,NAN,0.86,5.14,,0,41,41,41,1,42,Charlie,Acc,Participant_Images/6722ca2b1f3ebd2d544608c3/6722ca2b1f3ebd2d544608c3_Images/6722ca2b1f3ebd2d544608c3_Image_4.jpeg,liked,2.50187214,,,,,,,,,,,,,,,,,,,,,,
,,6722ca2b1f3ebd2d544608c3,6685aa9113c938e83b4f1ea0,672c16f030faac29eec5f213,2024-11-06_19h26.23.687,WTP_SM_Choice,2022.2.1,MacIntel,61.34969325,,,,,space,0.5398,NAN,,NAN,0.86,5.14,,0,42,42,42,1,43,Charlie,Acc,Participant_Images/6722ca2b1f3ebd2d544608c3/6722ca2b1f3ebd2d544608c3_Images/6722ca2b1f3ebd2d544608c3_Image_17.jpeg,liked,2.071164779,,,,,,,,,,,,,,,,,,,,,,
,,6722ca2b1f3ebd2d544608c3,6685aa9113c938e83b4f1ea0,672c16f030faac29eec5f213,2024-11-06_19h26.23.687,WTP_SM_Choice,2022.2.1,MacIntel,61.34969325,,,,,space,0.5009,NAN,,NAN,0.86,5.14,,0,43,43,43,1,44,Charlie,Acc,Participant_Images/6722ca2b1f3ebd2d544608c3/6722ca2b1f3ebd2d544608c3_Images/6722ca2b1f3ebd2d544608c3_Image_8.jpeg,did not like,5.336503566,,,,,,,,,,,,,,,,,,,,,,
,,6722ca2b1f3ebd2d544608c3,6685aa9113c938e83b4f1ea0,672c16f030faac29eec5f213,2024-11-06_19h26.23.687,WTP_SM_Choice,2022.2.1,MacIntel,61.34969325,,,,,,,,,,,,,,,,,,41,,,,,,space,0.9799,space,0.5008,0.01,1,1.2494,0,0,0,0,1,Take a stroll in my neighborhood park on a sunny afternoon,Go to a coffee shop to study with a friend and catch up on life for a few hours on a rainy afternoon,0.01,0.04,1.1,1,,,,
,,6722ca2b1f3ebd2d544608c3,6685aa9113c938e83b4f1ea0,672c16f030faac29eec5f213,2024-11-06_19h26.23.687,WTP_SM_Choice,2022.2.1,MacIntel,61.34969325,,,,,,,,,,,,,,,,,,42,,,,,,,,,,0.02,1,1.1176,0,1,1,1,1,Go out to dinner at UMIs a seafood buffet with my family,Meditate to release my body from stress thoughts and emotions for a short period of time in an empty and quiet room ,0.02,0.04,3.3,0,,,,
,,6722ca2b1f3ebd2d544608c3,6685aa9113c938e83b4f1ea0,672c16f030faac29eec5f213,2024-11-06_19h26.23.687,WTP_SM_Choice,2022.2.1,MacIntel,61.34969325,,,,,,,,,,,,,,,,,,43,,,,,,,,,,0.03,1,0.9522,0,2,2,2,1,Journal my goals thoughts and future events,On a Friday night preparing homemade caramel popcorn hot cocoa and steak tv dinner with my significant other watching rom com movies,0.03,0.04,1.1,1,,,,
,,6722ca2b1f3ebd2d544608c3,6685aa9113c938e83b4f1ea0,672c16f030faac29eec5f213,2024-11-06_19h26.23.687,WTP_SM_Choice,2022.2.1,MacIntel,61.34969325,,,,,,,,,,,,,,,,,,44,,,,,,,,,,0.04,1,3.2416,0,3,3,3,1,On a Friday night preparing homemade caramel popcorn hot cocoa and steak tv dinner with my significant other watching rom com movies,Do home workouts by following a youtube video guide for 30 minutes each day on my yoga mat,0.04,0.04,1.1,0,,,,
,,6722ca2b1f3ebd2d544608c3,6685aa9113c938e83b4f1ea0,672c16f030faac29eec5f213,2024-11-06_19h26.23.687,WTP_SM_Choice,2022.2.1,MacIntel,61.34969325,,,,,,,,,,,,,,,,,,45,,,,,,,,,,0.04,2,1.0582,0,4,4,4,1,Read true crime studies on a dark rainy night in bed,Go with my mom and I to the bahamas on a 4 day cruise with carnival cruise line to see dolphins and water that was as minty green and translucent like an unused yet overly clean  swimming pool.,0.05,0.04,4.4,1,,,,
,,6722ca2b1f3ebd2d544608c3,6685aa9113c938e83b4f1ea0,672c16f030faac29eec5f213,2024-11-06_19h26.23.687,WTP_SM_Choice,2022.2.1,MacIntel,61.34969325,,,,,,,NAN,,NAN,1,5,,0,44,44,44,1,45,Charlie,Acc,Participant_Images/6722ca2b1f3ebd2d544608c3/6722ca2b1f3ebd2d544608c3_Images/6722ca2b1f3ebd2d544608c3_Image_5.jpeg,liked,2.642157193,,,,,,,,,,,,,,,,,,,,,,
,,6722ca2b1f3ebd2d544608c3,6685aa9113c938e83b4f1ea0,672c16f030faac29eec5f213,2024-11-06_19h26.23.687,WTP_SM_Choice,2022.2.1,MacIntel,61.34969325,,,,,space,0.4629,NAN,,NAN,1,5,,0,45,45,45,1,46,Charlie,Acc,Participant_Images/6722ca2b1f3ebd2d544608c3/6722ca2b1f3ebd2d544608c3_Images/6722ca2b1f3ebd2d544608c3_Image_16.jpeg,liked,4.456234322,,,,,,,,,,,,,,,,,,,,,,
,,6722ca2b1f3ebd2d544608c3,6685aa9113c938e83b4f1ea0,672c16f030faac29eec5f213,2024-11-06_19h26.23.687,WTP_SM_Choice,2022.2.1,MacIntel,61.34969325,,,,,space,0.6552,NAN,,NAN,1,5,,0,46,46,46,1,47,Charlie,Acc,Participant_Images/6722ca2b1f3ebd2d544608c3/6722ca2b1f3ebd2d544608c3_Images/6722ca2b1f3ebd2d544608c3_Image_3.jpeg,did not like,4.438512181,,,,,,,,,,,,,,,,,,,,,,
,,6722ca2b1f3ebd2d544608c3,6685aa9113c938e83b4f1ea0,672c16f030faac29eec5f213,2024-11-06_19h26.23.687,WTP_SM_Choice,2022.2.1,MacIntel,61.34969325,,,,,space,0.4874,NAN,,NAN,1,5,,0,47,47,47,1,48,Charlie,Acc,Participant_Images/6722ca2b1f3ebd2d544608c3/6722ca2b1f3ebd2d544608c3_Images/6722ca2b1f3ebd2d544608c3_Image_25.jpeg,liked,2.682944783,,,,,,,,,,,,,,,,,,,,,,
,,6722ca2b1f3ebd2d544608c3,6685aa9113c938e83b4f1ea0,672c16f030faac29eec5f213,2024-11-06_19h26.23.687,WTP_SM_Choice,2022.2.1,MacIntel,61.34969325,,,,,space,0.4514,NAN,,NAN,1,5,,0,48,48,48,1,49,Charlie,Acc,Participant_Images/6722ca2b1f3ebd2d544608c3/6722ca2b1f3ebd2d544608c3_Images/6722ca2b1f3ebd2d544608c3_Image_14.jpeg,did not like,4.51984296,,,,,,,,,,,,,,,,,,,,,,
,,6722ca2b1f3ebd2d544608c3,6685aa9113c938e83b4f1ea0,672c16f030faac29eec5f213,2024-11-06_19h26.23.687,WTP_SM_Choice,2022.2.1,MacIntel,61.34969325,,,,,,,,,,,,,,,,,,46,,,,,,space,0.7816,space,0.4375,0.01,1,0.9841,0,0,0,0,1,Go out to dinner at UMIs a seafood buffet with my family,Do home workouts by following a youtube video guide for 30 minutes each day on my yoga mat,0.01,0.05,8.8,0,,,,
,,6722ca2b1f3ebd2d544608c3,6685aa9113c938e83b4f1ea0,672c16f030faac29eec5f213,2024-11-06_19h26.23.687,WTP_SM_Choice,2022.2.1,MacIntel,61.34969325,,,,,,,,,,,,,,,,,,47,,,,,,,,,,0.02,1,0.9834,0,1,1,1,1,Take a out of town trip with my family to florida and walk around disney world for a week and stay at a water resort,Soak in a hot bubble bath with lavender aromas while netflix is playing on my laptop nearby,0.02,0.05,1.1,0,,,,
,,6722ca2b1f3ebd2d544608c3,6685aa9113c938e83b4f1ea0,672c16f030faac29eec5f213,2024-11-06_19h26.23.687,WTP_SM_Choice,2022.2.1,MacIntel,61.34969325,,,,,,,,,,,,,,,,,,48,,,,,,,,,,0.03,1,1.0895,0,2,2,2,1,Soak in a hot bubble bath with lavender aromas while netflix is playing on my laptop nearby,Host a friends giving potluck dinner with friends to celebrate the joy of being together as friends,0.03,0.05,4.4,1,,,,
,,6722ca2b1f3ebd2d544608c3,6685aa9113c938e83b4f1ea0,672c16f030faac29eec5f213,2024-11-06_19h26.23.687,WTP_SM_Choice,2022.2.1,MacIntel,61.34969325,,,,,,,,,,,,,,,,,,49,,,,,,,,,,0.04,1,0.9449,0,3,3,3,1,Do chores while blasting music on alexa,Host a friends giving potluck dinner with friends to celebrate the joy of being together as friends,0.04,0.05,3.3,1,,,,
,,6722ca2b1f3ebd2d544608c3,6685aa9113c938e83b4f1ea0,672c16f030faac29eec5f213,2024-11-06_19h26.23.687,WTP_SM_Choice,2022.2.1,MacIntel,61.34969325,,,,,,,,,,,,,,,,,,50,,,,,,,,,,0.05,2,3.2176,0,4,4,4,1,Play and communicate through Discord with online friends and play steam games together in the middle of the night,Soak in a hot bubble bath with lavender aromas while netflix is playing on my laptop nearby,0.05,0.05,1.1,0,,,,
,,6722ca2b1f3ebd2d544608c3,6685aa9113c938e83b4f1ea0,672c16f030faac29eec5f213,2024-11-06_19h26.23.687,WTP_SM_Choice,2022.2.1,MacIntel,61.34969325,,,,,,,3,,6,1.15,4.85,,0,49,49,49,1,50,Charlie,Acc,Participant_Images/6722ca2b1f3ebd2d544608c3/6722ca2b1f3ebd2d544608c3_Images/6722ca2b1f3ebd2d544608c3_Image_24.jpeg,liked,3.195382774,,,,,,,,,,,,,,,,,,,space,0.8527,,
,,6722ca2b1f3ebd2d544608c3,6685aa9113c938e83b4f1ea0,672c16f030faac29eec5f213,2024-11-06_19h26.23.687,WTP_SM_Choice,2022.2.1,MacIntel,61.34969325,,,space,1.5452,space,0.8308,NAN,,NAN,1.15,4.85,,0,50,50,50,1,51,Alex,Acc,Participant_Images/6722ca2b1f3ebd2d544608c3/6722ca2b1f3ebd2d544608c3_Images/6722ca2b1f3ebd2d544608c3_Image_18.jpeg,did not like,1.779333479,,,,,,,,,,,,,,,,,,,,,,
,,6722ca2b1f3ebd2d544608c3,6685aa9113c938e83b4f1ea0,672c16f030faac29eec5f213,2024-11-06_19h26.23.687,WTP_SM_Choice,2022.2.1,MacIntel,61.34969325,,,,,space,0.7928,NAN,,NAN,1.15,4.85,,0,51,51,51,1,52,Alex,Acc,Participant_Images/6722ca2b1f3ebd2d544608c3/6722ca2b1f3ebd2d544608c3_Images/6722ca2b1f3ebd2d544608c3_Image_19.jpeg,did not like,4.312468682,,,,,,,,,,,,,,,,,,,,,,
,,6722ca2b1f3ebd2d544608c3,6685aa9113c938e83b4f1ea0,672c16f030faac29eec5f213,2024-11-06_19h26.23.687,WTP_SM_Choice,2022.2.1,MacIntel,61.34969325,,,,,space,0.6206,NAN,,NAN,1.15,4.85,,0,52,52,52,1,53,Alex,Acc,Participant_Images/6722ca2b1f3ebd2d544608c3/6722ca2b1f3ebd2d544608c3_Images/6722ca2b1f3ebd2d544608c3_Image_20.jpeg,liked,4.940433059,,,,,,,,,,,,,,,,,,,,,,
,,6722ca2b1f3ebd2d544608c3,6685aa9113c938e83b4f1ea0,672c16f030faac29eec5f213,2024-11-06_19h26.23.687,WTP_SM_Choice,2022.2.1,MacIntel,61.34969325,,,,,space,0.3395,NAN,,NAN,1.15,4.85,,0,53,53,53,1,54,Alex,Acc,Participant_Images/6722ca2b1f3ebd2d544608c3/6722ca2b1f3ebd2d544608c3_Images/6722ca2b1f3ebd2d544608c3_Image_2.jpeg,liked,2.7105123,,,,,,,,,,,,,,,,,,,,,,
,,6722ca2b1f3ebd2d544608c3,6685aa9113c938e83b4f1ea0,672c16f030faac29eec5f213,2024-11-06_19h26.23.687,WTP_SM_Choice,2022.2.1,MacIntel,61.34969325,,,,,,,,,,,,,,,,,,51,,,,,,space,0.3003,space,0.7391,0.01,2,2.9323,0,0,0,0,1,Brew thai leaves to make my favorite drink on a calm and cozy morning,Watch Harry Potter movie marathons with my significant other on our comfy couch all day on the weekends from morning till night with homemade pasta and drinks on the coffee table,0.01,0.01,1.1,1,,,,
,,6722ca2b1f3ebd2d544608c3,6685aa9113c938e83b4f1ea0,672c16f030faac29eec5f213,2024-11-06_19h26.23.687,WTP_SM_Choice,2022.2.1,MacIntel,61.34969325,,,,,,,,,,,,,,,,,,52,,,,,,,,,,0.01,2,0.9509,0,1,1,1,1,Go with my mom and I to the bahamas on a 4 day cruise with carnival cruise line to see dolphins and water that was as minty green and translucent like an unused yet overly clean  swimming pool.,Take a stroll in my neighborhood park on a sunny afternoon,0.02,0.01,3.3,0,,,,
,,6722ca2b1f3ebd2d544608c3,6685aa9113c938e83b4f1ea0,672c16f030faac29eec5f213,2024-11-06_19h26.23.687,WTP_SM_Choice,2022.2.1,MacIntel,61.34969325,,,,,,,,,,,,,,,,,,53,,,,,,,,,,0.01,2,0.8427,0,2,2,2,1,Pla a solo game on my PC after work,Play and communicate through Discord with online friends and play steam games together in the middle of the night,0.03,0.01,1.1,1,,,,
,,6722ca2b1f3ebd2d544608c3,6685aa9113c938e83b4f1ea0,672c16f030faac29eec5f213,2024-11-06_19h26.23.687,WTP_SM_Choice,2022.2.1,MacIntel,61.34969325,,,,,,,,,,,,,,,,,,54,,,,,,,,,,0.01,2,1.1375,0,3,3,3,1,Brew thai leaves to make my favorite drink on a calm and cozy morning,Play a couple rounds of badminton at my university with some friendly classmates after classes end,0.04,0.01,4.4,1,,,,
,,6722ca2b1f3ebd2d544608c3,6685aa9113c938e83b4f1ea0,672c16f030faac29eec5f213,2024-11-06_19h26.23.687,WTP_SM_Choice,2022.2.1,MacIntel,61.34969325,,,,,,,,,,,,,,,,,,55,,,,,,,,,,0.01,2,0.6867,0,4,4,4,1,Do chores while blasting music on alexa,Play a couple rounds of badminton at my university with some friendly classmates after classes end,0.05,0.01,1.1,1,,,,
,,6722ca2b1f3ebd2d544608c3,6685aa9113c938e83b4f1ea0,672c16f030faac29eec5f213,2024-11-06_19h26.23.687,WTP_SM_Choice,2022.2.1,MacIntel,61.34969325,,,,,,,NAN,,NAN,1.2,4.8,,0,54,54,54,1,55,Alex,Acc,Participant_Images/6722ca2b1f3ebd2d544608c3/6722ca2b1f3ebd2d544608c3_Images/6722ca2b1f3ebd2d544608c3_Image_6.jpeg,liked,3.602308302,,,,,,,,,,,,,,,,,,,,,,
,,6722ca2b1f3ebd2d544608c3,6685aa9113c938e83b4f1ea0,672c16f030faac29eec5f213,2024-11-06_19h26.23.687,WTP_SM_Choice,2022.2.1,MacIntel,61.34969325,,,,,space,0.3658,NAN,,NAN,1.2,4.8,,0,55,55,55,1,56,Alex,Acc,Participant_Images/6722ca2b1f3ebd2d544608c3/6722ca2b1f3ebd2d544608c3_Images/6722ca2b1f3ebd2d544608c3_Image_17.jpeg,liked,4.106391878,,,,,,,,,,,,,,,,,,,,,,
,,6722ca2b1f3ebd2d544608c3,6685aa9113c938e83b4f1ea0,672c16f030faac29eec5f213,2024-11-06_19h26.23.687,WTP_SM_Choice,2022.2.1,MacIntel,61.34969325,,,,,space,0.5402,NAN,,NAN,1.2,4.8,,0,56,56,56,1,57,Alex,Acc,Participant_Images/6722ca2b1f3ebd2d544608c3/6722ca2b1f3ebd2d544608c3_Images/6722ca2b1f3ebd2d544608c3_Image_25.jpeg,did not like,3.799433026,,,,,,,,,,,,,,,,,,,,,,
,,6722ca2b1f3ebd2d544608c3,6685aa9113c938e83b4f1ea0,672c16f030faac29eec5f213,2024-11-06_19h26.23.687,WTP_SM_Choice,2022.2.1,MacIntel,61.34969325,,,,,space,0.3238,NAN,,NAN,1.2,4.8,,0,57,57,57,1,58,Alex,Acc,Participant_Images/6722ca2b1f3ebd2d544608c3/6722ca2b1f3ebd2d544608c3_Images/6722ca2b1f3ebd2d544608c3_Image_14.jpeg,liked,5.246980764,,,,,,,,,,,,,,,,,,,,,,
,,6722ca2b1f3ebd2d544608c3,6685aa9113c938e83b4f1ea0,672c16f030faac29eec5f213,2024-11-06_19h26.23.687,WTP_SM_Choice,2022.2.1,MacIntel,61.34969325,,,,,space,0.3572,NAN,,NAN,1.2,4.8,,0,58,58,58,1,59,Alex,Acc,Participant_Images/6722ca2b1f3ebd2d544608c3/6722ca2b1f3ebd2d544608c3_Images/6722ca2b1f3ebd2d544608c3_Image_1.jpeg,did not like,3.30081769,,,,,,,,,,,,,,,,,,,,,,
,,6722ca2b1f3ebd2d544608c3,6685aa9113c938e83b4f1ea0,672c16f030faac29eec5f213,2024-11-06_19h26.23.687,WTP_SM_Choice,2022.2.1,MacIntel,61.34969325,,,,,,,,,,,,,,,,,,56,,,,,,space,0.8253,space,0.5323,0.01,1,0.9927,0,0,0,0,1,Pla a solo game on my PC after work,Watch Harry Potter movie marathons with my significant other on our comfy couch all day on the weekends from morning till night with homemade pasta and drinks on the coffee table,0.01,0.02,8.8,1,,,,
,,6722ca2b1f3ebd2d544608c3,6685aa9113c938e83b4f1ea0,672c16f030faac29eec5f213,2024-11-06_19h26.23.687,WTP_SM_Choice,2022.2.1,MacIntel,61.34969325,,,,,,,,,,,,,,,,,,57,,,,,,,,,,0.02,2,2.9922,0,1,1,1,1,Go to a coffee shop to study with a friend and catch up on life for a few hours on a rainy afternoon,Read true crime studies on a dark rainy night in bed,0.02,0.02,4.4,0,,,,
,,6722ca2b1f3ebd2d544608c3,6685aa9113c938e83b4f1ea0,672c16f030faac29eec5f213,2024-11-06_19h26.23.687,WTP_SM_Choice,2022.2.1,MacIntel,61.34969325,,,,,,,,,,,,,,,,,,58,,,,,,,,,,0.02,2,0.9875,0,2,2,2,1,Go with my mom and I to the bahamas on a 4 day cruise with carnival cruise line to see dolphins and water that was as minty green and translucent like an unused yet overly clean  swimming pool.,Pla a solo game on my PC after work,0.03,0.02,4.4,0,,,,
,,6722ca2b1f3ebd2d544608c3,6685aa9113c938e83b4f1ea0,672c16f030faac29eec5f213,2024-11-06_19h26.23.687,WTP_SM_Choice,2022.2.1,MacIntel,61.34969325,,,,,,,,,,,,,,,,,,59,,,,,,,,,,0.02,2,0.6092,0,3,3,3,1,Go with my mom and I to the bahamas on a 4 day cruise with carnival cruise line to see dolphins and water that was as minty green and translucent like an unused yet overly clean  swimming pool.,Do home workouts by following a youtube video guide for 30 minutes each day on my yoga mat,0.04,0.02,4.4,0,,,,
,,6722ca2b1f3ebd2d544608c3,6685aa9113c938e83b4f1ea0,672c16f030faac29eec5f213,2024-11-06_19h26.23.687,WTP_SM_Choice,2022.2.1,MacIntel,61.34969325,,,,,,,,,,,,,,,,,,60,,,,,,,,,,0.02,2,0.6095,0,4,4,4,1,Take a out of town trip with my family to florida and walk around disney world for a week and stay at a water resort,Do home workouts by following a youtube video guide for 30 minutes each day on my yoga mat,0.05,0.02,1.1,0,,,,
,,6722ca2b1f3ebd2d544608c3,6685aa9113c938e83b4f1ea0,672c16f030faac29eec5f213,2024-11-06_19h26.23.687,WTP_SM_Choice,2022.2.1,MacIntel,61.34969325,,,,,,,NAN,,NAN,1.29,4.71,,0,59,59,59,1,60,Alex,Acc,Participant_Images/6722ca2b1f3ebd2d544608c3/6722ca2b1f3ebd2d544608c3_Images/6722ca2b1f3ebd2d544608c3_Image_9.jpeg,liked,1.661473164,,,,,,,,,,,,,,,,,,,,,,
,,6722ca2b1f3ebd2d544608c3,6685aa9113c938e83b4f1ea0,672c16f030faac29eec5f213,2024-11-06_19h26.23.687,WTP_SM_Choice,2022.2.1,MacIntel,61.34969325,,,,,space,0.3561,NAN,,NAN,1.29,4.71,,0,60,60,60,1,61,Alex,Acc,Participant_Images/6722ca2b1f3ebd2d544608c3/6722ca2b1f3ebd2d544608c3_Images/6722ca2b1f3ebd2d544608c3_Image_13.jpeg,liked,3.613205605,,,,,,,,,,,,,,,,,,,,,,
,,6722ca2b1f3ebd2d544608c3,6685aa9113c938e83b4f1ea0,672c16f030faac29eec5f213,2024-11-06_19h26.23.687,WTP_SM_Choice,2022.2.1,MacIntel,61.34969325,,,,,space,0.3246,NAN,,NAN,1.29,4.71,,0,61,61,61,1,62,Alex,Acc,Participant_Images/6722ca2b1f3ebd2d544608c3/6722ca2b1f3ebd2d544608c3_Images/6722ca2b1f3ebd2d544608c3_Image_10.jpeg,did not like,4.988446431,,,,,,,,,,,,,,,,,,,,,,
,,6722ca2b1f3ebd2d544608c3,6685aa9113c938e83b4f1ea0,672c16f030faac29eec5f213,2024-11-06_19h26.23.687,WTP_SM_Choice,2022.2.1,MacIntel,61.34969325,,,,,space,0.351,NAN,,NAN,1.29,4.71,,0,62,62,62,1,63,Alex,Acc,Participant_Images/6722ca2b1f3ebd2d544608c3/6722ca2b1f3ebd2d544608c3_Images/6722ca2b1f3ebd2d544608c3_Image_24.jpeg,liked,3.470791822,,,,,,,,,,,,,,,,,,,,,,
,,6722ca2b1f3ebd2d544608c3,6685aa9113c938e83b4f1ea0,672c16f030faac29eec5f213,2024-11-06_19h26.23.687,WTP_SM_Choice,2022.2.1,MacIntel,61.34969325,,,,,space,0.3571,NAN,,NAN,1.29,4.71,,0,63,63,63,1,64,Alex,Acc,Participant_Images/6722ca2b1f3ebd2d544608c3/6722ca2b1f3ebd2d544608c3_Images/6722ca2b1f3ebd2d544608c3_Image_23.jpeg,did not like,3.820572462,,,,,,,,,,,,,,,,,,,,,,
,,6722ca2b1f3ebd2d544608c3,6685aa9113c938e83b4f1ea0,672c16f030faac29eec5f213,2024-11-06_19h26.23.687,WTP_SM_Choice,2022.2.1,MacIntel,61.34969325,,,,,,,,,,,,,,,,,,61,,,,,,space,0.5123,space,0.4867,0.01,1,1.2202,0,0,0,0,1,Brew thai leaves to make my favorite drink on a calm and cozy morning,Go with my mom and I to the bahamas on a 4 day cruise with carnival cruise line to see dolphins and water that was as minty green and translucent like an unused yet overly clean  swimming pool.,0.01,0.03,3.3,1,,,,
,,6722ca2b1f3ebd2d544608c3,6685aa9113c938e83b4f1ea0,672c16f030faac29eec5f213,2024-11-06_19h26.23.687,WTP_SM_Choice,2022.2.1,MacIntel,61.34969325,,,,,,,,,,,,,,,,,,62,,,,,,,,,,0.02,1,0.8917,0,1,1,1,1,Host a friends giving potluck dinner with friends to celebrate the joy of being together as friends,Journal my goals thoughts and future events,0.02,0.03,3.3,0,,,,
,,6722ca2b1f3ebd2d544608c3,6685aa9113c938e83b4f1ea0,672c16f030faac29eec5f213,2024-11-06_19h26.23.687,WTP_SM_Choice,2022.2.1,MacIntel,61.34969325,,,,,,,,,,,,,,,,,,63,,,,,,,,,,0.03,1,1.6196,0,2,2,2,1,On a Friday night preparing homemade caramel popcorn hot cocoa and steak tv dinner with my significant other watching rom com movies,Take a stroll in my neighborhood park on a sunny afternoon,0.03,0.03,3.3,0,,,,
,,6722ca2b1f3ebd2d544608c3,6685aa9113c938e83b4f1ea0,672c16f030faac29eec5f213,2024-11-06_19h26.23.687,WTP_SM_Choice,2022.2.1,MacIntel,61.34969325,,,,,,,,,,,,,,,,,,64,,,,,,,,,,0.03,2,1.1187,0,3,3,3,1,Do chores while blasting music on alexa,Watch Harry Potter movie marathons with my significant other on our comfy couch all day on the weekends from morning till night with homemade pasta and drinks on the coffee table,0.04,0.03,1.1,1,,,,
,,6722ca2b1f3ebd2d544608c3,6685aa9113c938e83b4f1ea0,672c16f030faac29eec5f213,2024-11-06_19h26.23.687,WTP_SM_Choice,2022.2.1,MacIntel,61.34969325,,,,,,,,,,,,,,,,,,65,,,,,,,,,,0.03,2,0.9496,0,4,4,4,1,Brew thai leaves to make my favorite drink on a calm and cozy morning,Host a friends giving potluck dinner with friends to celebrate the joy of being together as friends,0.05,0.03,1.1,1,,,,
,,6722ca2b1f3ebd2d544608c3,6685aa9113c938e83b4f1ea0,672c16f030faac29eec5f213,2024-11-06_19h26.23.687,WTP_SM_Choice,2022.2.1,MacIntel,61.34969325,,,,,,,NAN,,NAN,1.41,4.59,,0,64,64,64,1,65,Alex,Acc,Participant_Images/6722ca2b1f3ebd2d544608c3/6722ca2b1f3ebd2d544608c3_Images/6722ca2b1f3ebd2d544608c3_Image_5.jpeg,did not like,2.455989137,,,,,,,,,,,,,,,,,,,,,,
,,6722ca2b1f3ebd2d544608c3,6685aa9113c938e83b4f1ea0,672c16f030faac29eec5f213,2024-11-06_19h26.23.687,WTP_SM_Choice,2022.2.1,MacIntel,61.34969325,,,,,space,0.5853,NAN,,NAN,1.41,4.59,,0,65,65,65,1,66,Alex,Acc,Participant_Images/6722ca2b1f3ebd2d544608c3/6722ca2b1f3ebd2d544608c3_Images/6722ca2b1f3ebd2d544608c3_Image_15.jpeg,liked,3.79605092,,,,,,,,,,,,,,,,,,,,,,
,,6722ca2b1f3ebd2d544608c3,6685aa9113c938e83b4f1ea0,672c16f030faac29eec5f213,2024-11-06_19h26.23.687,WTP_SM_Choice,2022.2.1,MacIntel,61.34969325,,,,,space,0.3562,NAN,,NAN,1.41,4.59,,0,66,66,66,1,67,Alex,Acc,Participant_Images/6722ca2b1f3ebd2d544608c3/6722ca2b1f3ebd2d544608c3_Images/6722ca2b1f3ebd2d544608c3_Image_7.jpeg,liked,3.562416326,,,,,,,,,,,,,,,,,,,,,,
,,6722ca2b1f3ebd2d544608c3,6685aa9113c938e83b4f1ea0,672c16f030faac29eec5f213,2024-11-06_19h26.23.687,WTP_SM_Choice,2022.2.1,MacIntel,61.34969325,,,,,space,0.4151,NAN,,NAN,1.41,4.59,,0,67,67,67,1,68,Alex,Acc,Participant_Images/6722ca2b1f3ebd2d544608c3/6722ca2b1f3ebd2d544608c3_Images/6722ca2b1f3ebd2d544608c3_Image_16.jpeg,liked,2.843822497,,,,,,,,,,,,,,,,,,,,,,
,,6722ca2b1f3ebd2d544608c3,6685aa9113c938e83b4f1ea0,672c16f030faac29eec5f213,2024-11-06_19h26.23.687,WTP_SM_Choice,2022.2.1,MacIntel,61.34969325,,,,,space,0.4077,NAN,,NAN,1.41,4.59,,0,68,68,68,1,69,Alex,Acc,Participant_Images/6722ca2b1f3ebd2d544608c3/6722ca2b1f3ebd2d544608c3_Images/6722ca2b1f3ebd2d544608c3_Image_3.jpeg,liked,3.546495948,,,,,,,,,,,,,,,,,,,,,,
,,6722ca2b1f3ebd2d544608c3,6685aa9113c938e83b4f1ea0,672c16f030faac29eec5f213,2024-11-06_19h26.23.687,WTP_SM_Choice,2022.2.1,MacIntel,61.34969325,,,,,,,,,,,,,,,,,,66,,,,,,space,0.5032,space,0.5409,0.01,1,0.7678,0,0,0,0,1,Watch Harry Potter movie marathons with my significant other on our comfy couch all day on the weekends from morning till night with homemade pasta and drinks on the coffee table,Read about new podcasters and credited books that talk about my career interests to be up to date on new ideologies and systems,0.01,0.04,1.1,0,,,,
,,6722ca2b1f3ebd2d544608c3,6685aa9113c938e83b4f1ea0,672c16f030faac29eec5f213,2024-11-06_19h26.23.687,WTP_SM_Choice,2022.2.1,MacIntel,61.34969325,,,,,,,,,,,,,,,,,,67,,,,,,,,,,0.02,1,1.0724,0,1,1,1,1,Play a couple rounds of badminton at my university with some friendly classmates after classes end,Journal my goals thoughts and future events,0.02,0.04,8.8,0,,,,
,,6722ca2b1f3ebd2d544608c3,6685aa9113c938e83b4f1ea0,672c16f030faac29eec5f213,2024-11-06_19h26.23.687,WTP_SM_Choice,2022.2.1,MacIntel,61.34969325,,,,,,,,,,,,,,,,,,68,,,,,,,,,,0.03,1,0.9073,0,2,2,2,1,Do chores while blasting music on alexa,Play and communicate through Discord with online friends and play steam games together in the middle of the night,0.03,0.04,4.4,1,,,,
,,6722ca2b1f3ebd2d544608c3,6685aa9113c938e83b4f1ea0,672c16f030faac29eec5f213,2024-11-06_19h26.23.687,WTP_SM_Choice,2022.2.1,MacIntel,61.34969325,,,,,,,,,,,,,,,,,,69,,,,,,,,,,0.04,1,0.7232,0,3,3,3,1,Watch Harry Potter movie marathons with my significant other on our comfy couch all day on the weekends from morning till night with homemade pasta and drinks on the coffee table,Take a stroll in my neighborhood park on a sunny afternoon,0.04,0.04,1.1,0,,,,
,,6722ca2b1f3ebd2d544608c3,6685aa9113c938e83b4f1ea0,672c16f030faac29eec5f213,2024-11-06_19h26.23.687,WTP_SM_Choice,2022.2.1,MacIntel,61.34969325,,,,,,,,,,,,,,,,,,70,,,,,,,,,,0.04,2,1.308,0,4,4,4,1,Read true crime studies on a dark rainy night in bed,Take a out of town trip with my family to florida and walk around disney world for a week and stay at a water resort,0.05,0.04,1.1,1,,,,
,,6722ca2b1f3ebd2d544608c3,6685aa9113c938e83b4f1ea0,672c16f030faac29eec5f213,2024-11-06_19h26.23.687,WTP_SM_Choice,2022.2.1,MacIntel,61.34969325,,,,,,,NAN,,NAN,1.55,4.45,,0,69,69,69,1,70,Alex,Acc,Participant_Images/6722ca2b1f3ebd2d544608c3/6722ca2b1f3ebd2d544608c3_Images/6722ca2b1f3ebd2d544608c3_Image_4.jpeg,liked,1.672012706,,,,,,,,,,,,,,,,,,,,,,
,,6722ca2b1f3ebd2d544608c3,6685aa9113c938e83b4f1ea0,672c16f030faac29eec5f213,2024-11-06_19h26.23.687,WTP_SM_Choice,2022.2.1,MacIntel,61.34969325,,,,,space,0.4219,NAN,,NAN,1.55,4.45,,0,70,70,70,1,71,Alex,Acc,Participant_Images/6722ca2b1f3ebd2d544608c3/6722ca2b1f3ebd2d544608c3_Images/6722ca2b1f3ebd2d544608c3_Image_22.jpeg,liked,4.942172136,,,,,,,,,,,,,,,,,,,,,,
,,6722ca2b1f3ebd2d544608c3,6685aa9113c938e83b4f1ea0,672c16f030faac29eec5f213,2024-11-06_19h26.23.687,WTP_SM_Choice,2022.2.1,MacIntel,61.34969325,,,,,space,0.3884,NAN,,NAN,1.55,4.45,,0,71,71,71,1,72,Alex,Acc,Participant_Images/6722ca2b1f3ebd2d544608c3/6722ca2b1f3ebd2d544608c3_Images/6722ca2b1f3ebd2d544608c3_Image_21.jpeg,liked,2.50187214,,,,,,,,,,,,,,,,,,,,,,
,,6722ca2b1f3ebd2d544608c3,6685aa9113c938e83b4f1ea0,672c16f030faac29eec5f213,2024-11-06_19h26.23.687,WTP_SM_Choice,2022.2.1,MacIntel,61.34969325,,,,,space,0.437,NAN,,NAN,1.55,4.45,,0,72,72,72,1,73,Alex,Acc,Participant_Images/6722ca2b1f3ebd2d544608c3/6722ca2b1f3ebd2d544608c3_Images/6722ca2b1f3ebd2d544608c3_Image_12.jpeg,liked,2.071164779,,,,,,,,,,,,,,,,,,,,,,
,,6722ca2b1f3ebd2d544608c3,6685aa9113c938e83b4f1ea0,672c16f030faac29eec5f213,2024-11-06_19h26.23.687,WTP_SM_Choice,2022.2.1,MacIntel,61.34969325,,,,,space,0.5149,NAN,,NAN,1.55,4.45,,0,73,73,73,1,74,Alex,Acc,Participant_Images/6722ca2b1f3ebd2d544608c3/6722ca2b1f3ebd2d544608c3_Images/6722ca2b1f3ebd2d544608c3_Image_11.jpeg,liked,5.336503566,,,,,,,,,,,,,,,,,,,,,,
,,6722ca2b1f3ebd2d544608c3,6685aa9113c938e83b4f1ea0,672c16f030faac29eec5f213,2024-11-06_19h26.23.687,WTP_SM_Choice,2022.2.1,MacIntel,61.34969325,,,,,,,,,,,,,,,,,,71,,,,,,space,0.5473,space,0.4662,0.01,1,0.9409,0,0,0,0,1,Pla a solo game on my PC after work,Go to a coffee shop to study with a friend and catch up on life for a few hours on a rainy afternoon,0.01,0.05,3.3,1,,,,
,,6722ca2b1f3ebd2d544608c3,6685aa9113c938e83b4f1ea0,672c16f030faac29eec5f213,2024-11-06_19h26.23.687,WTP_SM_Choice,2022.2.1,MacIntel,61.34969325,,,,,,,,,,,,,,,,,,72,,,,,,,,,,0.02,1,0.8211,0,1,1,1,1,Play a couple rounds of badminton at my university with some friendly classmates after classes end,Meditate to release my body from stress thoughts and emotions for a short period of time in an empty and quiet room ,0.02,0.05,8.8,0,,,,
,,6722ca2b1f3ebd2d544608c3,6685aa9113c938e83b4f1ea0,672c16f030faac29eec5f213,2024-11-06_19h26.23.687,WTP_SM_Choice,2022.2.1,MacIntel,61.34969325,,,,,,,,,,,,,,,,,,73,,,,,,,,,,0.03,1,0.9582,0,2,2,2,1,Do chores while blasting music on alexa,Take a out of town trip with my family to florida and walk around disney world for a week and stay at a water resort,0.03,0.05,3.3,1,,,,
,,6722ca2b1f3ebd2d544608c3,6685aa9113c938e83b4f1ea0,672c16f030faac29eec5f213,2024-11-06_19h26.23.687,WTP_SM_Choice,2022.2.1,MacIntel,61.34969325,,,,,,,,,,,,,,,,,,74,,,,,,,,,,0.04,1,0.9701,0,3,3,3,1,Go with my mom and I to the bahamas on a 4 day cruise with carnival cruise line to see dolphins and water that was as minty green and translucent like an unused yet overly clean  swimming pool.,Journal my goals thoughts and future events,0.04,0.05,4.4,0,,,,
,,6722ca2b1f3ebd2d544608c3,6685aa9113c938e83b4f1ea0,672c16f030faac29eec5f213,2024-11-06_19h26.23.687,WTP_SM_Choice,2022.2.1,MacIntel,61.34969325,,,,,,,,,,,,,,,,,,75,,,,,,,,,,0.05,2,2.421,0,4,4,4,1,Host a friends giving potluck dinner with friends to celebrate the joy of being together as friends,Take a stroll in my neighborhood park on a sunny afternoon,0.05,0.05,3.3,0,,,,
,,6722ca2b1f3ebd2d544608c3,6685aa9113c938e83b4f1ea0,672c16f030faac29eec5f213,2024-11-06_19h26.23.687,WTP_SM_Choice,2022.2.1,MacIntel,61.34969325,,,,,,,4,,7,1.7,4.3,,0,74,74,74,1,75,Alex,Acc,Participant_Images/6722ca2b1f3ebd2d544608c3/6722ca2b1f3ebd2d544608c3_Images/6722ca2b1f3ebd2d544608c3_Image_8.jpeg,liked,2.642157193,,,,,,,,,,,,,,,,,,,space,0.8514,,
,,6722ca2b1f3ebd2d544608c3,6685aa9113c938e83b4f1ea0,672c16f030faac29eec5f213,2024-11-06_19h26.23.687,WTP_SM_Choice,2022.2.1,MacIntel,61.34969325,,,space,1.1649,space,0.3803,NAN,,NAN,1.7,4.3,,0,75,75,75,1,76,Riley,Rej,Participant_Images/6722ca2b1f3ebd2d544608c3/6722ca2b1f3ebd2d544608c3_Images/6722ca2b1f3ebd2d544608c3_Image_20.jpeg,did not like,4.456234322,,,,,,,,,,,,,,,,,,,,,,
,,6722ca2b1f3ebd2d544608c3,6685aa9113c938e83b4f1ea0,672c16f030faac29eec5f213,2024-11-06_19h26.23.687,WTP_SM_Choice,2022.2.1,MacIntel,61.34969325,,,,,space,0.4147,NAN,,NAN,1.7,4.3,,0,76,76,76,1,77,Riley,Rej,Participant_Images/6722ca2b1f3ebd2d544608c3/6722ca2b1f3ebd2d544608c3_Images/6722ca2b1f3ebd2d544608c3_Image_4.jpeg,liked,4.438512181,,,,,,,,,,,,,,,,,,,,,,
,,6722ca2b1f3ebd2d544608c3,6685aa9113c938e83b4f1ea0,672c16f030faac29eec5f213,2024-11-06_19h26.23.687,WTP_SM_Choice,2022.2.1,MacIntel,61.34969325,,,,,space,0.4221,NAN,,NAN,1.7,4.3,,0,77,77,77,1,78,Riley,Rej,Participant_Images/6722ca2b1f3ebd2d544608c3/6722ca2b1f3ebd2d544608c3_Images/6722ca2b1f3ebd2d544608c3_Image_3.jpeg,did not like,2.682944783,,,,,,,,,,,,,,,,,,,,,,
,,6722ca2b1f3ebd2d544608c3,6685aa9113c938e83b4f1ea0,672c16f030faac29eec5f213,2024-11-06_19h26.23.687,WTP_SM_Choice,2022.2.1,MacIntel,61.34969325,,,,,space,0.3518,NAN,,NAN,1.7,4.3,,0,78,78,78,1,79,Riley,Rej,Participant_Images/6722ca2b1f3ebd2d544608c3/6722ca2b1f3ebd2d544608c3_Images/6722ca2b1f3ebd2d544608c3_Image_9.jpeg,did not like,4.51984296,,,,,,,,,,,,,,,,,,,,,,
,,6722ca2b1f3ebd2d544608c3,6685aa9113c938e83b4f1ea0,672c16f030faac29eec5f213,2024-11-06_19h26.23.687,WTP_SM_Choice,2022.2.1,MacIntel,61.34969325,,,,,,,,,,,,,,,,,,76,,,,,,space,1.5633,space,0.5235,0.01,2,1.0589,0,0,0,0,1,Go to a coffee shop to study with a friend and catch up on life for a few hours on a rainy afternoon,Read about new podcasters and credited books that talk about my career interests to be up to date on new ideologies and systems,0.01,0.01,1.1,0,,,,
,,6722ca2b1f3ebd2d544608c3,6685aa9113c938e83b4f1ea0,672c16f030faac29eec5f213,2024-11-06_19h26.23.687,WTP_SM_Choice,2022.2.1,MacIntel,61.34969325,,,,,,,,,,,,,,,,,,77,,,,,,,,,,0.01,2,1.2888,0,1,1,1,1,Go with my mom and I to the bahamas on a 4 day cruise with carnival cruise line to see dolphins and water that was as minty green and translucent like an unused yet overly clean  swimming pool.,Soak in a hot bubble bath with lavender aromas while netflix is playing on my laptop nearby,0.02,0.01,8.8,0,,,,
,,6722ca2b1f3ebd2d544608c3,6685aa9113c938e83b4f1ea0,672c16f030faac29eec5f213,2024-11-06_19h26.23.687,WTP_SM_Choice,2022.2.1,MacIntel,61.34969325,,,,,,,,,,,,,,,,,,78,,,,,,,,,,0.01,2,0.9409,0,2,2,2,1,Journal my goals thoughts and future events,Watch Harry Potter movie marathons with my significant other on our comfy couch all day on the weekends from morning till night with homemade pasta and drinks on the coffee table,0.03,0.01,1.1,1,,,,
,,6722ca2b1f3ebd2d544608c3,6685aa9113c938e83b4f1ea0,672c16f030faac29eec5f213,2024-11-06_19h26.23.687,WTP_SM_Choice,2022.2.1,MacIntel,61.34969325,,,,,,,,,,,,,,,,,,79,,,,,,,,,,0.01,2,1.0868,0,3,3,3,1,Brew thai leaves to make my favorite drink on a calm and cozy morning,Go to a coffee shop to study with a friend and catch up on life for a few hours on a rainy afternoon,0.04,0.01,1.1,1,,,,
,,6722ca2b1f3ebd2d544608c3,6685aa9113c938e83b4f1ea0,672c16f030faac29eec5f213,2024-11-06_19h26.23.687,WTP_SM_Choice,2022.2.1,MacIntel,61.34969325,,,,,,,,,,,,,,,,,,80,,,,,,,,,,0.01,2,0.8735,0,4,4,4,1,Host a friends giving potluck dinner with friends to celebrate the joy of being together as friends,Read about new podcasters and credited books that talk about my career interests to be up to date on new ideologies and systems,0.05,0.01,4.4,0,,,,
,,6722ca2b1f3ebd2d544608c3,6685aa9113c938e83b4f1ea0,672c16f030faac29eec5f213,2024-11-06_19h26.23.687,WTP_SM_Choice,2022.2.1,MacIntel,61.34969325,,,,,,,NAN,,NAN,1.75,4.25,,0,79,79,79,1,80,Riley,Rej,Participant_Images/6722ca2b1f3ebd2d544608c3/6722ca2b1f3ebd2d544608c3_Images/6722ca2b1f3ebd2d544608c3_Image_17.jpeg,did not like,3.195382774,,,,,,,,,,,,,,,,,,,,,,
,,6722ca2b1f3ebd2d544608c3,6685aa9113c938e83b4f1ea0,672c16f030faac29eec5f213,2024-11-06_19h26.23.687,WTP_SM_Choice,2022.2.1,MacIntel,61.34969325,,,,,space,0.3699,NAN,,NAN,1.75,4.25,,0,80,80,80,1,81,Riley,Rej,Participant_Images/6722ca2b1f3ebd2d544608c3/6722ca2b1f3ebd2d544608c3_Images/6722ca2b1f3ebd2d544608c3_Image_22.jpeg,did not like,1.779333479,,,,,,,,,,,,,,,,,,,,,,
,,6722ca2b1f3ebd2d544608c3,6685aa9113c938e83b4f1ea0,672c16f030faac29eec5f213,2024-11-06_19h26.23.687,WTP_SM_Choice,2022.2.1,MacIntel,61.34969325,,,,,space,0.9052,NAN,,NAN,1.75,4.25,,0,81,81,81,1,82,Riley,Rej,Participant_Images/6722ca2b1f3ebd2d544608c3/6722ca2b1f3ebd2d544608c3_Images/6722ca2b1f3ebd2d544608c3_Image_19.jpeg,did not like,4.312468682,,,,,,,,,,,,,,,,,,,,,,
,,6722ca2b1f3ebd2d544608c3,6685aa9113c938e83b4f1ea0,672c16f030faac29eec5f213,2024-11-06_19h26.23.687,WTP_SM_Choice,2022.2.1,MacIntel,61.34969325,,,,,space,0.5197,NAN,,NAN,1.75,4.25,,0,82,82,82,1,83,Riley,Rej,Participant_Images/6722ca2b1f3ebd2d544608c3/6722ca2b1f3ebd2d544608c3_Images/6722ca2b1f3ebd2d544608c3_Image_5.jpeg,did not like,4.940433059,,,,,,,,,,,,,,,,,,,,,,
,,6722ca2b1f3ebd2d544608c3,6685aa9113c938e83b4f1ea0,672c16f030faac29eec5f213,2024-11-06_19h26.23.687,WTP_SM_Choice,2022.2.1,MacIntel,61.34969325,,,,,space,0.6072,NAN,,NAN,1.75,4.25,,0,83,83,83,1,84,Riley,Rej,Participant_Images/6722ca2b1f3ebd2d544608c3/6722ca2b1f3ebd2d544608c3_Images/6722ca2b1f3ebd2d544608c3_Image_18.jpeg,liked,2.7105123,,,,,,,,,,,,,,,,,,,,,,
,,6722ca2b1f3ebd2d544608c3,6685aa9113c938e83b4f1ea0,672c16f030faac29eec5f213,2024-11-06_19h26.23.687,WTP_SM_Choice,2022.2.1,MacIntel,61.34969325,,,,,,,,,,,,,,,,,,81,,,,,,space,0.6316,space,0.4501,0.01,1,0.7842,0,0,0,0,1,Soak in a hot bubble bath with lavender aromas while netflix is playing on my laptop nearby,Play a couple rounds of badminton at my university with some friendly classmates after classes end,0.01,0.02,3.3,1,,,,
,,6722ca2b1f3ebd2d544608c3,6685aa9113c938e83b4f1ea0,672c16f030faac29eec5f213,2024-11-06_19h26.23.687,WTP_SM_Choice,2022.2.1,MacIntel,61.34969325,,,,,,,,,,,,,,,,,,82,,,,,,,,,,0.02,1,1.273,0,1,1,1,1,Play and communicate through Discord with online friends and play steam games together in the middle of the night,Read true crime studies on a dark rainy night in bed,0.02,0.02,4.4,0,,,,
,,6722ca2b1f3ebd2d544608c3,6685aa9113c938e83b4f1ea0,672c16f030faac29eec5f213,2024-11-06_19h26.23.687,WTP_SM_Choice,2022.2.1,MacIntel,61.34969325,,,,,,,,,,,,,,,,,,83,,,,,,,,,,0.02,2,0.7521,0,2,2,2,1,Brew thai leaves to make my favorite drink on a calm and cozy morning,Bring the pets out to the empty but spacious neighborhood park with my significant other and run around until we all wear out on a sunny afternoon,0.03,0.02,1.1,1,,,,
,,6722ca2b1f3ebd2d544608c3,6685aa9113c938e83b4f1ea0,672c16f030faac29eec5f213,2024-11-06_19h26.23.687,WTP_SM_Choice,2022.2.1,MacIntel,61.34969325,,,,,,,,,,,,,,,,,,84,,,,,,,,,,0.02,2,0.7919,0,3,3,3,1,Do chores while blasting music on alexa,Bring the pets out to the empty but spacious neighborhood park with my significant other and run around until we all wear out on a sunny afternoon,0.04,0.02,3.3,1,,,,
,,6722ca2b1f3ebd2d544608c3,6685aa9113c938e83b4f1ea0,672c16f030faac29eec5f213,2024-11-06_19h26.23.687,WTP_SM_Choice,2022.2.1,MacIntel,61.34969325,,,,,,,,,,,,,,,,,,85,,,,,,,,,,0.02,2,0.5578,0,4,4,4,1,Pla a solo game on my PC after work,Play a couple rounds of badminton at my university with some friendly classmates after classes end,0.05,0.02,3.3,1,,,,
,,6722ca2b1f3ebd2d544608c3,6685aa9113c938e83b4f1ea0,672c16f030faac29eec5f213,2024-11-06_19h26.23.687,WTP_SM_Choice,2022.2.1,MacIntel,61.34969325,,,,,,,NAN,,NAN,1.84,4.16,,0,84,84,84,1,85,Riley,Rej,Participant_Images/6722ca2b1f3ebd2d544608c3/6722ca2b1f3ebd2d544608c3_Images/6722ca2b1f3ebd2d544608c3_Image_8.jpeg,did not like,3.602308302,,,,,,,,,,,,,,,,,,,,,,
,,6722ca2b1f3ebd2d544608c3,6685aa9113c938e83b4f1ea0,672c16f030faac29eec5f213,2024-11-06_19h26.23.687,WTP_SM_Choice,2022.2.1,MacIntel,61.34969325,,,,,space,1.1763,NAN,,NAN,1.84,4.16,,0,85,85,85,1,86,Riley,Rej,Participant_Images/6722ca2b1f3ebd2d544608c3/6722ca2b1f3ebd2d544608c3_Images/6722ca2b1f3ebd2d544608c3_Image_13.jpeg,did not like,4.106391878,,,,,,,,,,,,,,,,,,,,,,
,,6722ca2b1f3ebd2d544608c3,6685aa9113c938e83b4f1ea0,672c16f030faac29eec5f213,2024-11-06_19h26.23.687,WTP_SM_Choice,2022.2.1,MacIntel,61.34969325,,,,,space,0.4343,NAN,,NAN,1.84,4.16,,0,86,86,86,1,87,Riley,Rej,Participant_Images/6722ca2b1f3ebd2d544608c3/6722ca2b1f3ebd2d544608c3_Images/6722ca2b1f3ebd2d544608c3_Image_16.jpeg,did not like,3.799433026,,,,,,,,,,,,,,,,,,,,,,
,,6722ca2b1f3ebd2d544608c3,6685aa9113c938e83b4f1ea0,672c16f030faac29eec5f213,2024-11-06_19h26.23.687,WTP_SM_Choice,2022.2.1,MacIntel,61.34969325,,,,,space,0.3851,NAN,,NAN,1.84,4.16,,0,87,87,87,1,88,Riley,Rej,Participant_Images/6722ca2b1f3ebd2d544608c3/6722ca2b1f3ebd2d544608c3_Images/6722ca2b1f3ebd2d544608c3_Image_11.jpeg,did not like,5.246980764,,,,,,,,,,,,,,,,,,,,,,
,,6722ca2b1f3ebd2d544608c3,6685aa9113c938e83b4f1ea0,672c16f030faac29eec5f213,2024-11-06_19h26.23.687,WTP_SM_Choice,2022.2.1,MacIntel,61.34969325,,,,,space,0.4574,NAN,,NAN,1.84,4.16,,0,88,88,88,1,89,Riley,Rej,Participant_Images/6722ca2b1f3ebd2d544608c3/6722ca2b1f3ebd2d544608c3_Images/6722ca2b1f3ebd2d544608c3_Image_1.jpeg,did not like,3.30081769,,,,,,,,,,,,,,,,,,,,,,
,,6722ca2b1f3ebd2d544608c3,6685aa9113c938e83b4f1ea0,672c16f030faac29eec5f213,2024-11-06_19h26.23.687,WTP_SM_Choice,2022.2.1,MacIntel,61.34969325,,,,,,,,,,,,,,,,,,86,,,,,,space,0.7177,space,0.3328,0.01,1,0.7578,0,0,0,0,1,Go to a coffee shop to study with a friend and catch up on life for a few hours on a rainy afternoon,Meditate to release my body from stress thoughts and emotions for a short period of time in an empty and quiet room ,0.01,0.03,1.1,0,,,,
,,6722ca2b1f3ebd2d544608c3,6685aa9113c938e83b4f1ea0,672c16f030faac29eec5f213,2024-11-06_19h26.23.687,WTP_SM_Choice,2022.2.1,MacIntel,61.34969325,,,,,,,,,,,,,,,,,,87,,,,,,,,,,0.02,1,1.1735,0,1,1,1,1,On a Friday night preparing homemade caramel popcorn hot cocoa and steak tv dinner with my significant other watching rom com movies,Do chores while blasting music on alexa,0.02,0.03,4.4,0,,,,
,,6722ca2b1f3ebd2d544608c3,6685aa9113c938e83b4f1ea0,672c16f030faac29eec5f213,2024-11-06_19h26.23.687,WTP_SM_Choice,2022.2.1,MacIntel,61.34969325,,,,,,,,,,,,,,,,,,88,,,,,,,,,,0.03,2,4.6066,0,2,2,2,1,Bring the pets out to the empty but spacious neighborhood park with my significant other and run around until we all wear out on a sunny afternoon,Meditate to release my body from stress thoughts and emotions for a short period of time in an empty and quiet room ,0.03,0.03,1.1,0,,,,
,,6722ca2b1f3ebd2d544608c3,6685aa9113c938e83b4f1ea0,672c16f030faac29eec5f213,2024-11-06_19h26.23.687,WTP_SM_Choice,2022.2.1,MacIntel,61.34969325,,,,,,,,,,,,,,,,,,89,,,,,,,,,,0.03,2,1.1899,0,3,3,3,1,Journal my goals thoughts and future events,Go to a coffee shop to study with a friend and catch up on life for a few hours on a rainy afternoon,0.04,0.03,3.3,1,,,,
,,6722ca2b1f3ebd2d544608c3,6685aa9113c938e83b4f1ea0,672c16f030faac29eec5f213,2024-11-06_19h26.23.687,WTP_SM_Choice,2022.2.1,MacIntel,61.34969325,,,,,,,,,,,,,,,,,,90,,,,,,,,,,0.03,2,1.0543,0,4,4,4,1,Pla a solo game on my PC after work,Go out to dinner at UMIs a seafood buffet with my family,0.05,0.03,8.8,1,,,,
,,6722ca2b1f3ebd2d544608c3,6685aa9113c938e83b4f1ea0,672c16f030faac29eec5f213,2024-11-06_19h26.23.687,WTP_SM_Choice,2022.2.1,MacIntel,61.34969325,,,,,,,NAN,,NAN,1.96,4.04,,0,89,89,89,1,90,Riley,Rej,Participant_Images/6722ca2b1f3ebd2d544608c3/6722ca2b1f3ebd2d544608c3_Images/6722ca2b1f3ebd2d544608c3_Image_2.jpeg,liked,1.661473164,,,,,,,,,,,,,,,,,,,,,,
,,6722ca2b1f3ebd2d544608c3,6685aa9113c938e83b4f1ea0,672c16f030faac29eec5f213,2024-11-06_19h26.23.687,WTP_SM_Choice,2022.2.1,MacIntel,61.34969325,,,,,space,0.5327,NAN,,NAN,1.96,4.04,,0,90,90,90,1,91,Riley,Rej,Participant_Images/6722ca2b1f3ebd2d544608c3/6722ca2b1f3ebd2d544608c3_Images/6722ca2b1f3ebd2d544608c3_Image_7.jpeg,liked,3.613205605,,,,,,,,,,,,,,,,,,,,,,
,,6722ca2b1f3ebd2d544608c3,6685aa9113c938e83b4f1ea0,672c16f030faac29eec5f213,2024-11-06_19h26.23.687,WTP_SM_Choice,2022.2.1,MacIntel,61.34969325,,,,,space,0.3193,NAN,,NAN,1.96,4.04,,0,91,91,91,1,92,Riley,Rej,Participant_Images/6722ca2b1f3ebd2d544608c3/6722ca2b1f3ebd2d544608c3_Images/6722ca2b1f3ebd2d544608c3_Image_21.jpeg,did not like,4.988446431,,,,,,,,,,,,,,,,,,,,,,
,,6722ca2b1f3ebd2d544608c3,6685aa9113c938e83b4f1ea0,672c16f030faac29eec5f213,2024-11-06_19h26.23.687,WTP_SM_Choice,2022.2.1,MacIntel,61.34969325,,,,,space,0.4012,NAN,,NAN,1.96,4.04,,0,92,92,92,1,93,Riley,Rej,Participant_Images/6722ca2b1f3ebd2d544608c3/6722ca2b1f3ebd2d544608c3_Images/6722ca2b1f3ebd2d544608c3_Image_24.jpeg,did not like,3.470791822,,,,,,,,,,,,,,,,,,,,,,
,,6722ca2b1f3ebd2d544608c3,6685aa9113c938e83b4f1ea0,672c16f030faac29eec5f213,2024-11-06_19h26.23.687,WTP_SM_Choice,2022.2.1,MacIntel,61.34969325,,,,,space,0.3234,NAN,,NAN,1.96,4.04,,0,93,93,93,1,94,Riley,Rej,Participant_Images/6722ca2b1f3ebd2d544608c3/6722ca2b1f3ebd2d544608c3_Images/6722ca2b1f3ebd2d544608c3_Image_14.jpeg,did not like,3.820572462,,,,,,,,,,,,,,,,,,,,,,
,,6722ca2b1f3ebd2d544608c3,6685aa9113c938e83b4f1ea0,672c16f030faac29eec5f213,2024-11-06_19h26.23.687,WTP_SM_Choice,2022.2.1,MacIntel,61.34969325,,,,,,,,,,,,,,,,,,91,,,,,,space,0.5131,space,0.5483,0.01,1,1.2545,0,0,0,0,1,Brew thai leaves to make my favorite drink on a calm and cozy morning,Play and communicate through Discord with online friends and play steam games together in the middle of the night,0.01,0.04,3.3,1,,,,
,,6722ca2b1f3ebd2d544608c3,6685aa9113c938e83b4f1ea0,672c16f030faac29eec5f213,2024-11-06_19h26.23.687,WTP_SM_Choice,2022.2.1,MacIntel,61.34969325,,,,,,,,,,,,,,,,,,92,,,,,,,,,,0.02,1,0.7877,0,1,1,1,1,Go out to dinner at UMIs a seafood buffet with my family,Read true crime studies on a dark rainy night in bed,0.02,0.04,8.8,0,,,,
,,6722ca2b1f3ebd2d544608c3,6685aa9113c938e83b4f1ea0,672c16f030faac29eec5f213,2024-11-06_19h26.23.687,WTP_SM_Choice,2022.2.1,MacIntel,61.34969325,,,,,,,,,,,,,,,,,,93,,,,,,,,,,0.03,1,0.8722,0,2,2,2,1,Take a stroll in my neighborhood park on a sunny afternoon,Take a out of town trip with my family to florida and walk around disney world for a week and stay at a water resort,0.03,0.04,1.1,1,,,,
,,6722ca2b1f3ebd2d544608c3,6685aa9113c938e83b4f1ea0,672c16f030faac29eec5f213,2024-11-06_19h26.23.687,WTP_SM_Choice,2022.2.1,MacIntel,61.34969325,,,,,,,,,,,,,,,,,,94,,,,,,,,,,0.04,2,2.0355,0,3,3,3,1,Do chores while blasting music on alexa,Go out to dinner at UMIs a seafood buffet with my family,0.04,0.04,4.4,1,,,,
,,6722ca2b1f3ebd2d544608c3,6685aa9113c938e83b4f1ea0,672c16f030faac29eec5f213,2024-11-06_19h26.23.687,WTP_SM_Choice,2022.2.1,MacIntel,61.34969325,,,,,,,,,,,,,,,,,,95,,,,,,,,,,0.04,2,0.9706,0,4,4,4,1,Go out to dinner at UMIs a seafood buffet with my family,Soak in a hot bubble bath with lavender aromas while netflix is playing on my laptop nearby,0.05,0.04,4.4,0,,,,
,,6722ca2b1f3ebd2d544608c3,6685aa9113c938e83b4f1ea0,672c16f030faac29eec5f213,2024-11-06_19h26.23.687,WTP_SM_Choice,2022.2.1,MacIntel,61.34969325,,,,,,,NAN,,NAN,2.1,3.9,,0,94,94,94,1,95,Riley,Rej,Participant_Images/6722ca2b1f3ebd2d544608c3/6722ca2b1f3ebd2d544608c3_Images/6722ca2b1f3ebd2d544608c3_Image_15.jpeg,liked,2.455989137,,,,,,,,,,,,,,,,,,,,,,
,,6722ca2b1f3ebd2d544608c3,6685aa9113c938e83b4f1ea0,672c16f030faac29eec5f213,2024-11-06_19h26.23.687,WTP_SM_Choice,2022.2.1,MacIntel,61.34969325,,,,,space,0.6006,NAN,,NAN,2.1,3.9,,0,95,95,95,1,96,Riley,Rej,Participant_Images/6722ca2b1f3ebd2d544608c3/6722ca2b1f3ebd2d544608c3_Images/6722ca2b1f3ebd2d544608c3_Image_23.jpeg,liked,3.79605092,,,,,,,,,,,,,,,,,,,,,,
,,6722ca2b1f3ebd2d544608c3,6685aa9113c938e83b4f1ea0,672c16f030faac29eec5f213,2024-11-06_19h26.23.687,WTP_SM_Choice,2022.2.1,MacIntel,61.34969325,,,,,space,0.5841,NAN,,NAN,2.1,3.9,,0,96,96,96,1,97,Riley,Rej,Participant_Images/6722ca2b1f3ebd2d544608c3/6722ca2b1f3ebd2d544608c3_Images/6722ca2b1f3ebd2d544608c3_Image_25.jpeg,did not like,3.562416326,,,,,,,,,,,,,,,,,,,,,,
,,6722ca2b1f3ebd2d544608c3,6685aa9113c938e83b4f1ea0,672c16f030faac29eec5f213,2024-11-06_19h26.23.687,WTP_SM_Choice,2022.2.1,MacIntel,61.34969325,,,,,space,0.3302,NAN,,NAN,2.1,3.9,,0,97,97,97,1,98,Riley,Rej,Participant_Images/6722ca2b1f3ebd2d544608c3/6722ca2b1f3ebd2d544608c3_Images/6722ca2b1f3ebd2d544608c3_Image_10.jpeg,did not like,2.843822497,,,,,,,,,,,,,,,,,,,,,,
,,6722ca2b1f3ebd2d544608c3,6685aa9113c938e83b4f1ea0,672c16f030faac29eec5f213,2024-11-06_19h26.23.687,WTP_SM_Choice,2022.2.1,MacIntel,61.34969325,,,,,space,0.3509,NAN,,NAN,2.1,3.9,,0,98,98,98,1,99,Riley,Rej,Participant_Images/6722ca2b1f3ebd2d544608c3/6722ca2b1f3ebd2d544608c3_Images/6722ca2b1f3ebd2d544608c3_Image_6.jpeg,did not like,3.546495948,,,,,,,,,,,,,,,,,,,,,,
,,6722ca2b1f3ebd2d544608c3,6685aa9113c938e83b4f1ea0,672c16f030faac29eec5f213,2024-11-06_19h26.23.687,WTP_SM_Choice,2022.2.1,MacIntel,61.34969325,,,,,,,,,,,,,,,,,,96,,,,,,space,0.4212,space,0.4,0.01,1,0.8856,0,0,0,0,1,Meditate to release my body from stress thoughts and emotions for a short period of time in an empty and quiet room ,Watch Harry Potter movie marathons with my significant other on our comfy couch all day on the weekends from morning till night with homemade pasta and drinks on the coffee table,0.01,0.05,3.3,1,,,,
,,6722ca2b1f3ebd2d544608c3,6685aa9113c938e83b4f1ea0,672c16f030faac29eec5f213,2024-11-06_19h26.23.687,WTP_SM_Choice,2022.2.1,MacIntel,61.34969325,,,,,,,,,,,,,,,,,,97,,,,,,,,,,0.02,1,0.7267,0,1,1,1,1,Host a friends giving potluck dinner with friends to celebrate the joy of being together as friends,Read true crime studies on a dark rainy night in bed,0.02,0.05,1.1,0,,,,
,,6722ca2b1f3ebd2d544608c3,6685aa9113c938e83b4f1ea0,672c16f030faac29eec5f213,2024-11-06_19h26.23.687,WTP_SM_Choice,2022.2.1,MacIntel,61.34969325,,,,,,,,,,,,,,,,,,98,,,,,,,,,,0.03,1,0.7747,0,2,2,2,1,Play a couple rounds of badminton at my university with some friendly classmates after classes end,Read about new podcasters and credited books that talk about my career interests to be up to date on new ideologies and systems,0.03,0.05,1.1,0,,,,
,,6722ca2b1f3ebd2d544608c3,6685aa9113c938e83b4f1ea0,672c16f030faac29eec5f213,2024-11-06_19h26.23.687,WTP_SM_Choice,2022.2.1,MacIntel,61.34969325,,,,,,,,,,,,,,,,,,99,,,,,,,,,,0.04,1,0.8416,0,3,3,3,1,Take a out of town trip with my family to florida and walk around disney world for a week and stay at a water resort,Brew thai leaves to make my favorite drink on a calm and cozy morning,0.04,0.05,3.3,0,,,,
,,6722ca2b1f3ebd2d544608c3,6685aa9113c938e83b4f1ea0,672c16f030faac29eec5f213,2024-11-06_19h26.23.687,WTP_SM_Choice,2022.2.1,MacIntel,61.34969325,,,,,,,,,,,,,,,,,,100,,,,,,,,,,0.05,2,2.894,0,4,4,4,1,Play and communicate through Discord with online friends and play steam games together in the middle of the night,Do home workouts by following a youtube video guide for 30 minutes each day on my yoga mat,0.05,0.05,4.4,0,,,,
,,6722ca2b1f3ebd2d544608c3,6685aa9113c938e83b4f1ea0,672c16f030faac29eec5f213,2024-11-06_19h26.23.687,WTP_SM_Choice,2022.2.1,MacIntel,61.34969325,,,,,,,2,,4,2.25,3.75,,0,99,99,99,1,100,Riley,Rej,Participant_Images/6722ca2b1f3ebd2d544608c3/6722ca2b1f3ebd2d544608c3_Images/6722ca2b1f3ebd2d544608c3_Image_12.jpeg,liked,1.672012706,,,,,,,,,,,,,,,,,,,space,0.732,,
,,6722ca2b1f3ebd2d544608c3,6685aa9113c938e83b4f1ea0,672c16f030faac29eec5f213,2024-11-06_19h26.23.687,WTP_SM_Choice,2022.2.1,MacIntel,61.34969325,,,,,,,,,,,,,,,,,,,,,,,,,,,,,,,,,,,,,,,,,,,,space,2.2629
